"rt","stimulus","key_press","test_part","trial_type","trial_index","time_elapsed","internal_node_id","totalTime","subject","experiment_name","button_pressed","success","ahacond","currentStim","solvability","pressed","affect","rtfinal"
"4354.605000000447","Welcome to the experiment. This is an online experiment so please don't close the tab/window until we say goodbye.  Press any key to begin.","32","instructions","html-keyboard-response","0","4372","0.0-0.0","763997","59c3cfd7754a19000111ca78","solvability","","","","","","","",""
"19798.294999985956","<div style='word-wrap: break-word; width: 900px'><h3>Please consider this information carefully before deciding whether to participate in this research</h3><ul style='text-align: left; font-size: .8em;'><li><b>Purpose of the research</b>: To examine how people process images.</li><li><b>What you will do in this research</b>:  Stimuli (images) will be presented on the computer and you will be asked different questions about them.</li><li><b>Time required</b>: Participation will take between 10 and 20 minutes to complete.</li><li><b>Risks</b>:  There are no anticipated risks associated with participating in this study. The effects of participating should be comparable to those you would experience from viewing a computer monitor for 30 minutes and using a mouse or keyboard.</li><li><b>Benefits</b>:  This study provides no benefits to you individually except for the credit. The study provides important information about the nature of perception and learning.</li><li><b>Confidentiality</b>:  Your participation in this study will remain confidential. No personally identifiable information will be associated with your data. Your de-identified data may be shared with other researchers and used in future projects.</li><li><b>Participation and withdrawal</b>:  Your participation in this study is completely voluntary and you may refuse to participate or you may choose to withdraw at any time without penalty.</li><li><b>How to contact the researchers</b>: If you have questions or concerns about your participation or payment, or want to request a summary of research findings, please contact Sander Van de Cruys (University of Leuven), at sander.vandecruys@kuleuven.be.</li></ul><p>The nature and purpose of this research have been sufficiently explained and I agree to participate in this study.  I understand that I am free to withdraw at any time without incurring any penalty.</p><p>Please consent by clicking the button below to continue. Otherwise, please exit the study at this time.</p></div>","","instructions","html-button-response","1","24172","0.0-1.0","763997","59c3cfd7754a19000111ca78","solvability","0","","","","","","",""
"","","","instructions","fullscreen","2","26781","0.0-2.0","763997","59c3cfd7754a19000111ca78","solvability","","true","","","","","",""
"2396.984999999404","<p>Do you have any knowledge of chinese or japanese (written) language (hanzi, kanji, kana)?</p>","","chineseprior","html-button-response","3","29179","0.0-3.0","763997","59c3cfd7754a19000111ca78","solvability","1","","","","","","",""
"27376.685000024736","<div style='word-wrap: break-word; width: 900px'><h3>Instructions</h3><p>In this experiment you will have two tasks. You will see images like the one you can see on the left. These distorted images are derived from actual photographs as you can see on the right. First, you will <strong>briefly</strong> see the distorted image.</p> <div style='float: left; margin-right: 20px;'><img src='../img/018tt.jpg' height='250' width='250'></img></div><div style='float: right; margin-left: 20px;'><img src='../img/018gs.jpg' height='250' width='250'></img></div><p>Next, you will be asked to indicate whether or not you think you would be able to solve it (identify what's in the original photograph) if you would be allowed to view the image <strong>for as long as you wanted</strong>. Next you will briefly see the solution. After that, you will very briefly see a character from the Chinese alphabet. We are interested in <strong>how intuitive the meaning of those characters is</strong>. So you will have to indicate for each of these characters whether you think it represents <strong>something good/pleasant, or something bad/unpleasant</strong>. Try to go with your first, intuitive response. We realize these questions are difficult and require you to make a guess based on insufficient information, but there's no right or wrong answers. Just pay attention and make the guess that feels most right, you don't need to think about it too much. <p>Press any key to start a few practice trials.</p></div>","32","instructions","html-keyboard-response","4","56557","0.0-4.0","763997","59c3cfd7754a19000111ca78","solvability","","","","","","","",""
"null","<div style=""font-size:60px;""> </div>","null","fixation","html-keyboard-response","5","56760","0.0-5.0-0.0","763997","59c3cfd7754a19000111ca78","solvability","","","","","","","",""
"null","../img/tt/407tt.jpg","null","mooney1","image-keyboard-response","6","59766","0.0-5.0-1.0","763997","59c3cfd7754a19000111ca78","solvability","","","","","","","",""
"5156.575000029989","<p>Do you think you would be able to solve this image when given unlimited viewing time? <br><br>Press the <strong>N</strong>-key if ""rather no"", press the <strong>Y</strong>-key if ""rather yes"".</p>","78","solvability","html-keyboard-response","7","64926","0.0-5.0-2.0","763997","59c3cfd7754a19000111ca78","solvability","","","practice","../img/tt/407tt.jpg","0","","",""
"null","../img/tt/407tt.jpg","null","mooney2","image-keyboard-response","8","67429","0.0-5.0-3.0","763997","59c3cfd7754a19000111ca78","solvability","","","","","","","",""
"null","../img/gs/407gs.jpg","null","reveal","image-keyboard-response","9","67932","0.0-5.0-4.0","763997","59c3cfd7754a19000111ca78","solvability","","","","","","","",""
"null","../img/tt/407tt.jpg","null","mooney3","image-keyboard-response","10","69436","0.0-5.0-5.0","763997","59c3cfd7754a19000111ca78","solvability","","","","","","","",""
"null","","null","isi","html-keyboard-response","11","69638","0.0-5.0-6.0","763997","59c3cfd7754a19000111ca78","solvability","","","","","","","",""
"null","../solvability/picts/pict70.png","null","target","image-keyboard-response","12","70142","0.0-5.0-7.0","763997","59c3cfd7754a19000111ca78","solvability","","","practice","../img/tt/407tt.jpg","","0","",""
"5931.734999991022","<p>Do you think this character expresses something bad/unpleasant or something good/pleasant?<br><br>Press <strong>left arrow</strong> for something bad or unpleasant<br>Press <strong>right arrow</strong> for something good or pleasant. </p>","37","affect","html-keyboard-response","13","76077","0.0-5.0-8.0","763997","59c3cfd7754a19000111ca78","solvability","","","practice","../img/tt/407tt.jpg","","","0","6431.734999991022"
"null","<div style=""font-size:60px;""> </div>","null","fixation","html-keyboard-response","14","76283","0.0-5.0-0.1","763997","59c3cfd7754a19000111ca78","solvability","","","","","","","",""
"null","../img/tt/419tt.jpg","null","mooney1","image-keyboard-response","15","79286","0.0-5.0-1.1","763997","59c3cfd7754a19000111ca78","solvability","","","","","","","",""
"2492.3999999882653","<p>Do you think you would be able to solve this image when given unlimited viewing time? <br><br>Press the <strong>N</strong>-key if ""rather no"", press the <strong>Y</strong>-key if ""rather yes"".</p>","89","solvability","html-keyboard-response","16","81780","0.0-5.0-2.1","763997","59c3cfd7754a19000111ca78","solvability","","","practice","../img/tt/419tt.jpg","1","","",""
"null","../img/tt/419tt.jpg","null","mooney2","image-keyboard-response","17","84284","0.0-5.0-3.1","763997","59c3cfd7754a19000111ca78","solvability","","","","","","","",""
"null","../img/gs/419gs.jpg","null","reveal","image-keyboard-response","18","84787","0.0-5.0-4.1","763997","59c3cfd7754a19000111ca78","solvability","","","","","","","",""
"null","../img/tt/419tt.jpg","null","mooney3","image-keyboard-response","19","86290","0.0-5.0-5.1","763997","59c3cfd7754a19000111ca78","solvability","","","","","","","",""
"null","","null","isi","html-keyboard-response","20","86492","0.0-5.0-6.1","763997","59c3cfd7754a19000111ca78","solvability","","","","","","","",""
"null","../solvability/picts/pict71.png","null","target","image-keyboard-response","21","86996","0.0-5.0-7.1","763997","59c3cfd7754a19000111ca78","solvability","","","practice","../img/tt/419tt.jpg","","0","",""
"2023.1299999868497","<p>Do you think this character expresses something bad/unpleasant or something good/pleasant?<br><br>Press <strong>left arrow</strong> for something bad or unpleasant<br>Press <strong>right arrow</strong> for something good or pleasant. </p>","39","affect","html-keyboard-response","22","89021","0.0-5.0-8.1","763997","59c3cfd7754a19000111ca78","solvability","","","practice","../img/tt/419tt.jpg","","","1","2523.1299999868497"
"null","<div style=""font-size:60px;""> </div>","null","fixation","html-keyboard-response","23","89224","0.0-5.0-0.2","763997","59c3cfd7754a19000111ca78","solvability","","","","","","","",""
"null","../img/tt/1286tt.jpg","null","mooney1","image-keyboard-response","24","92228","0.0-5.0-1.2","763997","59c3cfd7754a19000111ca78","solvability","","","","","","","",""
"2501.0200000251643","<p>Do you think you would be able to solve this image when given unlimited viewing time? <br><br>Press the <strong>N</strong>-key if ""rather no"", press the <strong>Y</strong>-key if ""rather yes"".</p>","78","solvability","html-keyboard-response","25","94730","0.0-5.0-2.2","763997","59c3cfd7754a19000111ca78","solvability","","","practice","../img/tt/1286tt.jpg","0","","",""
"null","../img/tt/1286tt.jpg","null","mooney2","image-keyboard-response","26","97233","0.0-5.0-3.2","763997","59c3cfd7754a19000111ca78","solvability","","","","","","","",""
"null","../img/gs/1286gs.jpg","null","reveal","image-keyboard-response","27","97736","0.0-5.0-4.2","763997","59c3cfd7754a19000111ca78","solvability","","","","","","","",""
"null","../img/tt/1286tt.jpg","null","mooney3","image-keyboard-response","28","99239","0.0-5.0-5.2","763997","59c3cfd7754a19000111ca78","solvability","","","","","","","",""
"null","","null","isi","html-keyboard-response","29","99441","0.0-5.0-6.2","763997","59c3cfd7754a19000111ca78","solvability","","","","","","","",""
"null","../solvability/picts/pict68.png","null","target","image-keyboard-response","30","99943","0.0-5.0-7.2","763997","59c3cfd7754a19000111ca78","solvability","","","practice","../img/tt/1286tt.jpg","","0","",""
"2124.55000000773","<p>Do you think this character expresses something bad/unpleasant or something good/pleasant?<br><br>Press <strong>left arrow</strong> for something bad or unpleasant<br>Press <strong>right arrow</strong> for something good or pleasant. </p>","39","affect","html-keyboard-response","31","102069","0.0-5.0-8.2","763997","59c3cfd7754a19000111ca78","solvability","","","practice","../img/tt/1286tt.jpg","","","1","2624.55000000773"
"null","<div style=""font-size:60px;""> </div>","null","fixation","html-keyboard-response","32","102271","0.0-5.0-0.3","763997","59c3cfd7754a19000111ca78","solvability","","","","","","","",""
"null","../img/tt/1308tt.jpg","null","mooney1","image-keyboard-response","33","105276","0.0-5.0-1.3","763997","59c3cfd7754a19000111ca78","solvability","","","","","","","",""
"2046.4750000392087","<p>Do you think you would be able to solve this image when given unlimited viewing time? <br><br>Press the <strong>N</strong>-key if ""rather no"", press the <strong>Y</strong>-key if ""rather yes"".</p>","89","solvability","html-keyboard-response","34","107324","0.0-5.0-2.3","763997","59c3cfd7754a19000111ca78","solvability","","","practice","../img/tt/1308tt.jpg","1","","",""
"null","../img/tt/1308tt.jpg","null","mooney2","image-keyboard-response","35","109828","0.0-5.0-3.3","763997","59c3cfd7754a19000111ca78","solvability","","","","","","","",""
"null","../img/gs/1308gs.jpg","null","reveal","image-keyboard-response","36","110330","0.0-5.0-4.3","763997","59c3cfd7754a19000111ca78","solvability","","","","","","","",""
"null","../img/tt/1308tt.jpg","null","mooney3","image-keyboard-response","37","111831","0.0-5.0-5.3","763997","59c3cfd7754a19000111ca78","solvability","","","","","","","",""
"null","","null","isi","html-keyboard-response","38","112032","0.0-5.0-6.3","763997","59c3cfd7754a19000111ca78","solvability","","","","","","","",""
"null","../solvability/picts/pict69.png","null","target","image-keyboard-response","39","112534","0.0-5.0-7.3","763997","59c3cfd7754a19000111ca78","solvability","","","practice","../img/tt/1308tt.jpg","","0","",""
"1308.3350000088103","<p>Do you think this character expresses something bad/unpleasant or something good/pleasant?<br><br>Press <strong>left arrow</strong> for something bad or unpleasant<br>Press <strong>right arrow</strong> for something good or pleasant. </p>","39","affect","html-keyboard-response","40","113843","0.0-5.0-8.3","763997","59c3cfd7754a19000111ca78","solvability","","","practice","../img/tt/1308tt.jpg","","","1","1808.3350000088103"
"4472.535000008065","<div style='word-wrap: break-word; width: 900px'><h3>Instructions</h3><p>Ok, now you know what to do. Remember, we always want your first, intuitive response, don't think for too long. Keep the fingers of your left hand on the Y and N key, and those of your right hand on the left and right arrow key.</p></div>","37","instructions","html-keyboard-response","41","118316","0.0-6.0","763997","59c3cfd7754a19000111ca78","solvability","","","","","","","",""
"null","<div style=""font-size:60px;""> </div>","null","fixation","html-keyboard-response","42","118519","0.0-7.0-0.0","763997","59c3cfd7754a19000111ca78","solvability","","","","","","","",""
"null","../img/tt/517tt.jpg","null","mooney1","image-keyboard-response","43","121524","0.0-7.0-1.0","763997","59c3cfd7754a19000111ca78","solvability","","","","","","","",""
"685.3550000232644","<p>Do you think you would be able to solve this image when given unlimited viewing time? <br><br>Press the <strong>N</strong>-key if ""rather no"", press the <strong>Y</strong>-key if ""rather yes"".</p>","78","solvability","html-keyboard-response","44","122211","0.0-7.0-2.0","763997","59c3cfd7754a19000111ca78","solvability","","","NAHA","../img/tt/517tt.jpg","0","","",""
"null","../img/tt/517tt.jpg","null","mooney2","image-keyboard-response","45","124712","0.0-7.0-3.0","763997","59c3cfd7754a19000111ca78","solvability","","","","","","","",""
"null","../img/gs/517gs.jpg","null","reveal","image-keyboard-response","46","125215","0.0-7.0-4.0","763997","59c3cfd7754a19000111ca78","solvability","","","","","","","",""
"null","../img/tt/517tt.jpg","null","mooney3","image-keyboard-response","47","126718","0.0-7.0-5.0","763997","59c3cfd7754a19000111ca78","solvability","","","","","","","",""
"null","","null","isi","html-keyboard-response","48","126920","0.0-7.0-6.0","763997","59c3cfd7754a19000111ca78","solvability","","","","","","","",""
"null","../solvability/picts/pict34.png","null","target","image-keyboard-response","49","127423","0.0-7.0-7.0","763997","59c3cfd7754a19000111ca78","solvability","","","NAHA","../img/tt/517tt.jpg","","0","",""
"1635.680000006687","<p>Do you think this character expresses something bad/unpleasant or something good/pleasant?<br><br>Press <strong>left arrow</strong> for something bad or unpleasant<br>Press <strong>right arrow</strong> for something good or pleasant. </p>","39","affect","html-keyboard-response","50","129061","0.0-7.0-8.0","763997","59c3cfd7754a19000111ca78","solvability","","","NAHA","../img/tt/517tt.jpg","","","1","2135.680000006687"
"null","<div style=""font-size:60px;""> </div>","null","fixation","html-keyboard-response","51","129263","0.0-7.0-0.1","763997","59c3cfd7754a19000111ca78","solvability","","","","","","","",""
"null","../img/tt/1040tt.jpg","null","mooney1","image-keyboard-response","52","132267","0.0-7.0-1.1","763997","59c3cfd7754a19000111ca78","solvability","","","","","","","",""
"2423.6499999533407","<p>Do you think you would be able to solve this image when given unlimited viewing time? <br><br>Press the <strong>N</strong>-key if ""rather no"", press the <strong>Y</strong>-key if ""rather yes"".</p>","78","solvability","html-keyboard-response","53","134692","0.0-7.0-2.1","763997","59c3cfd7754a19000111ca78","solvability","","","HAHA","../img/tt/1040tt.jpg","0","","",""
"null","../img/tt/1040tt.jpg","null","mooney2","image-keyboard-response","54","137196","0.0-7.0-3.1","763997","59c3cfd7754a19000111ca78","solvability","","","","","","","",""
"null","../img/gs/1040gs.jpg","null","reveal","image-keyboard-response","55","137698","0.0-7.0-4.1","763997","59c3cfd7754a19000111ca78","solvability","","","","","","","",""
"null","../img/tt/1040tt.jpg","null","mooney3","image-keyboard-response","56","139200","0.0-7.0-5.1","763997","59c3cfd7754a19000111ca78","solvability","","","","","","","",""
"null","","null","isi","html-keyboard-response","57","139401","0.0-7.0-6.1","763997","59c3cfd7754a19000111ca78","solvability","","","","","","","",""
"null","../solvability/picts/pict25.png","null","target","image-keyboard-response","58","139903","0.0-7.0-7.1","763997","59c3cfd7754a19000111ca78","solvability","","","HAHA","../img/tt/1040tt.jpg","","0","",""
"2131.249999976717","<p>Do you think this character expresses something bad/unpleasant or something good/pleasant?<br><br>Press <strong>left arrow</strong> for something bad or unpleasant<br>Press <strong>right arrow</strong> for something good or pleasant. </p>","39","affect","html-keyboard-response","59","142037","0.0-7.0-8.1","763997","59c3cfd7754a19000111ca78","solvability","","","HAHA","../img/tt/1040tt.jpg","","","1","2631.249999976717"
"null","<div style=""font-size:60px;""> </div>","null","fixation","html-keyboard-response","60","142240","0.0-7.0-0.2","763997","59c3cfd7754a19000111ca78","solvability","","","","","","","",""
"null","../img/tt/549tt.jpg","null","mooney1","image-keyboard-response","61","145243","0.0-7.0-1.2","763997","59c3cfd7754a19000111ca78","solvability","","","","","","","",""
"1199.849999975413","<p>Do you think you would be able to solve this image when given unlimited viewing time? <br><br>Press the <strong>N</strong>-key if ""rather no"", press the <strong>Y</strong>-key if ""rather yes"".</p>","78","solvability","html-keyboard-response","62","146445","0.0-7.0-2.2","763997","59c3cfd7754a19000111ca78","solvability","","","LAHA","../img/tt/549tt.jpg","0","","",""
"null","../img/tt/549tt.jpg","null","mooney2","image-keyboard-response","63","148949","0.0-7.0-3.2","763997","59c3cfd7754a19000111ca78","solvability","","","","","","","",""
"null","../img/gs/549gs.jpg","null","reveal","image-keyboard-response","64","149454","0.0-7.0-4.2","763997","59c3cfd7754a19000111ca78","solvability","","","","","","","",""
"null","../img/tt/549tt.jpg","null","mooney3","image-keyboard-response","65","150958","0.0-7.0-5.2","763997","59c3cfd7754a19000111ca78","solvability","","","","","","","",""
"null","","null","isi","html-keyboard-response","66","151160","0.0-7.0-6.2","763997","59c3cfd7754a19000111ca78","solvability","","","","","","","",""
"null","../solvability/picts/pict27.png","null","target","image-keyboard-response","67","151664","0.0-7.0-7.2","763997","59c3cfd7754a19000111ca78","solvability","","","LAHA","../img/tt/549tt.jpg","","0","",""
"2380.3049999987707","<p>Do you think this character expresses something bad/unpleasant or something good/pleasant?<br><br>Press <strong>left arrow</strong> for something bad or unpleasant<br>Press <strong>right arrow</strong> for something good or pleasant. </p>","39","affect","html-keyboard-response","68","154045","0.0-7.0-8.2","763997","59c3cfd7754a19000111ca78","solvability","","","LAHA","../img/tt/549tt.jpg","","","1","2880.3049999987707"
"null","<div style=""font-size:60px;""> </div>","null","fixation","html-keyboard-response","69","154251","0.0-7.0-0.3","763997","59c3cfd7754a19000111ca78","solvability","","","","","","","",""
"null","../img/tt/436tt.jpg","null","mooney1","image-keyboard-response","70","157254","0.0-7.0-1.3","763997","59c3cfd7754a19000111ca78","solvability","","","","","","","",""
"1284.429999999702","<p>Do you think you would be able to solve this image when given unlimited viewing time? <br><br>Press the <strong>N</strong>-key if ""rather no"", press the <strong>Y</strong>-key if ""rather yes"".</p>","89","solvability","html-keyboard-response","71","158541","0.0-7.0-2.3","763997","59c3cfd7754a19000111ca78","solvability","","","LAHA","../img/tt/436tt.jpg","1","","",""
"null","../img/tt/436tt.jpg","null","mooney2","image-keyboard-response","72","161045","0.0-7.0-3.3","763997","59c3cfd7754a19000111ca78","solvability","","","","","","","",""
"null","../img/gs/436gs.jpg","null","reveal","image-keyboard-response","73","161546","0.0-7.0-4.3","763997","59c3cfd7754a19000111ca78","solvability","","","","","","","",""
"null","../img/tt/436tt.jpg","null","mooney3","image-keyboard-response","74","163049","0.0-7.0-5.3","763997","59c3cfd7754a19000111ca78","solvability","","","","","","","",""
"null","","null","isi","html-keyboard-response","75","163251","0.0-7.0-6.3","763997","59c3cfd7754a19000111ca78","solvability","","","","","","","",""
"null","../solvability/picts/pict62.png","null","target","image-keyboard-response","76","163755","0.0-7.0-7.3","763997","59c3cfd7754a19000111ca78","solvability","","","LAHA","../img/tt/436tt.jpg","","0","",""
"848.9249999984168","<p>Do you think this character expresses something bad/unpleasant or something good/pleasant?<br><br>Press <strong>left arrow</strong> for something bad or unpleasant<br>Press <strong>right arrow</strong> for something good or pleasant. </p>","39","affect","html-keyboard-response","77","164606","0.0-7.0-8.3","763997","59c3cfd7754a19000111ca78","solvability","","","LAHA","../img/tt/436tt.jpg","","","1","1348.9249999984168"
"null","<div style=""font-size:60px;""> </div>","null","fixation","html-keyboard-response","78","164809","0.0-7.0-0.4","763997","59c3cfd7754a19000111ca78","solvability","","","","","","","",""
"null","../img/tt/1272tt.jpg","null","mooney1","image-keyboard-response","79","167812","0.0-7.0-1.4","763997","59c3cfd7754a19000111ca78","solvability","","","","","","","",""
"925.8649999974295","<p>Do you think you would be able to solve this image when given unlimited viewing time? <br><br>Press the <strong>N</strong>-key if ""rather no"", press the <strong>Y</strong>-key if ""rather yes"".</p>","89","solvability","html-keyboard-response","80","168739","0.0-7.0-2.4","763997","59c3cfd7754a19000111ca78","solvability","","","HAHA","../img/tt/1272tt.jpg","1","","",""
"null","../img/tt/1272tt.jpg","null","mooney2","image-keyboard-response","81","171241","0.0-7.0-3.4","763997","59c3cfd7754a19000111ca78","solvability","","","","","","","",""
"null","../img/gs/1272gs.jpg","null","reveal","image-keyboard-response","82","171745","0.0-7.0-4.4","763997","59c3cfd7754a19000111ca78","solvability","","","","","","","",""
"null","../img/tt/1272tt.jpg","null","mooney3","image-keyboard-response","83","173248","0.0-7.0-5.4","763997","59c3cfd7754a19000111ca78","solvability","","","","","","","",""
"null","","null","isi","html-keyboard-response","84","173450","0.0-7.0-6.4","763997","59c3cfd7754a19000111ca78","solvability","","","","","","","",""
"null","../solvability/picts/pict7.png","null","target","image-keyboard-response","85","173953","0.0-7.0-7.4","763997","59c3cfd7754a19000111ca78","solvability","","","HAHA","../img/tt/1272tt.jpg","","0","",""
"4018.480000027921","<p>Do you think this character expresses something bad/unpleasant or something good/pleasant?<br><br>Press <strong>left arrow</strong> for something bad or unpleasant<br>Press <strong>right arrow</strong> for something good or pleasant. </p>","37","affect","html-keyboard-response","86","177973","0.0-7.0-8.4","763997","59c3cfd7754a19000111ca78","solvability","","","HAHA","../img/tt/1272tt.jpg","","","0","4518.480000027921"
"null","<div style=""font-size:60px;""> </div>","null","fixation","html-keyboard-response","87","178176","0.0-7.0-0.5","763997","59c3cfd7754a19000111ca78","solvability","","","","","","","",""
"null","../img/tt/1211tt.jpg","null","mooney1","image-keyboard-response","88","181180","0.0-7.0-1.5","763997","59c3cfd7754a19000111ca78","solvability","","","","","","","",""
"1238.9400000101887","<p>Do you think you would be able to solve this image when given unlimited viewing time? <br><br>Press the <strong>N</strong>-key if ""rather no"", press the <strong>Y</strong>-key if ""rather yes"".</p>","78","solvability","html-keyboard-response","89","182421","0.0-7.0-2.5","763997","59c3cfd7754a19000111ca78","solvability","","","HAHA","../img/tt/1211tt.jpg","0","","",""
"null","../img/tt/1211tt.jpg","null","mooney2","image-keyboard-response","90","184924","0.0-7.0-3.5","763997","59c3cfd7754a19000111ca78","solvability","","","","","","","",""
"null","../img/gs/1211gs.jpg","null","reveal","image-keyboard-response","91","185428","0.0-7.0-4.5","763997","59c3cfd7754a19000111ca78","solvability","","","","","","","",""
"null","../img/tt/1211tt.jpg","null","mooney3","image-keyboard-response","92","186933","0.0-7.0-5.5","763997","59c3cfd7754a19000111ca78","solvability","","","","","","","",""
"null","","null","isi","html-keyboard-response","93","187136","0.0-7.0-6.5","763997","59c3cfd7754a19000111ca78","solvability","","","","","","","",""
"null","../solvability/picts/pict20.png","null","target","image-keyboard-response","94","187639","0.0-7.0-7.5","763997","59c3cfd7754a19000111ca78","solvability","","","HAHA","../img/tt/1211tt.jpg","","0","",""
"1396.7800000100397","<p>Do you think this character expresses something bad/unpleasant or something good/pleasant?<br><br>Press <strong>left arrow</strong> for something bad or unpleasant<br>Press <strong>right arrow</strong> for something good or pleasant. </p>","37","affect","html-keyboard-response","95","189038","0.0-7.0-8.5","763997","59c3cfd7754a19000111ca78","solvability","","","HAHA","../img/tt/1211tt.jpg","","","0","1896.7800000100397"
"null","<div style=""font-size:60px;""> </div>","null","fixation","html-keyboard-response","96","189241","0.0-7.0-0.6","763997","59c3cfd7754a19000111ca78","solvability","","","","","","","",""
"null","../img/tt/044tt.jpg","null","mooney1","image-keyboard-response","97","192244","0.0-7.0-1.6","763997","59c3cfd7754a19000111ca78","solvability","","","","","","","",""
"758.9750000042841","<p>Do you think you would be able to solve this image when given unlimited viewing time? <br><br>Press the <strong>N</strong>-key if ""rather no"", press the <strong>Y</strong>-key if ""rather yes"".</p>","89","solvability","html-keyboard-response","98","193005","0.0-7.0-2.6","763997","59c3cfd7754a19000111ca78","solvability","","","HAHA","../img/tt/044tt.jpg","1","","",""
"null","../img/tt/044tt.jpg","null","mooney2","image-keyboard-response","99","195508","0.0-7.0-3.6","763997","59c3cfd7754a19000111ca78","solvability","","","","","","","",""
"null","../img/gs/044gs.jpg","null","reveal","image-keyboard-response","100","196011","0.0-7.0-4.6","763997","59c3cfd7754a19000111ca78","solvability","","","","","","","",""
"null","../img/tt/044tt.jpg","null","mooney3","image-keyboard-response","101","197515","0.0-7.0-5.6","763997","59c3cfd7754a19000111ca78","solvability","","","","","","","",""
"null","","null","isi","html-keyboard-response","102","197717","0.0-7.0-6.6","763997","59c3cfd7754a19000111ca78","solvability","","","","","","","",""
"null","../solvability/picts/pict61.png","null","target","image-keyboard-response","103","198221","0.0-7.0-7.6","763997","59c3cfd7754a19000111ca78","solvability","","","HAHA","../img/tt/044tt.jpg","","0","",""
"726.1099999886937","<p>Do you think this character expresses something bad/unpleasant or something good/pleasant?<br><br>Press <strong>left arrow</strong> for something bad or unpleasant<br>Press <strong>right arrow</strong> for something good or pleasant. </p>","37","affect","html-keyboard-response","104","198949","0.0-7.0-8.6","763997","59c3cfd7754a19000111ca78","solvability","","","HAHA","../img/tt/044tt.jpg","","","0","1226.1099999886937"
"null","<div style=""font-size:60px;""> </div>","null","fixation","html-keyboard-response","105","199152","0.0-7.0-0.7","763997","59c3cfd7754a19000111ca78","solvability","","","","","","","",""
"null","../img/tt/1276tt.jpg","null","mooney1","image-keyboard-response","106","202156","0.0-7.0-1.7","763997","59c3cfd7754a19000111ca78","solvability","","","","","","","",""
"975.8349999901839","<p>Do you think you would be able to solve this image when given unlimited viewing time? <br><br>Press the <strong>N</strong>-key if ""rather no"", press the <strong>Y</strong>-key if ""rather yes"".</p>","78","solvability","html-keyboard-response","107","203133","0.0-7.0-2.7","763997","59c3cfd7754a19000111ca78","solvability","","","LAHA","../img/tt/1276tt.jpg","0","","",""
"null","../img/tt/1276tt.jpg","null","mooney2","image-keyboard-response","108","205637","0.0-7.0-3.7","763997","59c3cfd7754a19000111ca78","solvability","","","","","","","",""
"null","../img/gs/1276gs.jpg","null","reveal","image-keyboard-response","109","206140","0.0-7.0-4.7","763997","59c3cfd7754a19000111ca78","solvability","","","","","","","",""
"null","../img/tt/1276tt.jpg","null","mooney3","image-keyboard-response","110","207644","0.0-7.0-5.7","763997","59c3cfd7754a19000111ca78","solvability","","","","","","","",""
"null","","null","isi","html-keyboard-response","111","207847","0.0-7.0-6.7","763997","59c3cfd7754a19000111ca78","solvability","","","","","","","",""
"null","../solvability/picts/pict57.png","null","target","image-keyboard-response","112","208350","0.0-7.0-7.7","763997","59c3cfd7754a19000111ca78","solvability","","","LAHA","../img/tt/1276tt.jpg","","0","",""
"750.3400000277907","<p>Do you think this character expresses something bad/unpleasant or something good/pleasant?<br><br>Press <strong>left arrow</strong> for something bad or unpleasant<br>Press <strong>right arrow</strong> for something good or pleasant. </p>","39","affect","html-keyboard-response","113","209101","0.0-7.0-8.7","763997","59c3cfd7754a19000111ca78","solvability","","","LAHA","../img/tt/1276tt.jpg","","","1","1250.3400000277907"
"null","<div style=""font-size:60px;""> </div>","null","fixation","html-keyboard-response","114","209303","0.0-7.0-0.8","763997","59c3cfd7754a19000111ca78","solvability","","","","","","","",""
"null","../img/tt/1046tt.jpg","null","mooney1","image-keyboard-response","115","212308","0.0-7.0-1.8","763997","59c3cfd7754a19000111ca78","solvability","","","","","","","",""
"983.219999994617","<p>Do you think you would be able to solve this image when given unlimited viewing time? <br><br>Press the <strong>N</strong>-key if ""rather no"", press the <strong>Y</strong>-key if ""rather yes"".</p>","78","solvability","html-keyboard-response","116","213292","0.0-7.0-2.8","763997","59c3cfd7754a19000111ca78","solvability","","","LAHA","../img/tt/1046tt.jpg","0","","",""
"null","../img/tt/1046tt.jpg","null","mooney2","image-keyboard-response","117","215794","0.0-7.0-3.8","763997","59c3cfd7754a19000111ca78","solvability","","","","","","","",""
"null","../img/gs/1046gs.jpg","null","reveal","image-keyboard-response","118","216297","0.0-7.0-4.8","763997","59c3cfd7754a19000111ca78","solvability","","","","","","","",""
"null","../img/tt/1046tt.jpg","null","mooney3","image-keyboard-response","119","217800","0.0-7.0-5.8","763997","59c3cfd7754a19000111ca78","solvability","","","","","","","",""
"null","","null","isi","html-keyboard-response","120","218002","0.0-7.0-6.8","763997","59c3cfd7754a19000111ca78","solvability","","","","","","","",""
"null","../solvability/picts/pict39.png","null","target","image-keyboard-response","121","218506","0.0-7.0-7.8","763997","59c3cfd7754a19000111ca78","solvability","","","LAHA","../img/tt/1046tt.jpg","","0","",""
"809.4550000387244","<p>Do you think this character expresses something bad/unpleasant or something good/pleasant?<br><br>Press <strong>left arrow</strong> for something bad or unpleasant<br>Press <strong>right arrow</strong> for something good or pleasant. </p>","39","affect","html-keyboard-response","122","219317","0.0-7.0-8.8","763997","59c3cfd7754a19000111ca78","solvability","","","LAHA","../img/tt/1046tt.jpg","","","1","1309.4550000387244"
"null","<div style=""font-size:60px;""> </div>","null","fixation","html-keyboard-response","123","219521","0.0-7.0-0.9","763997","59c3cfd7754a19000111ca78","solvability","","","","","","","",""
"null","../img/tt/040tt.jpg","null","mooney1","image-keyboard-response","124","222524","0.0-7.0-1.9","763997","59c3cfd7754a19000111ca78","solvability","","","","","","","",""
"565.7650000066496","<p>Do you think you would be able to solve this image when given unlimited viewing time? <br><br>Press the <strong>N</strong>-key if ""rather no"", press the <strong>Y</strong>-key if ""rather yes"".</p>","89","solvability","html-keyboard-response","125","223091","0.0-7.0-2.9","763997","59c3cfd7754a19000111ca78","solvability","","","HAHA","../img/tt/040tt.jpg","1","","",""
"null","../img/tt/040tt.jpg","null","mooney2","image-keyboard-response","126","225593","0.0-7.0-3.9","763997","59c3cfd7754a19000111ca78","solvability","","","","","","","",""
"null","../img/gs/040gs.jpg","null","reveal","image-keyboard-response","127","226095","0.0-7.0-4.9","763997","59c3cfd7754a19000111ca78","solvability","","","","","","","",""
"null","../img/tt/040tt.jpg","null","mooney3","image-keyboard-response","128","227598","0.0-7.0-5.9","763997","59c3cfd7754a19000111ca78","solvability","","","","","","","",""
"null","","null","isi","html-keyboard-response","129","227802","0.0-7.0-6.9","763997","59c3cfd7754a19000111ca78","solvability","","","","","","","",""
"null","../solvability/picts/pict40.png","null","target","image-keyboard-response","130","228305","0.0-7.0-7.9","763997","59c3cfd7754a19000111ca78","solvability","","","HAHA","../img/tt/040tt.jpg","","0","",""
"2410.199999983888","<p>Do you think this character expresses something bad/unpleasant or something good/pleasant?<br><br>Press <strong>left arrow</strong> for something bad or unpleasant<br>Press <strong>right arrow</strong> for something good or pleasant. </p>","37","affect","html-keyboard-response","131","230717","0.0-7.0-8.9","763997","59c3cfd7754a19000111ca78","solvability","","","HAHA","../img/tt/040tt.jpg","","","0","2910.199999983888"
"null","<div style=""font-size:60px;""> </div>","null","fixation","html-keyboard-response","132","230920","0.0-7.0-0.10","763997","59c3cfd7754a19000111ca78","solvability","","","","","","","",""
"null","../img/tt/1069tt.jpg","null","mooney1","image-keyboard-response","133","233925","0.0-7.0-1.10","763997","59c3cfd7754a19000111ca78","solvability","","","","","","","",""
"1173.0050000478514","<p>Do you think you would be able to solve this image when given unlimited viewing time? <br><br>Press the <strong>N</strong>-key if ""rather no"", press the <strong>Y</strong>-key if ""rather yes"".</p>","78","solvability","html-keyboard-response","134","235099","0.0-7.0-2.10","763997","59c3cfd7754a19000111ca78","solvability","","","LAHA","../img/tt/1069tt.jpg","0","","",""
"null","../img/tt/1069tt.jpg","null","mooney2","image-keyboard-response","135","237602","0.0-7.0-3.10","763997","59c3cfd7754a19000111ca78","solvability","","","","","","","",""
"null","../img/gs/1069gs.jpg","null","reveal","image-keyboard-response","136","238104","0.0-7.0-4.10","763997","59c3cfd7754a19000111ca78","solvability","","","","","","","",""
"null","../img/tt/1069tt.jpg","null","mooney3","image-keyboard-response","137","239607","0.0-7.0-5.10","763997","59c3cfd7754a19000111ca78","solvability","","","","","","","",""
"null","","null","isi","html-keyboard-response","138","239809","0.0-7.0-6.10","763997","59c3cfd7754a19000111ca78","solvability","","","","","","","",""
"null","../solvability/picts/pict55.png","null","target","image-keyboard-response","139","240313","0.0-7.0-7.10","763997","59c3cfd7754a19000111ca78","solvability","","","LAHA","../img/tt/1069tt.jpg","","0","",""
"594.0449999761768","<p>Do you think this character expresses something bad/unpleasant or something good/pleasant?<br><br>Press <strong>left arrow</strong> for something bad or unpleasant<br>Press <strong>right arrow</strong> for something good or pleasant. </p>","39","affect","html-keyboard-response","140","240910","0.0-7.0-8.10","763997","59c3cfd7754a19000111ca78","solvability","","","LAHA","../img/tt/1069tt.jpg","","","1","1094.0449999761768"
"null","<div style=""font-size:60px;""> </div>","null","fixation","html-keyboard-response","141","241112","0.0-7.0-0.11","763997","59c3cfd7754a19000111ca78","solvability","","","","","","","",""
"null","../img/tt/1309tt.jpg","null","mooney1","image-keyboard-response","142","244115","0.0-7.0-1.11","763997","59c3cfd7754a19000111ca78","solvability","","","","","","","",""
"1080.0100000342354","<p>Do you think you would be able to solve this image when given unlimited viewing time? <br><br>Press the <strong>N</strong>-key if ""rather no"", press the <strong>Y</strong>-key if ""rather yes"".</p>","89","solvability","html-keyboard-response","143","245197","0.0-7.0-2.11","763997","59c3cfd7754a19000111ca78","solvability","","","LAHA","../img/tt/1309tt.jpg","1","","",""
"null","../img/tt/1309tt.jpg","null","mooney2","image-keyboard-response","144","247700","0.0-7.0-3.11","763997","59c3cfd7754a19000111ca78","solvability","","","","","","","",""
"null","../img/gs/1309gs.jpg","null","reveal","image-keyboard-response","145","248203","0.0-7.0-4.11","763997","59c3cfd7754a19000111ca78","solvability","","","","","","","",""
"null","../img/tt/1309tt.jpg","null","mooney3","image-keyboard-response","146","249706","0.0-7.0-5.11","763997","59c3cfd7754a19000111ca78","solvability","","","","","","","",""
"null","","null","isi","html-keyboard-response","147","249908","0.0-7.0-6.11","763997","59c3cfd7754a19000111ca78","solvability","","","","","","","",""
"null","../solvability/picts/pict1.png","null","target","image-keyboard-response","148","250411","0.0-7.0-7.11","763997","59c3cfd7754a19000111ca78","solvability","","","LAHA","../img/tt/1309tt.jpg","","0","",""
"2192.7949999808334","<p>Do you think this character expresses something bad/unpleasant or something good/pleasant?<br><br>Press <strong>left arrow</strong> for something bad or unpleasant<br>Press <strong>right arrow</strong> for something good or pleasant. </p>","39","affect","html-keyboard-response","149","252605","0.0-7.0-8.11","763997","59c3cfd7754a19000111ca78","solvability","","","LAHA","../img/tt/1309tt.jpg","","","1","2692.7949999808334"
"null","<div style=""font-size:60px;""> </div>","null","fixation","html-keyboard-response","150","252809","0.0-7.0-0.12","763997","59c3cfd7754a19000111ca78","solvability","","","","","","","",""
"null","../img/tt/1363tt.jpg","null","mooney1","image-keyboard-response","151","255813","0.0-7.0-1.12","763997","59c3cfd7754a19000111ca78","solvability","","","","","","","",""
"1158.77499995986","<p>Do you think you would be able to solve this image when given unlimited viewing time? <br><br>Press the <strong>N</strong>-key if ""rather no"", press the <strong>Y</strong>-key if ""rather yes"".</p>","78","solvability","html-keyboard-response","152","256973","0.0-7.0-2.12","763997","59c3cfd7754a19000111ca78","solvability","","","LAHA","../img/tt/1363tt.jpg","0","","",""
"null","../img/tt/1363tt.jpg","null","mooney2","image-keyboard-response","153","259476","0.0-7.0-3.12","763997","59c3cfd7754a19000111ca78","solvability","","","","","","","",""
"null","../img/gs/1363gs.jpg","null","reveal","image-keyboard-response","154","259981","0.0-7.0-4.12","763997","59c3cfd7754a19000111ca78","solvability","","","","","","","",""
"null","../img/tt/1363tt.jpg","null","mooney3","image-keyboard-response","155","261485","0.0-7.0-5.12","763997","59c3cfd7754a19000111ca78","solvability","","","","","","","",""
"null","","null","isi","html-keyboard-response","156","261687","0.0-7.0-6.12","763997","59c3cfd7754a19000111ca78","solvability","","","","","","","",""
"null","../solvability/picts/pict8.png","null","target","image-keyboard-response","157","262190","0.0-7.0-7.12","763997","59c3cfd7754a19000111ca78","solvability","","","LAHA","../img/tt/1363tt.jpg","","0","",""
"891.5899999556132","<p>Do you think this character expresses something bad/unpleasant or something good/pleasant?<br><br>Press <strong>left arrow</strong> for something bad or unpleasant<br>Press <strong>right arrow</strong> for something good or pleasant. </p>","37","affect","html-keyboard-response","158","263083","0.0-7.0-8.12","763997","59c3cfd7754a19000111ca78","solvability","","","LAHA","../img/tt/1363tt.jpg","","","0","1391.5899999556132"
"null","<div style=""font-size:60px;""> </div>","null","fixation","html-keyboard-response","159","263286","0.0-7.0-0.13","763997","59c3cfd7754a19000111ca78","solvability","","","","","","","",""
"null","../img/tt/1161tt.jpg","null","mooney1","image-keyboard-response","160","266290","0.0-7.0-1.13","763997","59c3cfd7754a19000111ca78","solvability","","","","","","","",""
"665.1849999907427","<p>Do you think you would be able to solve this image when given unlimited viewing time? <br><br>Press the <strong>N</strong>-key if ""rather no"", press the <strong>Y</strong>-key if ""rather yes"".</p>","78","solvability","html-keyboard-response","161","266957","0.0-7.0-2.13","763997","59c3cfd7754a19000111ca78","solvability","","","NAHA","../img/tt/1161tt.jpg","0","","",""
"null","../img/tt/1161tt.jpg","null","mooney2","image-keyboard-response","162","269461","0.0-7.0-3.13","763997","59c3cfd7754a19000111ca78","solvability","","","","","","","",""
"null","../img/gs/1161gs.jpg","null","reveal","image-keyboard-response","163","269964","0.0-7.0-4.13","763997","59c3cfd7754a19000111ca78","solvability","","","","","","","",""
"null","../img/tt/1161tt.jpg","null","mooney3","image-keyboard-response","164","271467","0.0-7.0-5.13","763997","59c3cfd7754a19000111ca78","solvability","","","","","","","",""
"null","","null","isi","html-keyboard-response","165","271670","0.0-7.0-6.13","763997","59c3cfd7754a19000111ca78","solvability","","","","","","","",""
"null","../solvability/picts/pict36.png","null","target","image-keyboard-response","166","272173","0.0-7.0-7.13","763997","59c3cfd7754a19000111ca78","solvability","","","NAHA","../img/tt/1161tt.jpg","","0","",""
"742.0200000051409","<p>Do you think this character expresses something bad/unpleasant or something good/pleasant?<br><br>Press <strong>left arrow</strong> for something bad or unpleasant<br>Press <strong>right arrow</strong> for something good or pleasant. </p>","39","affect","html-keyboard-response","167","272918","0.0-7.0-8.13","763997","59c3cfd7754a19000111ca78","solvability","","","NAHA","../img/tt/1161tt.jpg","","","1","1242.020000005141"
"null","<div style=""font-size:60px;""> </div>","null","fixation","html-keyboard-response","168","273120","0.0-7.0-0.14","763997","59c3cfd7754a19000111ca78","solvability","","","","","","","",""
"null","../img/tt/1154tt.jpg","null","mooney1","image-keyboard-response","169","276124","0.0-7.0-1.14","763997","59c3cfd7754a19000111ca78","solvability","","","","","","","",""
"1136.2199999857694","<p>Do you think you would be able to solve this image when given unlimited viewing time? <br><br>Press the <strong>N</strong>-key if ""rather no"", press the <strong>Y</strong>-key if ""rather yes"".</p>","89","solvability","html-keyboard-response","170","277262","0.0-7.0-2.14","763997","59c3cfd7754a19000111ca78","solvability","","","NAHA","../img/tt/1154tt.jpg","1","","",""
"null","../img/tt/1154tt.jpg","null","mooney2","image-keyboard-response","171","279767","0.0-7.0-3.14","763997","59c3cfd7754a19000111ca78","solvability","","","","","","","",""
"null","../img/gs/1154gs.jpg","null","reveal","image-keyboard-response","172","280270","0.0-7.0-4.14","763997","59c3cfd7754a19000111ca78","solvability","","","","","","","",""
"null","../img/tt/1154tt.jpg","null","mooney3","image-keyboard-response","173","281773","0.0-7.0-5.14","763997","59c3cfd7754a19000111ca78","solvability","","","","","","","",""
"null","","null","isi","html-keyboard-response","174","281975","0.0-7.0-6.14","763997","59c3cfd7754a19000111ca78","solvability","","","","","","","",""
"null","../solvability/picts/pict21.png","null","target","image-keyboard-response","175","282479","0.0-7.0-7.14","763997","59c3cfd7754a19000111ca78","solvability","","","NAHA","../img/tt/1154tt.jpg","","0","",""
"1300.5600000033155","<p>Do you think this character expresses something bad/unpleasant or something good/pleasant?<br><br>Press <strong>left arrow</strong> for something bad or unpleasant<br>Press <strong>right arrow</strong> for something good or pleasant. </p>","39","affect","html-keyboard-response","176","283782","0.0-7.0-8.14","763997","59c3cfd7754a19000111ca78","solvability","","","NAHA","../img/tt/1154tt.jpg","","","1","1800.5600000033155"
"null","<div style=""font-size:60px;""> </div>","null","fixation","html-keyboard-response","177","283984","0.0-7.0-0.15","763997","59c3cfd7754a19000111ca78","solvability","","","","","","","",""
"null","../img/tt/1148tt.jpg","null","mooney1","image-keyboard-response","178","286988","0.0-7.0-1.15","763997","59c3cfd7754a19000111ca78","solvability","","","","","","","",""
"1664.234999974724","<p>Do you think you would be able to solve this image when given unlimited viewing time? <br><br>Press the <strong>N</strong>-key if ""rather no"", press the <strong>Y</strong>-key if ""rather yes"".</p>","89","solvability","html-keyboard-response","179","288654","0.0-7.0-2.15","763997","59c3cfd7754a19000111ca78","solvability","","","HAHA","../img/tt/1148tt.jpg","1","","",""
"null","../img/tt/1148tt.jpg","null","mooney2","image-keyboard-response","180","291158","0.0-7.0-3.15","763997","59c3cfd7754a19000111ca78","solvability","","","","","","","",""
"null","../img/gs/1148gs.jpg","null","reveal","image-keyboard-response","181","291660","0.0-7.0-4.15","763997","59c3cfd7754a19000111ca78","solvability","","","","","","","",""
"null","../img/tt/1148tt.jpg","null","mooney3","image-keyboard-response","182","293163","0.0-7.0-5.15","763997","59c3cfd7754a19000111ca78","solvability","","","","","","","",""
"null","","null","isi","html-keyboard-response","183","293364","0.0-7.0-6.15","763997","59c3cfd7754a19000111ca78","solvability","","","","","","","",""
"null","../solvability/picts/pict10.png","null","target","image-keyboard-response","184","293867","0.0-7.0-7.15","763997","59c3cfd7754a19000111ca78","solvability","","","HAHA","../img/tt/1148tt.jpg","","0","",""
"1224.9350000056438","<p>Do you think this character expresses something bad/unpleasant or something good/pleasant?<br><br>Press <strong>left arrow</strong> for something bad or unpleasant<br>Press <strong>right arrow</strong> for something good or pleasant. </p>","39","affect","html-keyboard-response","185","295093","0.0-7.0-8.15","763997","59c3cfd7754a19000111ca78","solvability","","","HAHA","../img/tt/1148tt.jpg","","","1","1724.9350000056438"
"null","<div style=""font-size:60px;""> </div>","null","fixation","html-keyboard-response","186","295297","0.0-7.0-0.16","763997","59c3cfd7754a19000111ca78","solvability","","","","","","","",""
"null","../img/tt/1362tt.jpg","null","mooney1","image-keyboard-response","187","298300","0.0-7.0-1.16","763997","59c3cfd7754a19000111ca78","solvability","","","","","","","",""
"584.1249999939464","<p>Do you think you would be able to solve this image when given unlimited viewing time? <br><br>Press the <strong>N</strong>-key if ""rather no"", press the <strong>Y</strong>-key if ""rather yes"".</p>","89","solvability","html-keyboard-response","188","298886","0.0-7.0-2.16","763997","59c3cfd7754a19000111ca78","solvability","","","LAHA","../img/tt/1362tt.jpg","1","","",""
"null","../img/tt/1362tt.jpg","null","mooney2","image-keyboard-response","189","301390","0.0-7.0-3.16","763997","59c3cfd7754a19000111ca78","solvability","","","","","","","",""
"null","../img/gs/1362gs.jpg","null","reveal","image-keyboard-response","190","301892","0.0-7.0-4.16","763997","59c3cfd7754a19000111ca78","solvability","","","","","","","",""
"null","../img/tt/1362tt.jpg","null","mooney3","image-keyboard-response","191","303395","0.0-7.0-5.16","763997","59c3cfd7754a19000111ca78","solvability","","","","","","","",""
"null","","null","isi","html-keyboard-response","192","303597","0.0-7.0-6.16","763997","59c3cfd7754a19000111ca78","solvability","","","","","","","",""
"null","../solvability/picts/pict60.png","null","target","image-keyboard-response","193","304100","0.0-7.0-7.16","763997","59c3cfd7754a19000111ca78","solvability","","","LAHA","../img/tt/1362tt.jpg","","0","",""
"1214.1849999898113","<p>Do you think this character expresses something bad/unpleasant or something good/pleasant?<br><br>Press <strong>left arrow</strong> for something bad or unpleasant<br>Press <strong>right arrow</strong> for something good or pleasant. </p>","37","affect","html-keyboard-response","194","305317","0.0-7.0-8.16","763997","59c3cfd7754a19000111ca78","solvability","","","LAHA","../img/tt/1362tt.jpg","","","0","1714.1849999898113"
"null","<div style=""font-size:60px;""> </div>","null","fixation","html-keyboard-response","195","305518","0.0-7.0-0.17","763997","59c3cfd7754a19000111ca78","solvability","","","","","","","",""
"null","../img/tt/1247tt.jpg","null","mooney1","image-keyboard-response","196","308521","0.0-7.0-1.17","763997","59c3cfd7754a19000111ca78","solvability","","","","","","","",""
"1042.8250000113621","<p>Do you think you would be able to solve this image when given unlimited viewing time? <br><br>Press the <strong>N</strong>-key if ""rather no"", press the <strong>Y</strong>-key if ""rather yes"".</p>","78","solvability","html-keyboard-response","197","309566","0.0-7.0-2.17","763997","59c3cfd7754a19000111ca78","solvability","","","NAHA","../img/tt/1247tt.jpg","0","","",""
"null","../img/tt/1247tt.jpg","null","mooney2","image-keyboard-response","198","312070","0.0-7.0-3.17","763997","59c3cfd7754a19000111ca78","solvability","","","","","","","",""
"null","../img/gs/1247gs.jpg","null","reveal","image-keyboard-response","199","312573","0.0-7.0-4.17","763997","59c3cfd7754a19000111ca78","solvability","","","","","","","",""
"null","../img/tt/1247tt.jpg","null","mooney3","image-keyboard-response","200","314077","0.0-7.0-5.17","763997","59c3cfd7754a19000111ca78","solvability","","","","","","","",""
"null","","null","isi","html-keyboard-response","201","314279","0.0-7.0-6.17","763997","59c3cfd7754a19000111ca78","solvability","","","","","","","",""
"null","../solvability/picts/pict28.png","null","target","image-keyboard-response","202","314783","0.0-7.0-7.17","763997","59c3cfd7754a19000111ca78","solvability","","","NAHA","../img/tt/1247tt.jpg","","0","",""
"612.0400000363588","<p>Do you think this character expresses something bad/unpleasant or something good/pleasant?<br><br>Press <strong>left arrow</strong> for something bad or unpleasant<br>Press <strong>right arrow</strong> for something good or pleasant. </p>","39","affect","html-keyboard-response","203","315397","0.0-7.0-8.17","763997","59c3cfd7754a19000111ca78","solvability","","","NAHA","../img/tt/1247tt.jpg","","","1","1112.0400000363588"
"null","<div style=""font-size:60px;""> </div>","null","fixation","html-keyboard-response","204","315599","0.0-7.0-0.18","763997","59c3cfd7754a19000111ca78","solvability","","","","","","","",""
"null","../img/tt/222tt.jpg","null","mooney1","image-keyboard-response","205","318603","0.0-7.0-1.18","763997","59c3cfd7754a19000111ca78","solvability","","","","","","","",""
"737.3399999924004","<p>Do you think you would be able to solve this image when given unlimited viewing time? <br><br>Press the <strong>N</strong>-key if ""rather no"", press the <strong>Y</strong>-key if ""rather yes"".</p>","78","solvability","html-keyboard-response","206","319342","0.0-7.0-2.18","763997","59c3cfd7754a19000111ca78","solvability","","","HAHA","../img/tt/222tt.jpg","0","","",""
"null","../img/tt/222tt.jpg","null","mooney2","image-keyboard-response","207","321847","0.0-7.0-3.18","763997","59c3cfd7754a19000111ca78","solvability","","","","","","","",""
"null","../img/gs/222gs.jpg","null","reveal","image-keyboard-response","208","322350","0.0-7.0-4.18","763997","59c3cfd7754a19000111ca78","solvability","","","","","","","",""
"null","../img/tt/222tt.jpg","null","mooney3","image-keyboard-response","209","323852","0.0-7.0-5.18","763997","59c3cfd7754a19000111ca78","solvability","","","","","","","",""
"null","","null","isi","html-keyboard-response","210","324053","0.0-7.0-6.18","763997","59c3cfd7754a19000111ca78","solvability","","","","","","","",""
"null","../solvability/picts/pict37.png","null","target","image-keyboard-response","211","324556","0.0-7.0-7.18","763997","59c3cfd7754a19000111ca78","solvability","","","HAHA","../img/tt/222tt.jpg","","0","",""
"1845.6049999804236","<p>Do you think this character expresses something bad/unpleasant or something good/pleasant?<br><br>Press <strong>left arrow</strong> for something bad or unpleasant<br>Press <strong>right arrow</strong> for something good or pleasant. </p>","39","affect","html-keyboard-response","212","326404","0.0-7.0-8.18","763997","59c3cfd7754a19000111ca78","solvability","","","HAHA","../img/tt/222tt.jpg","","","1","2345.6049999804236"
"null","<div style=""font-size:60px;""> </div>","null","fixation","html-keyboard-response","213","326606","0.0-7.0-0.19","763997","59c3cfd7754a19000111ca78","solvability","","","","","","","",""
"null","../img/tt/456tt.jpg","null","mooney1","image-keyboard-response","214","329610","0.0-7.0-1.19","763997","59c3cfd7754a19000111ca78","solvability","","","","","","","",""
"744.3449999555014","<p>Do you think you would be able to solve this image when given unlimited viewing time? <br><br>Press the <strong>N</strong>-key if ""rather no"", press the <strong>Y</strong>-key if ""rather yes"".</p>","78","solvability","html-keyboard-response","215","330356","0.0-7.0-2.19","763997","59c3cfd7754a19000111ca78","solvability","","","HAHA","../img/tt/456tt.jpg","0","","",""
"null","../img/tt/456tt.jpg","null","mooney2","image-keyboard-response","216","332859","0.0-7.0-3.19","763997","59c3cfd7754a19000111ca78","solvability","","","","","","","",""
"null","../img/gs/456gs.jpg","null","reveal","image-keyboard-response","217","333363","0.0-7.0-4.19","763997","59c3cfd7754a19000111ca78","solvability","","","","","","","",""
"null","../img/tt/456tt.jpg","null","mooney3","image-keyboard-response","218","334866","0.0-7.0-5.19","763997","59c3cfd7754a19000111ca78","solvability","","","","","","","",""
"null","","null","isi","html-keyboard-response","219","335068","0.0-7.0-6.19","763997","59c3cfd7754a19000111ca78","solvability","","","","","","","",""
"null","../solvability/picts/pict2.png","null","target","image-keyboard-response","220","335571","0.0-7.0-7.19","763997","59c3cfd7754a19000111ca78","solvability","","","HAHA","../img/tt/456tt.jpg","","0","",""
"632.1999999927357","<p>Do you think this character expresses something bad/unpleasant or something good/pleasant?<br><br>Press <strong>left arrow</strong> for something bad or unpleasant<br>Press <strong>right arrow</strong> for something good or pleasant. </p>","39","affect","html-keyboard-response","221","336206","0.0-7.0-8.19","763997","59c3cfd7754a19000111ca78","solvability","","","HAHA","../img/tt/456tt.jpg","","","1","1132.1999999927357"
"null","<div style=""font-size:60px;""> </div>","null","fixation","html-keyboard-response","222","336409","0.0-7.0-0.20","763997","59c3cfd7754a19000111ca78","solvability","","","","","","","",""
"null","../img/tt/1226tt.jpg","null","mooney1","image-keyboard-response","223","339411","0.0-7.0-1.20","763997","59c3cfd7754a19000111ca78","solvability","","","","","","","",""
"569.0049999975599","<p>Do you think you would be able to solve this image when given unlimited viewing time? <br><br>Press the <strong>N</strong>-key if ""rather no"", press the <strong>Y</strong>-key if ""rather yes"".</p>","78","solvability","html-keyboard-response","224","339982","0.0-7.0-2.20","763997","59c3cfd7754a19000111ca78","solvability","","","NAHA","../img/tt/1226tt.jpg","0","","",""
"null","../img/tt/1226tt.jpg","null","mooney2","image-keyboard-response","225","342486","0.0-7.0-3.20","763997","59c3cfd7754a19000111ca78","solvability","","","","","","","",""
"null","../img/gs/1226gs.jpg","null","reveal","image-keyboard-response","226","342990","0.0-7.0-4.20","763997","59c3cfd7754a19000111ca78","solvability","","","","","","","",""
"null","../img/tt/1226tt.jpg","null","mooney3","image-keyboard-response","227","344493","0.0-7.0-5.20","763997","59c3cfd7754a19000111ca78","solvability","","","","","","","",""
"null","","null","isi","html-keyboard-response","228","344695","0.0-7.0-6.20","763997","59c3cfd7754a19000111ca78","solvability","","","","","","","",""
"null","../solvability/picts/pict42.png","null","target","image-keyboard-response","229","345199","0.0-7.0-7.20","763997","59c3cfd7754a19000111ca78","solvability","","","NAHA","../img/tt/1226tt.jpg","","0","",""
"1381.794999993872","<p>Do you think this character expresses something bad/unpleasant or something good/pleasant?<br><br>Press <strong>left arrow</strong> for something bad or unpleasant<br>Press <strong>right arrow</strong> for something good or pleasant. </p>","37","affect","html-keyboard-response","230","346583","0.0-7.0-8.20","763997","59c3cfd7754a19000111ca78","solvability","","","NAHA","../img/tt/1226tt.jpg","","","0","1881.794999993872"
"null","<div style=""font-size:60px;""> </div>","null","fixation","html-keyboard-response","231","346785","0.0-7.0-0.21","763997","59c3cfd7754a19000111ca78","solvability","","","","","","","",""
"null","../img/tt/1224tt.jpg","null","mooney1","image-keyboard-response","232","349788","0.0-7.0-1.21","763997","59c3cfd7754a19000111ca78","solvability","","","","","","","",""
"888.2500000181608","<p>Do you think you would be able to solve this image when given unlimited viewing time? <br><br>Press the <strong>N</strong>-key if ""rather no"", press the <strong>Y</strong>-key if ""rather yes"".</p>","89","solvability","html-keyboard-response","233","350678","0.0-7.0-2.21","763997","59c3cfd7754a19000111ca78","solvability","","","HAHA","../img/tt/1224tt.jpg","1","","",""
"null","../img/tt/1224tt.jpg","null","mooney2","image-keyboard-response","234","353182","0.0-7.0-3.21","763997","59c3cfd7754a19000111ca78","solvability","","","","","","","",""
"null","../img/gs/1224gs.jpg","null","reveal","image-keyboard-response","235","353684","0.0-7.0-4.21","763997","59c3cfd7754a19000111ca78","solvability","","","","","","","",""
"null","../img/tt/1224tt.jpg","null","mooney3","image-keyboard-response","236","355188","0.0-7.0-5.21","763997","59c3cfd7754a19000111ca78","solvability","","","","","","","",""
"null","","null","isi","html-keyboard-response","237","355390","0.0-7.0-6.21","763997","59c3cfd7754a19000111ca78","solvability","","","","","","","",""
"null","../solvability/picts/pict0.png","null","target","image-keyboard-response","238","355892","0.0-7.0-7.21","763997","59c3cfd7754a19000111ca78","solvability","","","HAHA","../img/tt/1224tt.jpg","","0","",""
"3208.2999999984168","<p>Do you think this character expresses something bad/unpleasant or something good/pleasant?<br><br>Press <strong>left arrow</strong> for something bad or unpleasant<br>Press <strong>right arrow</strong> for something good or pleasant. </p>","39","affect","html-keyboard-response","239","359102","0.0-7.0-8.21","763997","59c3cfd7754a19000111ca78","solvability","","","HAHA","../img/tt/1224tt.jpg","","","1","3708.2999999984168"
"null","<div style=""font-size:60px;""> </div>","null","fixation","html-keyboard-response","240","359306","0.0-7.0-0.22","763997","59c3cfd7754a19000111ca78","solvability","","","","","","","",""
"null","../img/tt/1283tt.jpg","null","mooney1","image-keyboard-response","241","362311","0.0-7.0-1.22","763997","59c3cfd7754a19000111ca78","solvability","","","","","","","",""
"541.960000002291","<p>Do you think you would be able to solve this image when given unlimited viewing time? <br><br>Press the <strong>N</strong>-key if ""rather no"", press the <strong>Y</strong>-key if ""rather yes"".</p>","78","solvability","html-keyboard-response","242","362855","0.0-7.0-2.22","763997","59c3cfd7754a19000111ca78","solvability","","","NAHA","../img/tt/1283tt.jpg","0","","",""
"null","../img/tt/1283tt.jpg","null","mooney2","image-keyboard-response","243","365358","0.0-7.0-3.22","763997","59c3cfd7754a19000111ca78","solvability","","","","","","","",""
"null","../img/gs/1283gs.jpg","null","reveal","image-keyboard-response","244","365860","0.0-7.0-4.22","763997","59c3cfd7754a19000111ca78","solvability","","","","","","","",""
"null","../img/tt/1283tt.jpg","null","mooney3","image-keyboard-response","245","367361","0.0-7.0-5.22","763997","59c3cfd7754a19000111ca78","solvability","","","","","","","",""
"null","","null","isi","html-keyboard-response","246","367562","0.0-7.0-6.22","763997","59c3cfd7754a19000111ca78","solvability","","","","","","","",""
"null","../solvability/picts/pict33.png","null","target","image-keyboard-response","247","368065","0.0-7.0-7.22","763997","59c3cfd7754a19000111ca78","solvability","","","NAHA","../img/tt/1283tt.jpg","","0","",""
"971.0099999792874","<p>Do you think this character expresses something bad/unpleasant or something good/pleasant?<br><br>Press <strong>left arrow</strong> for something bad or unpleasant<br>Press <strong>right arrow</strong> for something good or pleasant. </p>","39","affect","html-keyboard-response","248","369039","0.0-7.0-8.22","763997","59c3cfd7754a19000111ca78","solvability","","","NAHA","../img/tt/1283tt.jpg","","","1","1471.0099999792874"
"null","<div style=""font-size:60px;""> </div>","null","fixation","html-keyboard-response","249","369242","0.0-7.0-0.23","763997","59c3cfd7754a19000111ca78","solvability","","","","","","","",""
"null","../img/tt/1116tt.jpg","null","mooney1","image-keyboard-response","250","372247","0.0-7.0-1.23","763997","59c3cfd7754a19000111ca78","solvability","","","","","","","",""
"1549.4850000250153","<p>Do you think you would be able to solve this image when given unlimited viewing time? <br><br>Press the <strong>N</strong>-key if ""rather no"", press the <strong>Y</strong>-key if ""rather yes"".</p>","89","solvability","html-keyboard-response","251","373798","0.0-7.0-2.23","763997","59c3cfd7754a19000111ca78","solvability","","","LAHA","../img/tt/1116tt.jpg","1","","",""
"null","../img/tt/1116tt.jpg","null","mooney2","image-keyboard-response","252","376302","0.0-7.0-3.23","763997","59c3cfd7754a19000111ca78","solvability","","","","","","","",""
"null","../img/gs/1116gs.jpg","null","reveal","image-keyboard-response","253","376805","0.0-7.0-4.23","763997","59c3cfd7754a19000111ca78","solvability","","","","","","","",""
"null","../img/tt/1116tt.jpg","null","mooney3","image-keyboard-response","254","378308","0.0-7.0-5.23","763997","59c3cfd7754a19000111ca78","solvability","","","","","","","",""
"null","","null","isi","html-keyboard-response","255","378509","0.0-7.0-6.23","763997","59c3cfd7754a19000111ca78","solvability","","","","","","","",""
"null","../solvability/picts/pict46.png","null","target","image-keyboard-response","256","379013","0.0-7.0-7.23","763997","59c3cfd7754a19000111ca78","solvability","","","LAHA","../img/tt/1116tt.jpg","","0","",""
"798.8149999873713","<p>Do you think this character expresses something bad/unpleasant or something good/pleasant?<br><br>Press <strong>left arrow</strong> for something bad or unpleasant<br>Press <strong>right arrow</strong> for something good or pleasant. </p>","39","affect","html-keyboard-response","257","379814","0.0-7.0-8.23","763997","59c3cfd7754a19000111ca78","solvability","","","LAHA","../img/tt/1116tt.jpg","","","1","1298.8149999873713"
"null","<div style=""font-size:60px;""> </div>","null","fixation","html-keyboard-response","258","380017","0.0-7.0-0.24","763997","59c3cfd7754a19000111ca78","solvability","","","","","","","",""
"null","../img/tt/507tt.jpg","null","mooney1","image-keyboard-response","259","383021","0.0-7.0-1.24","763997","59c3cfd7754a19000111ca78","solvability","","","","","","","",""
"1079.7700000111945","<p>Do you think you would be able to solve this image when given unlimited viewing time? <br><br>Press the <strong>N</strong>-key if ""rather no"", press the <strong>Y</strong>-key if ""rather yes"".</p>","78","solvability","html-keyboard-response","260","384102","0.0-7.0-2.24","763997","59c3cfd7754a19000111ca78","solvability","","","NAHA","../img/tt/507tt.jpg","0","","",""
"null","../img/tt/507tt.jpg","null","mooney2","image-keyboard-response","261","386606","0.0-7.0-3.24","763997","59c3cfd7754a19000111ca78","solvability","","","","","","","",""
"null","../img/gs/507gs.jpg","null","reveal","image-keyboard-response","262","387109","0.0-7.0-4.24","763997","59c3cfd7754a19000111ca78","solvability","","","","","","","",""
"null","../img/tt/507tt.jpg","null","mooney3","image-keyboard-response","263","388613","0.0-7.0-5.24","763997","59c3cfd7754a19000111ca78","solvability","","","","","","","",""
"null","","null","isi","html-keyboard-response","264","388815","0.0-7.0-6.24","763997","59c3cfd7754a19000111ca78","solvability","","","","","","","",""
"null","../solvability/picts/pict29.png","null","target","image-keyboard-response","265","389319","0.0-7.0-7.24","763997","59c3cfd7754a19000111ca78","solvability","","","NAHA","../img/tt/507tt.jpg","","0","",""
"1101.6649999655783","<p>Do you think this character expresses something bad/unpleasant or something good/pleasant?<br><br>Press <strong>left arrow</strong> for something bad or unpleasant<br>Press <strong>right arrow</strong> for something good or pleasant. </p>","37","affect","html-keyboard-response","266","390421","0.0-7.0-8.24","763997","59c3cfd7754a19000111ca78","solvability","","","NAHA","../img/tt/507tt.jpg","","","0","1601.6649999655783"
"null","<div style=""font-size:60px;""> </div>","null","fixation","html-keyboard-response","267","390625","0.0-7.0-0.25","763997","59c3cfd7754a19000111ca78","solvability","","","","","","","",""
"null","../img/tt/1126tt.jpg","null","mooney1","image-keyboard-response","268","393628","0.0-7.0-1.25","763997","59c3cfd7754a19000111ca78","solvability","","","","","","","",""
"1312.3999999952503","<p>Do you think you would be able to solve this image when given unlimited viewing time? <br><br>Press the <strong>N</strong>-key if ""rather no"", press the <strong>Y</strong>-key if ""rather yes"".</p>","78","solvability","html-keyboard-response","269","394942","0.0-7.0-2.25","763997","59c3cfd7754a19000111ca78","solvability","","","NAHA","../img/tt/1126tt.jpg","0","","",""
"null","../img/tt/1126tt.jpg","null","mooney2","image-keyboard-response","270","397446","0.0-7.0-3.25","763997","59c3cfd7754a19000111ca78","solvability","","","","","","","",""
"null","../img/gs/1126gs.jpg","null","reveal","image-keyboard-response","271","397949","0.0-7.0-4.25","763997","59c3cfd7754a19000111ca78","solvability","","","","","","","",""
"null","../img/tt/1126tt.jpg","null","mooney3","image-keyboard-response","272","399453","0.0-7.0-5.25","763997","59c3cfd7754a19000111ca78","solvability","","","","","","","",""
"null","","null","isi","html-keyboard-response","273","399655","0.0-7.0-6.25","763997","59c3cfd7754a19000111ca78","solvability","","","","","","","",""
"null","../solvability/picts/pict3.png","null","target","image-keyboard-response","274","400159","0.0-7.0-7.25","763997","59c3cfd7754a19000111ca78","solvability","","","NAHA","../img/tt/1126tt.jpg","","0","",""
"2756.600000022445","<p>Do you think this character expresses something bad/unpleasant or something good/pleasant?<br><br>Press <strong>left arrow</strong> for something bad or unpleasant<br>Press <strong>right arrow</strong> for something good or pleasant. </p>","39","affect","html-keyboard-response","275","402918","0.0-7.0-8.25","763997","59c3cfd7754a19000111ca78","solvability","","","NAHA","../img/tt/1126tt.jpg","","","1","3256.600000022445"
"null","<div style=""font-size:60px;""> </div>","null","fixation","html-keyboard-response","276","403120","0.0-7.0-0.26","763997","59c3cfd7754a19000111ca78","solvability","","","","","","","",""
"null","../img/tt/1186tt.jpg","null","mooney1","image-keyboard-response","277","406124","0.0-7.0-1.26","763997","59c3cfd7754a19000111ca78","solvability","","","","","","","",""
"1832.7599999611266","<p>Do you think you would be able to solve this image when given unlimited viewing time? <br><br>Press the <strong>N</strong>-key if ""rather no"", press the <strong>Y</strong>-key if ""rather yes"".</p>","89","solvability","html-keyboard-response","278","407959","0.0-7.0-2.26","763997","59c3cfd7754a19000111ca78","solvability","","","LAHA","../img/tt/1186tt.jpg","1","","",""
"null","../img/tt/1186tt.jpg","null","mooney2","image-keyboard-response","279","410463","0.0-7.0-3.26","763997","59c3cfd7754a19000111ca78","solvability","","","","","","","",""
"null","../img/gs/1186gs.jpg","null","reveal","image-keyboard-response","280","410966","0.0-7.0-4.26","763997","59c3cfd7754a19000111ca78","solvability","","","","","","","",""
"null","../img/tt/1186tt.jpg","null","mooney3","image-keyboard-response","281","412470","0.0-7.0-5.26","763997","59c3cfd7754a19000111ca78","solvability","","","","","","","",""
"null","","null","isi","html-keyboard-response","282","412672","0.0-7.0-6.26","763997","59c3cfd7754a19000111ca78","solvability","","","","","","","",""
"null","../solvability/picts/pict17.png","null","target","image-keyboard-response","283","413175","0.0-7.0-7.26","763997","59c3cfd7754a19000111ca78","solvability","","","LAHA","../img/tt/1186tt.jpg","","0","",""
"3109.8300000303425","<p>Do you think this character expresses something bad/unpleasant or something good/pleasant?<br><br>Press <strong>left arrow</strong> for something bad or unpleasant<br>Press <strong>right arrow</strong> for something good or pleasant. </p>","39","affect","html-keyboard-response","284","416287","0.0-7.0-8.26","763997","59c3cfd7754a19000111ca78","solvability","","","LAHA","../img/tt/1186tt.jpg","","","1","3609.8300000303425"
"null","<div style=""font-size:60px;""> </div>","null","fixation","html-keyboard-response","285","416489","0.0-7.0-0.27","763997","59c3cfd7754a19000111ca78","solvability","","","","","","","",""
"null","../img/tt/1127tt.jpg","null","mooney1","image-keyboard-response","286","419493","0.0-7.0-1.27","763997","59c3cfd7754a19000111ca78","solvability","","","","","","","",""
"951.839999994263","<p>Do you think you would be able to solve this image when given unlimited viewing time? <br><br>Press the <strong>N</strong>-key if ""rather no"", press the <strong>Y</strong>-key if ""rather yes"".</p>","89","solvability","html-keyboard-response","287","420446","0.0-7.0-2.27","763997","59c3cfd7754a19000111ca78","solvability","","","HAHA","../img/tt/1127tt.jpg","1","","",""
"null","../img/tt/1127tt.jpg","null","mooney2","image-keyboard-response","288","422950","0.0-7.0-3.27","763997","59c3cfd7754a19000111ca78","solvability","","","","","","","",""
"null","../img/gs/1127gs.jpg","null","reveal","image-keyboard-response","289","423453","0.0-7.0-4.27","763997","59c3cfd7754a19000111ca78","solvability","","","","","","","",""
"null","../img/tt/1127tt.jpg","null","mooney3","image-keyboard-response","290","424957","0.0-7.0-5.27","763997","59c3cfd7754a19000111ca78","solvability","","","","","","","",""
"null","","null","isi","html-keyboard-response","291","425159","0.0-7.0-6.27","763997","59c3cfd7754a19000111ca78","solvability","","","","","","","",""
"null","../solvability/picts/pict53.png","null","target","image-keyboard-response","292","425662","0.0-7.0-7.27","763997","59c3cfd7754a19000111ca78","solvability","","","HAHA","../img/tt/1127tt.jpg","","0","",""
"1477.3350000032224","<p>Do you think this character expresses something bad/unpleasant or something good/pleasant?<br><br>Press <strong>left arrow</strong> for something bad or unpleasant<br>Press <strong>right arrow</strong> for something good or pleasant. </p>","39","affect","html-keyboard-response","293","427142","0.0-7.0-8.27","763997","59c3cfd7754a19000111ca78","solvability","","","HAHA","../img/tt/1127tt.jpg","","","1","1977.3350000032224"
"null","<div style=""font-size:60px;""> </div>","null","fixation","html-keyboard-response","294","427344","0.0-7.0-0.28","763997","59c3cfd7754a19000111ca78","solvability","","","","","","","",""
"null","../img/tt/1012tt.jpg","null","mooney1","image-keyboard-response","295","430348","0.0-7.0-1.28","763997","59c3cfd7754a19000111ca78","solvability","","","","","","","",""
"1000.0399999553338","<p>Do you think you would be able to solve this image when given unlimited viewing time? <br><br>Press the <strong>N</strong>-key if ""rather no"", press the <strong>Y</strong>-key if ""rather yes"".</p>","78","solvability","html-keyboard-response","296","431349","0.0-7.0-2.28","763997","59c3cfd7754a19000111ca78","solvability","","","HAHA","../img/tt/1012tt.jpg","0","","",""
"null","../img/tt/1012tt.jpg","null","mooney2","image-keyboard-response","297","433851","0.0-7.0-3.28","763997","59c3cfd7754a19000111ca78","solvability","","","","","","","",""
"null","../img/gs/1012gs.jpg","null","reveal","image-keyboard-response","298","434354","0.0-7.0-4.28","763997","59c3cfd7754a19000111ca78","solvability","","","","","","","",""
"null","../img/tt/1012tt.jpg","null","mooney3","image-keyboard-response","299","435857","0.0-7.0-5.28","763997","59c3cfd7754a19000111ca78","solvability","","","","","","","",""
"null","","null","isi","html-keyboard-response","300","436059","0.0-7.0-6.28","763997","59c3cfd7754a19000111ca78","solvability","","","","","","","",""
"null","../solvability/picts/pict48.png","null","target","image-keyboard-response","301","436563","0.0-7.0-7.28","763997","59c3cfd7754a19000111ca78","solvability","","","HAHA","../img/tt/1012tt.jpg","","0","",""
"944.8599999886937","<p>Do you think this character expresses something bad/unpleasant or something good/pleasant?<br><br>Press <strong>left arrow</strong> for something bad or unpleasant<br>Press <strong>right arrow</strong> for something good or pleasant. </p>","39","affect","html-keyboard-response","302","437510","0.0-7.0-8.28","763997","59c3cfd7754a19000111ca78","solvability","","","HAHA","../img/tt/1012tt.jpg","","","1","1444.8599999886937"
"null","<div style=""font-size:60px;""> </div>","null","fixation","html-keyboard-response","303","437713","0.0-7.0-0.29","763997","59c3cfd7754a19000111ca78","solvability","","","","","","","",""
"null","../img/tt/496tt.jpg","null","mooney1","image-keyboard-response","304","440716","0.0-7.0-1.29","763997","59c3cfd7754a19000111ca78","solvability","","","","","","","",""
"455.6849999935366","<p>Do you think you would be able to solve this image when given unlimited viewing time? <br><br>Press the <strong>N</strong>-key if ""rather no"", press the <strong>Y</strong>-key if ""rather yes"".</p>","78","solvability","html-keyboard-response","305","441174","0.0-7.0-2.29","763997","59c3cfd7754a19000111ca78","solvability","","","HAHA","../img/tt/496tt.jpg","0","","",""
"null","../img/tt/496tt.jpg","null","mooney2","image-keyboard-response","306","443678","0.0-7.0-3.29","763997","59c3cfd7754a19000111ca78","solvability","","","","","","","",""
"null","../img/gs/496gs.jpg","null","reveal","image-keyboard-response","307","444180","0.0-7.0-4.29","763997","59c3cfd7754a19000111ca78","solvability","","","","","","","",""
"null","../img/tt/496tt.jpg","null","mooney3","image-keyboard-response","308","445684","0.0-7.0-5.29","763997","59c3cfd7754a19000111ca78","solvability","","","","","","","",""
"null","","null","isi","html-keyboard-response","309","445885","0.0-7.0-6.29","763997","59c3cfd7754a19000111ca78","solvability","","","","","","","",""
"null","../solvability/picts/pict32.png","null","target","image-keyboard-response","310","446388","0.0-7.0-7.29","763997","59c3cfd7754a19000111ca78","solvability","","","HAHA","../img/tt/496tt.jpg","","0","",""
"945.6849999842234","<p>Do you think this character expresses something bad/unpleasant or something good/pleasant?<br><br>Press <strong>left arrow</strong> for something bad or unpleasant<br>Press <strong>right arrow</strong> for something good or pleasant. </p>","37","affect","html-keyboard-response","311","447335","0.0-7.0-8.29","763997","59c3cfd7754a19000111ca78","solvability","","","HAHA","../img/tt/496tt.jpg","","","0","1445.6849999842234"
"null","<div style=""font-size:60px;""> </div>","null","fixation","html-keyboard-response","312","447538","0.0-7.0-0.30","763997","59c3cfd7754a19000111ca78","solvability","","","","","","","",""
"null","../img/tt/1107tt.jpg","null","mooney1","image-keyboard-response","313","450544","0.0-7.0-1.30","763997","59c3cfd7754a19000111ca78","solvability","","","","","","","",""
"444.25499998033047","<p>Do you think you would be able to solve this image when given unlimited viewing time? <br><br>Press the <strong>N</strong>-key if ""rather no"", press the <strong>Y</strong>-key if ""rather yes"".</p>","78","solvability","html-keyboard-response","314","450990","0.0-7.0-2.30","763997","59c3cfd7754a19000111ca78","solvability","","","NAHA","../img/tt/1107tt.jpg","0","","",""
"null","../img/tt/1107tt.jpg","null","mooney2","image-keyboard-response","315","453495","0.0-7.0-3.30","763997","59c3cfd7754a19000111ca78","solvability","","","","","","","",""
"null","../img/gs/1107gs.jpg","null","reveal","image-keyboard-response","316","453997","0.0-7.0-4.30","763997","59c3cfd7754a19000111ca78","solvability","","","","","","","",""
"null","../img/tt/1107tt.jpg","null","mooney3","image-keyboard-response","317","455501","0.0-7.0-5.30","763997","59c3cfd7754a19000111ca78","solvability","","","","","","","",""
"null","","null","isi","html-keyboard-response","318","455703","0.0-7.0-6.30","763997","59c3cfd7754a19000111ca78","solvability","","","","","","","",""
"null","../solvability/picts/pict12.png","null","target","image-keyboard-response","319","456206","0.0-7.0-7.30","763997","59c3cfd7754a19000111ca78","solvability","","","NAHA","../img/tt/1107tt.jpg","","0","",""
"1885.065000038594","<p>Do you think this character expresses something bad/unpleasant or something good/pleasant?<br><br>Press <strong>left arrow</strong> for something bad or unpleasant<br>Press <strong>right arrow</strong> for something good or pleasant. </p>","37","affect","html-keyboard-response","320","458094","0.0-7.0-8.30","763997","59c3cfd7754a19000111ca78","solvability","","","NAHA","../img/tt/1107tt.jpg","","","0","2385.065000038594"
"null","<div style=""font-size:60px;""> </div>","null","fixation","html-keyboard-response","321","458297","0.0-7.0-0.31","763997","59c3cfd7754a19000111ca78","solvability","","","","","","","",""
"null","../img/tt/1243tt.jpg","null","mooney1","image-keyboard-response","322","461300","0.0-7.0-1.31","763997","59c3cfd7754a19000111ca78","solvability","","","","","","","",""
"583.9949999935925","<p>Do you think you would be able to solve this image when given unlimited viewing time? <br><br>Press the <strong>N</strong>-key if ""rather no"", press the <strong>Y</strong>-key if ""rather yes"".</p>","89","solvability","html-keyboard-response","323","461886","0.0-7.0-2.31","763997","59c3cfd7754a19000111ca78","solvability","","","HAHA","../img/tt/1243tt.jpg","1","","",""
"null","../img/tt/1243tt.jpg","null","mooney2","image-keyboard-response","324","464391","0.0-7.0-3.31","763997","59c3cfd7754a19000111ca78","solvability","","","","","","","",""
"null","../img/gs/1243gs.jpg","null","reveal","image-keyboard-response","325","464893","0.0-7.0-4.31","763997","59c3cfd7754a19000111ca78","solvability","","","","","","","",""
"null","../img/tt/1243tt.jpg","null","mooney3","image-keyboard-response","326","466396","0.0-7.0-5.31","763997","59c3cfd7754a19000111ca78","solvability","","","","","","","",""
"null","","null","isi","html-keyboard-response","327","466597","0.0-7.0-6.31","763997","59c3cfd7754a19000111ca78","solvability","","","","","","","",""
"null","../solvability/picts/pict50.png","null","target","image-keyboard-response","328","467101","0.0-7.0-7.31","763997","59c3cfd7754a19000111ca78","solvability","","","HAHA","../img/tt/1243tt.jpg","","0","",""
"1206.304999999702","<p>Do you think this character expresses something bad/unpleasant or something good/pleasant?<br><br>Press <strong>left arrow</strong> for something bad or unpleasant<br>Press <strong>right arrow</strong> for something good or pleasant. </p>","37","affect","html-keyboard-response","329","468310","0.0-7.0-8.31","763997","59c3cfd7754a19000111ca78","solvability","","","HAHA","../img/tt/1243tt.jpg","","","0","1706.304999999702"
"null","<div style=""font-size:60px;""> </div>","null","fixation","html-keyboard-response","330","468513","0.0-7.0-0.32","763997","59c3cfd7754a19000111ca78","solvability","","","","","","","",""
"null","../img/tt/1191tt.jpg","null","mooney1","image-keyboard-response","331","471517","0.0-7.0-1.32","763997","59c3cfd7754a19000111ca78","solvability","","","","","","","",""
"910.8850000193343","<p>Do you think you would be able to solve this image when given unlimited viewing time? <br><br>Press the <strong>N</strong>-key if ""rather no"", press the <strong>Y</strong>-key if ""rather yes"".</p>","89","solvability","html-keyboard-response","332","472430","0.0-7.0-2.32","763997","59c3cfd7754a19000111ca78","solvability","","","HAHA","../img/tt/1191tt.jpg","1","","",""
"null","../img/tt/1191tt.jpg","null","mooney2","image-keyboard-response","333","474935","0.0-7.0-3.32","763997","59c3cfd7754a19000111ca78","solvability","","","","","","","",""
"null","../img/gs/1191gs.jpg","null","reveal","image-keyboard-response","334","475439","0.0-7.0-4.32","763997","59c3cfd7754a19000111ca78","solvability","","","","","","","",""
"null","../img/tt/1191tt.jpg","null","mooney3","image-keyboard-response","335","476943","0.0-7.0-5.32","763997","59c3cfd7754a19000111ca78","solvability","","","","","","","",""
"null","","null","isi","html-keyboard-response","336","477145","0.0-7.0-6.32","763997","59c3cfd7754a19000111ca78","solvability","","","","","","","",""
"null","../solvability/picts/pict31.png","null","target","image-keyboard-response","337","477649","0.0-7.0-7.32","763997","59c3cfd7754a19000111ca78","solvability","","","HAHA","../img/tt/1191tt.jpg","","0","",""
"1034.9350000033155","<p>Do you think this character expresses something bad/unpleasant or something good/pleasant?<br><br>Press <strong>left arrow</strong> for something bad or unpleasant<br>Press <strong>right arrow</strong> for something good or pleasant. </p>","37","affect","html-keyboard-response","338","478686","0.0-7.0-8.32","763997","59c3cfd7754a19000111ca78","solvability","","","HAHA","../img/tt/1191tt.jpg","","","0","1534.9350000033155"
"null","<div style=""font-size:60px;""> </div>","null","fixation","html-keyboard-response","339","478889","0.0-7.0-0.33","763997","59c3cfd7754a19000111ca78","solvability","","","","","","","",""
"null","../img/tt/1078tt.jpg","null","mooney1","image-keyboard-response","340","481893","0.0-7.0-1.33","763997","59c3cfd7754a19000111ca78","solvability","","","","","","","",""
"751.2449999921955","<p>Do you think you would be able to solve this image when given unlimited viewing time? <br><br>Press the <strong>N</strong>-key if ""rather no"", press the <strong>Y</strong>-key if ""rather yes"".</p>","89","solvability","html-keyboard-response","341","482646","0.0-7.0-2.33","763997","59c3cfd7754a19000111ca78","solvability","","","NAHA","../img/tt/1078tt.jpg","1","","",""
"null","../img/tt/1078tt.jpg","null","mooney2","image-keyboard-response","342","485149","0.0-7.0-3.33","763997","59c3cfd7754a19000111ca78","solvability","","","","","","","",""
"null","../img/gs/1078gs.jpg","null","reveal","image-keyboard-response","343","485652","0.0-7.0-4.33","763997","59c3cfd7754a19000111ca78","solvability","","","","","","","",""
"null","../img/tt/1078tt.jpg","null","mooney3","image-keyboard-response","344","487154","0.0-7.0-5.33","763997","59c3cfd7754a19000111ca78","solvability","","","","","","","",""
"null","","null","isi","html-keyboard-response","345","487356","0.0-7.0-6.33","763997","59c3cfd7754a19000111ca78","solvability","","","","","","","",""
"null","../solvability/picts/pict26.png","null","target","image-keyboard-response","346","487859","0.0-7.0-7.33","763997","59c3cfd7754a19000111ca78","solvability","","","NAHA","../img/tt/1078tt.jpg","","0","",""
"913.1649999762885","<p>Do you think this character expresses something bad/unpleasant or something good/pleasant?<br><br>Press <strong>left arrow</strong> for something bad or unpleasant<br>Press <strong>right arrow</strong> for something good or pleasant. </p>","39","affect","html-keyboard-response","347","488774","0.0-7.0-8.33","763997","59c3cfd7754a19000111ca78","solvability","","","NAHA","../img/tt/1078tt.jpg","","","1","1413.1649999762885"
"null","<div style=""font-size:60px;""> </div>","null","fixation","html-keyboard-response","348","488977","0.0-7.0-0.34","763997","59c3cfd7754a19000111ca78","solvability","","","","","","","",""
"null","../img/tt/1173tt.jpg","null","mooney1","image-keyboard-response","349","491981","0.0-7.0-1.34","763997","59c3cfd7754a19000111ca78","solvability","","","","","","","",""
"782.9200000269338","<p>Do you think you would be able to solve this image when given unlimited viewing time? <br><br>Press the <strong>N</strong>-key if ""rather no"", press the <strong>Y</strong>-key if ""rather yes"".</p>","89","solvability","html-keyboard-response","350","492765","0.0-7.0-2.34","763997","59c3cfd7754a19000111ca78","solvability","","","LAHA","../img/tt/1173tt.jpg","1","","",""
"null","../img/tt/1173tt.jpg","null","mooney2","image-keyboard-response","351","495269","0.0-7.0-3.34","763997","59c3cfd7754a19000111ca78","solvability","","","","","","","",""
"null","../img/gs/1173gs.jpg","null","reveal","image-keyboard-response","352","495772","0.0-7.0-4.34","763997","59c3cfd7754a19000111ca78","solvability","","","","","","","",""
"null","../img/tt/1173tt.jpg","null","mooney3","image-keyboard-response","353","497275","0.0-7.0-5.34","763997","59c3cfd7754a19000111ca78","solvability","","","","","","","",""
"null","","null","isi","html-keyboard-response","354","497477","0.0-7.0-6.34","763997","59c3cfd7754a19000111ca78","solvability","","","","","","","",""
"null","../solvability/picts/pict43.png","null","target","image-keyboard-response","355","497981","0.0-7.0-7.34","763997","59c3cfd7754a19000111ca78","solvability","","","LAHA","../img/tt/1173tt.jpg","","0","",""
"1381.4649999840185","<p>Do you think this character expresses something bad/unpleasant or something good/pleasant?<br><br>Press <strong>left arrow</strong> for something bad or unpleasant<br>Press <strong>right arrow</strong> for something good or pleasant. </p>","37","affect","html-keyboard-response","356","499365","0.0-7.0-8.34","763997","59c3cfd7754a19000111ca78","solvability","","","LAHA","../img/tt/1173tt.jpg","","","0","1881.4649999840185"
"null","<div style=""font-size:60px;""> </div>","null","fixation","html-keyboard-response","357","499567","0.0-7.0-0.35","763997","59c3cfd7754a19000111ca78","solvability","","","","","","","",""
"null","../img/tt/111tt.jpg","null","mooney1","image-keyboard-response","358","502570","0.0-7.0-1.35","763997","59c3cfd7754a19000111ca78","solvability","","","","","","","",""
"458.0349999596365","<p>Do you think you would be able to solve this image when given unlimited viewing time? <br><br>Press the <strong>N</strong>-key if ""rather no"", press the <strong>Y</strong>-key if ""rather yes"".</p>","78","solvability","html-keyboard-response","359","503030","0.0-7.0-2.35","763997","59c3cfd7754a19000111ca78","solvability","","","NAHA","../img/tt/111tt.jpg","0","","",""
"null","../img/tt/111tt.jpg","null","mooney2","image-keyboard-response","360","505534","0.0-7.0-3.35","763997","59c3cfd7754a19000111ca78","solvability","","","","","","","",""
"null","../img/gs/111gs.jpg","null","reveal","image-keyboard-response","361","506037","0.0-7.0-4.35","763997","59c3cfd7754a19000111ca78","solvability","","","","","","","",""
"null","../img/tt/111tt.jpg","null","mooney3","image-keyboard-response","362","507540","0.0-7.0-5.35","763997","59c3cfd7754a19000111ca78","solvability","","","","","","","",""
"null","","null","isi","html-keyboard-response","363","507742","0.0-7.0-6.35","763997","59c3cfd7754a19000111ca78","solvability","","","","","","","",""
"null","../solvability/picts/pict30.png","null","target","image-keyboard-response","364","508244","0.0-7.0-7.35","763997","59c3cfd7754a19000111ca78","solvability","","","NAHA","../img/tt/111tt.jpg","","0","",""
"1400.5899999756366","<p>Do you think this character expresses something bad/unpleasant or something good/pleasant?<br><br>Press <strong>left arrow</strong> for something bad or unpleasant<br>Press <strong>right arrow</strong> for something good or pleasant. </p>","37","affect","html-keyboard-response","365","509647","0.0-7.0-8.35","763997","59c3cfd7754a19000111ca78","solvability","","","NAHA","../img/tt/111tt.jpg","","","0","1900.5899999756366"
"null","<div style=""font-size:60px;""> </div>","null","fixation","html-keyboard-response","366","509851","0.0-7.0-0.36","763997","59c3cfd7754a19000111ca78","solvability","","","","","","","",""
"null","../img/tt/1261tt.jpg","null","mooney1","image-keyboard-response","367","512854","0.0-7.0-1.36","763997","59c3cfd7754a19000111ca78","solvability","","","","","","","",""
"750.2950000343844","<p>Do you think you would be able to solve this image when given unlimited viewing time? <br><br>Press the <strong>N</strong>-key if ""rather no"", press the <strong>Y</strong>-key if ""rather yes"".</p>","89","solvability","html-keyboard-response","368","513606","0.0-7.0-2.36","763997","59c3cfd7754a19000111ca78","solvability","","","HAHA","../img/tt/1261tt.jpg","1","","",""
"null","../img/tt/1261tt.jpg","null","mooney2","image-keyboard-response","369","516110","0.0-7.0-3.36","763997","59c3cfd7754a19000111ca78","solvability","","","","","","","",""
"null","../img/gs/1261gs.jpg","null","reveal","image-keyboard-response","370","516613","0.0-7.0-4.36","763997","59c3cfd7754a19000111ca78","solvability","","","","","","","",""
"null","../img/tt/1261tt.jpg","null","mooney3","image-keyboard-response","371","518116","0.0-7.0-5.36","763997","59c3cfd7754a19000111ca78","solvability","","","","","","","",""
"null","","null","isi","html-keyboard-response","372","518319","0.0-7.0-6.36","763997","59c3cfd7754a19000111ca78","solvability","","","","","","","",""
"null","../solvability/picts/pict56.png","null","target","image-keyboard-response","373","518822","0.0-7.0-7.36","763997","59c3cfd7754a19000111ca78","solvability","","","HAHA","../img/tt/1261tt.jpg","","0","",""
"789.6349999937229","<p>Do you think this character expresses something bad/unpleasant or something good/pleasant?<br><br>Press <strong>left arrow</strong> for something bad or unpleasant<br>Press <strong>right arrow</strong> for something good or pleasant. </p>","39","affect","html-keyboard-response","374","519614","0.0-7.0-8.36","763997","59c3cfd7754a19000111ca78","solvability","","","HAHA","../img/tt/1261tt.jpg","","","1","1289.6349999937229"
"null","<div style=""font-size:60px;""> </div>","null","fixation","html-keyboard-response","375","519817","0.0-7.0-0.37","763997","59c3cfd7754a19000111ca78","solvability","","","","","","","",""
"null","../img/tt/1097tt.jpg","null","mooney1","image-keyboard-response","376","522821","0.0-7.0-1.37","763997","59c3cfd7754a19000111ca78","solvability","","","","","","","",""
"464.0550000476651","<p>Do you think you would be able to solve this image when given unlimited viewing time? <br><br>Press the <strong>N</strong>-key if ""rather no"", press the <strong>Y</strong>-key if ""rather yes"".</p>","78","solvability","html-keyboard-response","377","523287","0.0-7.0-2.37","763997","59c3cfd7754a19000111ca78","solvability","","","NAHA","../img/tt/1097tt.jpg","0","","",""
"null","../img/tt/1097tt.jpg","null","mooney2","image-keyboard-response","378","525791","0.0-7.0-3.37","763997","59c3cfd7754a19000111ca78","solvability","","","","","","","",""
"null","../img/gs/1097gs.jpg","null","reveal","image-keyboard-response","379","526294","0.0-7.0-4.37","763997","59c3cfd7754a19000111ca78","solvability","","","","","","","",""
"null","../img/tt/1097tt.jpg","null","mooney3","image-keyboard-response","380","527797","0.0-7.0-5.37","763997","59c3cfd7754a19000111ca78","solvability","","","","","","","",""
"null","","null","isi","html-keyboard-response","381","528000","0.0-7.0-6.37","763997","59c3cfd7754a19000111ca78","solvability","","","","","","","",""
"null","../solvability/picts/pict19.png","null","target","image-keyboard-response","382","528503","0.0-7.0-7.37","763997","59c3cfd7754a19000111ca78","solvability","","","NAHA","../img/tt/1097tt.jpg","","0","",""
"875.739999988582","<p>Do you think this character expresses something bad/unpleasant or something good/pleasant?<br><br>Press <strong>left arrow</strong> for something bad or unpleasant<br>Press <strong>right arrow</strong> for something good or pleasant. </p>","37","affect","html-keyboard-response","383","529381","0.0-7.0-8.37","763997","59c3cfd7754a19000111ca78","solvability","","","NAHA","../img/tt/1097tt.jpg","","","0","1375.739999988582"
"null","<div style=""font-size:60px;""> </div>","null","fixation","html-keyboard-response","384","529583","0.0-7.0-0.38","763997","59c3cfd7754a19000111ca78","solvability","","","","","","","",""
"null","../img/tt/1063tt.jpg","null","mooney1","image-keyboard-response","385","532586","0.0-7.0-1.38","763997","59c3cfd7754a19000111ca78","solvability","","","","","","","",""
"426.3900000369176","<p>Do you think you would be able to solve this image when given unlimited viewing time? <br><br>Press the <strong>N</strong>-key if ""rather no"", press the <strong>Y</strong>-key if ""rather yes"".</p>","78","solvability","html-keyboard-response","386","533014","0.0-7.0-2.38","763997","59c3cfd7754a19000111ca78","solvability","","","NAHA","../img/tt/1063tt.jpg","0","","",""
"null","../img/tt/1063tt.jpg","null","mooney2","image-keyboard-response","387","535518","0.0-7.0-3.38","763997","59c3cfd7754a19000111ca78","solvability","","","","","","","",""
"null","../img/gs/1063gs.jpg","null","reveal","image-keyboard-response","388","536021","0.0-7.0-4.38","763997","59c3cfd7754a19000111ca78","solvability","","","","","","","",""
"null","../img/tt/1063tt.jpg","null","mooney3","image-keyboard-response","389","537524","0.0-7.0-5.38","763997","59c3cfd7754a19000111ca78","solvability","","","","","","","",""
"null","","null","isi","html-keyboard-response","390","537727","0.0-7.0-6.38","763997","59c3cfd7754a19000111ca78","solvability","","","","","","","",""
"null","../solvability/picts/pict16.png","null","target","image-keyboard-response","391","538230","0.0-7.0-7.38","763997","59c3cfd7754a19000111ca78","solvability","","","NAHA","../img/tt/1063tt.jpg","","0","",""
"541.5899999788962","<p>Do you think this character expresses something bad/unpleasant or something good/pleasant?<br><br>Press <strong>left arrow</strong> for something bad or unpleasant<br>Press <strong>right arrow</strong> for something good or pleasant. </p>","39","affect","html-keyboard-response","392","538774","0.0-7.0-8.38","763997","59c3cfd7754a19000111ca78","solvability","","","NAHA","../img/tt/1063tt.jpg","","","1","1041.5899999788962"
"null","<div style=""font-size:60px;""> </div>","null","fixation","html-keyboard-response","393","538976","0.0-7.0-0.39","763997","59c3cfd7754a19000111ca78","solvability","","","","","","","",""
"null","../img/tt/098tt.jpg","null","mooney1","image-keyboard-response","394","541980","0.0-7.0-1.39","763997","59c3cfd7754a19000111ca78","solvability","","","","","","","",""
"1320.7149999798276","<p>Do you think you would be able to solve this image when given unlimited viewing time? <br><br>Press the <strong>N</strong>-key if ""rather no"", press the <strong>Y</strong>-key if ""rather yes"".</p>","78","solvability","html-keyboard-response","395","543302","0.0-7.0-2.39","763997","59c3cfd7754a19000111ca78","solvability","","","LAHA","../img/tt/098tt.jpg","0","","",""
"null","../img/tt/098tt.jpg","null","mooney2","image-keyboard-response","396","545805","0.0-7.0-3.39","763997","59c3cfd7754a19000111ca78","solvability","","","","","","","",""
"null","../img/gs/098gs.jpg","null","reveal","image-keyboard-response","397","546309","0.0-7.0-4.39","763997","59c3cfd7754a19000111ca78","solvability","","","","","","","",""
"null","../img/tt/098tt.jpg","null","mooney3","image-keyboard-response","398","547812","0.0-7.0-5.39","763997","59c3cfd7754a19000111ca78","solvability","","","","","","","",""
"null","","null","isi","html-keyboard-response","399","548015","0.0-7.0-6.39","763997","59c3cfd7754a19000111ca78","solvability","","","","","","","",""
"null","../solvability/picts/pict59.png","null","target","image-keyboard-response","400","548518","0.0-7.0-7.39","763997","59c3cfd7754a19000111ca78","solvability","","","LAHA","../img/tt/098tt.jpg","","0","",""
"125.86500000907108","<p>Do you think this character expresses something bad/unpleasant or something good/pleasant?<br><br>Press <strong>left arrow</strong> for something bad or unpleasant<br>Press <strong>right arrow</strong> for something good or pleasant. </p>","39","affect","html-keyboard-response","401","548646","0.0-7.0-8.39","763997","59c3cfd7754a19000111ca78","solvability","","","LAHA","../img/tt/098tt.jpg","","","1","625.8650000090711"
"null","<div style=""font-size:60px;""> </div>","null","fixation","html-keyboard-response","402","548849","0.0-7.0-0.40","763997","59c3cfd7754a19000111ca78","solvability","","","","","","","",""
"null","../img/tt/053tt.jpg","null","mooney1","image-keyboard-response","403","551852","0.0-7.0-1.40","763997","59c3cfd7754a19000111ca78","solvability","","","","","","","",""
"456.4949999912642","<p>Do you think you would be able to solve this image when given unlimited viewing time? <br><br>Press the <strong>N</strong>-key if ""rather no"", press the <strong>Y</strong>-key if ""rather yes"".</p>","89","solvability","html-keyboard-response","404","552310","0.0-7.0-2.40","763997","59c3cfd7754a19000111ca78","solvability","","","NAHA","../img/tt/053tt.jpg","1","","",""
"null","../img/tt/053tt.jpg","null","mooney2","image-keyboard-response","405","554814","0.0-7.0-3.40","763997","59c3cfd7754a19000111ca78","solvability","","","","","","","",""
"null","../img/gs/053gs.jpg","null","reveal","image-keyboard-response","406","555318","0.0-7.0-4.40","763997","59c3cfd7754a19000111ca78","solvability","","","","","","","",""
"null","../img/tt/053tt.jpg","null","mooney3","image-keyboard-response","407","556822","0.0-7.0-5.40","763997","59c3cfd7754a19000111ca78","solvability","","","","","","","",""
"null","","null","isi","html-keyboard-response","408","557024","0.0-7.0-6.40","763997","59c3cfd7754a19000111ca78","solvability","","","","","","","",""
