"rt","stimulus","key_press","test_part","trial_type","trial_index","time_elapsed","internal_node_id","totalTime","subject","experiment_name","button_pressed","success","responses","question_order","currentStim","old","correct"
"7848.970000000008","Welcome to the experiment. This is an online experiment so please don't close the tab/window until we say goodbye.  Press any key to begin.","32","instructions","html-keyboard-response","0","7864","0.0-0.0","3613624","co00000","norming","","","","","","",""
"45974.125000000015","<div style='word-wrap: break-word; width: 900px'><h3>Please consider this information carefully before deciding whether to participate in this research</h3><ul style='text-align: left; font-size: .8em;'><li><b>Purpose of the research</b>: To examine how people process images.</li><li><b>What you will do in this research</b>:  Stimuli (images) will be presented on the computer and you will be asked different questions about them.</li><li><b>Time required</b>: Participation will take between 45 and 60 minutes to complete.</li><li><b>Risks</b>:  There are no anticipated risks associated with participating in this study. The effects of participating should be comparable to those you would experience from viewing a computer monitor for 30 minutes and using a mouse or keyboard.</li><li><b>Benefits</b>:  This study provides no benefits to you individually except for the credit. The study provides important information about the nature of perception and learning.</li><li><b>Confidentiality</b>:  Your participation in this study will remain confidential. No personally identifiable information will be associated with your data. Your de-identified data may be shared with other researchers and used in future projects.</li><li><b>Participation and withdrawal</b>:  Your participation in this study is completely voluntary and you may refuse to participate or you may choose to withdraw at any time without penalty.</li><li><b>How to contact the researchers</b>: If you have questions or concerns about your participation or payment, or want to request a summary of research findings, please contact Sander Van de Cruys (KU Leuven), at sander.vandecruys@kuleuven.be.</li></ul><p>The nature and purpose of this research have been sufficiently explained and I agree to participate in this study.  I understand that I am free to withdraw at any time without incurring any penalty.</p><p>Please consent by clicking the button below to continue. Otherwise, please exit the study at this time.</p></div>","","instructions","html-button-response","1","53829","0.0-1.0","3613624","co00000","norming","0","","","","","",""
"","","","instructions","fullscreen","2","58563","0.0-2.0","3613624","co00000","norming","","true","","","","",""
"62281.61","","","sona","survey-html-form","3","120851","0.0-3.0","3613624","co00000","norming","","","[{""name"":""sonaid"",""value"":""00000""},{""name"":""debrief"",""value"":""no""},{""name"":""datajoin"",""value"":""yes""}]","","","",""
"62810.72499999999","<div style='word-wrap: break-word; width: 900px'><h3>Instructions</h3><p>This experiment will have 3 parts. In the first part you will see a series of distorted images like the one below on the left. As you can see in the righthand image, the distorted images are derived from actual photographs. In what follows, you will <strong>briefly</strong> be presented with <strong>only</strong> the distorted image.</p> <div style='float: left; margin-right: 20px;'><img src='../img/018tt.jpg' height='250' width='250'></img></div><div style='float: right; margin-left: 20px;'><img src='../img/018gs.jpg' height='250' width='250'></img></div><p>Subsequently you will be asked a few questions about the image: One question on how <strong>curious</strong> you are about the solution and one on how <strong>confident</strong> you are that you know the solution.</p>Next, we ask you to make a guess on what is in the image. Note that it is OK to name just the <strong>basic level category</strong>. For example when you see a parrot in the image, 'parrot' will obviously be a correct answer but also correct is 'bird'. However, 'animal' will <strong>not</strong> be counted as a correct response. For the example above, 'rose' would be correct or 'flower', but not 'plant'. When soccer players are depicted, 'soccer', 'football', 'soccer players' will be correct, but not 'humans', 'outdoors', or 'sports'. You do not need to describe the image in full, just name the main object in it <strong>in one or two words</strong>. All images depict objects from one of the following broad level categories: animals, inanimate objects, plants, sports, vehicles, and food. Recognizing means knowing <strong>more</strong> than these broad labels for a given image. But we always encourage you to <strong>make a guess</strong> if you can. Note that you are allowed to use <strong>Dutch and English</strong> in your answers, whatever comes easiest for you.</p><p>Press any key to continue.</p></div>","32","instructions","html-keyboard-response","4","183665","0.0-4.0","3613624","co00000","norming","","","","","","",""
"3583.110000000015","<div style='word-wrap: break-word; width: 900px'><h3>Instructions</h3> <p>Next, the solution image will be revealed to you and you'll be asked to indicate how strong your <strong>aha-experience</strong> was after seeing the solution. This describes the positive feeling of the 'click' you sometimes experience, when the pieces of the 'puzzle' fall together and you suddenly have 'insight' in the image.</p><img src='aha.jpg' height='188' width='250'></img><p>Note that there are no right or wrong answers. We are interested in what <strong>you</strong> see in the image and how <strong>you</strong> feel about it.</p><p>Press any key to start the experiment.</p></div>","32","instructions","html-keyboard-response","5","187249","0.0-5.0","3613624","co00000","norming","","","","","","",""
"null","<div style=""font-size:60px;""> </div>","null","fixation","html-keyboard-response","6","187453","0.0-6.0-0.0","3613624","co00000","norming","","","","","","",""
"null","../img/tt/049tt.jpg","null","mooney1","image-keyboard-response","7","190460","0.0-6.0-1.0","3613624","co00000","norming","","","","","","",""
"15291.899999999994","","","post_mooney1_questions","survey-likert","8","205753","0.0-6.0-2.0","3613624","co00000","norming","","","{""curiosity"":5,""confidence"":1}","[0,1]","../img/tt/049tt.jpg","",""
"8621.680000000022","","","recognition","survey-text","9","214377","0.0-6.0-3.0","3613624","co00000","norming","","","{""guess"":""rocks""}","","../img/tt/049tt.jpg","",""
"null","../img/gs/049gs.jpg","null","reveal","image-keyboard-response","10","216387","0.0-6.0-4.0","3613624","co00000","norming","","","","","","",""
"null","../img/tt/049tt.jpg","null","mooney2","image-keyboard-response","11","218397","0.0-6.0-5.0","3613624","co00000","norming","","","","","","",""
"10835.304999999993","","","post_reveal_questions","survey-likert","12","229233","0.0-6.0-6.0","3613624","co00000","norming","","","{""aha"":2}","[0]","../img/tt/049tt.jpg","",""
"null","<div style=""font-size:60px;""> </div>","null","fixation","html-keyboard-response","13","229437","0.0-6.0-0.1","3613624","co00000","norming","","","","","","",""
"null","../img/tt/1004tt.jpg","null","mooney1","image-keyboard-response","14","232445","0.0-6.0-1.1","3613624","co00000","norming","","","","","","",""
"14242.834999999992","","","post_mooney1_questions","survey-likert","15","246613","0.0-6.0-2.1","3613624","co00000","norming","","","{""curiosity"":5,""confidence"":0}","[0,1]","../img/tt/1004tt.jpg","",""
"40430.320000000036","","","recognition","survey-text","16","287045","0.0-6.0-3.1","3613624","co00000","norming","","","{""guess"":""mountain""}","","../img/tt/1004tt.jpg","",""
"null","../img/gs/1004gs.jpg","null","reveal","image-keyboard-response","17","289053","0.0-6.0-4.1","3613624","co00000","norming","","","","","","",""
"null","../img/tt/1004tt.jpg","null","mooney2","image-keyboard-response","18","291055","0.0-6.0-5.1","3613624","co00000","norming","","","","","","",""
"4524.184999999998","","","post_reveal_questions","survey-likert","19","295581","0.0-6.0-6.1","3613624","co00000","norming","","","{""aha"":5}","[0]","../img/tt/1004tt.jpg","",""
"null","<div style=""font-size:60px;""> </div>","null","fixation","html-keyboard-response","20","295784","0.0-6.0-0.2","3613624","co00000","norming","","","","","","",""
"null","../img/tt/405tt.jpg","null","mooney1","image-keyboard-response","21","298790","0.0-6.0-1.2","3613624","co00000","norming","","","","","","",""
"7365.164999999921","","","post_mooney1_questions","survey-likert","22","306157","0.0-6.0-2.2","3613624","co00000","norming","","","{""curiosity"":2,""confidence"":6}","[0,1]","../img/tt/405tt.jpg","",""
"4893.929999999993","","","recognition","survey-text","23","310957","0.0-6.0-3.2","3613624","co00000","norming","","","{""guess"":""koala""}","","../img/tt/405tt.jpg","",""
"null","../img/gs/405gs.jpg","null","reveal","image-keyboard-response","24","312966","0.0-6.0-4.2","3613624","co00000","norming","","","","","","",""
"null","../img/tt/405tt.jpg","null","mooney2","image-keyboard-response","25","314974","0.0-6.0-5.2","3613624","co00000","norming","","","","","","",""
"3605.5999999999767","","","post_reveal_questions","survey-likert","26","318581","0.0-6.0-6.2","3613624","co00000","norming","","","{""aha"":2}","[0]","../img/tt/405tt.jpg","",""
"null","<div style=""font-size:60px;""> </div>","null","fixation","html-keyboard-response","27","318782","0.0-6.0-0.3","3613624","co00000","norming","","","","","","",""
"null","../img/tt/552tt.jpg","null","mooney1","image-keyboard-response","28","321789","0.0-6.0-1.3","3613624","co00000","norming","","","","","","",""
"8550.799999999988","","","post_mooney1_questions","survey-likert","29","330341","0.0-6.0-2.3","3613624","co00000","norming","","","{""curiosity"":5,""confidence"":1}","[0,1]","../img/tt/552tt.jpg","",""
"3678.170000000042","","","recognition","survey-text","30","334021","0.0-6.0-3.3","3613624","co00000","norming","","","{""guess"":""bird""}","","../img/tt/552tt.jpg","",""
"null","../img/gs/552gs.jpg","null","reveal","image-keyboard-response","31","336030","0.0-6.0-4.3","3613624","co00000","norming","","","","","","",""
"null","../img/tt/552tt.jpg","null","mooney2","image-keyboard-response","32","338031","0.0-6.0-5.3","3613624","co00000","norming","","","","","","",""
"2627.7999999999884","","","post_reveal_questions","survey-likert","33","340661","0.0-6.0-6.3","3613624","co00000","norming","","","{""aha"":5}","[0]","../img/tt/552tt.jpg","",""
"null","<div style=""font-size:60px;""> </div>","null","fixation","html-keyboard-response","34","340864","0.0-6.0-0.4","3613624","co00000","norming","","","","","","",""
"null","../img/tt/084tt.jpg","null","mooney1","image-keyboard-response","35","343872","0.0-6.0-1.4","3613624","co00000","norming","","","","","","",""
"7826.929999999935","","","post_mooney1_questions","survey-likert","36","351701","0.0-6.0-2.4","3613624","co00000","norming","","","{""curiosity"":3,""confidence"":4}","[0,1]","../img/tt/084tt.jpg","",""
"3198.1149999999907","","","recognition","survey-text","37","354901","0.0-6.0-3.4","3613624","co00000","norming","","","{""guess"":""bird""}","","../img/tt/084tt.jpg","",""
"null","../img/gs/084gs.jpg","null","reveal","image-keyboard-response","38","356909","0.0-6.0-4.4","3613624","co00000","norming","","","","","","",""
"null","../img/tt/084tt.jpg","null","mooney2","image-keyboard-response","39","358914","0.0-6.0-5.4","3613624","co00000","norming","","","","","","",""
"11233.724999999919","","","post_reveal_questions","survey-likert","40","370053","0.0-6.0-6.4","3613624","co00000","norming","","","{""aha"":2}","[0]","../img/tt/084tt.jpg","",""
"null","<div style=""font-size:60px;""> </div>","null","fixation","html-keyboard-response","41","370254","0.0-6.0-0.5","3613624","co00000","norming","","","","","","",""
"null","../img/tt/085tt.jpg","null","mooney1","image-keyboard-response","42","373260","0.0-6.0-1.5","3613624","co00000","norming","","","","","","",""
"7847.42499999993","","","post_mooney1_questions","survey-likert","43","381109","0.0-6.0-2.5","3613624","co00000","norming","","","{""curiosity"":4,""confidence"":4}","[0,1]","../img/tt/085tt.jpg","",""
"7198.179999999993","","","recognition","survey-text","44","388309","0.0-6.0-3.5","3613624","co00000","norming","","","{""guess"":""sprinkhaan""}","","../img/tt/085tt.jpg","",""
"null","../img/gs/085gs.jpg","null","reveal","image-keyboard-response","45","390316","0.0-6.0-4.5","3613624","co00000","norming","","","","","","",""
"null","../img/tt/085tt.jpg","null","mooney2","image-keyboard-response","46","392322","0.0-6.0-5.5","3613624","co00000","norming","","","","","","",""
"12441.55999999994","","","post_reveal_questions","survey-likert","47","404765","0.0-6.0-6.5","3613624","co00000","norming","","","{""aha"":3}","[0]","../img/tt/085tt.jpg","",""
"null","<div style=""font-size:60px;""> </div>","null","fixation","html-keyboard-response","48","404966","0.0-6.0-0.6","3613624","co00000","norming","","","","","","",""
"null","../img/tt/567tt.jpg","null","mooney1","image-keyboard-response","49","407975","0.0-6.0-1.6","3613624","co00000","norming","","","","","","",""
"8644.399999999965","","","post_mooney1_questions","survey-likert","50","416621","0.0-6.0-2.6","3613624","co00000","norming","","","{""curiosity"":5,""confidence"":0}","[0,1]","../img/tt/567tt.jpg","",""
"8958.210000000021","","","recognition","survey-text","51","425581","0.0-6.0-3.6","3613624","co00000","norming","","","{""guess"":""car""}","","../img/tt/567tt.jpg","",""
"null","../img/gs/567gs.jpg","null","reveal","image-keyboard-response","52","427583","0.0-6.0-4.6","3613624","co00000","norming","","","","","","",""
"null","../img/tt/567tt.jpg","null","mooney2","image-keyboard-response","53","429486","0.0-6.0-5.6","3613624","co00000","norming","","","","","","",""
"6515.035000000033","","","post_reveal_questions","survey-likert","54","436003","0.0-6.0-6.6","3613624","co00000","norming","","","{""aha"":4}","[0]","../img/tt/567tt.jpg","",""
"null","<div style=""font-size:60px;""> </div>","null","fixation","html-keyboard-response","55","436210","0.0-6.0-0.7","3613624","co00000","norming","","","","","","",""
"null","../img/tt/1049tt.jpg","null","mooney1","image-keyboard-response","56","439221","0.0-6.0-1.7","3613624","co00000","norming","","","","","","",""
"14100.280000000028","","","post_mooney1_questions","survey-likert","57","453323","0.0-6.0-2.7","3613624","co00000","norming","","","{""curiosity"":4,""confidence"":3}","[0,1]","../img/tt/1049tt.jpg","",""
"8126.135000000009","","","recognition","survey-text","58","461451","0.0-6.0-3.7","3613624","co00000","norming","","","{""guess"":""sleeping person""}","","../img/tt/1049tt.jpg","",""
"null","../img/gs/1049gs.jpg","null","reveal","image-keyboard-response","59","463452","0.0-6.0-4.7","3613624","co00000","norming","","","","","","",""
"null","../img/tt/1049tt.jpg","null","mooney2","image-keyboard-response","60","465457","0.0-6.0-5.7","3613624","co00000","norming","","","","","","",""
"6296.070000000007","","","post_reveal_questions","survey-likert","61","471755","0.0-6.0-6.7","3613624","co00000","norming","","","{""aha"":4}","[0]","../img/tt/1049tt.jpg","",""
"null","<div style=""font-size:60px;""> </div>","null","fixation","html-keyboard-response","62","471964","0.0-6.0-0.8","3613624","co00000","norming","","","","","","",""
"null","../img/tt/052tt.jpg","null","mooney1","image-keyboard-response","63","474966","0.0-6.0-1.8","3613624","co00000","norming","","","","","","",""
"11219.389999999956","","","post_mooney1_questions","survey-likert","64","486188","0.0-6.0-2.8","3613624","co00000","norming","","","{""curiosity"":4,""confidence"":2}","[0,1]","../img/tt/052tt.jpg","",""
"3253.7200000000303","","","recognition","survey-text","65","489443","0.0-6.0-3.8","3613624","co00000","norming","","","{""guess"":""bowl""}","","../img/tt/052tt.jpg","",""
"null","../img/gs/052gs.jpg","null","reveal","image-keyboard-response","66","491345","0.0-6.0-4.8","3613624","co00000","norming","","","","","","",""
"null","../img/tt/052tt.jpg","null","mooney2","image-keyboard-response","67","493350","0.0-6.0-5.8","3613624","co00000","norming","","","","","","",""
"3615.3000000000466","","","post_reveal_questions","survey-likert","68","496967","0.0-6.0-6.8","3613624","co00000","norming","","","{""aha"":5}","[0]","../img/tt/052tt.jpg","",""
"null","<div style=""font-size:60px;""> </div>","null","fixation","html-keyboard-response","69","497169","0.0-6.0-0.9","3613624","co00000","norming","","","","","","",""
"null","../img/tt/1097tt.jpg","null","mooney1","image-keyboard-response","70","500179","0.0-6.0-1.9","3613624","co00000","norming","","","","","","",""
"7962.770000000077","","","post_mooney1_questions","survey-likert","71","508143","0.0-6.0-2.9","3613624","co00000","norming","","","{""curiosity"":4,""confidence"":4}","[0,1]","../img/tt/1097tt.jpg","",""
"5686.120000000112","","","recognition","survey-text","72","513831","0.0-6.0-3.9","3613624","co00000","norming","","","{""guess"":""visser""}","","../img/tt/1097tt.jpg","",""
"null","../img/gs/1097gs.jpg","null","reveal","image-keyboard-response","73","515833","0.0-6.0-4.9","3613624","co00000","norming","","","","","","",""
"null","../img/tt/1097tt.jpg","null","mooney2","image-keyboard-response","74","517842","0.0-6.0-5.9","3613624","co00000","norming","","","","","","",""
"2994.7849999999744","","","post_reveal_questions","survey-likert","75","520839","0.0-6.0-6.9","3613624","co00000","norming","","","{""aha"":5}","[0]","../img/tt/1097tt.jpg","",""
"null","<div style=""font-size:60px;""> </div>","null","fixation","html-keyboard-response","76","521041","0.0-6.0-0.10","3613624","co00000","norming","","","","","","",""
"null","../img/tt/094tt.jpg","null","mooney1","image-keyboard-response","77","524045","0.0-6.0-1.10","3613624","co00000","norming","","","","","","",""
"7471.780000000028","","","post_mooney1_questions","survey-likert","78","531519","0.0-6.0-2.10","3613624","co00000","norming","","","{""curiosity"":4,""confidence"":4}","[0,1]","../img/tt/094tt.jpg","",""
"2590.3499999999767","","","recognition","survey-text","79","534111","0.0-6.0-3.10","3613624","co00000","norming","","","{""guess"":""dog""}","","../img/tt/094tt.jpg","",""
"null","../img/gs/094gs.jpg","null","reveal","image-keyboard-response","80","536119","0.0-6.0-4.10","3613624","co00000","norming","","","","","","",""
"null","../img/tt/094tt.jpg","null","mooney2","image-keyboard-response","81","538126","0.0-6.0-5.10","3613624","co00000","norming","","","","","","",""
"3647.7249999998603","","","post_reveal_questions","survey-likert","82","541775","0.0-6.0-6.10","3613624","co00000","norming","","","{""aha"":4}","[0]","../img/tt/094tt.jpg","",""
"null","<div style=""font-size:60px;""> </div>","null","fixation","html-keyboard-response","83","541977","0.0-6.0-0.11","3613624","co00000","norming","","","","","","",""
"null","../img/tt/1309tt.jpg","null","mooney1","image-keyboard-response","84","544982","0.0-6.0-1.11","3613624","co00000","norming","","","","","","",""
"19070.625","","","post_mooney1_questions","survey-likert","85","564033","0.0-6.0-2.11","3613624","co00000","norming","","","{""curiosity"":6,""confidence"":1}","[0,1]","../img/tt/1309tt.jpg","",""
"13910.025000000023","","","recognition","survey-text","86","577945","0.0-6.0-3.11","3613624","co00000","norming","","","{""guess"":""forest""}","","../img/tt/1309tt.jpg","",""
"null","../img/gs/1309gs.jpg","null","reveal","image-keyboard-response","87","579955","0.0-6.0-4.11","3613624","co00000","norming","","","","","","",""
"null","../img/tt/1309tt.jpg","null","mooney2","image-keyboard-response","88","581962","0.0-6.0-5.11","3613624","co00000","norming","","","","","","",""
"6981.089999999967","","","post_reveal_questions","survey-likert","89","588945","0.0-6.0-6.11","3613624","co00000","norming","","","{""aha"":5}","[0]","../img/tt/1309tt.jpg","",""
"null","<div style=""font-size:60px;""> </div>","null","fixation","html-keyboard-response","90","589146","0.0-6.0-0.12","3613624","co00000","norming","","","","","","",""
"null","../img/tt/1275tt.jpg","null","mooney1","image-keyboard-response","91","592156","0.0-6.0-1.12","3613624","co00000","norming","","","","","","",""
"8667.05999999994","","","post_mooney1_questions","survey-likert","92","600825","0.0-6.0-2.12","3613624","co00000","norming","","","{""curiosity"":5,""confidence"":3}","[0,1]","../img/tt/1275tt.jpg","",""
"2950.189999999944","","","recognition","survey-text","93","603777","0.0-6.0-3.12","3613624","co00000","norming","","","{""guess"":""dog""}","","../img/tt/1275tt.jpg","",""
"null","../img/gs/1275gs.jpg","null","reveal","image-keyboard-response","94","605778","0.0-6.0-4.12","3613624","co00000","norming","","","","","","",""
"null","../img/tt/1275tt.jpg","null","mooney2","image-keyboard-response","95","607780","0.0-6.0-5.12","3613624","co00000","norming","","","","","","",""
"4466.885000000126","","","post_reveal_questions","survey-likert","96","612249","0.0-6.0-6.12","3613624","co00000","norming","","","{""aha"":6}","[0]","../img/tt/1275tt.jpg","",""
"null","<div style=""font-size:60px;""> </div>","null","fixation","html-keyboard-response","97","612451","0.0-6.0-0.13","3613624","co00000","norming","","","","","","",""
"null","../img/tt/1089tt.jpg","null","mooney1","image-keyboard-response","98","615460","0.0-6.0-1.13","3613624","co00000","norming","","","","","","",""
"6394.994999999995","","","post_mooney1_questions","survey-likert","99","621858","0.0-6.0-2.13","3613624","co00000","norming","","","{""curiosity"":4,""confidence"":4}","[0,1]","../img/tt/1089tt.jpg","",""
"4038.390000000014","","","recognition","survey-text","100","625898","0.0-6.0-3.13","3613624","co00000","norming","","","{""guess"":""olifant""}","","../img/tt/1089tt.jpg","",""
"null","../img/gs/1089gs.jpg","null","reveal","image-keyboard-response","101","627900","0.0-6.0-4.13","3613624","co00000","norming","","","","","","",""
"null","../img/tt/1089tt.jpg","null","mooney2","image-keyboard-response","102","629901","0.0-6.0-5.13","3613624","co00000","norming","","","","","","",""
"13100.314999999944","","","post_reveal_questions","survey-likert","103","643003","0.0-6.0-6.13","3613624","co00000","norming","","","{""aha"":2}","[0]","../img/tt/1089tt.jpg","",""
"null","<div style=""font-size:60px;""> </div>","null","fixation","html-keyboard-response","104","643204","0.0-6.0-0.14","3613624","co00000","norming","","","","","","",""
"null","../img/tt/1173tt.jpg","null","mooney1","image-keyboard-response","105","646209","0.0-6.0-1.14","3613624","co00000","norming","","","","","","",""
"8552.150000000023","","","post_mooney1_questions","survey-likert","106","654762","0.0-6.0-2.14","3613624","co00000","norming","","","{""curiosity"":4,""confidence"":4}","[0,1]","../img/tt/1173tt.jpg","",""
"7662.04999999993","","","recognition","survey-text","107","662426","0.0-6.0-3.14","3613624","co00000","norming","","","{""guess"":""rugby player""}","","../img/tt/1173tt.jpg","",""
"null","../img/gs/1173gs.jpg","null","reveal","image-keyboard-response","108","664430","0.0-6.0-4.14","3613624","co00000","norming","","","","","","",""
"null","../img/tt/1173tt.jpg","null","mooney2","image-keyboard-response","109","666438","0.0-6.0-5.14","3613624","co00000","norming","","","","","","",""
"2778.6450000000186","","","post_reveal_questions","survey-likert","110","669218","0.0-6.0-6.14","3613624","co00000","norming","","","{""aha"":4}","[0]","../img/tt/1173tt.jpg","",""
"null","<div style=""font-size:60px;""> </div>","null","fixation","html-keyboard-response","111","669420","0.0-6.0-0.15","3613624","co00000","norming","","","","","","",""
"null","../img/tt/1181tt.jpg","null","mooney1","image-keyboard-response","112","672427","0.0-6.0-1.15","3613624","co00000","norming","","","","","","",""
"9805.860000000102","","","post_mooney1_questions","survey-likert","113","682236","0.0-6.0-2.15","3613624","co00000","norming","","","{""curiosity"":6,""confidence"":2}","[0,1]","../img/tt/1181tt.jpg","",""
"18453.505000000005","","","recognition","survey-text","114","700691","0.0-6.0-3.15","3613624","co00000","norming","","","{""guess"":""baseball players""}","","../img/tt/1181tt.jpg","",""
"null","../img/gs/1181gs.jpg","null","reveal","image-keyboard-response","115","702694","0.0-6.0-4.15","3613624","co00000","norming","","","","","","",""
"null","../img/tt/1181tt.jpg","null","mooney2","image-keyboard-response","116","704704","0.0-6.0-5.15","3613624","co00000","norming","","","","","","",""
"2346.0149999998976","","","post_reveal_questions","survey-likert","117","707052","0.0-6.0-6.15","3613624","co00000","norming","","","{""aha"":4}","[0]","../img/tt/1181tt.jpg","",""
"null","<div style=""font-size:60px;""> </div>","null","fixation","html-keyboard-response","118","707253","0.0-6.0-0.16","3613624","co00000","norming","","","","","","",""
"null","../img/tt/1084tt.jpg","null","mooney1","image-keyboard-response","119","710261","0.0-6.0-1.16","3613624","co00000","norming","","","","","","",""
"10965.445000000065","","","post_mooney1_questions","survey-likert","120","721228","0.0-6.0-2.16","3613624","co00000","norming","","","{""curiosity"":5,""confidence"":1}","[0,1]","../img/tt/1084tt.jpg","",""
"14958.080000000075","","","recognition","survey-text","121","736188","0.0-6.0-3.16","3613624","co00000","norming","","","{""guess"":""dinner table""}","","../img/tt/1084tt.jpg","",""
"null","../img/gs/1084gs.jpg","null","reveal","image-keyboard-response","122","738193","0.0-6.0-4.16","3613624","co00000","norming","","","","","","",""
"null","../img/tt/1084tt.jpg","null","mooney2","image-keyboard-response","123","740194","0.0-6.0-5.16","3613624","co00000","norming","","","","","","",""
"4439.400000000023","","","post_reveal_questions","survey-likert","124","744634","0.0-6.0-6.16","3613624","co00000","norming","","","{""aha"":4}","[0]","../img/tt/1084tt.jpg","",""
"null","<div style=""font-size:60px;""> </div>","null","fixation","html-keyboard-response","125","744844","0.0-6.0-0.17","3613624","co00000","norming","","","","","","",""
"null","../img/tt/098tt.jpg","null","mooney1","image-keyboard-response","126","747854","0.0-6.0-1.17","3613624","co00000","norming","","","","","","",""
"11338.305000000051","","","post_mooney1_questions","survey-likert","127","759195","0.0-6.0-2.17","3613624","co00000","norming","","","{""curiosity"":3,""confidence"":0}","[0,1]","../img/tt/098tt.jpg","",""
"8958.379999999888","","","recognition","survey-text","128","768154","0.0-6.0-3.17","3613624","co00000","norming","","","{""guess"":""""}","","../img/tt/098tt.jpg","",""
"null","../img/gs/098gs.jpg","null","reveal","image-keyboard-response","129","770157","0.0-6.0-4.17","3613624","co00000","norming","","","","","","",""
"null","../img/tt/098tt.jpg","null","mooney2","image-keyboard-response","130","772159","0.0-6.0-5.17","3613624","co00000","norming","","","","","","",""
"3857.25","","","post_reveal_questions","survey-likert","131","776018","0.0-6.0-6.17","3613624","co00000","norming","","","{""aha"":5}","[0]","../img/tt/098tt.jpg","",""
"null","<div style=""font-size:60px;""> </div>","null","fixation","html-keyboard-response","132","776219","0.0-6.0-0.18","3613624","co00000","norming","","","","","","",""
"null","../img/tt/194tt.jpg","null","mooney1","image-keyboard-response","133","779221","0.0-6.0-1.18","3613624","co00000","norming","","","","","","",""
"10043.884999999893","","","post_mooney1_questions","survey-likert","134","789267","0.0-6.0-2.18","3613624","co00000","norming","","","{""curiosity"":5,""confidence"":4}","[0,1]","../img/tt/194tt.jpg","",""
"4958.164999999804","","","recognition","survey-text","135","794226","0.0-6.0-3.18","3613624","co00000","norming","","","{""guess"":""musician""}","","../img/tt/194tt.jpg","",""
"null","../img/gs/194gs.jpg","null","reveal","image-keyboard-response","136","796228","0.0-6.0-4.18","3613624","co00000","norming","","","","","","",""
"null","../img/tt/194tt.jpg","null","mooney2","image-keyboard-response","137","798233","0.0-6.0-5.18","3613624","co00000","norming","","","","","","",""
"4480.375","","","post_reveal_questions","survey-likert","138","802718","0.0-6.0-6.18","3613624","co00000","norming","","","{""aha"":4}","[0]","../img/tt/194tt.jpg","",""
"null","<div style=""font-size:60px;""> </div>","null","fixation","html-keyboard-response","139","802927","0.0-6.0-0.19","3613624","co00000","norming","","","","","","",""
"null","../img/tt/1091tt.jpg","null","mooney1","image-keyboard-response","140","805931","0.0-6.0-1.19","3613624","co00000","norming","","","","","","",""
"8280.469999999972","","","post_mooney1_questions","survey-likert","141","814214","0.0-6.0-2.19","3613624","co00000","norming","","","{""curiosity"":5,""confidence"":4}","[0,1]","../img/tt/1091tt.jpg","",""
"5693.930000000051","","","recognition","survey-text","142","819909","0.0-6.0-3.19","3613624","co00000","norming","","","{""guess"":""cow""}","","../img/tt/1091tt.jpg","",""
"null","../img/gs/1091gs.jpg","null","reveal","image-keyboard-response","143","821919","0.0-6.0-4.19","3613624","co00000","norming","","","","","","",""
"null","../img/tt/1091tt.jpg","null","mooney2","image-keyboard-response","144","823928","0.0-6.0-5.19","3613624","co00000","norming","","","","","","",""
"5307.820000000065","","","post_reveal_questions","survey-likert","145","829238","0.0-6.0-6.19","3613624","co00000","norming","","","{""aha"":4}","[0]","../img/tt/1091tt.jpg","",""
"null","<div style=""font-size:60px;""> </div>","null","fixation","html-keyboard-response","146","829448","0.0-6.0-0.20","3613624","co00000","norming","","","","","","",""
"null","../img/tt/1239tt.jpg","null","mooney1","image-keyboard-response","147","832450","0.0-6.0-1.20","3613624","co00000","norming","","","","","","",""
"7242.310000000056","","","post_mooney1_questions","survey-likert","148","839694","0.0-6.0-2.20","3613624","co00000","norming","","","{""curiosity"":5,""confidence"":0}","[0,1]","../img/tt/1239tt.jpg","",""
"1238.3250000000698","","","recognition","survey-text","149","840934","0.0-6.0-3.20","3613624","co00000","norming","","","{""guess"":""""}","","../img/tt/1239tt.jpg","",""
"null","../img/gs/1239gs.jpg","null","reveal","image-keyboard-response","150","842941","0.0-6.0-4.20","3613624","co00000","norming","","","","","","",""
"null","../img/tt/1239tt.jpg","null","mooney2","image-keyboard-response","151","844949","0.0-6.0-5.20","3613624","co00000","norming","","","","","","",""
"2879.0250000000233","","","post_reveal_questions","survey-likert","152","847830","0.0-6.0-6.20","3613624","co00000","norming","","","{""aha"":6}","[0]","../img/tt/1239tt.jpg","",""
"null","<div style=""font-size:60px;""> </div>","null","fixation","html-keyboard-response","153","848032","0.0-6.0-0.21","3613624","co00000","norming","","","","","","",""
"null","../img/tt/1224tt.jpg","null","mooney1","image-keyboard-response","154","851037","0.0-6.0-1.21","3613624","co00000","norming","","","","","","",""
"9142.895000000019","","","post_mooney1_questions","survey-likert","155","860182","0.0-6.0-2.21","3613624","co00000","norming","","","{""curiosity"":5,""confidence"":2}","[0,1]","../img/tt/1224tt.jpg","",""
"3157.8349999999627","","","recognition","survey-text","156","863339","0.0-6.0-3.21","3613624","co00000","norming","","","{""guess"":""boxer""}","","../img/tt/1224tt.jpg","",""
"null","../img/gs/1224gs.jpg","null","reveal","image-keyboard-response","157","865344","0.0-6.0-4.21","3613624","co00000","norming","","","","","","",""
"null","../img/tt/1224tt.jpg","null","mooney2","image-keyboard-response","158","867346","0.0-6.0-5.21","3613624","co00000","norming","","","","","","",""
"2567.265000000014","","","post_reveal_questions","survey-likert","159","869915","0.0-6.0-6.21","3613624","co00000","norming","","","{""aha"":4}","[0]","../img/tt/1224tt.jpg","",""
"null","<div style=""font-size:60px;""> </div>","null","fixation","html-keyboard-response","160","870116","0.0-6.0-0.22","3613624","co00000","norming","","","","","","",""
"null","../img/tt/013tt.jpg","null","mooney1","image-keyboard-response","161","873126","0.0-6.0-1.22","3613624","co00000","norming","","","","","","",""
"5148.54999999993","","","post_mooney1_questions","survey-likert","162","878275","0.0-6.0-2.22","3613624","co00000","norming","","","{""curiosity"":5,""confidence"":0}","[0,1]","../img/tt/013tt.jpg","",""
"1270.5350000000326","","","recognition","survey-text","163","879547","0.0-6.0-3.22","3613624","co00000","norming","","","{""guess"":""""}","","../img/tt/013tt.jpg","",""
"null","../img/gs/013gs.jpg","null","reveal","image-keyboard-response","164","881548","0.0-6.0-4.22","3613624","co00000","norming","","","","","","",""
"null","../img/tt/013tt.jpg","null","mooney2","image-keyboard-response","165","883549","0.0-6.0-5.22","3613624","co00000","norming","","","","","","",""
"2851.92499999993","","","post_reveal_questions","survey-likert","166","886403","0.0-6.0-6.22","3613624","co00000","norming","","","{""aha"":5}","[0]","../img/tt/013tt.jpg","",""
"null","<div style=""font-size:60px;""> </div>","null","fixation","html-keyboard-response","167","886605","0.0-6.0-0.23","3613624","co00000","norming","","","","","","",""
"null","../img/tt/1107tt.jpg","null","mooney1","image-keyboard-response","168","889609","0.0-6.0-1.23","3613624","co00000","norming","","","","","","",""
"9991.929999999935","","","post_mooney1_questions","survey-likert","169","899603","0.0-6.0-2.23","3613624","co00000","norming","","","{""curiosity"":4,""confidence"":1}","[0,1]","../img/tt/1107tt.jpg","",""
"10717.999999999884","","","recognition","survey-text","170","910323","0.0-6.0-3.23","3613624","co00000","norming","","","{""guess"":""pig""}","","../img/tt/1107tt.jpg","",""
"null","../img/gs/1107gs.jpg","null","reveal","image-keyboard-response","171","912327","0.0-6.0-4.23","3613624","co00000","norming","","","","","","",""
"null","../img/tt/1107tt.jpg","null","mooney2","image-keyboard-response","172","914331","0.0-6.0-5.23","3613624","co00000","norming","","","","","","",""
"3535.2649999998976","","","post_reveal_questions","survey-likert","173","917867","0.0-6.0-6.23","3613624","co00000","norming","","","{""aha"":5}","[0]","../img/tt/1107tt.jpg","",""
"null","<div style=""font-size:60px;""> </div>","null","fixation","html-keyboard-response","174","918069","0.0-6.0-0.24","3613624","co00000","norming","","","","","","",""
"null","../img/tt/522tt.jpg","null","mooney1","image-keyboard-response","175","921075","0.0-6.0-1.24","3613624","co00000","norming","","","","","","",""
"10599.0900000002","","","post_mooney1_questions","survey-likert","176","931671","0.0-6.0-2.24","3613624","co00000","norming","","","{""curiosity"":3,""confidence"":1}","[0,1]","../img/tt/522tt.jpg","",""
"10405.740000000107","","","recognition","survey-text","177","942079","0.0-6.0-3.24","3613624","co00000","norming","","","{""guess"":""pipes""}","","../img/tt/522tt.jpg","",""
"null","../img/gs/522gs.jpg","null","reveal","image-keyboard-response","178","944080","0.0-6.0-4.24","3613624","co00000","norming","","","","","","",""
"null","../img/tt/522tt.jpg","null","mooney2","image-keyboard-response","179","946089","0.0-6.0-5.24","3613624","co00000","norming","","","","","","",""
"9036.94000000006","","","post_reveal_questions","survey-likert","180","955127","0.0-6.0-6.24","3613624","co00000","norming","","","{""aha"":2}","[0]","../img/tt/522tt.jpg","",""
"null","<div style=""font-size:60px;""> </div>","null","fixation","html-keyboard-response","181","955331","0.0-6.0-0.25","3613624","co00000","norming","","","","","","",""
"null","../img/tt/1188tt.jpg","null","mooney1","image-keyboard-response","182","958337","0.0-6.0-1.25","3613624","co00000","norming","","","","","","",""
"5717.114999999874","","","post_mooney1_questions","survey-likert","183","964056","0.0-6.0-2.25","3613624","co00000","norming","","","{""curiosity"":4,""confidence"":2}","[0,1]","../img/tt/1188tt.jpg","",""
"6933.829999999958","","","recognition","survey-text","184","970991","0.0-6.0-3.25","3613624","co00000","norming","","","{""guess"":""rugby player""}","","../img/tt/1188tt.jpg","",""
"null","../img/gs/1188gs.jpg","null","reveal","image-keyboard-response","185","973001","0.0-6.0-4.25","3613624","co00000","norming","","","","","","",""
"null","../img/tt/1188tt.jpg","null","mooney2","image-keyboard-response","186","975004","0.0-6.0-5.25","3613624","co00000","norming","","","","","","",""
"3842.5250000000233","","","post_reveal_questions","survey-likert","187","978848","0.0-6.0-6.25","3613624","co00000","norming","","","{""aha"":2}","[0]","../img/tt/1188tt.jpg","",""
"null","<div style=""font-size:60px;""> </div>","null","fixation","html-keyboard-response","188","979053","0.0-6.0-0.26","3613624","co00000","norming","","","","","","",""
"null","../img/tt/184tt.jpg","null","mooney1","image-keyboard-response","189","982058","0.0-6.0-1.26","3613624","co00000","norming","","","","","","",""
"6148.459999999846","","","post_mooney1_questions","survey-likert","190","988217","0.0-6.0-2.26","3613624","co00000","norming","","","{""curiosity"":5,""confidence"":1}","[0,1]","../img/tt/184tt.jpg","",""
"2878.0299999999115","","","recognition","survey-text","191","991096","0.0-6.0-3.26","3613624","co00000","norming","","","{""guess"":""chicken""}","","../img/tt/184tt.jpg","",""
"null","../img/gs/184gs.jpg","null","reveal","image-keyboard-response","192","993107","0.0-6.0-4.26","3613624","co00000","norming","","","","","","",""
"null","../img/tt/184tt.jpg","null","mooney2","image-keyboard-response","193","995116","0.0-6.0-5.26","3613624","co00000","norming","","","","","","",""
"3650.1049999999814","","","post_reveal_questions","survey-likert","194","998768","0.0-6.0-6.26","3613624","co00000","norming","","","{""aha"":4}","[0]","../img/tt/184tt.jpg","",""
"null","<div style=""font-size:60px;""> </div>","null","fixation","html-keyboard-response","195","998976","0.0-6.0-0.27","3613624","co00000","norming","","","","","","",""
"null","../img/tt/329tt.jpg","null","mooney1","image-keyboard-response","196","1001981","0.0-6.0-1.27","3613624","co00000","norming","","","","","","",""
"5673.609999999753","","","post_mooney1_questions","survey-likert","197","1007656","0.0-6.0-2.27","3613624","co00000","norming","","","{""curiosity"":4,""confidence"":2}","[0,1]","../img/tt/329tt.jpg","",""
"4973.430000000051","","","recognition","survey-text","198","1012632","0.0-6.0-3.27","3613624","co00000","norming","","","{""guess"":""miereneter""}","","../img/tt/329tt.jpg","",""
"null","../img/gs/329gs.jpg","null","reveal","image-keyboard-response","199","1014639","0.0-6.0-4.27","3613624","co00000","norming","","","","","","",""
"null","../img/tt/329tt.jpg","null","mooney2","image-keyboard-response","200","1016646","0.0-6.0-5.27","3613624","co00000","norming","","","","","","",""
"2968.269999999902","","","post_reveal_questions","survey-likert","201","1019616","0.0-6.0-6.27","3613624","co00000","norming","","","{""aha"":5}","[0]","../img/tt/329tt.jpg","",""
"null","<div style=""font-size:60px;""> </div>","null","fixation","html-keyboard-response","202","1019817","0.0-6.0-0.28","3613624","co00000","norming","","","","","","",""
"null","../img/tt/1261tt.jpg","null","mooney1","image-keyboard-response","203","1022822","0.0-6.0-1.28","3613624","co00000","norming","","","","","","",""
"7480.6849999999395","","","post_mooney1_questions","survey-likert","204","1030304","0.0-6.0-2.28","3613624","co00000","norming","","","{""curiosity"":5,""confidence"":1}","[0,1]","../img/tt/1261tt.jpg","",""
"5398.189999999944","","","recognition","survey-text","205","1035704","0.0-6.0-3.28","3613624","co00000","norming","","","{""guess"":""wood shredder""}","","../img/tt/1261tt.jpg","",""
"null","../img/gs/1261gs.jpg","null","reveal","image-keyboard-response","206","1037707","0.0-6.0-4.28","3613624","co00000","norming","","","","","","",""
"null","../img/tt/1261tt.jpg","null","mooney2","image-keyboard-response","207","1039708","0.0-6.0-5.28","3613624","co00000","norming","","","","","","",""
"3418.789999999921","","","post_reveal_questions","survey-likert","208","1043128","0.0-6.0-6.28","3613624","co00000","norming","","","{""aha"":3}","[0]","../img/tt/1261tt.jpg","",""
"null","<div style=""font-size:60px;""> </div>","null","fixation","html-keyboard-response","209","1043338","0.0-6.0-0.29","3613624","co00000","norming","","","","","","",""
"null","../img/tt/1190tt.jpg","null","mooney1","image-keyboard-response","210","1046344","0.0-6.0-1.29","3613624","co00000","norming","","","","","","",""
"4579.719999999972","","","post_mooney1_questions","survey-likert","211","1050925","0.0-6.0-2.29","3613624","co00000","norming","","","{""curiosity"":4,""confidence"":4}","[0,1]","../img/tt/1190tt.jpg","",""
"3405.8700000001118","","","recognition","survey-text","212","1054333","0.0-6.0-3.29","3613624","co00000","norming","","","{""guess"":""kameleon""}","","../img/tt/1190tt.jpg","",""
"null","../img/gs/1190gs.jpg","null","reveal","image-keyboard-response","213","1056342","0.0-6.0-4.29","3613624","co00000","norming","","","","","","",""
"null","../img/tt/1190tt.jpg","null","mooney2","image-keyboard-response","214","1058352","0.0-6.0-5.29","3613624","co00000","norming","","","","","","",""
"6379.719999999972","","","post_reveal_questions","survey-likert","215","1064733","0.0-6.0-6.29","3613624","co00000","norming","","","{""aha"":4}","[0]","../img/tt/1190tt.jpg","",""
"null","<div style=""font-size:60px;""> </div>","null","fixation","html-keyboard-response","216","1064935","0.0-6.0-0.30","3613624","co00000","norming","","","","","","",""
"null","../img/tt/1072tt.jpg","null","mooney1","image-keyboard-response","217","1067937","0.0-6.0-1.30","3613624","co00000","norming","","","","","","",""
"6105.824999999953","","","post_mooney1_questions","survey-likert","218","1074045","0.0-6.0-2.30","3613624","co00000","norming","","","{""curiosity"":4,""confidence"":1}","[0,1]","../img/tt/1072tt.jpg","",""
"12261.86499999999","","","recognition","survey-text","219","1086308","0.0-6.0-3.30","3613624","co00000","norming","","","{""guess"":""duikboot""}","","../img/tt/1072tt.jpg","",""
"null","../img/gs/1072gs.jpg","null","reveal","image-keyboard-response","220","1088310","0.0-6.0-4.30","3613624","co00000","norming","","","","","","",""
"null","../img/tt/1072tt.jpg","null","mooney2","image-keyboard-response","221","1090315","0.0-6.0-5.30","3613624","co00000","norming","","","","","","",""
"3761.3600000001024","","","post_reveal_questions","survey-likert","222","1094077","0.0-6.0-6.30","3613624","co00000","norming","","","{""aha"":1}","[0]","../img/tt/1072tt.jpg","",""
"null","<div style=""font-size:60px;""> </div>","null","fixation","html-keyboard-response","223","1094280","0.0-6.0-0.31","3613624","co00000","norming","","","","","","",""
"null","../img/tt/091tt.jpg","null","mooney1","image-keyboard-response","224","1097286","0.0-6.0-1.31","3613624","co00000","norming","","","","","","",""
"7116.479999999981","","","post_mooney1_questions","survey-likert","225","1104405","0.0-6.0-2.31","3613624","co00000","norming","","","{""curiosity"":4,""confidence"":1}","[0,1]","../img/tt/091tt.jpg","",""
"3014.344999999972","","","recognition","survey-text","226","1107416","0.0-6.0-3.31","3613624","co00000","norming","","","{""guess"":""seal""}","","../img/tt/091tt.jpg","",""
"null","../img/gs/091gs.jpg","null","reveal","image-keyboard-response","227","1109418","0.0-6.0-4.31","3613624","co00000","norming","","","","","","",""
"null","../img/tt/091tt.jpg","null","mooney2","image-keyboard-response","228","1111422","0.0-6.0-5.31","3613624","co00000","norming","","","","","","",""
"4096.98499999987","","","post_reveal_questions","survey-likert","229","1115520","0.0-6.0-6.31","3613624","co00000","norming","","","{""aha"":3}","[0]","../img/tt/091tt.jpg","",""
"null","<div style=""font-size:60px;""> </div>","null","fixation","html-keyboard-response","230","1115728","0.0-6.0-0.32","3613624","co00000","norming","","","","","","",""
"null","../img/tt/1012tt.jpg","null","mooney1","image-keyboard-response","231","1118732","0.0-6.0-1.32","3613624","co00000","norming","","","","","","",""
"10098.614999999758","","","post_mooney1_questions","survey-likert","232","1128832","0.0-6.0-2.32","3613624","co00000","norming","","","{""curiosity"":3,""confidence"":1}","[0,1]","../img/tt/1012tt.jpg","",""
"3110.3649999999907","","","recognition","survey-text","233","1131944","0.0-6.0-3.32","3613624","co00000","norming","","","{""guess"":""horse""}","","../img/tt/1012tt.jpg","",""
"null","../img/gs/1012gs.jpg","null","reveal","image-keyboard-response","234","1133954","0.0-6.0-4.32","3613624","co00000","norming","","","","","","",""
"null","../img/tt/1012tt.jpg","null","mooney2","image-keyboard-response","235","1135958","0.0-6.0-5.32","3613624","co00000","norming","","","","","","",""
"2545.0699999998324","","","post_reveal_questions","survey-likert","236","1138504","0.0-6.0-6.32","3613624","co00000","norming","","","{""aha"":5}","[0]","../img/tt/1012tt.jpg","",""
"null","<div style=""font-size:60px;""> </div>","null","fixation","html-keyboard-response","237","1138706","0.0-6.0-0.33","3613624","co00000","norming","","","","","","",""
"null","../img/tt/1048tt.jpg","null","mooney1","image-keyboard-response","238","1141708","0.0-6.0-1.33","3613624","co00000","norming","","","","","","",""
"6882.164999999804","","","post_mooney1_questions","survey-likert","239","1148593","0.0-6.0-2.33","3613624","co00000","norming","","","{""curiosity"":6,""confidence"":2}","[0,1]","../img/tt/1048tt.jpg","",""
"3654.1299999998882","","","recognition","survey-text","240","1152248","0.0-6.0-3.33","3613624","co00000","norming","","","{""guess"":""horse""}","","../img/tt/1048tt.jpg","",""
"null","../img/gs/1048gs.jpg","null","reveal","image-keyboard-response","241","1154254","0.0-6.0-4.33","3613624","co00000","norming","","","","","","",""
"null","../img/tt/1048tt.jpg","null","mooney2","image-keyboard-response","242","1156259","0.0-6.0-5.33","3613624","co00000","norming","","","","","","",""
"8028.2599999997765","","","post_reveal_questions","survey-likert","243","1164288","0.0-6.0-6.33","3613624","co00000","norming","","","{""aha"":4}","[0]","../img/tt/1048tt.jpg","",""
"null","<div style=""font-size:60px;""> </div>","null","fixation","html-keyboard-response","244","1164490","0.0-6.0-0.34","3613624","co00000","norming","","","","","","",""
"null","../img/tt/111tt.jpg","null","mooney1","image-keyboard-response","245","1167501","0.0-6.0-1.34","3613624","co00000","norming","","","","","","",""
"6562.10999999987","","","post_mooney1_questions","survey-likert","246","1174066","0.0-6.0-2.34","3613624","co00000","norming","","","{""curiosity"":5,""confidence"":1}","[0,1]","../img/tt/111tt.jpg","",""
"8670.119999999879","","","recognition","survey-text","247","1182737","0.0-6.0-3.34","3613624","co00000","norming","","","{""guess"":""flessenopener""}","","../img/tt/111tt.jpg","",""
"null","../img/gs/111gs.jpg","null","reveal","image-keyboard-response","248","1184748","0.0-6.0-4.34","3613624","co00000","norming","","","","","","",""
"null","../img/tt/111tt.jpg","null","mooney2","image-keyboard-response","249","1186750","0.0-6.0-5.34","3613624","co00000","norming","","","","","","",""
"3689.5150000001304","","","post_reveal_questions","survey-likert","250","1190441","0.0-6.0-6.34","3613624","co00000","norming","","","{""aha"":4}","[0]","../img/tt/111tt.jpg","",""
"null","<div style=""font-size:60px;""> </div>","null","fixation","html-keyboard-response","251","1190643","0.0-6.0-0.35","3613624","co00000","norming","","","","","","",""
"null","../img/tt/1101tt.jpg","null","mooney1","image-keyboard-response","252","1193650","0.0-6.0-1.35","3613624","co00000","norming","","","","","","",""
"6644.714999999851","","","post_mooney1_questions","survey-likert","253","1200297","0.0-6.0-2.35","3613624","co00000","norming","","","{""curiosity"":4,""confidence"":2}","[0,1]","../img/tt/1101tt.jpg","",""
"6926.600000000093","","","recognition","survey-text","254","1207225","0.0-6.0-3.35","3613624","co00000","norming","","","{""guess"":""frisbee player""}","","../img/tt/1101tt.jpg","",""
"null","../img/gs/1101gs.jpg","null","reveal","image-keyboard-response","255","1209234","0.0-6.0-4.35","3613624","co00000","norming","","","","","","",""
"null","../img/tt/1101tt.jpg","null","mooney2","image-keyboard-response","256","1211235","0.0-6.0-5.35","3613624","co00000","norming","","","","","","",""
"5772.159999999916","","","post_reveal_questions","survey-likert","257","1217009","0.0-6.0-6.35","3613624","co00000","norming","","","{""aha"":2}","[0]","../img/tt/1101tt.jpg","",""
"null","<div style=""font-size:60px;""> </div>","null","fixation","html-keyboard-response","258","1217211","0.0-6.0-0.36","3613624","co00000","norming","","","","","","",""
"null","../img/tt/1024tt.jpg","null","mooney1","image-keyboard-response","259","1220220","0.0-6.0-1.36","3613624","co00000","norming","","","","","","",""
"7603.109999999637","","","post_mooney1_questions","survey-likert","260","1227827","0.0-6.0-2.36","3613624","co00000","norming","","","{""curiosity"":4,""confidence"":2}","[0,1]","../img/tt/1024tt.jpg","",""
"2614.060000000056","","","recognition","survey-text","261","1230443","0.0-6.0-3.36","3613624","co00000","norming","","","{""guess"":""frog""}","","../img/tt/1024tt.jpg","",""
"null","../img/gs/1024gs.jpg","null","reveal","image-keyboard-response","262","1232452","0.0-6.0-4.36","3613624","co00000","norming","","","","","","",""
"null","../img/tt/1024tt.jpg","null","mooney2","image-keyboard-response","263","1234460","0.0-6.0-5.36","3613624","co00000","norming","","","","","","",""
"2357.6200000001118","","","post_reveal_questions","survey-likert","264","1236819","0.0-6.0-6.36","3613624","co00000","norming","","","{""aha"":4}","[0]","../img/tt/1024tt.jpg","",""
"null","<div style=""font-size:60px;""> </div>","null","fixation","html-keyboard-response","265","1237021","0.0-6.0-0.37","3613624","co00000","norming","","","","","","",""
"null","../img/tt/378tt.jpg","null","mooney1","image-keyboard-response","266","1240030","0.0-6.0-1.37","3613624","co00000","norming","","","","","","",""
"5690.754999999888","","","post_mooney1_questions","survey-likert","267","1245724","0.0-6.0-2.37","3613624","co00000","norming","","","{""curiosity"":3,""confidence"":0}","[0,1]","../img/tt/378tt.jpg","",""
"2102.2349999998696","","","recognition","survey-text","268","1247827","0.0-6.0-3.37","3613624","co00000","norming","","","{""guess"":""""}","","../img/tt/378tt.jpg","",""
"null","../img/gs/378gs.jpg","null","reveal","image-keyboard-response","269","1249837","0.0-6.0-4.37","3613624","co00000","norming","","","","","","",""
"null","../img/tt/378tt.jpg","null","mooney2","image-keyboard-response","270","1251844","0.0-6.0-5.37","3613624","co00000","norming","","","","","","",""
"2765.5699999998324","","","post_reveal_questions","survey-likert","271","1254611","0.0-6.0-6.37","3613624","co00000","norming","","","{""aha"":5}","[0]","../img/tt/378tt.jpg","",""
"null","<div style=""font-size:60px;""> </div>","null","fixation","html-keyboard-response","272","1254812","0.0-6.0-0.38","3613624","co00000","norming","","","","","","",""
"null","../img/tt/112tt.jpg","null","mooney1","image-keyboard-response","273","1257820","0.0-6.0-1.38","3613624","co00000","norming","","","","","","",""
"3980.8549999999814","","","post_mooney1_questions","survey-likert","274","1261803","0.0-6.0-2.38","3613624","co00000","norming","","","{""curiosity"":4,""confidence"":4}","[0,1]","../img/tt/112tt.jpg","",""
"4302.26500000013","","","recognition","survey-text","275","1266107","0.0-6.0-3.38","3613624","co00000","norming","","","{""guess"":""watch""}","","../img/tt/112tt.jpg","",""
"null","../img/gs/112gs.jpg","null","reveal","image-keyboard-response","276","1268112","0.0-6.0-4.38","3613624","co00000","norming","","","","","","",""
"null","../img/tt/112tt.jpg","null","mooney2","image-keyboard-response","277","1270122","0.0-6.0-5.38","3613624","co00000","norming","","","","","","",""
"2543.320000000065","","","post_reveal_questions","survey-likert","278","1272667","0.0-6.0-6.38","3613624","co00000","norming","","","{""aha"":4}","[0]","../img/tt/112tt.jpg","",""
"null","<div style=""font-size:60px;""> </div>","null","fixation","html-keyboard-response","279","1272869","0.0-6.0-0.39","3613624","co00000","norming","","","","","","",""
"null","../img/tt/1276tt.jpg","null","mooney1","image-keyboard-response","280","1275880","0.0-6.0-1.39","3613624","co00000","norming","","","","","","",""
"5449.804999999935","","","post_mooney1_questions","survey-likert","281","1281331","0.0-6.0-2.39","3613624","co00000","norming","","","{""curiosity"":5,""confidence"":0}","[0,1]","../img/tt/1276tt.jpg","",""
"1734.5699999998324","","","recognition","survey-text","282","1283067","0.0-6.0-3.39","3613624","co00000","norming","","","{""guess"":""""}","","../img/tt/1276tt.jpg","",""
"null","../img/gs/1276gs.jpg","null","reveal","image-keyboard-response","283","1285071","0.0-6.0-4.39","3613624","co00000","norming","","","","","","",""
"null","../img/tt/1276tt.jpg","null","mooney2","image-keyboard-response","284","1287081","0.0-6.0-5.39","3613624","co00000","norming","","","","","","",""
"2024.9850000001024","","","post_reveal_questions","survey-likert","285","1289106","0.0-6.0-6.39","3613624","co00000","norming","","","{""aha"":2}","[0]","../img/tt/1276tt.jpg","",""
"null","<div style=""font-size:60px;""> </div>","null","fixation","html-keyboard-response","286","1289309","0.0-6.0-0.40","3613624","co00000","norming","","","","","","",""
"null","../img/tt/380tt.jpg","null","mooney1","image-keyboard-response","287","1292318","0.0-6.0-1.40","3613624","co00000","norming","","","","","","",""
"6715.26500000013","","","post_mooney1_questions","survey-likert","288","1299034","0.0-6.0-2.40","3613624","co00000","norming","","","{""curiosity"":4,""confidence"":2}","[0,1]","../img/tt/380tt.jpg","",""
"4453.95999999973","","","recognition","survey-text","289","1303490","0.0-6.0-3.40","3613624","co00000","norming","","","{""guess"":""knaagdier""}","","../img/tt/380tt.jpg","",""
"null","../img/gs/380gs.jpg","null","reveal","image-keyboard-response","290","1305495","0.0-6.0-4.40","3613624","co00000","norming","","","","","","",""
"null","../img/tt/380tt.jpg","null","mooney2","image-keyboard-response","291","1307500","0.0-6.0-5.40","3613624","co00000","norming","","","","","","",""
"2852.635000000242","","","post_reveal_questions","survey-likert","292","1310354","0.0-6.0-6.40","3613624","co00000","norming","","","{""aha"":5}","[0]","../img/tt/380tt.jpg","",""
"null","<div style=""font-size:60px;""> </div>","null","fixation","html-keyboard-response","293","1310555","0.0-6.0-0.41","3613624","co00000","norming","","","","","","",""
"null","../img/tt/1046tt.jpg","null","mooney1","image-keyboard-response","294","1313563","0.0-6.0-1.41","3613624","co00000","norming","","","","","","",""
"5893.389999999898","","","post_mooney1_questions","survey-likert","295","1319459","0.0-6.0-2.41","3613624","co00000","norming","","","{""curiosity"":3,""confidence"":0}","[0,1]","../img/tt/1046tt.jpg","",""
"5654.35999999987","","","recognition","survey-text","296","1325115","0.0-6.0-3.41","3613624","co00000","norming","","","{""guess"":""""}","","../img/tt/1046tt.jpg","",""
"null","../img/gs/1046gs.jpg","null","reveal","image-keyboard-response","297","1327119","0.0-6.0-4.41","3613624","co00000","norming","","","","","","",""
"null","../img/tt/1046tt.jpg","null","mooney2","image-keyboard-response","298","1329120","0.0-6.0-5.41","3613624","co00000","norming","","","","","","",""
"2344.530000000028","","","post_reveal_questions","survey-likert","299","1331466","0.0-6.0-6.41","3613624","co00000","norming","","","{""aha"":2}","[0]","../img/tt/1046tt.jpg","",""
"null","<div style=""font-size:60px;""> </div>","null","fixation","html-keyboard-response","300","1331667","0.0-6.0-0.42","3613624","co00000","norming","","","","","","",""
"null","../img/tt/001tt.jpg","null","mooney1","image-keyboard-response","301","1334672","0.0-6.0-1.42","3613624","co00000","norming","","","","","","",""
"3656.5800000000745","","","post_mooney1_questions","survey-likert","302","1338330","0.0-6.0-2.42","3613624","co00000","norming","","","{""curiosity"":5,""confidence"":5}","[0,1]","../img/tt/001tt.jpg","",""
"5726.425000000279","","","recognition","survey-text","303","1344058","0.0-6.0-3.42","3613624","co00000","norming","","","{""guess"":""owl""}","","../img/tt/001tt.jpg","",""
"null","../img/gs/001gs.jpg","null","reveal","image-keyboard-response","304","1346062","0.0-6.0-4.42","3613624","co00000","norming","","","","","","",""
"null","../img/tt/001tt.jpg","null","mooney2","image-keyboard-response","305","1348070","0.0-6.0-5.42","3613624","co00000","norming","","","","","","",""
"5320.59999999986","","","post_reveal_questions","survey-likert","306","1353388","0.0-6.0-6.42","3613624","co00000","norming","","","{""aha"":3}","[0]","../img/tt/001tt.jpg","",""
"null","<div style=""font-size:60px;""> </div>","null","fixation","html-keyboard-response","307","1353589","0.0-6.0-0.43","3613624","co00000","norming","","","","","","",""
"null","../img/tt/1255tt.jpg","null","mooney1","image-keyboard-response","308","1356595","0.0-6.0-1.43","3613624","co00000","norming","","","","","","",""
"5623.810000000056","","","post_mooney1_questions","survey-likert","309","1362220","0.0-6.0-2.43","3613624","co00000","norming","","","{""curiosity"":5,""confidence"":3}","[0,1]","../img/tt/1255tt.jpg","",""
"4109.975000000093","","","recognition","survey-text","310","1366332","0.0-6.0-3.43","3613624","co00000","norming","","","{""guess"":""rabbit""}","","../img/tt/1255tt.jpg","",""
"null","../img/gs/1255gs.jpg","null","reveal","image-keyboard-response","311","1368339","0.0-6.0-4.43","3613624","co00000","norming","","","","","","",""
"null","../img/tt/1255tt.jpg","null","mooney2","image-keyboard-response","312","1370342","0.0-6.0-5.43","3613624","co00000","norming","","","","","","",""
"2413.570000000065","","","post_reveal_questions","survey-likert","313","1372756","0.0-6.0-6.43","3613624","co00000","norming","","","{""aha"":3}","[0]","../img/tt/1255tt.jpg","",""
"null","<div style=""font-size:60px;""> </div>","null","fixation","html-keyboard-response","314","1372958","0.0-6.0-0.44","3613624","co00000","norming","","","","","","",""
"null","../img/tt/1033tt.jpg","null","mooney1","image-keyboard-response","315","1375963","0.0-6.0-1.44","3613624","co00000","norming","","","","","","",""
"7566.3650000002235","","","post_mooney1_questions","survey-likert","316","1383532","0.0-6.0-2.44","3613624","co00000","norming","","","{""curiosity"":4,""confidence"":5}","[0,1]","../img/tt/1033tt.jpg","",""
"7774.5","","","recognition","survey-text","317","1391308","0.0-6.0-3.44","3613624","co00000","norming","","","{""guess"":""baseball player""}","","../img/tt/1033tt.jpg","",""
"null","../img/gs/1033gs.jpg","null","reveal","image-keyboard-response","318","1393319","0.0-6.0-4.44","3613624","co00000","norming","","","","","","",""
"null","../img/tt/1033tt.jpg","null","mooney2","image-keyboard-response","319","1395322","0.0-6.0-5.44","3613624","co00000","norming","","","","","","",""
"3584.905000000028","","","post_reveal_questions","survey-likert","320","1398908","0.0-6.0-6.44","3613624","co00000","norming","","","{""aha"":3}","[0]","../img/tt/1033tt.jpg","",""
"null","<div style=""font-size:60px;""> </div>","null","fixation","html-keyboard-response","321","1399109","0.0-6.0-0.45","3613624","co00000","norming","","","","","","",""
"null","../img/tt/270tt.jpg","null","mooney1","image-keyboard-response","322","1402118","0.0-6.0-1.45","3613624","co00000","norming","","","","","","",""
"5940.304999999935","","","post_mooney1_questions","survey-likert","323","1408061","0.0-6.0-2.45","3613624","co00000","norming","","","{""curiosity"":5,""confidence"":2}","[0,1]","../img/tt/270tt.jpg","",""
"3878.1649999998044","","","recognition","survey-text","324","1411940","0.0-6.0-3.45","3613624","co00000","norming","","","{""guess"":""dear""}","","../img/tt/270tt.jpg","",""
"null","../img/gs/270gs.jpg","null","reveal","image-keyboard-response","325","1413952","0.0-6.0-4.45","3613624","co00000","norming","","","","","","",""
"null","../img/tt/270tt.jpg","null","mooney2","image-keyboard-response","326","1415958","0.0-6.0-5.45","3613624","co00000","norming","","","","","","",""
"3243.1500000001397","","","post_reveal_questions","survey-likert","327","1419204","0.0-6.0-6.45","3613624","co00000","norming","","","{""aha"":5}","[0]","../img/tt/270tt.jpg","",""
"null","<div style=""font-size:60px;""> </div>","null","fixation","html-keyboard-response","328","1419414","0.0-6.0-0.46","3613624","co00000","norming","","","","","","",""
"null","../img/tt/1217tt.jpg","null","mooney1","image-keyboard-response","329","1422422","0.0-6.0-1.46","3613624","co00000","norming","","","","","","",""
"5820.070000000065","","","post_mooney1_questions","survey-likert","330","1428244","0.0-6.0-2.46","3613624","co00000","norming","","","{""curiosity"":4,""confidence"":3}","[0,1]","../img/tt/1217tt.jpg","",""
"9469.464999999851","","","recognition","survey-text","331","1437716","0.0-6.0-3.46","3613624","co00000","norming","","","{""guess"":""football players""}","","../img/tt/1217tt.jpg","",""
"null","../img/gs/1217gs.jpg","null","reveal","image-keyboard-response","332","1439721","0.0-6.0-4.46","3613624","co00000","norming","","","","","","",""
"null","../img/tt/1217tt.jpg","null","mooney2","image-keyboard-response","333","1441730","0.0-6.0-5.46","3613624","co00000","norming","","","","","","",""
"3319.7650000001304","","","post_reveal_questions","survey-likert","334","1445052","0.0-6.0-6.46","3613624","co00000","norming","","","{""aha"":4}","[0]","../img/tt/1217tt.jpg","",""
"null","<div style=""font-size:60px;""> </div>","null","fixation","html-keyboard-response","335","1445253","0.0-6.0-0.47","3613624","co00000","norming","","","","","","",""
"null","../img/tt/020tt.jpg","null","mooney1","image-keyboard-response","336","1448256","0.0-6.0-1.47","3613624","co00000","norming","","","","","","",""
"6409.350000000093","","","post_mooney1_questions","survey-likert","337","1454668","0.0-6.0-2.47","3613624","co00000","norming","","","{""curiosity"":5,""confidence"":0}","[0,1]","../img/tt/020tt.jpg","",""
"3653.339999999851","","","recognition","survey-text","338","1458323","0.0-6.0-3.47","3613624","co00000","norming","","","{""guess"":""gorilla""}","","../img/tt/020tt.jpg","",""
"null","../img/gs/020gs.jpg","null","reveal","image-keyboard-response","339","1460331","0.0-6.0-4.47","3613624","co00000","norming","","","","","","",""
"null","../img/tt/020tt.jpg","null","mooney2","image-keyboard-response","340","1462336","0.0-6.0-5.47","3613624","co00000","norming","","","","","","",""
"4618.625","","","post_reveal_questions","survey-likert","341","1466955","0.0-6.0-6.47","3613624","co00000","norming","","","{""aha"":3}","[0]","../img/tt/020tt.jpg","",""
"null","<div style=""font-size:60px;""> </div>","null","fixation","html-keyboard-response","342","1467158","0.0-6.0-0.48","3613624","co00000","norming","","","","","","",""
"null","../img/tt/306tt.jpg","null","mooney1","image-keyboard-response","343","1470169","0.0-6.0-1.48","3613624","co00000","norming","","","","","","",""
"6808.695000000298","","","post_mooney1_questions","survey-likert","344","1476974","0.0-6.0-2.48","3613624","co00000","norming","","","{""curiosity"":4,""confidence"":1}","[0,1]","../img/tt/306tt.jpg","",""
"7078.0449999999255","","","recognition","survey-text","345","1484053","0.0-6.0-3.48","3613624","co00000","norming","","","{""guess"":""slingshot""}","","../img/tt/306tt.jpg","",""
"null","../img/gs/306gs.jpg","null","reveal","image-keyboard-response","346","1486061","0.0-6.0-4.48","3613624","co00000","norming","","","","","","",""
"null","../img/tt/306tt.jpg","null","mooney2","image-keyboard-response","347","1488069","0.0-6.0-5.48","3613624","co00000","norming","","","","","","",""
"2654.2099999999627","","","post_reveal_questions","survey-likert","348","1490725","0.0-6.0-6.48","3613624","co00000","norming","","","{""aha"":5}","[0]","../img/tt/306tt.jpg","",""
"null","<div style=""font-size:60px;""> </div>","null","fixation","html-keyboard-response","349","1490926","0.0-6.0-0.49","3613624","co00000","norming","","","","","","",""
"null","../img/tt/1143tt.jpg","null","mooney1","image-keyboard-response","350","1493931","0.0-6.0-1.49","3613624","co00000","norming","","","","","","",""
"9320.169999999925","","","post_mooney1_questions","survey-likert","351","1503254","0.0-6.0-2.49","3613624","co00000","norming","","","{""curiosity"":5,""confidence"":4}","[0,1]","../img/tt/1143tt.jpg","",""
"13334.139999999898","","","recognition","survey-text","352","1516590","0.0-6.0-3.49","3613624","co00000","norming","","","{""guess"":""sprinter""}","","../img/tt/1143tt.jpg","",""
"null","../img/gs/1143gs.jpg","null","reveal","image-keyboard-response","353","1518595","0.0-6.0-4.49","3613624","co00000","norming","","","","","","",""
"null","../img/tt/1143tt.jpg","null","mooney2","image-keyboard-response","354","1520602","0.0-6.0-5.49","3613624","co00000","norming","","","","","","",""
"3457.695000000065","","","post_reveal_questions","survey-likert","355","1524061","0.0-6.0-6.49","3613624","co00000","norming","","","{""aha"":5}","[0]","../img/tt/1143tt.jpg","",""
"null","<div style=""font-size:60px;""> </div>","null","fixation","html-keyboard-response","356","1524271","0.0-6.0-0.50","3613624","co00000","norming","","","","","","",""
"null","../img/tt/1260tt.jpg","null","mooney1","image-keyboard-response","357","1527274","0.0-6.0-1.50","3613624","co00000","norming","","","","","","",""
"7609.89000000013","","","post_mooney1_questions","survey-likert","358","1534892","0.0-6.0-2.50","3613624","co00000","norming","","","{""curiosity"":3,""confidence"":4}","[0,1]","../img/tt/1260tt.jpg","",""
"2622.035000000149","","","recognition","survey-text","359","1537515","0.0-6.0-3.50","3613624","co00000","norming","","","{""guess"":""tiger""}","","../img/tt/1260tt.jpg","",""
"null","../img/gs/1260gs.jpg","null","reveal","image-keyboard-response","360","1539526","0.0-6.0-4.50","3613624","co00000","norming","","","","","","",""
"null","../img/tt/1260tt.jpg","null","mooney2","image-keyboard-response","361","1541528","0.0-6.0-5.50","3613624","co00000","norming","","","","","","",""
"4312.869999999879","","","post_reveal_questions","survey-likert","362","1545843","0.0-6.0-6.50","3613624","co00000","norming","","","{""aha"":4}","[0]","../img/tt/1260tt.jpg","",""
"null","<div style=""font-size:60px;""> </div>","null","fixation","html-keyboard-response","363","1546051","0.0-6.0-0.51","3613624","co00000","norming","","","","","","",""
"null","../img/tt/1055tt.jpg","null","mooney1","image-keyboard-response","364","1549055","0.0-6.0-1.51","3613624","co00000","norming","","","","","","",""
"7178.219999999972","","","post_mooney1_questions","survey-likert","365","1556236","0.0-6.0-2.51","3613624","co00000","norming","","","{""curiosity"":5,""confidence"":3}","[0,1]","../img/tt/1055tt.jpg","",""
"4821.97499999986","","","recognition","survey-text","366","1561059","0.0-6.0-3.51","3613624","co00000","norming","","","{""guess"":""kayakker""}","","../img/tt/1055tt.jpg","",""
"null","../img/gs/1055gs.jpg","null","reveal","image-keyboard-response","367","1563065","0.0-6.0-4.51","3613624","co00000","norming","","","","","","",""
"null","../img/tt/1055tt.jpg","null","mooney2","image-keyboard-response","368","1565067","0.0-6.0-5.51","3613624","co00000","norming","","","","","","",""
"2679.1149999999907","","","post_reveal_questions","survey-likert","369","1567747","0.0-6.0-6.51","3613624","co00000","norming","","","{""aha"":4}","[0]","../img/tt/1055tt.jpg","",""
"null","<div style=""font-size:60px;""> </div>","null","fixation","html-keyboard-response","370","1567948","0.0-6.0-0.52","3613624","co00000","norming","","","","","","",""
"null","../img/tt/1159tt.jpg","null","mooney1","image-keyboard-response","371","1570951","0.0-6.0-1.52","3613624","co00000","norming","","","","","","",""
"7826.064999999944","","","post_mooney1_questions","survey-likert","372","1578780","0.0-6.0-2.52","3613624","co00000","norming","","","{""curiosity"":4,""confidence"":2}","[0,1]","../img/tt/1159tt.jpg","",""
"5253.970000000205","","","recognition","survey-text","373","1584035","0.0-6.0-3.52","3613624","co00000","norming","","","{""guess"":""golfer""}","","../img/tt/1159tt.jpg","",""
"null","../img/gs/1159gs.jpg","null","reveal","image-keyboard-response","374","1586038","0.0-6.0-4.52","3613624","co00000","norming","","","","","","",""
"null","../img/tt/1159tt.jpg","null","mooney2","image-keyboard-response","375","1588049","0.0-6.0-5.52","3613624","co00000","norming","","","","","","",""
"3752.435000000056","","","post_reveal_questions","survey-likert","376","1591803","0.0-6.0-6.52","3613624","co00000","norming","","","{""aha"":2}","[0]","../img/tt/1159tt.jpg","",""
"null","<div style=""font-size:60px;""> </div>","null","fixation","html-keyboard-response","377","1592005","0.0-6.0-0.53","3613624","co00000","norming","","","","","","",""
"null","../img/tt/307tt.jpg","null","mooney1","image-keyboard-response","378","1595016","0.0-6.0-1.53","3613624","co00000","norming","","","","","","",""
"4953.354999999981","","","post_mooney1_questions","survey-likert","379","1599971","0.0-6.0-2.53","3613624","co00000","norming","","","{""curiosity"":5,""confidence"":0}","[0,1]","../img/tt/307tt.jpg","",""
"878.375","","","recognition","survey-text","380","1600852","0.0-6.0-3.53","3613624","co00000","norming","","","{""guess"":""""}","","../img/tt/307tt.jpg","",""
"null","../img/gs/307gs.jpg","null","reveal","image-keyboard-response","381","1602861","0.0-6.0-4.53","3613624","co00000","norming","","","","","","",""
"null","../img/tt/307tt.jpg","null","mooney2","image-keyboard-response","382","1604863","0.0-6.0-5.53","3613624","co00000","norming","","","","","","",""
"2170.4549999998417","","","post_reveal_questions","survey-likert","383","1607036","0.0-6.0-6.53","3613624","co00000","norming","","","{""aha"":5}","[0]","../img/tt/307tt.jpg","",""
"null","<div style=""font-size:60px;""> </div>","null","fixation","html-keyboard-response","384","1607237","0.0-6.0-0.54","3613624","co00000","norming","","","","","","",""
"null","../img/tt/1269tt.jpg","null","mooney1","image-keyboard-response","385","1610244","0.0-6.0-1.54","3613624","co00000","norming","","","","","","",""
"4269.5","","","post_mooney1_questions","survey-likert","386","1614516","0.0-6.0-2.54","3613624","co00000","norming","","","{""curiosity"":3,""confidence"":5}","[0,1]","../img/tt/1269tt.jpg","",""
"4925.690000000177","","","recognition","survey-text","387","1619443","0.0-6.0-3.54","3613624","co00000","norming","","","{""guess"":""eekhoorn""}","","../img/tt/1269tt.jpg","",""
"null","../img/gs/1269gs.jpg","null","reveal","image-keyboard-response","388","1621449","0.0-6.0-4.54","3613624","co00000","norming","","","","","","",""
"null","../img/tt/1269tt.jpg","null","mooney2","image-keyboard-response","389","1623457","0.0-6.0-5.54","3613624","co00000","norming","","","","","","",""
"2712.340000000084","","","post_reveal_questions","survey-likert","390","1626171","0.0-6.0-6.54","3613624","co00000","norming","","","{""aha"":2}","[0]","../img/tt/1269tt.jpg","",""
"null","<div style=""font-size:60px;""> </div>","null","fixation","html-keyboard-response","391","1626374","0.0-6.0-0.55","3613624","co00000","norming","","","","","","",""
"null","../img/tt/019tt.jpg","null","mooney1","image-keyboard-response","392","1629378","0.0-6.0-1.55","3613624","co00000","norming","","","","","","",""
"4679.450000000186","","","post_mooney1_questions","survey-likert","393","1634060","0.0-6.0-2.55","3613624","co00000","norming","","","{""curiosity"":4,""confidence"":2}","[0,1]","../img/tt/019tt.jpg","",""
"2158.0200000000186","","","recognition","survey-text","394","1636219","0.0-6.0-3.55","3613624","co00000","norming","","","{""guess"":""mes""}","","../img/tt/019tt.jpg","",""
"null","../img/gs/019gs.jpg","null","reveal","image-keyboard-response","395","1638222","0.0-6.0-4.55","3613624","co00000","norming","","","","","","",""
"null","../img/tt/019tt.jpg","null","mooney2","image-keyboard-response","396","1640224","0.0-6.0-5.55","3613624","co00000","norming","","","","","","",""
"3977.2649999998976","","","post_reveal_questions","survey-likert","397","1644203","0.0-6.0-6.55","3613624","co00000","norming","","","{""aha"":4}","[0]","../img/tt/019tt.jpg","",""
"null","<div style=""font-size:60px;""> </div>","null","fixation","html-keyboard-response","398","1644404","0.0-6.0-0.56","3613624","co00000","norming","","","","","","",""
"null","../img/tt/580tt.jpg","null","mooney1","image-keyboard-response","399","1647413","0.0-6.0-1.56","3613624","co00000","norming","","","","","","",""
"4883.924999999814","","","post_mooney1_questions","survey-likert","400","1652300","0.0-6.0-2.56","3613624","co00000","norming","","","{""curiosity"":4,""confidence"":4}","[0,1]","../img/tt/580tt.jpg","",""
"2965.9599999999627","","","recognition","survey-text","401","1655265","0.0-6.0-3.56","3613624","co00000","norming","","","{""guess"":""llama""}","","../img/tt/580tt.jpg","",""
"null","../img/gs/580gs.jpg","null","reveal","image-keyboard-response","402","1657272","0.0-6.0-4.56","3613624","co00000","norming","","","","","","",""
"null","../img/tt/580tt.jpg","null","mooney2","image-keyboard-response","403","1659273","0.0-6.0-5.56","3613624","co00000","norming","","","","","","",""
"7869.51500000013","","","post_reveal_questions","survey-likert","404","1667145","0.0-6.0-6.56","3613624","co00000","norming","","","{""aha"":4}","[0]","../img/tt/580tt.jpg","",""
"null","<div style=""font-size:60px;""> </div>","null","fixation","html-keyboard-response","405","1667346","0.0-6.0-0.57","3613624","co00000","norming","","","","","","",""
"null","../img/tt/416tt.jpg","null","mooney1","image-keyboard-response","406","1670351","0.0-6.0-1.57","3613624","co00000","norming","","","","","","",""
"4144.929999999935","","","post_mooney1_questions","survey-likert","407","1674497","0.0-6.0-2.57","3613624","co00000","norming","","","{""curiosity"":4,""confidence"":4}","[0,1]","../img/tt/416tt.jpg","",""
"5230.04000000027","","","recognition","survey-text","408","1679729","0.0-6.0-3.57","3613624","co00000","norming","","","{""guess"":""struisvogels""}","","../img/tt/416tt.jpg","",""
"null","../img/gs/416gs.jpg","null","reveal","image-keyboard-response","409","1681738","0.0-6.0-4.57","3613624","co00000","norming","","","","","","",""
"null","../img/tt/416tt.jpg","null","mooney2","image-keyboard-response","410","1683748","0.0-6.0-5.57","3613624","co00000","norming","","","","","","",""
"6362.885000000009","","","post_reveal_questions","survey-likert","411","1690113","0.0-6.0-6.57","3613624","co00000","norming","","","{""aha"":2}","[0]","../img/tt/416tt.jpg","",""
"null","<div style=""font-size:60px;""> </div>","null","fixation","html-keyboard-response","412","1690315","0.0-6.0-0.58","3613624","co00000","norming","","","","","","",""
"null","../img/tt/1186tt.jpg","null","mooney1","image-keyboard-response","413","1693319","0.0-6.0-1.58","3613624","co00000","norming","","","","","","",""
"6007.225000000093","","","post_mooney1_questions","survey-likert","414","1699329","0.0-6.0-2.58","3613624","co00000","norming","","","{""curiosity"":4,""confidence"":2}","[0,1]","../img/tt/1186tt.jpg","",""
"6830.254999999888","","","recognition","survey-text","415","1706161","0.0-6.0-3.58","3613624","co00000","norming","","","{""guess"":""klimmer""}","","../img/tt/1186tt.jpg","",""
"null","../img/gs/1186gs.jpg","null","reveal","image-keyboard-response","416","1708171","0.0-6.0-4.58","3613624","co00000","norming","","","","","","",""
"null","../img/tt/1186tt.jpg","null","mooney2","image-keyboard-response","417","1710174","0.0-6.0-5.58","3613624","co00000","norming","","","","","","",""
"3161.505000000121","","","post_reveal_questions","survey-likert","418","1713337","0.0-6.0-6.58","3613624","co00000","norming","","","{""aha"":5}","[0]","../img/tt/1186tt.jpg","",""
"null","<div style=""font-size:60px;""> </div>","null","fixation","html-keyboard-response","419","1713538","0.0-6.0-0.59","3613624","co00000","norming","","","","","","",""
"null","../img/tt/1044tt.jpg","null","mooney1","image-keyboard-response","420","1716550","0.0-6.0-1.59","3613624","co00000","norming","","","","","","",""
"6899.385000000009","","","post_mooney1_questions","survey-likert","421","1723452","0.0-6.0-2.59","3613624","co00000","norming","","","{""curiosity"":5,""confidence"":2}","[0,1]","../img/tt/1044tt.jpg","",""
"7701.714999999851","","","recognition","survey-text","422","1731155","0.0-6.0-3.59","3613624","co00000","norming","","","{""guess"":""trekker""}","","../img/tt/1044tt.jpg","",""
"null","../img/gs/1044gs.jpg","null","reveal","image-keyboard-response","423","1733158","0.0-6.0-4.59","3613624","co00000","norming","","","","","","",""
"null","../img/tt/1044tt.jpg","null","mooney2","image-keyboard-response","424","1735159","0.0-6.0-5.59","3613624","co00000","norming","","","","","","",""
"2890.0100000000093","","","post_reveal_questions","survey-likert","425","1738051","0.0-6.0-6.59","3613624","co00000","norming","","","{""aha"":4}","[0]","../img/tt/1044tt.jpg","",""
"null","<div style=""font-size:60px;""> </div>","null","fixation","html-keyboard-response","426","1738253","0.0-6.0-0.60","3613624","co00000","norming","","","","","","",""
"null","../img/tt/1254tt.jpg","null","mooney1","image-keyboard-response","427","1741263","0.0-6.0-1.60","3613624","co00000","norming","","","","","","",""
"5682.129999999888","","","post_mooney1_questions","survey-likert","428","1746948","0.0-6.0-2.60","3613624","co00000","norming","","","{""curiosity"":6,""confidence"":0}","[0,1]","../img/tt/1254tt.jpg","",""
"1445.9850000001024","","","recognition","survey-text","429","1748395","0.0-6.0-3.60","3613624","co00000","norming","","","{""guess"":""""}","","../img/tt/1254tt.jpg","",""
"null","../img/gs/1254gs.jpg","null","reveal","image-keyboard-response","430","1750396","0.0-6.0-4.60","3613624","co00000","norming","","","","","","",""
"null","../img/tt/1254tt.jpg","null","mooney2","image-keyboard-response","431","1752398","0.0-6.0-5.60","3613624","co00000","norming","","","","","","",""
"3875.940000000177","","","post_reveal_questions","survey-likert","432","1756275","0.0-6.0-6.60","3613624","co00000","norming","","","{""aha"":2}","[0]","../img/tt/1254tt.jpg","",""
"null","<div style=""font-size:60px;""> </div>","null","fixation","html-keyboard-response","433","1756476","0.0-6.0-0.61","3613624","co00000","norming","","","","","","",""
"null","../img/tt/1148tt.jpg","null","mooney1","image-keyboard-response","434","1759484","0.0-6.0-1.61","3613624","co00000","norming","","","","","","",""
"12205.394999999786","","","post_mooney1_questions","survey-likert","435","1771692","0.0-6.0-2.61","3613624","co00000","norming","","","{""curiosity"":4,""confidence"":0}","[0,1]","../img/tt/1148tt.jpg","",""
"12677.799999999814","","","recognition","survey-text","436","1784368","0.0-6.0-3.61","3613624","co00000","norming","","","{""guess"":""rafting""}","","../img/tt/1148tt.jpg","",""
"null","../img/gs/1148gs.jpg","null","reveal","image-keyboard-response","437","1786374","0.0-6.0-4.61","3613624","co00000","norming","","","","","","",""
"null","../img/tt/1148tt.jpg","null","mooney2","image-keyboard-response","438","1788376","0.0-6.0-5.61","3613624","co00000","norming","","","","","","",""
"2983.5200000000186","","","post_reveal_questions","survey-likert","439","1791360","0.0-6.0-6.61","3613624","co00000","norming","","","{""aha"":4}","[0]","../img/tt/1148tt.jpg","",""
"null","<div style=""font-size:60px;""> </div>","null","fixation","html-keyboard-response","440","1791562","0.0-6.0-0.62","3613624","co00000","norming","","","","","","",""
"null","../img/tt/063tt.jpg","null","mooney1","image-keyboard-response","441","1794568","0.0-6.0-1.62","3613624","co00000","norming","","","","","","",""
"7710.145000000019","","","post_mooney1_questions","survey-likert","442","1802281","0.0-6.0-2.62","3613624","co00000","norming","","","{""curiosity"":4,""confidence"":2}","[0,1]","../img/tt/063tt.jpg","",""
"4749.894999999786","","","recognition","survey-text","443","1807032","0.0-6.0-3.62","3613624","co00000","norming","","","{""guess"":""camera""}","","../img/tt/063tt.jpg","",""
"null","../img/gs/063gs.jpg","null","reveal","image-keyboard-response","444","1809036","0.0-6.0-4.62","3613624","co00000","norming","","","","","","",""
"null","../img/tt/063tt.jpg","null","mooney2","image-keyboard-response","445","1811038","0.0-6.0-5.62","3613624","co00000","norming","","","","","","",""
"4137.0200000002515","","","post_reveal_questions","survey-likert","446","1815176","0.0-6.0-6.62","3613624","co00000","norming","","","{""aha"":6}","[0]","../img/tt/063tt.jpg","",""
"null","<div style=""font-size:60px;""> </div>","null","fixation","html-keyboard-response","447","1815378","0.0-6.0-0.63","3613624","co00000","norming","","","","","","",""
"null","../img/tt/008tt.jpg","null","mooney1","image-keyboard-response","448","1818381","0.0-6.0-1.63","3613624","co00000","norming","","","","","","",""
"9858.320000000065","","","post_mooney1_questions","survey-likert","449","1828240","0.0-6.0-2.63","3613624","co00000","norming","","","{""curiosity"":4,""confidence"":1}","[0,1]","../img/tt/008tt.jpg","",""
"14190.194999999832","","","recognition","survey-text","450","1842435","0.0-6.0-3.63","3613624","co00000","norming","","","{""guess"":""speerwerper""}","","../img/tt/008tt.jpg","",""
"null","../img/gs/008gs.jpg","null","reveal","image-keyboard-response","451","1844439","0.0-6.0-4.63","3613624","co00000","norming","","","","","","",""
"null","../img/tt/008tt.jpg","null","mooney2","image-keyboard-response","452","1846443","0.0-6.0-5.63","3613624","co00000","norming","","","","","","",""
"2607.0999999998603","","","post_reveal_questions","survey-likert","453","1849051","0.0-6.0-6.63","3613624","co00000","norming","","","{""aha"":4}","[0]","../img/tt/008tt.jpg","",""
"null","<div style=""font-size:60px;""> </div>","null","fixation","html-keyboard-response","454","1849252","0.0-6.0-0.64","3613624","co00000","norming","","","","","","",""
"null","../img/tt/319tt.jpg","null","mooney1","image-keyboard-response","455","1852261","0.0-6.0-1.64","3613624","co00000","norming","","","","","","",""
"9987.98499999987","","","post_mooney1_questions","survey-likert","456","1862251","0.0-6.0-2.64","3613624","co00000","norming","","","{""curiosity"":4,""confidence"":1}","[0,1]","../img/tt/319tt.jpg","",""
"6645.925000000047","","","recognition","survey-text","457","1868899","0.0-6.0-3.64","3613624","co00000","norming","","","{""guess"":""animal""}","","../img/tt/319tt.jpg","",""
"null","../img/gs/319gs.jpg","null","reveal","image-keyboard-response","458","1870909","0.0-6.0-4.64","3613624","co00000","norming","","","","","","",""
"null","../img/tt/319tt.jpg","null","mooney2","image-keyboard-response","459","1872918","0.0-6.0-5.64","3613624","co00000","norming","","","","","","",""
"2562.6649999998044","","","post_reveal_questions","survey-likert","460","1875483","0.0-6.0-6.64","3613624","co00000","norming","","","{""aha"":5}","[0]","../img/tt/319tt.jpg","",""
"null","<div style=""font-size:60px;""> </div>","null","fixation","html-keyboard-response","461","1875684","0.0-6.0-0.65","3613624","co00000","norming","","","","","","",""
"null","../img/tt/140tt.jpg","null","mooney1","image-keyboard-response","462","1878687","0.0-6.0-1.65","3613624","co00000","norming","","","","","","",""
"4922.244999999879","","","post_mooney1_questions","survey-likert","463","1883611","0.0-6.0-2.65","3613624","co00000","norming","","","{""curiosity"":3,""confidence"":5}","[0,1]","../img/tt/140tt.jpg","",""
"5894.09999999986","","","recognition","survey-text","464","1889507","0.0-6.0-3.65","3613624","co00000","norming","","","{""guess"":""vorken""}","","../img/tt/140tt.jpg","",""
"null","../img/gs/140gs.jpg","null","reveal","image-keyboard-response","465","1891512","0.0-6.0-4.65","3613624","co00000","norming","","","","","","",""
"null","../img/tt/140tt.jpg","null","mooney2","image-keyboard-response","466","1893513","0.0-6.0-5.65","3613624","co00000","norming","","","","","","",""
"1927.8500000000931","","","post_reveal_questions","survey-likert","467","1895443","0.0-6.0-6.65","3613624","co00000","norming","","","{""aha"":1}","[0]","../img/tt/140tt.jpg","",""
"null","<div style=""font-size:60px;""> </div>","null","fixation","html-keyboard-response","468","1895644","0.0-6.0-0.66","3613624","co00000","norming","","","","","","",""
"null","../img/tt/1251tt.jpg","null","mooney1","image-keyboard-response","469","1898649","0.0-6.0-1.66","3613624","co00000","norming","","","","","","",""
"8111.969999999506","","","post_mooney1_questions","survey-likert","470","1906760","0.0-6.0-2.66","3613624","co00000","norming","","","{""curiosity"":5,""confidence"":2}","[0,1]","../img/tt/1251tt.jpg","",""
"1942.030000000028","","","recognition","survey-text","471","1908704","0.0-6.0-3.66","3613624","co00000","norming","","","{""guess"":""cow""}","","../img/tt/1251tt.jpg","",""
"null","../img/gs/1251gs.jpg","null","reveal","image-keyboard-response","472","1910712","0.0-6.0-4.66","3613624","co00000","norming","","","","","","",""
"null","../img/tt/1251tt.jpg","null","mooney2","image-keyboard-response","473","1912720","0.0-6.0-5.66","3613624","co00000","norming","","","","","","",""
"2198.0600000002887","","","post_reveal_questions","survey-likert","474","1914920","0.0-6.0-6.66","3613624","co00000","norming","","","{""aha"":6}","[0]","../img/tt/1251tt.jpg","",""
"null","<div style=""font-size:60px;""> </div>","null","fixation","html-keyboard-response","475","1915122","0.0-6.0-0.67","3613624","co00000","norming","","","","","","",""
"null","../img/tt/1243tt.jpg","null","mooney1","image-keyboard-response","476","1918125","0.0-6.0-1.67","3613624","co00000","norming","","","","","","",""
"4160.439999999711","","","post_mooney1_questions","survey-likert","477","1922288","0.0-6.0-2.67","3613624","co00000","norming","","","{""curiosity"":5,""confidence"":3}","[0,1]","../img/tt/1243tt.jpg","",""
"5006.015000000363","","","recognition","survey-text","478","1927296","0.0-6.0-3.67","3613624","co00000","norming","","","{""guess"":""monkey""}","","../img/tt/1243tt.jpg","",""
"null","../img/gs/1243gs.jpg","null","reveal","image-keyboard-response","479","1929307","0.0-6.0-4.67","3613624","co00000","norming","","","","","","",""
"null","../img/tt/1243tt.jpg","null","mooney2","image-keyboard-response","480","1931318","0.0-6.0-5.67","3613624","co00000","norming","","","","","","",""
"9527.83499999973","","","post_reveal_questions","survey-likert","481","1940848","0.0-6.0-6.67","3613624","co00000","norming","","","{""aha"":4}","[0]","../img/tt/1243tt.jpg","",""
"null","<div style=""font-size:60px;""> </div>","null","fixation","html-keyboard-response","482","1941051","0.0-6.0-0.68","3613624","co00000","norming","","","","","","",""
"null","../img/tt/055tt.jpg","null","mooney1","image-keyboard-response","483","1944063","0.0-6.0-1.68","3613624","co00000","norming","","","","","","",""
"5645.6699999999255","","","post_mooney1_questions","survey-likert","484","1949712","0.0-6.0-2.68","3613624","co00000","norming","","","{""curiosity"":6,""confidence"":0}","[0,1]","../img/tt/055tt.jpg","",""
"1358.160000000149","","","recognition","survey-text","485","1951072","0.0-6.0-3.68","3613624","co00000","norming","","","{""guess"":""""}","","../img/tt/055tt.jpg","",""
"null","../img/gs/055gs.jpg","null","reveal","image-keyboard-response","486","1953076","0.0-6.0-4.68","3613624","co00000","norming","","","","","","",""
"null","../img/tt/055tt.jpg","null","mooney2","image-keyboard-response","487","1955087","0.0-6.0-5.68","3613624","co00000","norming","","","","","","",""
"2862.5500000002794","","","post_reveal_questions","survey-likert","488","1957952","0.0-6.0-6.68","3613624","co00000","norming","","","{""aha"":5}","[0]","../img/tt/055tt.jpg","",""
"null","<div style=""font-size:60px;""> </div>","null","fixation","html-keyboard-response","489","1958160","0.0-6.0-0.69","3613624","co00000","norming","","","","","","",""
"null","../img/tt/1130tt.jpg","null","mooney1","image-keyboard-response","490","1961165","0.0-6.0-1.69","3613624","co00000","norming","","","","","","",""
"4641.14000000013","","","post_mooney1_questions","survey-likert","491","1965804","0.0-6.0-2.69","3613624","co00000","norming","","","{""curiosity"":4,""confidence"":4}","[0,1]","../img/tt/1130tt.jpg","",""
"3526.1750000000466","","","recognition","survey-text","492","1969331","0.0-6.0-3.69","3613624","co00000","norming","","","{""guess"":""fietser""}","","../img/tt/1130tt.jpg","",""
"null","../img/gs/1130gs.jpg","null","reveal","image-keyboard-response","493","1971342","0.0-6.0-4.69","3613624","co00000","norming","","","","","","",""
"null","../img/tt/1130tt.jpg","null","mooney2","image-keyboard-response","494","1973344","0.0-6.0-5.69","3613624","co00000","norming","","","","","","",""
"1817.869999999879","","","post_reveal_questions","survey-likert","495","1975164","0.0-6.0-6.69","3613624","co00000","norming","","","{""aha"":4}","[0]","../img/tt/1130tt.jpg","",""
"null","<div style=""font-size:60px;""> </div>","null","fixation","html-keyboard-response","496","1975366","0.0-6.0-0.70","3613624","co00000","norming","","","","","","",""
"null","../img/tt/222tt.jpg","null","mooney1","image-keyboard-response","497","1978375","0.0-6.0-1.70","3613624","co00000","norming","","","","","","",""
"5707.164999999804","","","post_mooney1_questions","survey-likert","498","1984083","0.0-6.0-2.70","3613624","co00000","norming","","","{""curiosity"":5,""confidence"":2}","[0,1]","../img/tt/222tt.jpg","",""
"2886.304999999935","","","recognition","survey-text","499","1986971","0.0-6.0-3.70","3613624","co00000","norming","","","{""guess"":""boat""}","","../img/tt/222tt.jpg","",""
"null","../img/gs/222gs.jpg","null","reveal","image-keyboard-response","500","1988973","0.0-6.0-4.70","3613624","co00000","norming","","","","","","",""
"null","../img/tt/222tt.jpg","null","mooney2","image-keyboard-response","501","1990976","0.0-6.0-5.70","3613624","co00000","norming","","","","","","",""
"3297.5200000002515","","","post_reveal_questions","survey-likert","502","1994275","0.0-6.0-6.70","3613624","co00000","norming","","","{""aha"":5}","[0]","../img/tt/222tt.jpg","",""
"null","<div style=""font-size:60px;""> </div>","null","fixation","html-keyboard-response","503","1994483","0.0-6.0-0.71","3613624","co00000","norming","","","","","","",""
"null","../img/tt/1126tt.jpg","null","mooney1","image-keyboard-response","504","1997489","0.0-6.0-1.71","3613624","co00000","norming","","","","","","",""
"6351.575000000186","","","post_mooney1_questions","survey-likert","505","2003843","0.0-6.0-2.71","3613624","co00000","norming","","","{""curiosity"":5,""confidence"":1}","[0,1]","../img/tt/1126tt.jpg","",""
"5670.274999999907","","","recognition","survey-text","506","2009515","0.0-6.0-3.71","3613624","co00000","norming","","","{""guess"":""reptiel""}","","../img/tt/1126tt.jpg","",""
"null","../img/gs/1126gs.jpg","null","reveal","image-keyboard-response","507","2011521","0.0-6.0-4.71","3613624","co00000","norming","","","","","","",""
"null","../img/tt/1126tt.jpg","null","mooney2","image-keyboard-response","508","2013527","0.0-6.0-5.71","3613624","co00000","norming","","","","","","",""
"3330.6500000003725","","","post_reveal_questions","survey-likert","509","2016859","0.0-6.0-6.71","3613624","co00000","norming","","","{""aha"":5}","[0]","../img/tt/1126tt.jpg","",""
"null","<div style=""font-size:60px;""> </div>","null","fixation","html-keyboard-response","510","2017065","0.0-6.0-0.72","3613624","co00000","norming","","","","","","",""
"null","../img/tt/1127tt.jpg","null","mooney1","image-keyboard-response","511","2020073","0.0-6.0-1.72","3613624","co00000","norming","","","","","","",""
"7976.255000000121","","","post_mooney1_questions","survey-likert","512","2028054","0.0-6.0-2.72","3613624","co00000","norming","","","{""curiosity"":4,""confidence"":1}","[0,1]","../img/tt/1127tt.jpg","",""
"3365.695000000065","","","recognition","survey-text","513","2031422","0.0-6.0-3.72","3613624","co00000","norming","","","{""guess"":""boxer""}","","../img/tt/1127tt.jpg","",""
"null","../img/gs/1127gs.jpg","null","reveal","image-keyboard-response","514","2033430","0.0-6.0-4.72","3613624","co00000","norming","","","","","","",""
"null","../img/tt/1127tt.jpg","null","mooney2","image-keyboard-response","515","2035440","0.0-6.0-5.72","3613624","co00000","norming","","","","","","",""
"12085.000000000233","","","post_reveal_questions","survey-likert","516","2047526","0.0-6.0-6.72","3613624","co00000","norming","","","{""aha"":4}","[0]","../img/tt/1127tt.jpg","",""
"null","<div style=""font-size:60px;""> </div>","null","fixation","html-keyboard-response","517","2047730","0.0-6.0-0.73","3613624","co00000","norming","","","","","","",""
"null","../img/tt/1087tt.jpg","null","mooney1","image-keyboard-response","518","2050741","0.0-6.0-1.73","3613624","co00000","norming","","","","","","",""
"6934.310000000056","","","post_mooney1_questions","survey-likert","519","2057678","0.0-6.0-2.73","3613624","co00000","norming","","","{""curiosity"":4,""confidence"":3}","[0,1]","../img/tt/1087tt.jpg","",""
"6022.04000000027","","","recognition","survey-text","520","2063702","0.0-6.0-3.73","3613624","co00000","norming","","","{""guess"":""zeehonden""}","","../img/tt/1087tt.jpg","",""
"null","../img/gs/1087gs.jpg","null","reveal","image-keyboard-response","521","2065704","0.0-6.0-4.73","3613624","co00000","norming","","","","","","",""
"null","../img/tt/1087tt.jpg","null","mooney2","image-keyboard-response","522","2067713","0.0-6.0-5.73","3613624","co00000","norming","","","","","","",""
"4250.744999999879","","","post_reveal_questions","survey-likert","523","2071966","0.0-6.0-6.73","3613624","co00000","norming","","","{""aha"":5}","[0]","../img/tt/1087tt.jpg","",""
"null","<div style=""font-size:60px;""> </div>","null","fixation","html-keyboard-response","524","2072169","0.0-6.0-0.74","3613624","co00000","norming","","","","","","",""
"null","../img/tt/1200tt.jpg","null","mooney1","image-keyboard-response","525","2075176","0.0-6.0-1.74","3613624","co00000","norming","","","","","","",""
"6043.605000000214","","","post_mooney1_questions","survey-likert","526","2081222","0.0-6.0-2.74","3613624","co00000","norming","","","{""curiosity"":4,""confidence"":1}","[0,1]","../img/tt/1200tt.jpg","",""
"2814.030000000028","","","recognition","survey-text","527","2084038","0.0-6.0-3.74","3613624","co00000","norming","","","{""guess"":""vlot""}","","../img/tt/1200tt.jpg","",""
"null","../img/gs/1200gs.jpg","null","reveal","image-keyboard-response","528","2086047","0.0-6.0-4.74","3613624","co00000","norming","","","","","","",""
"null","../img/tt/1200tt.jpg","null","mooney2","image-keyboard-response","529","2088066","0.0-6.0-5.74","3613624","co00000","norming","","","","","","",""
"2371.8549999997485","","","post_reveal_questions","survey-likert","530","2090440","0.0-6.0-6.74","3613624","co00000","norming","","","{""aha"":5}","[0]","../img/tt/1200tt.jpg","",""
"null","<div style=""font-size:60px;""> </div>","null","fixation","html-keyboard-response","531","2090641","0.0-6.0-0.75","3613624","co00000","norming","","","","","","",""
"null","../img/tt/1235tt.jpg","null","mooney1","image-keyboard-response","532","2093647","0.0-6.0-1.75","3613624","co00000","norming","","","","","","",""
"4830.590000000317","","","post_mooney1_questions","survey-likert","533","2098480","0.0-6.0-2.75","3613624","co00000","norming","","","{""curiosity"":5,""confidence"":3}","[0,1]","../img/tt/1235tt.jpg","",""
"2846.0600000005215","","","recognition","survey-text","534","2101328","0.0-6.0-3.75","3613624","co00000","norming","","","{""guess"":""horse""}","","../img/tt/1235tt.jpg","",""
"null","../img/gs/1235gs.jpg","null","reveal","image-keyboard-response","535","2103331","0.0-6.0-4.75","3613624","co00000","norming","","","","","","",""
"null","../img/tt/1235tt.jpg","null","mooney2","image-keyboard-response","536","2105333","0.0-6.0-5.75","3613624","co00000","norming","","","","","","",""
"2584.929999999702","","","post_reveal_questions","survey-likert","537","2107920","0.0-6.0-6.75","3613624","co00000","norming","","","{""aha"":2}","[0]","../img/tt/1235tt.jpg","",""
"null","<div style=""font-size:60px;""> </div>","null","fixation","html-keyboard-response","538","2108121","0.0-6.0-0.76","3613624","co00000","norming","","","","","","",""
"null","../img/tt/064tt.jpg","null","mooney1","image-keyboard-response","539","2111131","0.0-6.0-1.76","3613624","co00000","norming","","","","","","",""
"6105.885000000242","","","post_mooney1_questions","survey-likert","540","2117240","0.0-6.0-2.76","3613624","co00000","norming","","","{""curiosity"":5,""confidence"":3}","[0,1]","../img/tt/064tt.jpg","",""
"4990.060000000056","","","recognition","survey-text","541","2122232","0.0-6.0-3.76","3613624","co00000","norming","","","{""guess"":""schildpad""}","","../img/tt/064tt.jpg","",""
"null","../img/gs/064gs.jpg","null","reveal","image-keyboard-response","542","2124235","0.0-6.0-4.76","3613624","co00000","norming","","","","","","",""
"null","../img/tt/064tt.jpg","null","mooney2","image-keyboard-response","543","2126236","0.0-6.0-5.76","3613624","co00000","norming","","","","","","",""
"2153.8549999999814","","","post_reveal_questions","survey-likert","544","2128392","0.0-6.0-6.76","3613624","co00000","norming","","","{""aha"":4}","[0]","../img/tt/064tt.jpg","",""
"null","<div style=""font-size:60px;""> </div>","null","fixation","html-keyboard-response","545","2128593","0.0-6.0-0.77","3613624","co00000","norming","","","","","","",""
"null","../img/tt/1270tt.jpg","null","mooney1","image-keyboard-response","546","2131600","0.0-6.0-1.77","3613624","co00000","norming","","","","","","",""
"13597.990000000224","","","post_mooney1_questions","survey-likert","547","2145200","0.0-6.0-2.77","3613624","co00000","norming","","","{""curiosity"":5,""confidence"":0}","[0,1]","../img/tt/1270tt.jpg","",""
"1294.2250000000931","","","recognition","survey-text","548","2146496","0.0-6.0-3.77","3613624","co00000","norming","","","{""guess"":""""}","","../img/tt/1270tt.jpg","",""
"null","../img/gs/1270gs.jpg","null","reveal","image-keyboard-response","549","2148502","0.0-6.0-4.77","3613624","co00000","norming","","","","","","",""
"null","../img/tt/1270tt.jpg","null","mooney2","image-keyboard-response","550","2150506","0.0-6.0-5.77","3613624","co00000","norming","","","","","","",""
"2782.0550000001676","","","post_reveal_questions","survey-likert","551","2153290","0.0-6.0-6.77","3613624","co00000","norming","","","{""aha"":4}","[0]","../img/tt/1270tt.jpg","",""
