"rt","stimulus","key_press","test_part","trial_type","trial_index","time_elapsed","internal_node_id","totalTime","subject","experiment_name","button_pressed","success","responses","question_order","currentStim","old","correct"
"7657.53500000028","Welcome to the experiment. This is an online experiment so please don't close the tab/window until we say goodbye.  Press any key to begin.","65","instructions","html-keyboard-response","0","7689","0.0-0.0","3037850","co29689","norming","","","","","","",""
"43936.94999999934","<div style='word-wrap: break-word; width: 900px'><h3>Please consider this information carefully before deciding whether to participate in this research</h3><ul style='text-align: left; font-size: .8em;'><li><b>Purpose of the research</b>: To examine how people process images.</li><li><b>What you will do in this research</b>:  Stimuli (images) will be presented on the computer and you will be asked different questions about them.</li><li><b>Time required</b>: Participation will take between 45 and 60 minutes to complete.</li><li><b>Risks</b>:  There are no anticipated risks associated with participating in this study. The effects of participating should be comparable to those you would experience from viewing a computer monitor for 30 minutes and using a mouse or keyboard.</li><li><b>Benefits</b>:  This study provides no benefits to you individually except for the credit. The study provides important information about the nature of perception and learning.</li><li><b>Confidentiality</b>:  Your participation in this study will remain confidential. No personally identifiable information will be associated with your data. Your de-identified data may be shared with other researchers and used in future projects.</li><li><b>Participation and withdrawal</b>:  Your participation in this study is completely voluntary and you may refuse to participate or you may choose to withdraw at any time without penalty.</li><li><b>How to contact the researchers</b>: If you have questions or concerns about your participation or payment, or want to request a summary of research findings, please contact Sander Van de Cruys (KU Leuven), at sander.vandecruys@kuleuven.be.</li></ul><p>The nature and purpose of this research have been sufficiently explained and I agree to participate in this study.  I understand that I am free to withdraw at any time without incurring any penalty.</p><p>Please consent by clicking the button below to continue. Otherwise, please exit the study at this time.</p></div>","","instructions","html-button-response","1","51631","0.0-1.0","3037850","co29689","norming","0","","","","","",""
"","","","instructions","fullscreen","2","64083","0.0-2.0","3037850","co29689","norming","","true","","","","",""
"47992.83500000092","","","sona","survey-html-form","3","112083","0.0-3.0","3037850","co29689","norming","","","[{""name"":""sonaid"",""value"":""29689""},{""name"":""debrief"",""value"":""yes""},{""name"":""datajoin"",""value"":""yes""}]","","","",""
"33378.91500000114","<div style='word-wrap: break-word; width: 900px'><h3>Instructions</h3><p>This experiment will have 3 parts. In the first part you will see a series of distorted images like the one below on the left. As you can see in the righthand image, the distorted images are derived from actual photographs. In what follows, you will <strong>briefly</strong> be presented with <strong>only</strong> the distorted image.</p> <div style='float: left; margin-right: 20px;'><img src='../img/018tt.jpg' height='250' width='250'></img></div><div style='float: right; margin-left: 20px;'><img src='../img/018gs.jpg' height='250' width='250'></img></div><p>Subsequently you will be asked a few questions about the image: One question on how <strong>curious</strong> you are about the solution and one on how <strong>confident</strong> you are that you know the solution.</p>Next, we ask you to make a guess on what is in the image. Note that it is OK to name just the <strong>basic level category</strong>. For example when you see a parrot in the image, 'parrot' will obviously be a correct answer but also correct is 'bird'. However, 'animal' will <strong>not</strong> be counted as a correct response. For the example above, 'rose' would be correct or 'flower', but not 'plant'. When soccer players are depicted, 'soccer', 'football', 'soccer players' will be correct, but not 'humans', 'outdoors', or 'sports'. You do not need to describe the image in full, just name the main object in it <strong>in one or two words</strong>. All images depict objects from one of the following broad level categories: animals, inanimate objects, plants, sports, vehicles, and food. Recognizing means knowing <strong>more</strong> than these broad labels for a given image. But we always encourage you to <strong>make a guess</strong> if you can. Note that you are allowed to use <strong>Dutch and English</strong> in your answers, whatever comes easiest for you.</p><p>Press any key to continue.</p></div>","65","instructions","html-keyboard-response","4","145463","0.0-4.0","3037850","co29689","norming","","","","","","",""
"21919.089999999414","<div style='word-wrap: break-word; width: 900px'><h3>Instructions</h3> <p>Next, the solution image will be revealed to you and you'll be asked to indicate how strong your <strong>aha-experience</strong> was after seeing the solution. This describes the positive feeling of the 'click' you sometimes experience, when the pieces of the 'puzzle' fall together and you suddenly have 'insight' in the image.</p><img src='aha.jpg' height='188' width='250'></img><p>Note that there are no right or wrong answers. We are interested in what <strong>you</strong> see in the image and how <strong>you</strong> feel about it.</p><p>Press any key to start the experiment.</p></div>","65","instructions","html-keyboard-response","5","167383","0.0-5.0","3037850","co29689","norming","","","","","","",""
"null","<div style=""font-size:60px;""> </div>","null","fixation","html-keyboard-response","6","167584","0.0-6.0-0.0","3037850","co29689","norming","","","","","","",""
"null","../img/tt/053tt.jpg","null","mooney1","image-keyboard-response","7","170589","0.0-6.0-1.0","3037850","co29689","norming","","","","","","",""
"9927.270000000135","","","post_mooney1_questions","survey-likert","8","180511","0.0-6.0-2.0","3037850","co29689","norming","","","{""curiosity"":6,""confidence"":0}","[0,1]","../img/tt/053tt.jpg","",""
"5845.639999999548","","","recognition","survey-text","9","186359","0.0-6.0-3.0","3037850","co29689","norming","","","{""guess"":""""}","","../img/tt/053tt.jpg","",""
"null","../img/gs/053gs.jpg","null","reveal","image-keyboard-response","10","188361","0.0-6.0-4.0","3037850","co29689","norming","","","","","","",""
"null","../img/tt/053tt.jpg","null","mooney2","image-keyboard-response","11","190364","0.0-6.0-5.0","3037850","co29689","norming","","","","","","",""
"4760.190000000875","","","post_reveal_questions","survey-likert","12","195126","0.0-6.0-6.0","3037850","co29689","norming","","","{""aha"":0}","[0]","../img/tt/053tt.jpg","",""
"null","<div style=""font-size:60px;""> </div>","null","fixation","html-keyboard-response","13","195334","0.0-6.0-0.1","3037850","co29689","norming","","","","","","",""
"null","../img/tt/1125tt.jpg","null","mooney1","image-keyboard-response","14","198337","0.0-6.0-1.1","3037850","co29689","norming","","","","","","",""
"5708.349999998958","","","post_mooney1_questions","survey-likert","15","204047","0.0-6.0-2.1","3037850","co29689","norming","","","{""curiosity"":6,""confidence"":4}","[0,1]","../img/tt/1125tt.jpg","",""
"3069.99499999985","","","recognition","survey-text","16","207119","0.0-6.0-3.1","3037850","co29689","norming","","","{""guess"":""dog""}","","../img/tt/1125tt.jpg","",""
"null","../img/gs/1125gs.jpg","null","reveal","image-keyboard-response","17","209126","0.0-6.0-4.1","3037850","co29689","norming","","","","","","",""
"null","../img/tt/1125tt.jpg","null","mooney2","image-keyboard-response","18","211136","0.0-6.0-5.1","3037850","co29689","norming","","","","","","",""
"4796.239999999641","","","post_reveal_questions","survey-likert","19","215935","0.0-6.0-6.1","3037850","co29689","norming","","","{""aha"":2}","[0]","../img/tt/1125tt.jpg","",""
"null","<div style=""font-size:60px;""> </div>","null","fixation","html-keyboard-response","20","216145","0.0-6.0-0.2","3037850","co29689","norming","","","","","","",""
"null","../img/tt/1191tt.jpg","null","mooney1","image-keyboard-response","21","219153","0.0-6.0-1.2","3037850","co29689","norming","","","","","","",""
"8083.165000000008","","","post_mooney1_questions","survey-likert","22","227239","0.0-6.0-2.2","3037850","co29689","norming","","","{""curiosity"":6,""confidence"":3}","[0,1]","../img/tt/1191tt.jpg","",""
"3022.0750000007683","","","recognition","survey-text","23","230262","0.0-6.0-3.2","3037850","co29689","norming","","","{""guess"":""polo""}","","../img/tt/1191tt.jpg","",""
"null","../img/gs/1191gs.jpg","null","reveal","image-keyboard-response","24","232263","0.0-6.0-4.2","3037850","co29689","norming","","","","","","",""
"null","../img/tt/1191tt.jpg","null","mooney2","image-keyboard-response","25","234278","0.0-6.0-5.2","3037850","co29689","norming","","","","","","",""
"2744.6300000010524","","","post_reveal_questions","survey-likert","26","237024","0.0-6.0-6.2","3037850","co29689","norming","","","{""aha"":3}","[0]","../img/tt/1191tt.jpg","",""
"null","<div style=""font-size:60px;""> </div>","null","fixation","html-keyboard-response","27","237232","0.0-6.0-0.3","3037850","co29689","norming","","","","","","",""
"null","../img/tt/123tt.jpg","null","mooney1","image-keyboard-response","28","240238","0.0-6.0-1.3","3037850","co29689","norming","","","","","","",""
"6975.345000000729","","","post_mooney1_questions","survey-likert","29","247216","0.0-6.0-2.3","3037850","co29689","norming","","","{""curiosity"":5,""confidence"":4}","[0,1]","../img/tt/123tt.jpg","",""
"2886.4000000012456","","","recognition","survey-text","30","250104","0.0-6.0-3.3","3037850","co29689","norming","","","{""guess"":""koffer""}","","../img/tt/123tt.jpg","",""
"null","../img/gs/123gs.jpg","null","reveal","image-keyboard-response","31","252114","0.0-6.0-4.3","3037850","co29689","norming","","","","","","",""
"null","../img/tt/123tt.jpg","null","mooney2","image-keyboard-response","32","254124","0.0-6.0-5.3","3037850","co29689","norming","","","","","","",""
"4426.559999999881","","","post_reveal_questions","survey-likert","33","258552","0.0-6.0-6.3","3037850","co29689","norming","","","{""aha"":4}","[0]","../img/tt/123tt.jpg","",""
"null","<div style=""font-size:60px;""> </div>","null","fixation","html-keyboard-response","34","258759","0.0-6.0-0.4","3037850","co29689","norming","","","","","","",""
"null","../img/tt/405tt.jpg","null","mooney1","image-keyboard-response","35","261770","0.0-6.0-1.4","3037850","co29689","norming","","","","","","",""
"9764.250000000116","","","post_mooney1_questions","survey-likert","36","271537","0.0-6.0-2.4","3037850","co29689","norming","","","{""curiosity"":5,""confidence"":2}","[0,1]","../img/tt/405tt.jpg","",""
"6749.959999999206","","","recognition","survey-text","37","278288","0.0-6.0-3.4","3037850","co29689","norming","","","{""guess"":""icecream""}","","../img/tt/405tt.jpg","",""
"null","../img/gs/405gs.jpg","null","reveal","image-keyboard-response","38","280295","0.0-6.0-4.4","3037850","co29689","norming","","","","","","",""
"null","../img/tt/405tt.jpg","null","mooney2","image-keyboard-response","39","282300","0.0-6.0-5.4","3037850","co29689","norming","","","","","","",""
"3858.5449999991106","","","post_reveal_questions","survey-likert","40","286160","0.0-6.0-6.4","3037850","co29689","norming","","","{""aha"":4}","[0]","../img/tt/405tt.jpg","",""
"null","<div style=""font-size:60px;""> </div>","null","fixation","html-keyboard-response","41","286363","0.0-6.0-0.5","3037850","co29689","norming","","","","","","",""
"null","../img/tt/1353tt.jpg","null","mooney1","image-keyboard-response","42","289369","0.0-6.0-1.5","3037850","co29689","norming","","","","","","",""
"12541.069999999308","","","post_mooney1_questions","survey-likert","43","301911","0.0-6.0-2.5","3037850","co29689","norming","","","{""curiosity"":6,""confidence"":4}","[0,1]","../img/tt/1353tt.jpg","",""
"6006.204999999667","","","recognition","survey-text","44","307919","0.0-6.0-3.5","3037850","co29689","norming","","","{""guess"":""snake""}","","../img/tt/1353tt.jpg","",""
"null","../img/gs/1353gs.jpg","null","reveal","image-keyboard-response","45","309921","0.0-6.0-4.5","3037850","co29689","norming","","","","","","",""
"null","../img/tt/1353tt.jpg","null","mooney2","image-keyboard-response","46","311922","0.0-6.0-5.5","3037850","co29689","norming","","","","","","",""
"5994.429999998829","","","post_reveal_questions","survey-likert","47","317919","0.0-6.0-6.5","3037850","co29689","norming","","","{""aha"":5}","[0]","../img/tt/1353tt.jpg","",""
"null","<div style=""font-size:60px;""> </div>","null","fixation","html-keyboard-response","48","318127","0.0-6.0-0.6","3037850","co29689","norming","","","","","","",""
"null","../img/tt/1096tt.jpg","null","mooney1","image-keyboard-response","49","321134","0.0-6.0-1.6","3037850","co29689","norming","","","","","","",""
"17918.14499999967","","","post_mooney1_questions","survey-likert","50","339055","0.0-6.0-2.6","3037850","co29689","norming","","","{""curiosity"":5,""confidence"":1}","[0,1]","../img/tt/1096tt.jpg","",""
"8054.065000000235","","","recognition","survey-text","51","347110","0.0-6.0-3.6","3037850","co29689","norming","","","{""guess"":""room and staircase""}","","../img/tt/1096tt.jpg","",""
"null","../img/gs/1096gs.jpg","null","reveal","image-keyboard-response","52","349112","0.0-6.0-4.6","3037850","co29689","norming","","","","","","",""
"null","../img/tt/1096tt.jpg","null","mooney2","image-keyboard-response","53","351123","0.0-6.0-5.6","3037850","co29689","norming","","","","","","",""
"5825.799999998708","","","post_reveal_questions","survey-likert","54","356953","0.0-6.0-6.6","3037850","co29689","norming","","","{""aha"":4}","[0]","../img/tt/1096tt.jpg","",""
"null","<div style=""font-size:60px;""> </div>","null","fixation","html-keyboard-response","55","357158","0.0-6.0-0.7","3037850","co29689","norming","","","","","","",""
"null","../img/tt/1307tt.jpg","null","mooney1","image-keyboard-response","56","360167","0.0-6.0-1.7","3037850","co29689","norming","","","","","","",""
"8208.160000000149","","","post_mooney1_questions","survey-likert","57","368377","0.0-6.0-2.7","3037850","co29689","norming","","","{""curiosity"":5,""confidence"":5}","[0,1]","../img/tt/1307tt.jpg","",""
"6189.945000000065","","","recognition","survey-text","58","374569","0.0-6.0-3.7","3037850","co29689","norming","","","{""guess"":""dak kerk""}","","../img/tt/1307tt.jpg","",""
"null","../img/gs/1307gs.jpg","null","reveal","image-keyboard-response","59","376576","0.0-6.0-4.7","3037850","co29689","norming","","","","","","",""
"null","../img/tt/1307tt.jpg","null","mooney2","image-keyboard-response","60","378587","0.0-6.0-5.7","3037850","co29689","norming","","","","","","",""
"15692.455000000366","","","post_reveal_questions","survey-likert","61","394281","0.0-6.0-6.7","3037850","co29689","norming","","","{""aha"":4}","[0]","../img/tt/1307tt.jpg","",""
"null","<div style=""font-size:60px;""> </div>","null","fixation","html-keyboard-response","62","394489","0.0-6.0-0.8","3037850","co29689","norming","","","","","","",""
"null","../img/tt/1080tt.jpg","null","mooney1","image-keyboard-response","63","397496","0.0-6.0-1.8","3037850","co29689","norming","","","","","","",""
"13520.160000000033","","","post_mooney1_questions","survey-likert","64","411017","0.0-6.0-2.8","3037850","co29689","norming","","","{""curiosity"":5,""confidence"":0}","[0,1]","../img/tt/1080tt.jpg","",""
"3037.895000001299","","","recognition","survey-text","65","414057","0.0-6.0-3.8","3037850","co29689","norming","","","{""guess"":""""}","","../img/tt/1080tt.jpg","",""
"null","../img/gs/1080gs.jpg","null","reveal","image-keyboard-response","66","416065","0.0-6.0-4.8","3037850","co29689","norming","","","","","","",""
"null","../img/tt/1080tt.jpg","null","mooney2","image-keyboard-response","67","418068","0.0-6.0-5.8","3037850","co29689","norming","","","","","","",""
"2963.595000001078","","","post_reveal_questions","survey-likert","68","421034","0.0-6.0-6.8","3037850","co29689","norming","","","{""aha"":0}","[0]","../img/tt/1080tt.jpg","",""
"null","<div style=""font-size:60px;""> </div>","null","fixation","html-keyboard-response","69","421240","0.0-6.0-0.9","3037850","co29689","norming","","","","","","",""
"null","../img/tt/020tt.jpg","null","mooney1","image-keyboard-response","70","424244","0.0-6.0-1.9","3037850","co29689","norming","","","","","","",""
"6338.965000000782","","","post_mooney1_questions","survey-likert","71","430586","0.0-6.0-2.9","3037850","co29689","norming","","","{""curiosity"":6,""confidence"":5}","[0,1]","../img/tt/020tt.jpg","",""
"5805.975000001141","","","recognition","survey-text","72","436393","0.0-6.0-3.9","3037850","co29689","norming","","","{""guess"":""panda""}","","../img/tt/020tt.jpg","",""
"null","../img/gs/020gs.jpg","null","reveal","image-keyboard-response","73","438401","0.0-6.0-4.9","3037850","co29689","norming","","","","","","",""
"null","../img/tt/020tt.jpg","null","mooney2","image-keyboard-response","74","440412","0.0-6.0-5.9","3037850","co29689","norming","","","","","","",""
"3843.289999998873","","","post_reveal_questions","survey-likert","75","444257","0.0-6.0-6.9","3037850","co29689","norming","","","{""aha"":4}","[0]","../img/tt/020tt.jpg","",""
"null","<div style=""font-size:60px;""> </div>","null","fixation","html-keyboard-response","76","444460","0.0-6.0-0.10","3037850","co29689","norming","","","","","","",""
"null","../img/tt/1211tt.jpg","null","mooney1","image-keyboard-response","77","447463","0.0-6.0-1.10","3037850","co29689","norming","","","","","","",""
"11641.919999999984","","","post_mooney1_questions","survey-likert","78","459106","0.0-6.0-2.10","3037850","co29689","norming","","","{""curiosity"":5,""confidence"":1}","[0,1]","../img/tt/1211tt.jpg","",""
"7870.059999999299","","","recognition","survey-text","79","466977","0.0-6.0-3.10","3037850","co29689","norming","","","{""guess"":""flower""}","","../img/tt/1211tt.jpg","",""
"null","../img/gs/1211gs.jpg","null","reveal","image-keyboard-response","80","468985","0.0-6.0-4.10","3037850","co29689","norming","","","","","","",""
"null","../img/tt/1211tt.jpg","null","mooney2","image-keyboard-response","81","470986","0.0-6.0-5.10","3037850","co29689","norming","","","","","","",""
"3445.2849999997998","","","post_reveal_questions","survey-likert","82","474433","0.0-6.0-6.10","3037850","co29689","norming","","","{""aha"":2}","[0]","../img/tt/1211tt.jpg","",""
"null","<div style=""font-size:60px;""> </div>","null","fixation","html-keyboard-response","83","474642","0.0-6.0-0.11","3037850","co29689","norming","","","","","","",""
"null","../img/tt/1097tt.jpg","null","mooney1","image-keyboard-response","84","477647","0.0-6.0-1.11","3037850","co29689","norming","","","","","","",""
"5047.384999999835","","","post_mooney1_questions","survey-likert","85","482695","0.0-6.0-2.11","3037850","co29689","norming","","","{""curiosity"":6,""confidence"":6}","[0,1]","../img/tt/1097tt.jpg","",""
"5406.450000000419","","","recognition","survey-text","86","488103","0.0-6.0-3.11","3037850","co29689","norming","","","{""guess"":""paddlesurfing""}","","../img/tt/1097tt.jpg","",""
"null","../img/gs/1097gs.jpg","null","reveal","image-keyboard-response","87","490114","0.0-6.0-4.11","3037850","co29689","norming","","","","","","",""
"null","../img/tt/1097tt.jpg","null","mooney2","image-keyboard-response","88","492116","0.0-6.0-5.11","3037850","co29689","norming","","","","","","",""
"3441.0699999989592","","","post_reveal_questions","survey-likert","89","495559","0.0-6.0-6.11","3037850","co29689","norming","","","{""aha"":6}","[0]","../img/tt/1097tt.jpg","",""
"null","<div style=""font-size:60px;""> </div>","null","fixation","html-keyboard-response","90","495765","0.0-6.0-0.12","3037850","co29689","norming","","","","","","",""
"null","../img/tt/1243tt.jpg","null","mooney1","image-keyboard-response","91","498769","0.0-6.0-1.12","3037850","co29689","norming","","","","","","",""
"8948.57500000036","","","post_mooney1_questions","survey-likert","92","507720","0.0-6.0-2.12","3037850","co29689","norming","","","{""curiosity"":6,""confidence"":6}","[0,1]","../img/tt/1243tt.jpg","",""
"10286.185000000813","","","recognition","survey-text","93","518007","0.0-6.0-3.12","3037850","co29689","norming","","","{""guess"":""apes in a cage""}","","../img/tt/1243tt.jpg","",""
"null","../img/gs/1243gs.jpg","null","reveal","image-keyboard-response","94","520018","0.0-6.0-4.12","3037850","co29689","norming","","","","","","",""
"null","../img/tt/1243tt.jpg","null","mooney2","image-keyboard-response","95","522019","0.0-6.0-5.12","3037850","co29689","norming","","","","","","",""
"4234.019999999844","","","post_reveal_questions","survey-likert","96","526255","0.0-6.0-6.12","3037850","co29689","norming","","","{""aha"":6}","[0]","../img/tt/1243tt.jpg","",""
"null","<div style=""font-size:60px;""> </div>","null","fixation","html-keyboard-response","97","526459","0.0-6.0-0.13","3037850","co29689","norming","","","","","","",""
"null","../img/tt/1127tt.jpg","null","mooney1","image-keyboard-response","98","529467","0.0-6.0-1.13","3037850","co29689","norming","","","","","","",""
"6483.844999998808","","","post_mooney1_questions","survey-likert","99","535952","0.0-6.0-2.13","3037850","co29689","norming","","","{""curiosity"":5,""confidence"":3}","[0,1]","../img/tt/1127tt.jpg","",""
"2725.9199999988778","","","recognition","survey-text","100","538679","0.0-6.0-3.13","3037850","co29689","norming","","","{""guess"":""cafe""}","","../img/tt/1127tt.jpg","",""
"null","../img/gs/1127gs.jpg","null","reveal","image-keyboard-response","101","540685","0.0-6.0-4.13","3037850","co29689","norming","","","","","","",""
"null","../img/tt/1127tt.jpg","null","mooney2","image-keyboard-response","102","542687","0.0-6.0-5.13","3037850","co29689","norming","","","","","","",""
"2625.020000001299","","","post_reveal_questions","survey-likert","103","545314","0.0-6.0-6.13","3037850","co29689","norming","","","{""aha"":3}","[0]","../img/tt/1127tt.jpg","",""
"null","<div style=""font-size:60px;""> </div>","null","fixation","html-keyboard-response","104","545515","0.0-6.0-0.14","3037850","co29689","norming","","","","","","",""
"null","../img/tt/189tt.jpg","null","mooney1","image-keyboard-response","105","548523","0.0-6.0-1.14","3037850","co29689","norming","","","","","","",""
"13028.374999999884","","","post_mooney1_questions","survey-likert","106","561554","0.0-6.0-2.14","3037850","co29689","norming","","","{""curiosity"":5,""confidence"":1}","[0,1]","../img/tt/189tt.jpg","",""
"7422.165000000037","","","recognition","survey-text","107","568978","0.0-6.0-3.14","3037850","co29689","norming","","","{""guess"":""""}","","../img/tt/189tt.jpg","",""
"null","../img/gs/189gs.jpg","null","reveal","image-keyboard-response","108","570980","0.0-6.0-4.14","3037850","co29689","norming","","","","","","",""
"null","../img/tt/189tt.jpg","null","mooney2","image-keyboard-response","109","572983","0.0-6.0-5.14","3037850","co29689","norming","","","","","","",""
"3528.474999999162","","","post_reveal_questions","survey-likert","110","576514","0.0-6.0-6.14","3037850","co29689","norming","","","{""aha"":0}","[0]","../img/tt/189tt.jpg","",""
"null","<div style=""font-size:60px;""> </div>","null","fixation","html-keyboard-response","111","576721","0.0-6.0-0.15","3037850","co29689","norming","","","","","","",""
"null","../img/tt/1181tt.jpg","null","mooney1","image-keyboard-response","112","579729","0.0-6.0-1.15","3037850","co29689","norming","","","","","","",""
"4310.384999998845","","","post_mooney1_questions","survey-likert","113","584042","0.0-6.0-2.15","3037850","co29689","norming","","","{""curiosity"":6,""confidence"":6}","[0,1]","../img/tt/1181tt.jpg","",""
"7038.36500000034","","","recognition","survey-text","114","591082","0.0-6.0-3.15","3037850","co29689","norming","","","{""guess"":""hugging in a boxring""}","","../img/tt/1181tt.jpg","",""
"null","../img/gs/1181gs.jpg","null","reveal","image-keyboard-response","115","593085","0.0-6.0-4.15","3037850","co29689","norming","","","","","","",""
"null","../img/tt/1181tt.jpg","null","mooney2","image-keyboard-response","116","595094","0.0-6.0-5.15","3037850","co29689","norming","","","","","","",""
"1993.215000000433","","","post_reveal_questions","survey-likert","117","597090","0.0-6.0-6.15","3037850","co29689","norming","","","{""aha"":6}","[0]","../img/tt/1181tt.jpg","",""
"null","<div style=""font-size:60px;""> </div>","null","fixation","html-keyboard-response","118","597292","0.0-6.0-0.16","3037850","co29689","norming","","","","","","",""
"null","../img/tt/1290tt.jpg","null","mooney1","image-keyboard-response","119","600299","0.0-6.0-1.16","3037850","co29689","norming","","","","","","",""
"7820.410000000265","","","post_mooney1_questions","survey-likert","120","608122","0.0-6.0-2.16","3037850","co29689","norming","","","{""curiosity"":5,""confidence"":4}","[0,1]","../img/tt/1290tt.jpg","",""
"3734.0750000003027","","","recognition","survey-text","121","611858","0.0-6.0-3.16","3037850","co29689","norming","","","{""guess"":""pineapple""}","","../img/tt/1290tt.jpg","",""
"null","../img/gs/1290gs.jpg","null","reveal","image-keyboard-response","122","613864","0.0-6.0-4.16","3037850","co29689","norming","","","","","","",""
"null","../img/tt/1290tt.jpg","null","mooney2","image-keyboard-response","123","615866","0.0-6.0-5.16","3037850","co29689","norming","","","","","","",""
"3806.3800000000047","","","post_reveal_questions","survey-likert","124","619674","0.0-6.0-6.16","3037850","co29689","norming","","","{""aha"":3}","[0]","../img/tt/1290tt.jpg","",""
"null","<div style=""font-size:60px;""> </div>","null","fixation","html-keyboard-response","125","619881","0.0-6.0-0.17","3037850","co29689","norming","","","","","","",""
"null","../img/tt/1247tt.jpg","null","mooney1","image-keyboard-response","126","622889","0.0-6.0-1.17","3037850","co29689","norming","","","","","","",""
"37718.73000000056","","","post_mooney1_questions","survey-likert","127","660610","0.0-6.0-2.17","3037850","co29689","norming","","","{""curiosity"":5,""confidence"":0}","[0,1]","../img/tt/1247tt.jpg","",""
"2733.914999998873","","","recognition","survey-text","128","663346","0.0-6.0-3.17","3037850","co29689","norming","","","{""guess"":""""}","","../img/tt/1247tt.jpg","",""
"null","../img/gs/1247gs.jpg","null","reveal","image-keyboard-response","129","665348","0.0-6.0-4.17","3037850","co29689","norming","","","","","","",""
"null","../img/tt/1247tt.jpg","null","mooney2","image-keyboard-response","130","667350","0.0-6.0-5.17","3037850","co29689","norming","","","","","","",""
"9017.845000000321","","","post_reveal_questions","survey-likert","131","676370","0.0-6.0-6.17","3037850","co29689","norming","","","{""aha"":6}","[0]","../img/tt/1247tt.jpg","",""
"null","<div style=""font-size:60px;""> </div>","null","fixation","html-keyboard-response","132","676580","0.0-6.0-0.18","3037850","co29689","norming","","","","","","",""
"null","../img/tt/078tt.jpg","null","mooney1","image-keyboard-response","133","679589","0.0-6.0-1.18","3037850","co29689","norming","","","","","","",""
"5683.254999999888","","","post_mooney1_questions","survey-likert","134","685274","0.0-6.0-2.18","3037850","co29689","norming","","","{""curiosity"":6,""confidence"":6}","[0,1]","../img/tt/078tt.jpg","",""
"3590.2449999994133","","","recognition","survey-text","135","688866","0.0-6.0-3.18","3037850","co29689","norming","","","{""guess"":""butterfly""}","","../img/tt/078tt.jpg","",""
"null","../img/gs/078gs.jpg","null","reveal","image-keyboard-response","136","690876","0.0-6.0-4.18","3037850","co29689","norming","","","","","","",""
"null","../img/tt/078tt.jpg","null","mooney2","image-keyboard-response","137","692878","0.0-6.0-5.18","3037850","co29689","norming","","","","","","",""
"1730.0699999995995","","","post_reveal_questions","survey-likert","138","694610","0.0-6.0-6.18","3037850","co29689","norming","","","{""aha"":0}","[0]","../img/tt/078tt.jpg","",""
"null","<div style=""font-size:60px;""> </div>","null","fixation","html-keyboard-response","139","694812","0.0-6.0-0.19","3037850","co29689","norming","","","","","","",""
"null","../img/tt/1275tt.jpg","null","mooney1","image-keyboard-response","140","697822","0.0-6.0-1.19","3037850","co29689","norming","","","","","","",""
"21833.62000000116","","","post_mooney1_questions","survey-likert","141","719658","0.0-6.0-2.19","3037850","co29689","norming","","","{""curiosity"":6,""confidence"":0}","[0,1]","../img/tt/1275tt.jpg","",""
"1445.9750000005588","","","recognition","survey-text","142","721106","0.0-6.0-3.19","3037850","co29689","norming","","","{""guess"":""""}","","../img/tt/1275tt.jpg","",""
"null","../img/gs/1275gs.jpg","null","reveal","image-keyboard-response","143","723115","0.0-6.0-4.19","3037850","co29689","norming","","","","","","",""
"null","../img/tt/1275tt.jpg","null","mooney2","image-keyboard-response","144","725121","0.0-6.0-5.19","3037850","co29689","norming","","","","","","",""
"3095.6699999987613","","","post_reveal_questions","survey-likert","145","728213","0.0-6.0-6.19","3037850","co29689","norming","","","{""aha"":3}","[0]","../img/tt/1275tt.jpg","",""
"null","<div style=""font-size:60px;""> </div>","null","fixation","html-keyboard-response","146","728416","0.0-6.0-0.20","3037850","co29689","norming","","","","","","",""
"null","../img/tt/442tt.jpg","null","mooney1","image-keyboard-response","147","731422","0.0-6.0-1.20","3037850","co29689","norming","","","","","","",""
"6214.065000000177","","","post_mooney1_questions","survey-likert","148","737637","0.0-6.0-2.20","3037850","co29689","norming","","","{""curiosity"":6,""confidence"":2}","[0,1]","../img/tt/442tt.jpg","",""
"7509.990000000456","","","recognition","survey-text","149","745148","0.0-6.0-3.20","3037850","co29689","norming","","","{""guess"":""opblaasbare vis""}","","../img/tt/442tt.jpg","",""
"null","../img/gs/442gs.jpg","null","reveal","image-keyboard-response","150","747153","0.0-6.0-4.20","3037850","co29689","norming","","","","","","",""
"null","../img/tt/442tt.jpg","null","mooney2","image-keyboard-response","151","749164","0.0-6.0-5.20","3037850","co29689","norming","","","","","","",""
"2230.6150000004563","","","post_reveal_questions","survey-likert","152","751397","0.0-6.0-6.20","3037850","co29689","norming","","","{""aha"":2}","[0]","../img/tt/442tt.jpg","",""
"null","<div style=""font-size:60px;""> </div>","null","fixation","html-keyboard-response","153","751606","0.0-6.0-0.21","3037850","co29689","norming","","","","","","",""
"null","../img/tt/418tt.jpg","null","mooney1","image-keyboard-response","154","754616","0.0-6.0-1.21","3037850","co29689","norming","","","","","","",""
"4065.579999998561","","","post_mooney1_questions","survey-likert","155","758684","0.0-6.0-2.21","3037850","co29689","norming","","","{""curiosity"":6,""confidence"":6}","[0,1]","../img/tt/418tt.jpg","",""
"4254.225000000559","","","recognition","survey-text","156","762940","0.0-6.0-3.21","3037850","co29689","norming","","","{""guess"":""tomaten""}","","../img/tt/418tt.jpg","",""
"null","../img/gs/418gs.jpg","null","reveal","image-keyboard-response","157","764948","0.0-6.0-4.21","3037850","co29689","norming","","","","","","",""
"null","../img/tt/418tt.jpg","null","mooney2","image-keyboard-response","158","766950","0.0-6.0-5.21","3037850","co29689","norming","","","","","","",""
"3204.2999999994645","","","post_reveal_questions","survey-likert","159","770156","0.0-6.0-6.21","3037850","co29689","norming","","","{""aha"":6}","[0]","../img/tt/418tt.jpg","",""
"null","<div style=""font-size:60px;""> </div>","null","fixation","html-keyboard-response","160","770359","0.0-6.0-0.22","3037850","co29689","norming","","","","","","",""
"null","../img/tt/1118tt.jpg","null","mooney1","image-keyboard-response","161","773366","0.0-6.0-1.22","3037850","co29689","norming","","","","","","",""
"3451.8199999984354","","","post_mooney1_questions","survey-likert","162","776820","0.0-6.0-2.22","3037850","co29689","norming","","","{""curiosity"":6,""confidence"":5}","[0,1]","../img/tt/1118tt.jpg","",""
"10702.110000000219","","","recognition","survey-text","163","787522","0.0-6.0-3.22","3037850","co29689","norming","","","{""guess"":""little boat on water""}","","../img/tt/1118tt.jpg","",""
"null","../img/gs/1118gs.jpg","null","reveal","image-keyboard-response","164","789527","0.0-6.0-4.22","3037850","co29689","norming","","","","","","",""
"null","../img/tt/1118tt.jpg","null","mooney2","image-keyboard-response","165","791537","0.0-6.0-5.22","3037850","co29689","norming","","","","","","",""
"3271.93999999878","","","post_reveal_questions","survey-likert","166","794809","0.0-6.0-6.22","3037850","co29689","norming","","","{""aha"":1}","[0]","../img/tt/1118tt.jpg","",""
"null","<div style=""font-size:60px;""> </div>","null","fixation","html-keyboard-response","167","795017","0.0-6.0-0.23","3037850","co29689","norming","","","","","","",""
"null","../img/tt/1116tt.jpg","null","mooney1","image-keyboard-response","168","798020","0.0-6.0-1.23","3037850","co29689","norming","","","","","","",""
"5394.705000000657","","","post_mooney1_questions","survey-likert","169","803418","0.0-6.0-2.23","3037850","co29689","norming","","","{""curiosity"":6,""confidence"":4}","[0,1]","../img/tt/1116tt.jpg","",""
"6485.889999999898","","","recognition","survey-text","170","809905","0.0-6.0-3.23","3037850","co29689","norming","","","{""guess"":""jachthaven met boten""}","","../img/tt/1116tt.jpg","",""
"null","../img/gs/1116gs.jpg","null","reveal","image-keyboard-response","171","811912","0.0-6.0-4.23","3037850","co29689","norming","","","","","","",""
"null","../img/tt/1116tt.jpg","null","mooney2","image-keyboard-response","172","813916","0.0-6.0-5.23","3037850","co29689","norming","","","","","","",""
"3787.0550000006333","","","post_reveal_questions","survey-likert","173","817706","0.0-6.0-6.23","3037850","co29689","norming","","","{""aha"":0}","[0]","../img/tt/1116tt.jpg","",""
"null","<div style=""font-size:60px;""> </div>","null","fixation","html-keyboard-response","174","817916","0.0-6.0-0.24","3037850","co29689","norming","","","","","","",""
"null","../img/tt/019tt.jpg","null","mooney1","image-keyboard-response","175","820927","0.0-6.0-1.24","3037850","co29689","norming","","","","","","",""
"4103.774999999558","","","post_mooney1_questions","survey-likert","176","825036","0.0-6.0-2.24","3037850","co29689","norming","","","{""curiosity"":6,""confidence"":4}","[0,1]","../img/tt/019tt.jpg","",""
"3603.685000000056","","","recognition","survey-text","177","828641","0.0-6.0-3.24","3037850","co29689","norming","","","{""guess"":""wasknijper""}","","../img/tt/019tt.jpg","",""
"null","../img/gs/019gs.jpg","null","reveal","image-keyboard-response","178","830647","0.0-6.0-4.24","3037850","co29689","norming","","","","","","",""
"null","../img/tt/019tt.jpg","null","mooney2","image-keyboard-response","179","832657","0.0-6.0-5.24","3037850","co29689","norming","","","","","","",""
"1807.3150000000605","","","post_reveal_questions","survey-likert","180","834466","0.0-6.0-6.24","3037850","co29689","norming","","","{""aha"":3}","[0]","../img/tt/019tt.jpg","",""
"null","<div style=""font-size:60px;""> </div>","null","fixation","html-keyboard-response","181","834671","0.0-6.0-0.25","3037850","co29689","norming","","","","","","",""
"null","../img/tt/315tt.jpg","null","mooney1","image-keyboard-response","182","837677","0.0-6.0-1.25","3037850","co29689","norming","","","","","","",""
"6289.724999998696","","","post_mooney1_questions","survey-likert","183","843970","0.0-6.0-2.25","3037850","co29689","norming","","","{""curiosity"":6,""confidence"":3}","[0,1]","../img/tt/315tt.jpg","",""
"5501.88499999966","","","recognition","survey-text","184","849477","0.0-6.0-3.25","3037850","co29689","norming","","","{""guess"":""bird's mouth""}","","../img/tt/315tt.jpg","",""
"null","../img/gs/315gs.jpg","null","reveal","image-keyboard-response","185","851478","0.0-6.0-4.25","3037850","co29689","norming","","","","","","",""
"null","../img/tt/315tt.jpg","null","mooney2","image-keyboard-response","186","853480","0.0-6.0-5.25","3037850","co29689","norming","","","","","","",""
"3083.6199999994133","","","post_reveal_questions","survey-likert","187","856565","0.0-6.0-6.25","3037850","co29689","norming","","","{""aha"":0}","[0]","../img/tt/315tt.jpg","",""
"null","<div style=""font-size:60px;""> </div>","null","fixation","html-keyboard-response","188","856769","0.0-6.0-0.26","3037850","co29689","norming","","","","","","",""
"null","../img/tt/013tt.jpg","null","mooney1","image-keyboard-response","189","859778","0.0-6.0-1.26","3037850","co29689","norming","","","","","","",""
"4376.029999999446","","","post_mooney1_questions","survey-likert","190","864157","0.0-6.0-2.26","3037850","co29689","norming","","","{""curiosity"":6,""confidence"":0}","[0,1]","../img/tt/013tt.jpg","",""
"1022.0900000003166","","","recognition","survey-text","191","865181","0.0-6.0-3.26","3037850","co29689","norming","","","{""guess"":""""}","","../img/tt/013tt.jpg","",""
"null","../img/gs/013gs.jpg","null","reveal","image-keyboard-response","192","867187","0.0-6.0-4.26","3037850","co29689","norming","","","","","","",""
"null","../img/tt/013tt.jpg","null","mooney2","image-keyboard-response","193","869193","0.0-6.0-5.26","3037850","co29689","norming","","","","","","",""
"2425.1750000002794","","","post_reveal_questions","survey-likert","194","871621","0.0-6.0-6.26","3037850","co29689","norming","","","{""aha"":5}","[0]","../img/tt/013tt.jpg","",""
"null","<div style=""font-size:60px;""> </div>","null","fixation","html-keyboard-response","195","871830","0.0-6.0-0.27","3037850","co29689","norming","","","","","","",""
"null","../img/tt/319tt.jpg","null","mooney1","image-keyboard-response","196","874835","0.0-6.0-1.27","3037850","co29689","norming","","","","","","",""
"3822.6999999987893","","","post_mooney1_questions","survey-likert","197","878661","0.0-6.0-2.27","3037850","co29689","norming","","","{""curiosity"":5,""confidence"":4}","[0,1]","../img/tt/319tt.jpg","",""
"3150.1999999999534","","","recognition","survey-text","198","881813","0.0-6.0-3.27","3037850","co29689","norming","","","{""guess"":""butterfly""}","","../img/tt/319tt.jpg","",""
"null","../img/gs/319gs.jpg","null","reveal","image-keyboard-response","199","883821","0.0-6.0-4.27","3037850","co29689","norming","","","","","","",""
"null","../img/tt/319tt.jpg","null","mooney2","image-keyboard-response","200","885830","0.0-6.0-5.27","3037850","co29689","norming","","","","","","",""
"2076.91999999946","","","post_reveal_questions","survey-likert","201","887909","0.0-6.0-6.27","3037850","co29689","norming","","","{""aha"":5}","[0]","../img/tt/319tt.jpg","",""
"null","<div style=""font-size:60px;""> </div>","null","fixation","html-keyboard-response","202","888110","0.0-6.0-0.28","3037850","co29689","norming","","","","","","",""
"null","../img/tt/108tt.jpg","null","mooney1","image-keyboard-response","203","891116","0.0-6.0-1.28","3037850","co29689","norming","","","","","","",""
"5086.3950000002515","","","post_mooney1_questions","survey-likert","204","896205","0.0-6.0-2.28","3037850","co29689","norming","","","{""curiosity"":5,""confidence"":4}","[0,1]","../img/tt/108tt.jpg","",""
"5453.879999999073","","","recognition","survey-text","205","901660","0.0-6.0-3.28","3037850","co29689","norming","","","{""guess"":""cows""}","","../img/tt/108tt.jpg","",""
"null","../img/gs/108gs.jpg","null","reveal","image-keyboard-response","206","903669","0.0-6.0-4.28","3037850","co29689","norming","","","","","","",""
"null","../img/tt/108tt.jpg","null","mooney2","image-keyboard-response","207","905672","0.0-6.0-5.28","3037850","co29689","norming","","","","","","",""
"3130.4450000006473","","","post_reveal_questions","survey-likert","208","908806","0.0-6.0-6.28","3037850","co29689","norming","","","{""aha"":2}","[0]","../img/tt/108tt.jpg","",""
"null","<div style=""font-size:60px;""> </div>","null","fixation","html-keyboard-response","209","909016","0.0-6.0-0.29","3037850","co29689","norming","","","","","","",""
"null","../img/tt/1224tt.jpg","null","mooney1","image-keyboard-response","210","912022","0.0-6.0-1.29","3037850","co29689","norming","","","","","","",""
"7676.44500000088","","","post_mooney1_questions","survey-likert","211","919702","0.0-6.0-2.29","3037850","co29689","norming","","","{""curiosity"":6,""confidence"":5}","[0,1]","../img/tt/1224tt.jpg","",""
"3853.55999999959","","","recognition","survey-text","212","923557","0.0-6.0-3.29","3037850","co29689","norming","","","{""guess"":""mummy""}","","../img/tt/1224tt.jpg","",""
"null","../img/gs/1224gs.jpg","null","reveal","image-keyboard-response","213","925560","0.0-6.0-4.29","3037850","co29689","norming","","","","","","",""
"null","../img/tt/1224tt.jpg","null","mooney2","image-keyboard-response","214","927564","0.0-6.0-5.29","3037850","co29689","norming","","","","","","",""
"3488.265000000014","","","post_reveal_questions","survey-likert","215","931053","0.0-6.0-6.29","3037850","co29689","norming","","","{""aha"":1}","[0]","../img/tt/1224tt.jpg","",""
"null","<div style=""font-size:60px;""> </div>","null","fixation","html-keyboard-response","216","931263","0.0-6.0-0.30","3037850","co29689","norming","","","","","","",""
"null","../img/tt/194tt.jpg","null","mooney1","image-keyboard-response","217","934264","0.0-6.0-1.30","3037850","co29689","norming","","","","","","",""
"16308.535000000149","","","post_mooney1_questions","survey-likert","218","950574","0.0-6.0-2.30","3037850","co29689","norming","","","{""curiosity"":6,""confidence"":6}","[0,1]","../img/tt/194tt.jpg","",""
"7342.024999999907","","","recognition","survey-text","219","957918","0.0-6.0-3.30","3037850","co29689","norming","","","{""guess"":""woman playing cello""}","","../img/tt/194tt.jpg","",""
"null","../img/gs/194gs.jpg","null","reveal","image-keyboard-response","220","959924","0.0-6.0-4.30","3037850","co29689","norming","","","","","","",""
"null","../img/tt/194tt.jpg","null","mooney2","image-keyboard-response","221","961933","0.0-6.0-5.30","3037850","co29689","norming","","","","","","",""
"2030.66500000027","","","post_reveal_questions","survey-likert","222","963966","0.0-6.0-6.30","3037850","co29689","norming","","","{""aha"":3}","[0]","../img/tt/194tt.jpg","",""
"null","<div style=""font-size:60px;""> </div>","null","fixation","html-keyboard-response","223","964172","0.0-6.0-0.31","3037850","co29689","norming","","","","","","",""
"null","../img/tt/1063tt.jpg","null","mooney1","image-keyboard-response","224","967182","0.0-6.0-1.31","3037850","co29689","norming","","","","","","",""
"4380.5150000007125","","","post_mooney1_questions","survey-likert","225","971569","0.0-6.0-2.31","3037850","co29689","norming","","","{""curiosity"":6,""confidence"":0}","[0,1]","../img/tt/1063tt.jpg","",""
"678.0249999992084","","","recognition","survey-text","226","972249","0.0-6.0-3.31","3037850","co29689","norming","","","{""guess"":""""}","","../img/tt/1063tt.jpg","",""
"null","../img/gs/1063gs.jpg","null","reveal","image-keyboard-response","227","974254","0.0-6.0-4.31","3037850","co29689","norming","","","","","","",""
"null","../img/tt/1063tt.jpg","null","mooney2","image-keyboard-response","228","976257","0.0-6.0-5.31","3037850","co29689","norming","","","","","","",""
"2493.7100000006612","","","post_reveal_questions","survey-likert","229","978753","0.0-6.0-6.31","3037850","co29689","norming","","","{""aha"":0}","[0]","../img/tt/1063tt.jpg","",""
"null","<div style=""font-size:60px;""> </div>","null","fixation","html-keyboard-response","230","978954","0.0-6.0-0.32","3037850","co29689","norming","","","","","","",""
"null","../img/tt/1086tt.jpg","null","mooney1","image-keyboard-response","231","981961","0.0-6.0-1.32","3037850","co29689","norming","","","","","","",""
"48380.52000000072","","","post_mooney1_questions","survey-likert","232","1030348","0.0-6.0-2.32","3037850","co29689","norming","","","{""curiosity"":5,""confidence"":0}","[0,1]","../img/tt/1086tt.jpg","",""
"901.9900000002235","","","recognition","survey-text","233","1031252","0.0-6.0-3.32","3037850","co29689","norming","","","{""guess"":""""}","","../img/tt/1086tt.jpg","",""
"null","../img/gs/1086gs.jpg","null","reveal","image-keyboard-response","234","1033255","0.0-6.0-4.32","3037850","co29689","norming","","","","","","",""
"null","../img/tt/1086tt.jpg","null","mooney2","image-keyboard-response","235","1035259","0.0-6.0-5.32","3037850","co29689","norming","","","","","","",""
"2134.0650000002934","","","post_reveal_questions","survey-likert","236","1037396","0.0-6.0-6.32","3037850","co29689","norming","","","{""aha"":0}","[0]","../img/tt/1086tt.jpg","",""
"null","<div style=""font-size:60px;""> </div>","null","fixation","html-keyboard-response","237","1037599","0.0-6.0-0.33","3037850","co29689","norming","","","","","","",""
"null","../img/tt/1128tt.jpg","null","mooney1","image-keyboard-response","238","1040607","0.0-6.0-1.33","3037850","co29689","norming","","","","","","",""
"5226.305000000168","","","post_mooney1_questions","survey-likert","239","1045836","0.0-6.0-2.33","3037850","co29689","norming","","","{""curiosity"":6,""confidence"":6}","[0,1]","../img/tt/1128tt.jpg","",""
"4702.0649999994785","","","recognition","survey-text","240","1050540","0.0-6.0-3.33","3037850","co29689","norming","","","{""guess"":""panda hugging ape""}","","../img/tt/1128tt.jpg","",""
"null","../img/gs/1128gs.jpg","null","reveal","image-keyboard-response","241","1052547","0.0-6.0-4.33","3037850","co29689","norming","","","","","","",""
"null","../img/tt/1128tt.jpg","null","mooney2","image-keyboard-response","242","1054550","0.0-6.0-5.33","3037850","co29689","norming","","","","","","",""
"3067.6800000001676","","","post_reveal_questions","survey-likert","243","1057620","0.0-6.0-6.33","3037850","co29689","norming","","","{""aha"":5}","[0]","../img/tt/1128tt.jpg","",""
"null","<div style=""font-size:60px;""> </div>","null","fixation","html-keyboard-response","244","1057826","0.0-6.0-0.34","3037850","co29689","norming","","","","","","",""
"null","../img/tt/1102tt.jpg","null","mooney1","image-keyboard-response","245","1060836","0.0-6.0-1.34","3037850","co29689","norming","","","","","","",""
"6525.485000000102","","","post_mooney1_questions","survey-likert","246","1067364","0.0-6.0-2.34","3037850","co29689","norming","","","{""curiosity"":5,""confidence"":4}","[0,1]","../img/tt/1102tt.jpg","",""
"7030.145000000484","","","recognition","survey-text","247","1074396","0.0-6.0-3.34","3037850","co29689","norming","","","{""guess"":""coconuttree with hammock""}","","../img/tt/1102tt.jpg","",""
"null","../img/gs/1102gs.jpg","null","reveal","image-keyboard-response","248","1076397","0.0-6.0-4.34","3037850","co29689","norming","","","","","","",""
"null","../img/tt/1102tt.jpg","null","mooney2","image-keyboard-response","249","1078399","0.0-6.0-5.34","3037850","co29689","norming","","","","","","",""
"1706.8300000010058","","","post_reveal_questions","survey-likert","250","1080108","0.0-6.0-6.34","3037850","co29689","norming","","","{""aha"":3}","[0]","../img/tt/1102tt.jpg","",""
"null","<div style=""font-size:60px;""> </div>","null","fixation","html-keyboard-response","251","1080312","0.0-6.0-0.35","3037850","co29689","norming","","","","","","",""
"null","../img/tt/1084tt.jpg","null","mooney1","image-keyboard-response","252","1083316","0.0-6.0-1.35","3037850","co29689","norming","","","","","","",""
"32220.93000000133","","","post_mooney1_questions","survey-likert","253","1115535","0.0-6.0-2.35","3037850","co29689","norming","","","{""curiosity"":5,""confidence"":1}","[0,1]","../img/tt/1084tt.jpg","",""
"9021.730000000214","","","recognition","survey-text","254","1124558","0.0-6.0-3.35","3037850","co29689","norming","","","{""guess"":""piece of cake with cat""}","","../img/tt/1084tt.jpg","",""
"null","../img/gs/1084gs.jpg","null","reveal","image-keyboard-response","255","1126561","0.0-6.0-4.35","3037850","co29689","norming","","","","","","",""
"null","../img/tt/1084tt.jpg","null","mooney2","image-keyboard-response","256","1128564","0.0-6.0-5.35","3037850","co29689","norming","","","","","","",""
"1648.4199999994598","","","post_reveal_questions","survey-likert","257","1130215","0.0-6.0-6.35","3037850","co29689","norming","","","{""aha"":4}","[0]","../img/tt/1084tt.jpg","",""
"null","<div style=""font-size:60px;""> </div>","null","fixation","html-keyboard-response","258","1130420","0.0-6.0-0.36","3037850","co29689","norming","","","","","","",""
"null","../img/tt/1070tt.jpg","null","mooney1","image-keyboard-response","259","1133431","0.0-6.0-1.36","3037850","co29689","norming","","","","","","",""
"5932.56000000122","","","post_mooney1_questions","survey-likert","260","1139367","0.0-6.0-2.36","3037850","co29689","norming","","","{""curiosity"":6,""confidence"":6}","[0,1]","../img/tt/1070tt.jpg","",""
"3342.029999999795","","","recognition","survey-text","261","1142711","0.0-6.0-3.36","3037850","co29689","norming","","","{""guess"":""piece of cake""}","","../img/tt/1070tt.jpg","",""
"null","../img/gs/1070gs.jpg","null","reveal","image-keyboard-response","262","1144716","0.0-6.0-4.36","3037850","co29689","norming","","","","","","",""
"null","../img/tt/1070tt.jpg","null","mooney2","image-keyboard-response","263","1146726","0.0-6.0-5.36","3037850","co29689","norming","","","","","","",""
"2645.849999998929","","","post_reveal_questions","survey-likert","264","1149375","0.0-6.0-6.36","3037850","co29689","norming","","","{""aha"":6}","[0]","../img/tt/1070tt.jpg","",""
"null","<div style=""font-size:60px;""> </div>","null","fixation","html-keyboard-response","265","1149582","0.0-6.0-0.37","3037850","co29689","norming","","","","","","",""
"null","../img/tt/1278tt.jpg","null","mooney1","image-keyboard-response","266","1152584","0.0-6.0-1.37","3037850","co29689","norming","","","","","","",""
"5628.104999999981","","","post_mooney1_questions","survey-likert","267","1158215","0.0-6.0-2.37","3037850","co29689","norming","","","{""curiosity"":6,""confidence"":3}","[0,1]","../img/tt/1278tt.jpg","",""
"1614.364999999525","","","recognition","survey-text","268","1159831","0.0-6.0-3.37","3037850","co29689","norming","","","{""guess"":""bird""}","","../img/tt/1278tt.jpg","",""
"null","../img/gs/1278gs.jpg","null","reveal","image-keyboard-response","269","1161833","0.0-6.0-4.37","3037850","co29689","norming","","","","","","",""
"null","../img/tt/1278tt.jpg","null","mooney2","image-keyboard-response","270","1163841","0.0-6.0-5.37","3037850","co29689","norming","","","","","","",""
"2379.1049999999814","","","post_reveal_questions","survey-likert","271","1166222","0.0-6.0-6.37","3037850","co29689","norming","","","{""aha"":5}","[0]","../img/tt/1278tt.jpg","",""
"null","<div style=""font-size:60px;""> </div>","null","fixation","html-keyboard-response","272","1166429","0.0-6.0-0.38","3037850","co29689","norming","","","","","","",""
"null","../img/tt/1279tt.jpg","null","mooney1","image-keyboard-response","273","1169434","0.0-6.0-1.38","3037850","co29689","norming","","","","","","",""
"5057.844999999274","","","post_mooney1_questions","survey-likert","274","1174504","0.0-6.0-2.38","3037850","co29689","norming","","","{""curiosity"":6,""confidence"":5}","[0,1]","../img/tt/1279tt.jpg","",""
"2342.0850000001956","","","recognition","survey-text","275","1176848","0.0-6.0-3.38","3037850","co29689","norming","","","{""guess"":""lambs""}","","../img/tt/1279tt.jpg","",""
"null","../img/gs/1279gs.jpg","null","reveal","image-keyboard-response","276","1178850","0.0-6.0-4.38","3037850","co29689","norming","","","","","","",""
"null","../img/tt/1279tt.jpg","null","mooney2","image-keyboard-response","277","1180857","0.0-6.0-5.38","3037850","co29689","norming","","","","","","",""
"2532.139999999432","","","post_reveal_questions","survey-likert","278","1183392","0.0-6.0-6.38","3037850","co29689","norming","","","{""aha"":0}","[0]","../img/tt/1279tt.jpg","",""
"null","<div style=""font-size:60px;""> </div>","null","fixation","html-keyboard-response","279","1183599","0.0-6.0-0.39","3037850","co29689","norming","","","","","","",""
"null","../img/tt/1126tt.jpg","null","mooney1","image-keyboard-response","280","1186601","0.0-6.0-1.39","3037850","co29689","norming","","","","","","",""
"2747.8950000004843","","","post_mooney1_questions","survey-likert","281","1189352","0.0-6.0-2.39","3037850","co29689","norming","","","{""curiosity"":6,""confidence"":6}","[0,1]","../img/tt/1126tt.jpg","",""
"2374.4200000001583","","","recognition","survey-text","282","1191728","0.0-6.0-3.39","3037850","co29689","norming","","","{""guess"":""mountain""}","","../img/tt/1126tt.jpg","",""
"null","../img/gs/1126gs.jpg","null","reveal","image-keyboard-response","283","1193730","0.0-6.0-4.39","3037850","co29689","norming","","","","","","",""
"null","../img/tt/1126tt.jpg","null","mooney2","image-keyboard-response","284","1195738","0.0-6.0-5.39","3037850","co29689","norming","","","","","","",""
"1827.8850000007078","","","post_reveal_questions","survey-likert","285","1197568","0.0-6.0-6.39","3037850","co29689","norming","","","{""aha"":5}","[0]","../img/tt/1126tt.jpg","",""
"null","<div style=""font-size:60px;""> </div>","null","fixation","html-keyboard-response","286","1197770","0.0-6.0-0.40","3037850","co29689","norming","","","","","","",""
"null","../img/tt/085tt.jpg","null","mooney1","image-keyboard-response","287","1200777","0.0-6.0-1.40","3037850","co29689","norming","","","","","","",""
"4292.045000000158","","","post_mooney1_questions","survey-likert","288","1205072","0.0-6.0-2.40","3037850","co29689","norming","","","{""curiosity"":6,""confidence"":4}","[0,1]","../img/tt/085tt.jpg","",""
"1934.2900000009686","","","recognition","survey-text","289","1207008","0.0-6.0-3.40","3037850","co29689","norming","","","{""guess"":""krekel""}","","../img/tt/085tt.jpg","",""
"null","../img/gs/085gs.jpg","null","reveal","image-keyboard-response","290","1209012","0.0-6.0-4.40","3037850","co29689","norming","","","","","","",""
"null","../img/tt/085tt.jpg","null","mooney2","image-keyboard-response","291","1211014","0.0-6.0-5.40","3037850","co29689","norming","","","","","","",""
"2447.5600000005215","","","post_reveal_questions","survey-likert","292","1213464","0.0-6.0-6.40","3037850","co29689","norming","","","{""aha"":0}","[0]","../img/tt/085tt.jpg","",""
"null","<div style=""font-size:60px;""> </div>","null","fixation","html-keyboard-response","293","1213669","0.0-6.0-0.41","3037850","co29689","norming","","","","","","",""
"null","../img/tt/435tt.jpg","null","mooney1","image-keyboard-response","294","1216681","0.0-6.0-1.41","3037850","co29689","norming","","","","","","",""
"3468.0599999993574","","","post_mooney1_questions","survey-likert","295","1220152","0.0-6.0-2.41","3037850","co29689","norming","","","{""curiosity"":6,""confidence"":4}","[0,1]","../img/tt/435tt.jpg","",""
"1878.2750000008382","","","recognition","survey-text","296","1222032","0.0-6.0-3.41","3037850","co29689","norming","","","{""guess"":""robot""}","","../img/tt/435tt.jpg","",""
"null","../img/gs/435gs.jpg","null","reveal","image-keyboard-response","297","1224037","0.0-6.0-4.41","3037850","co29689","norming","","","","","","",""
"null","../img/tt/435tt.jpg","null","mooney2","image-keyboard-response","298","1226039","0.0-6.0-5.41","3037850","co29689","norming","","","","","","",""
"2734.744999999879","","","post_reveal_questions","survey-likert","299","1228776","0.0-6.0-6.41","3037850","co29689","norming","","","{""aha"":5}","[0]","../img/tt/435tt.jpg","",""
"null","<div style=""font-size:60px;""> </div>","null","fixation","html-keyboard-response","300","1228977","0.0-6.0-0.42","3037850","co29689","norming","","","","","","",""
"null","../img/tt/468tt.jpg","null","mooney1","image-keyboard-response","301","1231986","0.0-6.0-1.42","3037850","co29689","norming","","","","","","",""
"3155.1899999997113","","","post_mooney1_questions","survey-likert","302","1235139","0.0-6.0-2.42","3037850","co29689","norming","","","{""curiosity"":6,""confidence"":6}","[0,1]","../img/tt/468tt.jpg","",""
"2101.9949999989476","","","recognition","survey-text","303","1237242","0.0-6.0-3.42","3037850","co29689","norming","","","{""guess"":""violin""}","","../img/tt/468tt.jpg","",""
"null","../img/gs/468gs.jpg","null","reveal","image-keyboard-response","304","1239249","0.0-6.0-4.42","3037850","co29689","norming","","","","","","",""
"null","../img/tt/468tt.jpg","null","mooney2","image-keyboard-response","305","1241250","0.0-6.0-5.42","3037850","co29689","norming","","","","","","",""
"1347.2650000003632","","","post_reveal_questions","survey-likert","306","1242603","0.0-6.0-6.42","3037850","co29689","norming","","","{""aha"":5}","[0]","../img/tt/468tt.jpg","",""
"null","<div style=""font-size:60px;""> </div>","null","fixation","html-keyboard-response","307","1242809","0.0-6.0-0.43","3037850","co29689","norming","","","","","","",""
"null","../img/tt/1251tt.jpg","null","mooney1","image-keyboard-response","308","1245819","0.0-6.0-1.43","3037850","co29689","norming","","","","","","",""
"3156.7199999990407","","","post_mooney1_questions","survey-likert","309","1248979","0.0-6.0-2.43","3037850","co29689","norming","","","{""curiosity"":6,""confidence"":5}","[0,1]","../img/tt/1251tt.jpg","",""
"1974.1900000008754","","","recognition","survey-text","310","1250955","0.0-6.0-3.43","3037850","co29689","norming","","","{""guess"":""bear""}","","../img/tt/1251tt.jpg","",""
"null","../img/gs/1251gs.jpg","null","reveal","image-keyboard-response","311","1252957","0.0-6.0-4.43","3037850","co29689","norming","","","","","","",""
"null","../img/tt/1251tt.jpg","null","mooney2","image-keyboard-response","312","1254965","0.0-6.0-5.43","3037850","co29689","norming","","","","","","",""
"3419.0350000008475","","","post_reveal_questions","survey-likert","313","1258387","0.0-6.0-6.43","3037850","co29689","norming","","","{""aha"":2}","[0]","../img/tt/1251tt.jpg","",""
"null","<div style=""font-size:60px;""> </div>","null","fixation","html-keyboard-response","314","1258592","0.0-6.0-0.44","3037850","co29689","norming","","","","","","",""
"null","../img/tt/1033tt.jpg","null","mooney1","image-keyboard-response","315","1261595","0.0-6.0-1.44","3037850","co29689","norming","","","","","","",""
"3150.675000000978","","","post_mooney1_questions","survey-likert","316","1264747","0.0-6.0-2.44","3037850","co29689","norming","","","{""curiosity"":6,""confidence"":6}","[0,1]","../img/tt/1033tt.jpg","",""
"4189.95999999973","","","recognition","survey-text","317","1268939","0.0-6.0-3.44","3037850","co29689","norming","","","{""guess"":""hockeyplayers""}","","../img/tt/1033tt.jpg","",""
"null","../img/gs/1033gs.jpg","null","reveal","image-keyboard-response","318","1270941","0.0-6.0-4.44","3037850","co29689","norming","","","","","","",""
"null","../img/tt/1033tt.jpg","null","mooney2","image-keyboard-response","319","1272946","0.0-6.0-5.44","3037850","co29689","norming","","","","","","",""
"2726.090000000084","","","post_reveal_questions","survey-likert","320","1275675","0.0-6.0-6.44","3037850","co29689","norming","","","{""aha"":6}","[0]","../img/tt/1033tt.jpg","",""
"null","<div style=""font-size:60px;""> </div>","null","fixation","html-keyboard-response","321","1275885","0.0-6.0-0.45","3037850","co29689","norming","","","","","","",""
"null","../img/tt/124tt.jpg","null","mooney1","image-keyboard-response","322","1278891","0.0-6.0-1.45","3037850","co29689","norming","","","","","","",""
"4004.859999999171","","","post_mooney1_questions","survey-likert","323","1282899","0.0-6.0-2.45","3037850","co29689","norming","","","{""curiosity"":6,""confidence"":6}","[0,1]","../img/tt/124tt.jpg","",""
"3254.2450000001118","","","recognition","survey-text","324","1286154","0.0-6.0-3.45","3037850","co29689","norming","","","{""guess"":""panda""}","","../img/tt/124tt.jpg","",""
"null","../img/gs/124gs.jpg","null","reveal","image-keyboard-response","325","1288162","0.0-6.0-4.45","3037850","co29689","norming","","","","","","",""
"null","../img/tt/124tt.jpg","null","mooney2","image-keyboard-response","326","1290165","0.0-6.0-5.45","3037850","co29689","norming","","","","","","",""
"4730.714999999618","","","post_reveal_questions","survey-likert","327","1294904","0.0-6.0-6.45","3037850","co29689","norming","","","{""aha"":0}","[0]","../img/tt/124tt.jpg","",""
"null","<div style=""font-size:60px;""> </div>","null","fixation","html-keyboard-response","328","1295111","0.0-6.0-0.46","3037850","co29689","norming","","","","","","",""
"null","../img/tt/273tt.jpg","null","mooney1","image-keyboard-response","329","1298118","0.0-6.0-1.46","3037850","co29689","norming","","","","","","",""
"4488.279999999562","","","post_mooney1_questions","survey-likert","330","1302609","0.0-6.0-2.46","3037850","co29689","norming","","","{""curiosity"":6,""confidence"":6}","[0,1]","../img/tt/273tt.jpg","",""
"11518.2350000015","","","recognition","survey-text","331","1314129","0.0-6.0-3.46","3037850","co29689","norming","","","{""guess"":""showing of braces in mouth""}","","../img/tt/273tt.jpg","",""
"null","../img/gs/273gs.jpg","null","reveal","image-keyboard-response","332","1316134","0.0-6.0-4.46","3037850","co29689","norming","","","","","","",""
"null","../img/tt/273tt.jpg","null","mooney2","image-keyboard-response","333","1318136","0.0-6.0-5.46","3037850","co29689","norming","","","","","","",""
"1550.3800000005867","","","post_reveal_questions","survey-likert","334","1319688","0.0-6.0-6.46","3037850","co29689","norming","","","{""aha"":6}","[0]","../img/tt/273tt.jpg","",""
"null","<div style=""font-size:60px;""> </div>","null","fixation","html-keyboard-response","335","1319892","0.0-6.0-0.47","3037850","co29689","norming","","","","","","",""
"null","../img/tt/1151tt.jpg","null","mooney1","image-keyboard-response","336","1322898","0.0-6.0-1.47","3037850","co29689","norming","","","","","","",""
"3564.1500000001397","","","post_mooney1_questions","survey-likert","337","1326465","0.0-6.0-2.47","3037850","co29689","norming","","","{""curiosity"":6,""confidence"":1}","[0,1]","../img/tt/1151tt.jpg","",""
"2349.809999999823","","","recognition","survey-text","338","1328817","0.0-6.0-3.47","3037850","co29689","norming","","","{""guess"":""footh""}","","../img/tt/1151tt.jpg","",""
"null","../img/gs/1151gs.jpg","null","reveal","image-keyboard-response","339","1330827","0.0-6.0-4.47","3037850","co29689","norming","","","","","","",""
"null","../img/tt/1151tt.jpg","null","mooney2","image-keyboard-response","340","1332829","0.0-6.0-5.47","3037850","co29689","norming","","","","","","",""
"1745.030000000028","","","post_reveal_questions","survey-likert","341","1334577","0.0-6.0-6.47","3037850","co29689","norming","","","{""aha"":2}","[0]","../img/tt/1151tt.jpg","",""
"null","<div style=""font-size:60px;""> </div>","null","fixation","html-keyboard-response","342","1334784","0.0-6.0-0.48","3037850","co29689","norming","","","","","","",""
"null","../img/tt/007tt.jpg","null","mooney1","image-keyboard-response","343","1337792","0.0-6.0-1.48","3037850","co29689","norming","","","","","","",""
"4349.795000000158","","","post_mooney1_questions","survey-likert","344","1342145","0.0-6.0-2.48","3037850","co29689","norming","","","{""curiosity"":6,""confidence"":2}","[0,1]","../img/tt/007tt.jpg","",""
"2526.144999999786","","","recognition","survey-text","345","1344673","0.0-6.0-3.48","3037850","co29689","norming","","","{""guess"":""grass""}","","../img/tt/007tt.jpg","",""
"null","../img/gs/007gs.jpg","null","reveal","image-keyboard-response","346","1346680","0.0-6.0-4.48","3037850","co29689","norming","","","","","","",""
"null","../img/tt/007tt.jpg","null","mooney2","image-keyboard-response","347","1348691","0.0-6.0-5.48","3037850","co29689","norming","","","","","","",""
"2018.8299999989104","","","post_reveal_questions","survey-likert","348","1350712","0.0-6.0-6.48","3037850","co29689","norming","","","{""aha"":2}","[0]","../img/tt/007tt.jpg","",""
"null","<div style=""font-size:60px;""> </div>","null","fixation","html-keyboard-response","349","1350923","0.0-6.0-0.49","3037850","co29689","norming","","","","","","",""
"null","../img/tt/1283tt.jpg","null","mooney1","image-keyboard-response","350","1353925","0.0-6.0-1.49","3037850","co29689","norming","","","","","","",""
"4201.1350000011735","","","post_mooney1_questions","survey-likert","351","1358129","0.0-6.0-2.49","3037850","co29689","norming","","","{""curiosity"":6,""confidence"":4}","[0,1]","../img/tt/1283tt.jpg","",""
"2269.7049999986775","","","recognition","survey-text","352","1360401","0.0-6.0-3.49","3037850","co29689","norming","","","{""guess"":""fox""}","","../img/tt/1283tt.jpg","",""
"null","../img/gs/1283gs.jpg","null","reveal","image-keyboard-response","353","1362409","0.0-6.0-4.49","3037850","co29689","norming","","","","","","",""
"null","../img/tt/1283tt.jpg","null","mooney2","image-keyboard-response","354","1364413","0.0-6.0-5.49","3037850","co29689","norming","","","","","","",""
"2969.294999998994","","","post_reveal_questions","survey-likert","355","1367385","0.0-6.0-6.49","3037850","co29689","norming","","","{""aha"":4}","[0]","../img/tt/1283tt.jpg","",""
"null","<div style=""font-size:60px;""> </div>","null","fixation","html-keyboard-response","356","1367589","0.0-6.0-0.50","3037850","co29689","norming","","","","","","",""
"null","../img/tt/580tt.jpg","null","mooney1","image-keyboard-response","357","1370598","0.0-6.0-1.50","3037850","co29689","norming","","","","","","",""
"6280.1950000009965","","","post_mooney1_questions","survey-likert","358","1376881","0.0-6.0-2.50","3037850","co29689","norming","","","{""curiosity"":5,""confidence"":0}","[0,1]","../img/tt/580tt.jpg","",""
"1773.7600000000093","","","recognition","survey-text","359","1378657","0.0-6.0-3.50","3037850","co29689","norming","","","{""guess"":""""}","","../img/tt/580tt.jpg","",""
"null","../img/gs/580gs.jpg","null","reveal","image-keyboard-response","360","1380664","0.0-6.0-4.50","3037850","co29689","norming","","","","","","",""
"null","../img/tt/580tt.jpg","null","mooney2","image-keyboard-response","361","1382665","0.0-6.0-5.50","3037850","co29689","norming","","","","","","",""
"3101.7599999995437","","","post_reveal_questions","survey-likert","362","1385769","0.0-6.0-6.50","3037850","co29689","norming","","","{""aha"":6}","[0]","../img/tt/580tt.jpg","",""
"null","<div style=""font-size:60px;""> </div>","null","fixation","html-keyboard-response","363","1385978","0.0-6.0-0.51","3037850","co29689","norming","","","","","","",""
"null","../img/tt/416tt.jpg","null","mooney1","image-keyboard-response","364","1388985","0.0-6.0-1.51","3037850","co29689","norming","","","","","","",""
"3340.7249999982305","","","post_mooney1_questions","survey-likert","365","1392329","0.0-6.0-2.51","3037850","co29689","norming","","","{""curiosity"":6,""confidence"":6}","[0,1]","../img/tt/416tt.jpg","",""
"2597.934999999823","","","recognition","survey-text","366","1394929","0.0-6.0-3.51","3037850","co29689","norming","","","{""guess"":""ostrich""}","","../img/tt/416tt.jpg","",""
"null","../img/gs/416gs.jpg","null","reveal","image-keyboard-response","367","1396939","0.0-6.0-4.51","3037850","co29689","norming","","","","","","",""
"null","../img/tt/416tt.jpg","null","mooney2","image-keyboard-response","368","1398942","0.0-6.0-5.51","3037850","co29689","norming","","","","","","",""
"1880.2750000013039","","","post_reveal_questions","survey-likert","369","1400825","0.0-6.0-6.51","3037850","co29689","norming","","","{""aha"":6}","[0]","../img/tt/416tt.jpg","",""
"null","<div style=""font-size:60px;""> </div>","null","fixation","html-keyboard-response","370","1401030","0.0-6.0-0.52","3037850","co29689","norming","","","","","","",""
"null","../img/tt/1268tt.jpg","null","mooney1","image-keyboard-response","371","1404036","0.0-6.0-1.52","3037850","co29689","norming","","","","","","",""
"3106.474999998696","","","post_mooney1_questions","survey-likert","372","1407145","0.0-6.0-2.52","3037850","co29689","norming","","","{""curiosity"":6,""confidence"":4}","[0,1]","../img/tt/1268tt.jpg","",""
"2198.1300000005867","","","recognition","survey-text","373","1409345","0.0-6.0-3.52","3037850","co29689","norming","","","{""guess"":""stinkdier""}","","../img/tt/1268tt.jpg","",""
"null","../img/gs/1268gs.jpg","null","reveal","image-keyboard-response","374","1411348","0.0-6.0-4.52","3037850","co29689","norming","","","","","","",""
"null","../img/tt/1268tt.jpg","null","mooney2","image-keyboard-response","375","1413350","0.0-6.0-5.52","3037850","co29689","norming","","","","","","",""
"2064.47999999905","","","post_reveal_questions","survey-likert","376","1415414","0.0-6.0-6.52","3037850","co29689","norming","","","{""aha"":5}","[0]","../img/tt/1268tt.jpg","",""
"null","<div style=""font-size:60px;""> </div>","null","fixation","html-keyboard-response","377","1415618","0.0-6.0-0.53","3037850","co29689","norming","","","","","","",""
"null","../img/tt/378tt.jpg","null","mooney1","image-keyboard-response","378","1418619","0.0-6.0-1.53","3037850","co29689","norming","","","","","","",""
"3471.340000000084","","","post_mooney1_questions","survey-likert","379","1422094","0.0-6.0-2.53","3037850","co29689","norming","","","{""curiosity"":6,""confidence"":3}","[0,1]","../img/tt/378tt.jpg","",""
"1918.014999999199","","","recognition","survey-text","380","1424014","0.0-6.0-3.53","3037850","co29689","norming","","","{""guess"":""hert""}","","../img/tt/378tt.jpg","",""
"null","../img/gs/378gs.jpg","null","reveal","image-keyboard-response","381","1426019","0.0-6.0-4.53","3037850","co29689","norming","","","","","","",""
"null","../img/tt/378tt.jpg","null","mooney2","image-keyboard-response","382","1428021","0.0-6.0-5.53","3037850","co29689","norming","","","","","","",""
"1477.4300000008661","","","post_reveal_questions","survey-likert","383","1429501","0.0-6.0-6.53","3037850","co29689","norming","","","{""aha"":5}","[0]","../img/tt/378tt.jpg","",""
"null","<div style=""font-size:60px;""> </div>","null","fixation","html-keyboard-response","384","1429708","0.0-6.0-0.54","3037850","co29689","norming","","","","","","",""
"null","../img/tt/1040tt.jpg","null","mooney1","image-keyboard-response","385","1432721","0.0-6.0-1.54","3037850","co29689","norming","","","","","","",""
"5577.770000000019","","","post_mooney1_questions","survey-likert","386","1438302","0.0-6.0-2.54","3037850","co29689","norming","","","{""curiosity"":5,""confidence"":6}","[0,1]","../img/tt/1040tt.jpg","",""
"2174.3299999998417","","","recognition","survey-text","387","1440478","0.0-6.0-3.54","3037850","co29689","norming","","","{""guess"":""happy man""}","","../img/tt/1040tt.jpg","",""
"null","../img/gs/1040gs.jpg","null","reveal","image-keyboard-response","388","1442480","0.0-6.0-4.54","3037850","co29689","norming","","","","","","",""
"null","../img/tt/1040tt.jpg","null","mooney2","image-keyboard-response","389","1444489","0.0-6.0-5.54","3037850","co29689","norming","","","","","","",""
"3777.4900000002235","","","post_reveal_questions","survey-likert","390","1448269","0.0-6.0-6.54","3037850","co29689","norming","","","{""aha"":6}","[0]","../img/tt/1040tt.jpg","",""
"null","<div style=""font-size:60px;""> </div>","null","fixation","html-keyboard-response","391","1448478","0.0-6.0-0.55","3037850","co29689","norming","","","","","","",""
"null","../img/tt/406tt.jpg","null","mooney1","image-keyboard-response","392","1451486","0.0-6.0-1.55","3037850","co29689","norming","","","","","","",""
"4316.109999999637","","","post_mooney1_questions","survey-likert","393","1455806","0.0-6.0-2.55","3037850","co29689","norming","","","{""curiosity"":5,""confidence"":5}","[0,1]","../img/tt/406tt.jpg","",""
"2749.780000000028","","","recognition","survey-text","394","1458557","0.0-6.0-3.55","3037850","co29689","norming","","","{""guess"":""vleermuis""}","","../img/tt/406tt.jpg","",""
"null","../img/gs/406gs.jpg","null","reveal","image-keyboard-response","395","1460561","0.0-6.0-4.55","3037850","co29689","norming","","","","","","",""
"null","../img/tt/406tt.jpg","null","mooney2","image-keyboard-response","396","1462564","0.0-6.0-5.55","3037850","co29689","norming","","","","","","",""
"2103.3249999999534","","","post_reveal_questions","survey-likert","397","1464669","0.0-6.0-6.55","3037850","co29689","norming","","","{""aha"":5}","[0]","../img/tt/406tt.jpg","",""
"null","<div style=""font-size:60px;""> </div>","null","fixation","html-keyboard-response","398","1464876","0.0-6.0-0.56","3037850","co29689","norming","","","","","","",""
"null","../img/tt/1366tt.jpg","null","mooney1","image-keyboard-response","399","1467879","0.0-6.0-1.56","3037850","co29689","norming","","","","","","",""
"3179.5349999994505","","","post_mooney1_questions","survey-likert","400","1471062","0.0-6.0-2.56","3037850","co29689","norming","","","{""curiosity"":6,""confidence"":5}","[0,1]","../img/tt/1366tt.jpg","",""
"3830.284999999916","","","recognition","survey-text","401","1474896","0.0-6.0-3.56","3037850","co29689","norming","","","{""guess"":""sleeping wolf""}","","../img/tt/1366tt.jpg","",""
"null","../img/gs/1366gs.jpg","null","reveal","image-keyboard-response","402","1476906","0.0-6.0-4.56","3037850","co29689","norming","","","","","","",""
"null","../img/tt/1366tt.jpg","null","mooney2","image-keyboard-response","403","1478908","0.0-6.0-5.56","3037850","co29689","norming","","","","","","",""
"1057.795000000624","","","post_reveal_questions","survey-likert","404","1479968","0.0-6.0-6.56","3037850","co29689","norming","","","{""aha"":3}","[0]","../img/tt/1366tt.jpg","",""
"null","<div style=""font-size:60px;""> </div>","null","fixation","html-keyboard-response","405","1480177","0.0-6.0-0.57","3037850","co29689","norming","","","","","","",""
"null","../img/tt/1148tt.jpg","null","mooney1","image-keyboard-response","406","1483185","0.0-6.0-1.57","3037850","co29689","norming","","","","","","",""
"3811.7300000013784","","","post_mooney1_questions","survey-likert","407","1487000","0.0-6.0-2.57","3037850","co29689","norming","","","{""curiosity"":5,""confidence"":6}","[0,1]","../img/tt/1148tt.jpg","",""
"9686.20999999973","","","recognition","survey-text","408","1496688","0.0-6.0-3.57","3037850","co29689","norming","","","{""guess"":""kayaking on water""}","","../img/tt/1148tt.jpg","",""
"null","../img/gs/1148gs.jpg","null","reveal","image-keyboard-response","409","1498695","0.0-6.0-4.57","3037850","co29689","norming","","","","","","",""
"null","../img/tt/1148tt.jpg","null","mooney2","image-keyboard-response","410","1500696","0.0-6.0-5.57","3037850","co29689","norming","","","","","","",""
"1380.9999999995343","","","post_reveal_questions","survey-likert","411","1502080","0.0-6.0-6.57","3037850","co29689","norming","","","{""aha"":4}","[0]","../img/tt/1148tt.jpg","",""
"null","<div style=""font-size:60px;""> </div>","null","fixation","html-keyboard-response","412","1502290","0.0-6.0-0.58","3037850","co29689","norming","","","","","","",""
"null","../img/tt/279tt.jpg","null","mooney1","image-keyboard-response","413","1505296","0.0-6.0-1.58","3037850","co29689","norming","","","","","","",""
"4965.70500000054","","","post_mooney1_questions","survey-likert","414","1510264","0.0-6.0-2.58","3037850","co29689","norming","","","{""curiosity"":3,""confidence"":6}","[0,1]","../img/tt/279tt.jpg","",""
"1718.055000001099","","","recognition","survey-text","415","1511984","0.0-6.0-3.58","3037850","co29689","norming","","","{""guess"":""koala""}","","../img/tt/279tt.jpg","",""
"null","../img/gs/279gs.jpg","null","reveal","image-keyboard-response","416","1513988","0.0-6.0-4.58","3037850","co29689","norming","","","","","","",""
"null","../img/tt/279tt.jpg","null","mooney2","image-keyboard-response","417","1515997","0.0-6.0-5.58","3037850","co29689","norming","","","","","","",""
"1519.6750000014435","","","post_reveal_questions","survey-likert","418","1517520","0.0-6.0-6.58","3037850","co29689","norming","","","{""aha"":5}","[0]","../img/tt/279tt.jpg","",""
"null","<div style=""font-size:60px;""> </div>","null","fixation","html-keyboard-response","419","1517722","0.0-6.0-0.59","3037850","co29689","norming","","","","","","",""
"null","../img/tt/1186tt.jpg","null","mooney1","image-keyboard-response","420","1520730","0.0-6.0-1.59","3037850","co29689","norming","","","","","","",""
"2986.484999999404","","","post_mooney1_questions","survey-likert","421","1523720","0.0-6.0-2.59","3037850","co29689","norming","","","{""curiosity"":5,""confidence"":5}","[0,1]","../img/tt/1186tt.jpg","",""
"5350.345000000671","","","recognition","survey-text","422","1529072","0.0-6.0-3.59","3037850","co29689","norming","","","{""guess"":""woman breakdancing""}","","../img/tt/1186tt.jpg","",""
"null","../img/gs/1186gs.jpg","null","reveal","image-keyboard-response","423","1531076","0.0-6.0-4.59","3037850","co29689","norming","","","","","","",""
"null","../img/tt/1186tt.jpg","null","mooney2","image-keyboard-response","424","1533087","0.0-6.0-5.59","3037850","co29689","norming","","","","","","",""
"1580.9149999986403","","","post_reveal_questions","survey-likert","425","1534673","0.0-6.0-6.59","3037850","co29689","norming","","","{""aha"":3}","[0]","../img/tt/1186tt.jpg","",""
"null","<div style=""font-size:60px;""> </div>","null","fixation","html-keyboard-response","426","1534884","0.0-6.0-0.60","3037850","co29689","norming","","","","","","",""
"null","../img/tt/1027tt.jpg","null","mooney1","image-keyboard-response","427","1537892","0.0-6.0-1.60","3037850","co29689","norming","","","","","","",""
"3906.0500000014435","","","post_mooney1_questions","survey-likert","428","1541801","0.0-6.0-2.60","3037850","co29689","norming","","","{""curiosity"":6,""confidence"":6}","[0,1]","../img/tt/1027tt.jpg","",""
"14950.329999999609","","","recognition","survey-text","429","1556753","0.0-6.0-3.60","3037850","co29689","norming","","","{""guess"":""little cow ""}","","../img/tt/1027tt.jpg","",""
"null","../img/gs/1027gs.jpg","null","reveal","image-keyboard-response","430","1558755","0.0-6.0-4.60","3037850","co29689","norming","","","","","","",""
"null","../img/tt/1027tt.jpg","null","mooney2","image-keyboard-response","431","1560758","0.0-6.0-5.60","3037850","co29689","norming","","","","","","",""
"3136.140000000363","","","post_reveal_questions","survey-likert","432","1563897","0.0-6.0-6.60","3037850","co29689","norming","","","{""aha"":5}","[0]","../img/tt/1027tt.jpg","",""
"null","<div style=""font-size:60px;""> </div>","null","fixation","html-keyboard-response","433","1564103","0.0-6.0-0.61","3037850","co29689","norming","","","","","","",""
"null","../img/tt/118tt.jpg","null","mooney1","image-keyboard-response","434","1567112","0.0-6.0-1.61","3037850","co29689","norming","","","","","","",""
"4334.815000000177","","","post_mooney1_questions","survey-likert","435","1571449","0.0-6.0-2.61","3037850","co29689","norming","","","{""curiosity"":6,""confidence"":0}","[0,1]","../img/tt/118tt.jpg","",""
"3878.134999999078","","","recognition","survey-text","436","1575329","0.0-6.0-3.61","3037850","co29689","norming","","","{""guess"":""staircase""}","","../img/tt/118tt.jpg","",""
"null","../img/gs/118gs.jpg","null","reveal","image-keyboard-response","437","1577331","0.0-6.0-4.61","3037850","co29689","norming","","","","","","",""
"null","../img/tt/118tt.jpg","null","mooney2","image-keyboard-response","438","1579332","0.0-6.0-5.61","3037850","co29689","norming","","","","","","",""
"1786.804999999702","","","post_reveal_questions","survey-likert","439","1581121","0.0-6.0-6.61","3037850","co29689","norming","","","{""aha"":2}","[0]","../img/tt/118tt.jpg","",""
"null","<div style=""font-size:60px;""> </div>","null","fixation","html-keyboard-response","440","1581326","0.0-6.0-0.62","3037850","co29689","norming","","","","","","",""
"null","../img/tt/1242tt.jpg","null","mooney1","image-keyboard-response","441","1584334","0.0-6.0-1.62","3037850","co29689","norming","","","","","","",""
"3584.2150000007823","","","post_mooney1_questions","survey-likert","442","1587921","0.0-6.0-2.62","3037850","co29689","norming","","","{""curiosity"":6,""confidence"":4}","[0,1]","../img/tt/1242tt.jpg","",""
"7710.120000001509","","","recognition","survey-text","443","1595629","0.0-6.0-3.62","3037850","co29689","norming","","","{""guess"":""schorpioen""}","","../img/tt/1242tt.jpg","",""
"null","../img/gs/1242gs.jpg","null","reveal","image-keyboard-response","444","1597631","0.0-6.0-4.62","3037850","co29689","norming","","","","","","",""
"null","../img/tt/1242tt.jpg","null","mooney2","image-keyboard-response","445","1599633","0.0-6.0-5.62","3037850","co29689","norming","","","","","","",""
"2218.0500000014435","","","post_reveal_questions","survey-likert","446","1601853","0.0-6.0-6.62","3037850","co29689","norming","","","{""aha"":2}","[0]","../img/tt/1242tt.jpg","",""
"null","<div style=""font-size:60px;""> </div>","null","fixation","html-keyboard-response","447","1602060","0.0-6.0-0.63","3037850","co29689","norming","","","","","","",""
"null","../img/tt/301tt.jpg","null","mooney1","image-keyboard-response","448","1605069","0.0-6.0-1.63","3037850","co29689","norming","","","","","","",""
"4579.869999999646","","","post_mooney1_questions","survey-likert","449","1609653","0.0-6.0-2.63","3037850","co29689","norming","","","{""curiosity"":6,""confidence"":4}","[0,1]","../img/tt/301tt.jpg","",""
"2086.060000001453","","","recognition","survey-text","450","1611741","0.0-6.0-3.63","3037850","co29689","norming","","","{""guess"":""candles""}","","../img/tt/301tt.jpg","",""
"null","../img/gs/301gs.jpg","null","reveal","image-keyboard-response","451","1613746","0.0-6.0-4.63","3037850","co29689","norming","","","","","","",""
"null","../img/tt/301tt.jpg","null","mooney2","image-keyboard-response","452","1615748","0.0-6.0-5.63","3037850","co29689","norming","","","","","","",""
"2390.5450000001583","","","post_reveal_questions","survey-likert","453","1618141","0.0-6.0-6.63","3037850","co29689","norming","","","{""aha"":3}","[0]","../img/tt/301tt.jpg","",""
"null","<div style=""font-size:60px;""> </div>","null","fixation","html-keyboard-response","454","1618345","0.0-6.0-0.64","3037850","co29689","norming","","","","","","",""
"null","../img/tt/1234tt.jpg","null","mooney1","image-keyboard-response","455","1621349","0.0-6.0-1.64","3037850","co29689","norming","","","","","","",""
"3979.994999999646","","","post_mooney1_questions","survey-likert","456","1625333","0.0-6.0-2.64","3037850","co29689","norming","","","{""curiosity"":6,""confidence"":4}","[0,1]","../img/tt/1234tt.jpg","",""
"3718.3100000002887","","","recognition","survey-text","457","1629053","0.0-6.0-3.64","3037850","co29689","norming","","","{""guess"":""boat on water""}","","../img/tt/1234tt.jpg","",""
"null","../img/gs/1234gs.jpg","null","reveal","image-keyboard-response","458","1631060","0.0-6.0-4.64","3037850","co29689","norming","","","","","","",""
"null","../img/tt/1234tt.jpg","null","mooney2","image-keyboard-response","459","1633067","0.0-6.0-5.64","3037850","co29689","norming","","","","","","",""
"3071.544999998994","","","post_reveal_questions","survey-likert","460","1636141","0.0-6.0-6.64","3037850","co29689","norming","","","{""aha"":4}","[0]","../img/tt/1234tt.jpg","",""
"null","<div style=""font-size:60px;""> </div>","null","fixation","html-keyboard-response","461","1636344","0.0-6.0-0.65","3037850","co29689","norming","","","","","","",""
"null","../img/tt/549tt.jpg","null","mooney1","image-keyboard-response","462","1639349","0.0-6.0-1.65","3037850","co29689","norming","","","","","","",""
"5580.760000000708","","","post_mooney1_questions","survey-likert","463","1644933","0.0-6.0-2.65","3037850","co29689","norming","","","{""curiosity"":6,""confidence"":4}","[0,1]","../img/tt/549tt.jpg","",""
"2694.0150000010617","","","recognition","survey-text","464","1647629","0.0-6.0-3.65","3037850","co29689","norming","","","{""guess"":""flying bird""}","","../img/tt/549tt.jpg","",""
"null","../img/gs/549gs.jpg","null","reveal","image-keyboard-response","465","1649631","0.0-6.0-4.65","3037850","co29689","norming","","","","","","",""
"null","../img/tt/549tt.jpg","null","mooney2","image-keyboard-response","466","1651633","0.0-6.0-5.65","3037850","co29689","norming","","","","","","",""
"1587.190000000177","","","post_reveal_questions","survey-likert","467","1653221","0.0-6.0-6.65","3037850","co29689","norming","","","{""aha"":1}","[0]","../img/tt/549tt.jpg","",""
"null","<div style=""font-size:60px;""> </div>","null","fixation","html-keyboard-response","468","1653431","0.0-6.0-0.66","3037850","co29689","norming","","","","","","",""
"null","../img/tt/1143tt.jpg","null","mooney1","image-keyboard-response","469","1656439","0.0-6.0-1.66","3037850","co29689","norming","","","","","","",""
"3552.1150000002235","","","post_mooney1_questions","survey-likert","470","1659994","0.0-6.0-2.66","3037850","co29689","norming","","","{""curiosity"":6,""confidence"":5}","[0,1]","../img/tt/1143tt.jpg","",""
"3734.0599999988917","","","recognition","survey-text","471","1663730","0.0-6.0-3.66","3037850","co29689","norming","","","{""guess"":""fitnesstoestellen""}","","../img/tt/1143tt.jpg","",""
"null","../img/gs/1143gs.jpg","null","reveal","image-keyboard-response","472","1665737","0.0-6.0-4.66","3037850","co29689","norming","","","","","","",""
"null","../img/tt/1143tt.jpg","null","mooney2","image-keyboard-response","473","1667739","0.0-6.0-5.66","3037850","co29689","norming","","","","","","",""
"1620.6300000010524","","","post_reveal_questions","survey-likert","474","1669362","0.0-6.0-6.66","3037850","co29689","norming","","","{""aha"":3}","[0]","../img/tt/1143tt.jpg","",""
"null","<div style=""font-size:60px;""> </div>","null","fixation","html-keyboard-response","475","1669568","0.0-6.0-0.67","3037850","co29689","norming","","","","","","",""
"null","../img/tt/1217tt.jpg","null","mooney1","image-keyboard-response","476","1672573","0.0-6.0-1.67","3037850","co29689","norming","","","","","","",""
"3777.4100000006147","","","post_mooney1_questions","survey-likert","477","1676354","0.0-6.0-2.67","3037850","co29689","norming","","","{""curiosity"":6,""confidence"":4}","[0,1]","../img/tt/1217tt.jpg","",""
"1694.1050000006799","","","recognition","survey-text","478","1678050","0.0-6.0-3.67","3037850","co29689","norming","","","{""guess"":""cows""}","","../img/tt/1217tt.jpg","",""
"null","../img/gs/1217gs.jpg","null","reveal","image-keyboard-response","479","1680051","0.0-6.0-4.67","3037850","co29689","norming","","","","","","",""
"null","../img/tt/1217tt.jpg","null","mooney2","image-keyboard-response","480","1682054","0.0-6.0-5.67","3037850","co29689","norming","","","","","","",""
"1992.844999998808","","","post_reveal_questions","survey-likert","481","1684050","0.0-6.0-6.67","3037850","co29689","norming","","","{""aha"":5}","[0]","../img/tt/1217tt.jpg","",""
"null","<div style=""font-size:60px;""> </div>","null","fixation","html-keyboard-response","482","1684251","0.0-6.0-0.68","3037850","co29689","norming","","","","","","",""
"null","../img/tt/358tt.jpg","null","mooney1","image-keyboard-response","483","1687260","0.0-6.0-1.68","3037850","co29689","norming","","","","","","",""
"4539.039999999572","","","post_mooney1_questions","survey-likert","484","1691802","0.0-6.0-2.68","3037850","co29689","norming","","","{""curiosity"":6,""confidence"":4}","[0,1]","../img/tt/358tt.jpg","",""
"2966.0600000007544","","","recognition","survey-text","485","1694770","0.0-6.0-3.68","3037850","co29689","norming","","","{""guess"":""duckface""}","","../img/tt/358tt.jpg","",""
"null","../img/gs/358gs.jpg","null","reveal","image-keyboard-response","486","1696777","0.0-6.0-4.68","3037850","co29689","norming","","","","","","",""
"null","../img/tt/358tt.jpg","null","mooney2","image-keyboard-response","487","1698784","0.0-6.0-5.68","3037850","co29689","norming","","","","","","",""
"4599.149999999907","","","post_reveal_questions","survey-likert","488","1703386","0.0-6.0-6.68","3037850","co29689","norming","","","{""aha"":5}","[0]","../img/tt/358tt.jpg","",""
"null","<div style=""font-size:60px;""> </div>","null","fixation","html-keyboard-response","489","1703596","0.0-6.0-0.69","3037850","co29689","norming","","","","","","",""
"null","../img/tt/1250tt.jpg","null","mooney1","image-keyboard-response","490","1706604","0.0-6.0-1.69","3037850","co29689","norming","","","","","","",""
"4387.235000000102","","","post_mooney1_questions","survey-likert","491","1710994","0.0-6.0-2.69","3037850","co29689","norming","","","{""curiosity"":5,""confidence"":6}","[0,1]","../img/tt/1250tt.jpg","",""
"4622.124999999767","","","recognition","survey-text","492","1715618","0.0-6.0-3.69","3037850","co29689","norming","","","{""guess"":""sleeping otter on water""}","","../img/tt/1250tt.jpg","",""
"null","../img/gs/1250gs.jpg","null","reveal","image-keyboard-response","493","1717622","0.0-6.0-4.69","3037850","co29689","norming","","","","","","",""
"null","../img/tt/1250tt.jpg","null","mooney2","image-keyboard-response","494","1719628","0.0-6.0-5.69","3037850","co29689","norming","","","","","","",""
"2268.8400000007823","","","post_reveal_questions","survey-likert","495","1721899","0.0-6.0-6.69","3037850","co29689","norming","","","{""aha"":4}","[0]","../img/tt/1250tt.jpg","",""
"null","<div style=""font-size:60px;""> </div>","null","fixation","html-keyboard-response","496","1722101","0.0-6.0-0.70","3037850","co29689","norming","","","","","","",""
"null","../img/tt/135tt.jpg","null","mooney1","image-keyboard-response","497","1725103","0.0-6.0-1.70","3037850","co29689","norming","","","","","","",""
"3594.554999999702","","","post_mooney1_questions","survey-likert","498","1728698","0.0-6.0-2.70","3037850","co29689","norming","","","{""curiosity"":4,""confidence"":6}","[0,1]","../img/tt/135tt.jpg","",""
"1749.9900000004563","","","recognition","survey-text","499","1730450","0.0-6.0-3.70","3037850","co29689","norming","","","{""guess"":""toilet""}","","../img/tt/135tt.jpg","",""
"null","../img/gs/135gs.jpg","null","reveal","image-keyboard-response","500","1732453","0.0-6.0-4.70","3037850","co29689","norming","","","","","","",""
"null","../img/tt/135tt.jpg","null","mooney2","image-keyboard-response","501","1734462","0.0-6.0-5.70","3037850","co29689","norming","","","","","","",""
"3240.6850000007544","","","post_reveal_questions","survey-likert","502","1737706","0.0-6.0-6.70","3037850","co29689","norming","","","{""aha"":6}","[0]","../img/tt/135tt.jpg","",""
"null","<div style=""font-size:60px;""> </div>","null","fixation","html-keyboard-response","503","1737910","0.0-6.0-0.71","3037850","co29689","norming","","","","","","",""
"null","../img/tt/1123tt.jpg","null","mooney1","image-keyboard-response","504","1740915","0.0-6.0-1.71","3037850","co29689","norming","","","","","","",""
"3180.3400000007823","","","post_mooney1_questions","survey-likert","505","1744099","0.0-6.0-2.71","3037850","co29689","norming","","","{""curiosity"":5,""confidence"":5}","[0,1]","../img/tt/1123tt.jpg","",""
"3197.7700000004843","","","recognition","survey-text","506","1747298","0.0-6.0-3.71","3037850","co29689","norming","","","{""guess"":""voetbal""}","","../img/tt/1123tt.jpg","",""
"null","../img/gs/1123gs.jpg","null","reveal","image-keyboard-response","507","1749306","0.0-6.0-4.71","3037850","co29689","norming","","","","","","",""
"null","../img/tt/1123tt.jpg","null","mooney2","image-keyboard-response","508","1751308","0.0-6.0-5.71","3037850","co29689","norming","","","","","","",""
"4347.789999999804","","","post_reveal_questions","survey-likert","509","1755658","0.0-6.0-6.71","3037850","co29689","norming","","","{""aha"":4}","[0]","../img/tt/1123tt.jpg","",""
"null","<div style=""font-size:60px;""> </div>","null","fixation","html-keyboard-response","510","1755869","0.0-6.0-0.72","3037850","co29689","norming","","","","","","",""
"null","../img/tt/456tt.jpg","null","mooney1","image-keyboard-response","511","1758879","0.0-6.0-1.72","3037850","co29689","norming","","","","","","",""
"3345.0250000003725","","","post_mooney1_questions","survey-likert","512","1762226","0.0-6.0-2.72","3037850","co29689","norming","","","{""curiosity"":5,""confidence"":5}","[0,1]","../img/tt/456tt.jpg","",""
"12718.249999999767","","","recognition","survey-text","513","1774946","0.0-6.0-3.72","3037850","co29689","norming","","","{""guess"":""sleeping stokstaart""}","","../img/tt/456tt.jpg","",""
"null","../img/gs/456gs.jpg","null","reveal","image-keyboard-response","514","1776957","0.0-6.0-4.72","3037850","co29689","norming","","","","","","",""
"null","../img/tt/456tt.jpg","null","mooney2","image-keyboard-response","515","1778958","0.0-6.0-5.72","3037850","co29689","norming","","","","","","",""
"9498.750000000698","","","post_reveal_questions","survey-likert","516","1788458","0.0-6.0-6.72","3037850","co29689","norming","","","{""aha"":4}","[0]","../img/tt/456tt.jpg","",""
"null","<div style=""font-size:60px;""> </div>","null","fixation","html-keyboard-response","517","1788660","0.0-6.0-0.73","3037850","co29689","norming","","","","","","",""
"null","../img/tt/052tt.jpg","null","mooney1","image-keyboard-response","518","1791663","0.0-6.0-1.73","3037850","co29689","norming","","","","","","",""
"3121.794999998994","","","post_mooney1_questions","survey-likert","519","1794786","0.0-6.0-2.73","3037850","co29689","norming","","","{""curiosity"":5,""confidence"":4}","[0,1]","../img/tt/052tt.jpg","",""
"2781.9350000007544","","","recognition","survey-text","520","1797570","0.0-6.0-3.73","3037850","co29689","norming","","","{""guess"":""fromage""}","","../img/tt/052tt.jpg","",""
"null","../img/gs/052gs.jpg","null","reveal","image-keyboard-response","521","1799580","0.0-6.0-4.73","3037850","co29689","norming","","","","","","",""
"null","../img/tt/052tt.jpg","null","mooney2","image-keyboard-response","522","1801581","0.0-6.0-5.73","3037850","co29689","norming","","","","","","",""
"2203.8049999992363","","","post_reveal_questions","survey-likert","523","1803786","0.0-6.0-6.73","3037850","co29689","norming","","","{""aha"":5}","[0]","../img/tt/052tt.jpg","",""
"null","<div style=""font-size:60px;""> </div>","null","fixation","html-keyboard-response","524","1803993","0.0-6.0-0.74","3037850","co29689","norming","","","","","","",""
"null","../img/tt/1130tt.jpg","null","mooney1","image-keyboard-response","525","1806997","0.0-6.0-1.74","3037850","co29689","norming","","","","","","",""
"2714.4499999994878","","","post_mooney1_questions","survey-likert","526","1809714","0.0-6.0-2.74","3037850","co29689","norming","","","{""curiosity"":5,""confidence"":6}","[0,1]","../img/tt/1130tt.jpg","",""
"3342.2049999989104","","","recognition","survey-text","527","1813058","0.0-6.0-3.74","3037850","co29689","norming","","","{""guess"":""man cycling""}","","../img/tt/1130tt.jpg","",""
"null","../img/gs/1130gs.jpg","null","reveal","image-keyboard-response","528","1815065","0.0-6.0-4.74","3037850","co29689","norming","","","","","","",""
"null","../img/tt/1130tt.jpg","null","mooney2","image-keyboard-response","529","1817068","0.0-6.0-5.74","3037850","co29689","norming","","","","","","",""
"2340.9100000006147","","","post_reveal_questions","survey-likert","530","1819410","0.0-6.0-6.74","3037850","co29689","norming","","","{""aha"":6}","[0]","../img/tt/1130tt.jpg","",""
"null","<div style=""font-size:60px;""> </div>","null","fixation","html-keyboard-response","531","1819617","0.0-6.0-0.75","3037850","co29689","norming","","","","","","",""
"null","../img/tt/060tt.jpg","null","mooney1","image-keyboard-response","532","1822626","0.0-6.0-1.75","3037850","co29689","norming","","","","","","",""
"3277.324999999255","","","post_mooney1_questions","survey-likert","533","1825906","0.0-6.0-2.75","3037850","co29689","norming","","","{""curiosity"":6,""confidence"":4}","[0,1]","../img/tt/060tt.jpg","",""
"3822.0349999992177","","","recognition","survey-text","534","1829730","0.0-6.0-3.75","3037850","co29689","norming","","","{""guess"":""schildpad""}","","../img/tt/060tt.jpg","",""
"null","../img/gs/060gs.jpg","null","reveal","image-keyboard-response","535","1831734","0.0-6.0-4.75","3037850","co29689","norming","","","","","","",""
"null","../img/tt/060tt.jpg","null","mooney2","image-keyboard-response","536","1833737","0.0-6.0-5.75","3037850","co29689","norming","","","","","","",""
"2774.029999998631","","","post_reveal_questions","survey-likert","537","1836514","0.0-6.0-6.75","3037850","co29689","norming","","","{""aha"":0}","[0]","../img/tt/060tt.jpg","",""
"null","<div style=""font-size:60px;""> </div>","null","fixation","html-keyboard-response","538","1836718","0.0-6.0-0.76","3037850","co29689","norming","","","","","","",""
"null","../img/tt/329tt.jpg","null","mooney1","image-keyboard-response","539","1839719","0.0-6.0-1.76","3037850","co29689","norming","","","","","","",""
"3815.4049999993294","","","post_mooney1_questions","survey-likert","540","1843537","0.0-6.0-2.76","3037850","co29689","norming","","","{""curiosity"":5,""confidence"":6}","[0,1]","../img/tt/329tt.jpg","",""
"5646.049999999348","","","recognition","survey-text","541","1849185","0.0-6.0-3.76","3037850","co29689","norming","","","{""guess"":""babychair""}","","../img/tt/329tt.jpg","",""
"null","../img/gs/329gs.jpg","null","reveal","image-keyboard-response","542","1851196","0.0-6.0-4.76","3037850","co29689","norming","","","","","","",""
"null","../img/tt/329tt.jpg","null","mooney2","image-keyboard-response","543","1853199","0.0-6.0-5.76","3037850","co29689","norming","","","","","","",""
"2335.1949999995995","","","post_reveal_questions","survey-likert","544","1855537","0.0-6.0-6.76","3037850","co29689","norming","","","{""aha"":0}","[0]","../img/tt/329tt.jpg","",""
"null","<div style=""font-size:60px;""> </div>","null","fixation","html-keyboard-response","545","1855738","0.0-6.0-0.77","3037850","co29689","norming","","","","","","",""
"null","../img/tt/1037tt.jpg","null","mooney1","image-keyboard-response","546","1858741","0.0-6.0-1.77","3037850","co29689","norming","","","","","","",""
"3673.2149999989197","","","post_mooney1_questions","survey-likert","547","1862418","0.0-6.0-2.77","3037850","co29689","norming","","","{""curiosity"":6,""confidence"":5}","[0,1]","../img/tt/1037tt.jpg","",""
"3470.000000001164","","","recognition","survey-text","548","1865889","0.0-6.0-3.77","3037850","co29689","norming","","","{""guess"":""huskywolf""}","","../img/tt/1037tt.jpg","",""
"null","../img/gs/1037gs.jpg","null","reveal","image-keyboard-response","549","1867896","0.0-6.0-4.77","3037850","co29689","norming","","","","","","",""
