"rt","stimulus","key_press","test_part","trial_type","trial_index","time_elapsed","internal_node_id","totalTime","subject","experiment_name","button_pressed","success","responses","question_order","currentStim","old","correct"
"6899.290000088513","Welcome to the experiment. This is an online experiment so please don't close the tab/window until we say goodbye.  Press any key to begin.","32","instructions","html-keyboard-response","0","6902","0.0-0.0","3521124","co34174","norming","","","","","","",""
"42960.25499980897","<div style='word-wrap: break-word; width: 900px'><h3>Please consider this information carefully before deciding whether to participate in this research</h3><ul style='text-align: left; font-size: .8em;'><li><b>Purpose of the research</b>: To examine how people process images.</li><li><b>What you will do in this research</b>:  Stimuli (images) will be presented on the computer and you will be asked different questions about them.</li><li><b>Time required</b>: Participation will take between 45 and 60 minutes to complete.</li><li><b>Risks</b>:  There are no anticipated risks associated with participating in this study. The effects of participating should be comparable to those you would experience from viewing a computer monitor for 30 minutes and using a mouse or keyboard.</li><li><b>Benefits</b>:  This study provides no benefits to you individually except for the credit. The study provides important information about the nature of perception and learning.</li><li><b>Confidentiality</b>:  Your participation in this study will remain confidential. No personally identifiable information will be associated with your data. Your de-identified data may be shared with other researchers and used in future projects.</li><li><b>Participation and withdrawal</b>:  Your participation in this study is completely voluntary and you may refuse to participate or you may choose to withdraw at any time without penalty.</li><li><b>How to contact the researchers</b>: If you have questions or concerns about your participation or payment, or want to request a summary of research findings, please contact Sander Van de Cruys (KU Leuven), at sander.vandecruys@kuleuven.be.</li></ul><p>The nature and purpose of this research have been sufficiently explained and I agree to participate in this study.  I understand that I am free to withdraw at any time without incurring any penalty.</p><p>Please consent by clicking the button below to continue. Otherwise, please exit the study at this time.</p></div>","","instructions","html-button-response","1","49864","0.0-1.0","3521124","co34174","norming","0","","","","","",""
"","","","instructions","fullscreen","2","54375","0.0-2.0","3521124","co34174","norming","","true","","","","",""
"47123.61500039697","","","sona","survey-html-form","3","101500","0.0-3.0","3521124","co34174","norming","","","[{""name"":""sonaid"",""value"":""34174""},{""name"":""debrief"",""value"":""no""},{""name"":""datajoin"",""value"":""yes""}]","","","",""
"209210.98500024527","<div style='word-wrap: break-word; width: 900px'><h3>Instructions</h3><p>This experiment will have 3 parts. In the first part you will see a series of distorted images like the one below on the left. As you can see in the righthand image, the distorted images are derived from actual photographs. In what follows, you will <strong>briefly</strong> be presented with <strong>only</strong> the distorted image.</p> <div style='float: left; margin-right: 20px;'><img src='../img/018tt.jpg' height='250' width='250'></img></div><div style='float: right; margin-left: 20px;'><img src='../img/018gs.jpg' height='250' width='250'></img></div><p>Subsequently you will be asked a few questions about the image: One question on how <strong>curious</strong> you are about the solution and one on how <strong>confident</strong> you are that you know the solution.</p>Next, we ask you to make a guess on what is in the image. Note that it is OK to name just the <strong>basic level category</strong>. For example when you see a parrot in the image, 'parrot' will obviously be a correct answer but also correct is 'bird'. However, 'animal' will <strong>not</strong> be counted as a correct response. For the example above, 'rose' would be correct or 'flower', but not 'plant'. When soccer players are depicted, 'soccer', 'football', 'soccer players' will be correct, but not 'humans', 'outdoors', or 'sports'. You do not need to describe the image in full, just name the main object in it <strong>in one or two words</strong>. All images depict objects from one of the following broad level categories: animals, inanimate objects, plants, sports, vehicles, and food. Recognizing means knowing <strong>more</strong> than these broad labels for a given image. But we always encourage you to <strong>make a guess</strong> if you can. Note that you are allowed to use <strong>Dutch and English</strong> in your answers, whatever comes easiest for you.</p><p>Press any key to continue.</p></div>","32","instructions","html-keyboard-response","4","310713","0.0-4.0","3521124","co34174","norming","","","","","","",""
"23453.90999969095","<div style='word-wrap: break-word; width: 900px'><h3>Instructions</h3> <p>Next, the solution image will be revealed to you and you'll be asked to indicate how strong your <strong>aha-experience</strong> was after seeing the solution. This describes the positive feeling of the 'click' you sometimes experience, when the pieces of the 'puzzle' fall together and you suddenly have 'insight' in the image.</p><img src='aha.jpg' height='188' width='250'></img><p>Note that there are no right or wrong answers. We are interested in what <strong>you</strong> see in the image and how <strong>you</strong> feel about it.</p><p>Press any key to start the experiment.</p></div>","32","instructions","html-keyboard-response","5","334167","0.0-5.0","3521124","co34174","norming","","","","","","",""
"null","<div style=""font-size:60px;""> </div>","null","fixation","html-keyboard-response","6","334368","0.0-6.0-0.0","3521124","co34174","norming","","","","","","",""
"null","../img/tt/1241tt.jpg","null","mooney1","image-keyboard-response","7","337371","0.0-6.0-1.0","3521124","co34174","norming","","","","","","",""
"16328.684999607503","","","post_mooney1_questions","survey-likert","8","353702","0.0-6.0-2.0","3521124","co34174","norming","","","{""curiosity"":5,""confidence"":2}","[0,1]","../img/tt/1241tt.jpg","",""
"5601.20499972254","","","recognition","survey-text","9","359305","0.0-6.0-3.0","3521124","co34174","norming","","","{""guess"":""dog""}","","../img/tt/1241tt.jpg","",""
"null","../img/gs/1241gs.jpg","null","reveal","image-keyboard-response","10","361308","0.0-6.0-4.0","3521124","co34174","norming","","","","","","",""
"null","../img/tt/1241tt.jpg","null","mooney2","image-keyboard-response","11","363309","0.0-6.0-5.0","3521124","co34174","norming","","","","","","",""
"8963.13999965787","","","post_reveal_questions","survey-likert","12","372273","0.0-6.0-6.0","3521124","co34174","norming","","","{""aha"":4}","[0]","../img/tt/1241tt.jpg","",""
"null","<div style=""font-size:60px;""> </div>","null","fixation","html-keyboard-response","13","372475","0.0-6.0-0.1","3521124","co34174","norming","","","","","","",""
"null","../img/tt/1123tt.jpg","null","mooney1","image-keyboard-response","14","375477","0.0-6.0-1.1","3521124","co34174","norming","","","","","","",""
"12574.860000051558","","","post_mooney1_questions","survey-likert","15","388053","0.0-6.0-2.1","3521124","co34174","norming","","","{""curiosity"":4,""confidence"":4}","[0,1]","../img/tt/1123tt.jpg","",""
"5305.2099999040365","","","recognition","survey-text","16","393360","0.0-6.0-3.1","3521124","co34174","norming","","","{""guess"":""soccer""}","","../img/tt/1123tt.jpg","",""
"null","../img/gs/1123gs.jpg","null","reveal","image-keyboard-response","17","395362","0.0-6.0-4.1","3521124","co34174","norming","","","","","","",""
"null","../img/tt/1123tt.jpg","null","mooney2","image-keyboard-response","18","397363","0.0-6.0-5.1","3521124","co34174","norming","","","","","","",""
"7486.490000039339","","","post_reveal_questions","survey-likert","19","404851","0.0-6.0-6.1","3521124","co34174","norming","","","{""aha"":2}","[0]","../img/tt/1123tt.jpg","",""
"null","<div style=""font-size:60px;""> </div>","null","fixation","html-keyboard-response","20","405052","0.0-6.0-0.2","3521124","co34174","norming","","","","","","",""
"null","../img/tt/1086tt.jpg","null","mooney1","image-keyboard-response","21","408054","0.0-6.0-1.2","3521124","co34174","norming","","","","","","",""
"6674.065000377595","","","post_mooney1_questions","survey-likert","22","414729","0.0-6.0-2.2","3521124","co34174","norming","","","{""curiosity"":2,""confidence"":4}","[0,1]","../img/tt/1086tt.jpg","",""
"2994.0499998629093","","","recognition","survey-text","23","417724","0.0-6.0-3.2","3521124","co34174","norming","","","{""guess"":""dog""}","","../img/tt/1086tt.jpg","",""
"null","../img/gs/1086gs.jpg","null","reveal","image-keyboard-response","24","419725","0.0-6.0-4.2","3521124","co34174","norming","","","","","","",""
"null","../img/tt/1086tt.jpg","null","mooney2","image-keyboard-response","25","421727","0.0-6.0-5.2","3521124","co34174","norming","","","","","","",""
"4388.779999688268","","","post_reveal_questions","survey-likert","26","426117","0.0-6.0-6.2","3521124","co34174","norming","","","{""aha"":0}","[0]","../img/tt/1086tt.jpg","",""
"null","<div style=""font-size:60px;""> </div>","null","fixation","html-keyboard-response","27","426319","0.0-6.0-0.3","3521124","co34174","norming","","","","","","",""
"null","../img/tt/222tt.jpg","null","mooney1","image-keyboard-response","28","429321","0.0-6.0-1.3","3521124","co34174","norming","","","","","","",""
"9318.125000223517","","","post_mooney1_questions","survey-likert","29","438641","0.0-6.0-2.3","3521124","co34174","norming","","","{""curiosity"":6,""confidence"":0}","[0,1]","../img/tt/222tt.jpg","",""
"3290.2849996462464","","","recognition","survey-text","30","441933","0.0-6.0-3.3","3521124","co34174","norming","","","{""guess"":""""}","","../img/tt/222tt.jpg","",""
"null","../img/gs/222gs.jpg","null","reveal","image-keyboard-response","31","443935","0.0-6.0-4.3","3521124","co34174","norming","","","","","","",""
"null","../img/tt/222tt.jpg","null","mooney2","image-keyboard-response","32","445935","0.0-6.0-5.3","3521124","co34174","norming","","","","","","",""
"2058.645000681281","","","post_reveal_questions","survey-likert","33","447995","0.0-6.0-6.3","3521124","co34174","norming","","","{""aha"":0}","[0]","../img/tt/222tt.jpg","",""
"null","<div style=""font-size:60px;""> </div>","null","fixation","html-keyboard-response","34","448196","0.0-6.0-0.4","3521124","co34174","norming","","","","","","",""
"null","../img/tt/319tt.jpg","null","mooney1","image-keyboard-response","35","451198","0.0-6.0-1.4","3521124","co34174","norming","","","","","","",""
"6160.5550004169345","","","post_mooney1_questions","survey-likert","36","457359","0.0-6.0-2.4","3521124","co34174","norming","","","{""curiosity"":1,""confidence"":5}","[0,1]","../img/tt/319tt.jpg","",""
"3299.9949995428324","","","recognition","survey-text","37","460661","0.0-6.0-3.4","3521124","co34174","norming","","","{""guess"":""donkey""}","","../img/tt/319tt.jpg","",""
"null","../img/gs/319gs.jpg","null","reveal","image-keyboard-response","38","462663","0.0-6.0-4.4","3521124","co34174","norming","","","","","","",""
"null","../img/tt/319tt.jpg","null","mooney2","image-keyboard-response","39","464663","0.0-6.0-5.4","3521124","co34174","norming","","","","","","",""
"2176.6450004652143","","","post_reveal_questions","survey-likert","40","466841","0.0-6.0-6.4","3521124","co34174","norming","","","{""aha"":0}","[0]","../img/tt/319tt.jpg","",""
"null","<div style=""font-size:60px;""> </div>","null","fixation","html-keyboard-response","41","467042","0.0-6.0-0.5","3521124","co34174","norming","","","","","","",""
"null","../img/tt/1268tt.jpg","null","mooney1","image-keyboard-response","42","470043","0.0-6.0-1.5","3521124","co34174","norming","","","","","","",""
"9474.554999731481","","","post_mooney1_questions","survey-likert","43","479519","0.0-6.0-2.5","3521124","co34174","norming","","","{""curiosity"":3,""confidence"":1}","[0,1]","../img/tt/1268tt.jpg","",""
"5992.0049998909235","","","recognition","survey-text","44","485513","0.0-6.0-3.5","3521124","co34174","norming","","","{""guess"":""horse""}","","../img/tt/1268tt.jpg","",""
"null","../img/gs/1268gs.jpg","null","reveal","image-keyboard-response","45","487515","0.0-6.0-4.5","3521124","co34174","norming","","","","","","",""
"null","../img/tt/1268tt.jpg","null","mooney2","image-keyboard-response","46","489517","0.0-6.0-5.5","3521124","co34174","norming","","","","","","",""
"4096.734999679029","","","post_reveal_questions","survey-likert","47","493615","0.0-6.0-6.5","3521124","co34174","norming","","","{""aha"":2}","[0]","../img/tt/1268tt.jpg","",""
"null","<div style=""font-size:60px;""> </div>","null","fixation","html-keyboard-response","48","493816","0.0-6.0-0.6","3521124","co34174","norming","","","","","","",""
"null","../img/tt/477tt.jpg","null","mooney1","image-keyboard-response","49","496819","0.0-6.0-1.6","3521124","co34174","norming","","","","","","",""
"10687.085000798106","","","post_mooney1_questions","survey-likert","50","507506","0.0-6.0-2.6","3521124","co34174","norming","","","{""curiosity"":4,""confidence"":2}","[0,1]","../img/tt/477tt.jpg","",""
"2869.8750007897615","","","recognition","survey-text","51","510378","0.0-6.0-3.6","3521124","co34174","norming","","","{""guess"":""panda""}","","../img/tt/477tt.jpg","",""
"null","../img/gs/477gs.jpg","null","reveal","image-keyboard-response","52","512379","0.0-6.0-4.6","3521124","co34174","norming","","","","","","",""
"null","../img/tt/477tt.jpg","null","mooney2","image-keyboard-response","53","514381","0.0-6.0-5.6","3521124","co34174","norming","","","","","","",""
"1826.694999821484","","","post_reveal_questions","survey-likert","54","516208","0.0-6.0-6.6","3521124","co34174","norming","","","{""aha"":4}","[0]","../img/tt/477tt.jpg","",""
"null","<div style=""font-size:60px;""> </div>","null","fixation","html-keyboard-response","55","516411","0.0-6.0-0.7","3521124","co34174","norming","","","","","","",""
"null","../img/tt/1072tt.jpg","null","mooney1","image-keyboard-response","56","519413","0.0-6.0-1.7","3521124","co34174","norming","","","","","","",""
"7278.735000640154","","","post_mooney1_questions","survey-likert","57","526692","0.0-6.0-2.7","3521124","co34174","norming","","","{""curiosity"":4,""confidence"":1}","[0,1]","../img/tt/1072tt.jpg","",""
"2744.1400000825524","","","recognition","survey-text","58","529438","0.0-6.0-3.7","3521124","co34174","norming","","","{""guess"":""bank""}","","../img/tt/1072tt.jpg","",""
"null","../img/gs/1072gs.jpg","null","reveal","image-keyboard-response","59","531440","0.0-6.0-4.7","3521124","co34174","norming","","","","","","",""
"null","../img/tt/1072tt.jpg","null","mooney2","image-keyboard-response","60","533440","0.0-6.0-5.7","3521124","co34174","norming","","","","","","",""
"1966.7499996721745","","","post_reveal_questions","survey-likert","61","535408","0.0-6.0-6.7","3521124","co34174","norming","","","{""aha"":6}","[0]","../img/tt/1072tt.jpg","",""
"null","<div style=""font-size:60px;""> </div>","null","fixation","html-keyboard-response","62","535610","0.0-6.0-0.8","3521124","co34174","norming","","","","","","",""
"null","../img/tt/1205tt.jpg","null","mooney1","image-keyboard-response","63","538612","0.0-6.0-1.8","3521124","co34174","norming","","","","","","",""
"6757.584999315441","","","post_mooney1_questions","survey-likert","64","545370","0.0-6.0-2.8","3521124","co34174","norming","","","{""curiosity"":4,""confidence"":2}","[0,1]","../img/tt/1205tt.jpg","",""
"3453.8650000467896","","","recognition","survey-text","65","548826","0.0-6.0-3.8","3521124","co34174","norming","","","{""guess"":""flowers""}","","../img/tt/1205tt.jpg","",""
"null","../img/gs/1205gs.jpg","null","reveal","image-keyboard-response","66","550827","0.0-6.0-4.8","3521124","co34174","norming","","","","","","",""
"null","../img/tt/1205tt.jpg","null","mooney2","image-keyboard-response","67","552828","0.0-6.0-5.8","3521124","co34174","norming","","","","","","",""
"8542.704999446869","","","post_reveal_questions","survey-likert","68","561372","0.0-6.0-6.8","3521124","co34174","norming","","","{""aha"":0}","[0]","../img/tt/1205tt.jpg","",""
"null","<div style=""font-size:60px;""> </div>","null","fixation","html-keyboard-response","69","561576","0.0-6.0-0.9","3521124","co34174","norming","","","","","","",""
"null","../img/tt/1125tt.jpg","null","mooney1","image-keyboard-response","70","564577","0.0-6.0-1.9","3521124","co34174","norming","","","","","","",""
"8602.41499915719","","","post_mooney1_questions","survey-likert","71","573180","0.0-6.0-2.9","3521124","co34174","norming","","","{""curiosity"":2,""confidence"":0}","[0,1]","../img/tt/1125tt.jpg","",""
"3125.7949993014336","","","recognition","survey-text","72","576308","0.0-6.0-3.9","3521124","co34174","norming","","","{""guess"":""TV""}","","../img/tt/1125tt.jpg","",""
"null","../img/gs/1125gs.jpg","null","reveal","image-keyboard-response","73","578310","0.0-6.0-4.9","3521124","co34174","norming","","","","","","",""
"null","../img/tt/1125tt.jpg","null","mooney2","image-keyboard-response","74","580311","0.0-6.0-5.9","3521124","co34174","norming","","","","","","",""
"1897.859999909997","","","post_reveal_questions","survey-likert","75","582210","0.0-6.0-6.9","3521124","co34174","norming","","","{""aha"":6}","[0]","../img/tt/1125tt.jpg","",""
"null","<div style=""font-size:60px;""> </div>","null","fixation","html-keyboard-response","76","582412","0.0-6.0-0.10","3521124","co34174","norming","","","","","","",""
"null","../img/tt/108tt.jpg","null","mooney1","image-keyboard-response","77","585414","0.0-6.0-1.10","3521124","co34174","norming","","","","","","",""
"6897.59000018239","","","post_mooney1_questions","survey-likert","78","592312","0.0-6.0-2.10","3521124","co34174","norming","","","{""curiosity"":1,""confidence"":1}","[0,1]","../img/tt/108tt.jpg","",""
"3087.7050003036857","","","recognition","survey-text","79","595402","0.0-6.0-3.10","3521124","co34174","norming","","","{""guess"":""duck""}","","../img/tt/108tt.jpg","",""
"null","../img/gs/108gs.jpg","null","reveal","image-keyboard-response","80","597403","0.0-6.0-4.10","3521124","co34174","norming","","","","","","",""
"null","../img/tt/108tt.jpg","null","mooney2","image-keyboard-response","81","599404","0.0-6.0-5.10","3521124","co34174","norming","","","","","","",""
"1912.9349999129772","","","post_reveal_questions","survey-likert","82","601318","0.0-6.0-6.10","3521124","co34174","norming","","","{""aha"":1}","[0]","../img/tt/108tt.jpg","",""
"null","<div style=""font-size:60px;""> </div>","null","fixation","html-keyboard-response","83","601520","0.0-6.0-0.11","3521124","co34174","norming","","","","","","",""
"null","../img/tt/1237tt.jpg","null","mooney1","image-keyboard-response","84","604522","0.0-6.0-1.11","3521124","co34174","norming","","","","","","",""
"4424.089999869466","","","post_mooney1_questions","survey-likert","85","608947","0.0-6.0-2.11","3521124","co34174","norming","","","{""curiosity"":0,""confidence"":6}","[0,1]","../img/tt/1237tt.jpg","",""
"3459.3249997124076","","","recognition","survey-text","86","612408","0.0-6.0-3.11","3521124","co34174","norming","","","{""guess"":""duck""}","","../img/tt/1237tt.jpg","",""
"null","../img/gs/1237gs.jpg","null","reveal","image-keyboard-response","87","614409","0.0-6.0-4.11","3521124","co34174","norming","","","","","","",""
"null","../img/tt/1237tt.jpg","null","mooney2","image-keyboard-response","88","616410","0.0-6.0-5.11","3521124","co34174","norming","","","","","","",""
"3571.229999884963","","","post_reveal_questions","survey-likert","89","619982","0.0-6.0-6.11","3521124","co34174","norming","","","{""aha"":0}","[0]","../img/tt/1237tt.jpg","",""
"null","<div style=""font-size:60px;""> </div>","null","fixation","html-keyboard-response","90","620184","0.0-6.0-0.12","3521124","co34174","norming","","","","","","",""
"null","../img/tt/1279tt.jpg","null","mooney1","image-keyboard-response","91","623185","0.0-6.0-1.12","3521124","co34174","norming","","","","","","",""
"8277.820000424981","","","post_mooney1_questions","survey-likert","92","631464","0.0-6.0-2.12","3521124","co34174","norming","","","{""curiosity"":2,""confidence"":0}","[0,1]","../img/tt/1279tt.jpg","",""
"1072.070000693202","","","recognition","survey-text","93","632538","0.0-6.0-3.12","3521124","co34174","norming","","","{""guess"":""""}","","../img/tt/1279tt.jpg","",""
"null","../img/gs/1279gs.jpg","null","reveal","image-keyboard-response","94","634540","0.0-6.0-4.12","3521124","co34174","norming","","","","","","",""
"null","../img/tt/1279tt.jpg","null","mooney2","image-keyboard-response","95","636542","0.0-6.0-5.12","3521124","co34174","norming","","","","","","",""
"2689.269999973476","","","post_reveal_questions","survey-likert","96","639232","0.0-6.0-6.12","3521124","co34174","norming","","","{""aha"":6}","[0]","../img/tt/1279tt.jpg","",""
"null","<div style=""font-size:60px;""> </div>","null","fixation","html-keyboard-response","97","639434","0.0-6.0-0.13","3521124","co34174","norming","","","","","","",""
"null","../img/tt/524tt.jpg","null","mooney1","image-keyboard-response","98","642435","0.0-6.0-1.13","3521124","co34174","norming","","","","","","",""
"3981.3949996605515","","","post_mooney1_questions","survey-likert","99","646419","0.0-6.0-2.13","3521124","co34174","norming","","","{""curiosity"":1,""confidence"":5}","[0,1]","../img/tt/524tt.jpg","",""
"1550.4499999806285","","","recognition","survey-text","100","647971","0.0-6.0-3.13","3521124","co34174","norming","","","{""guess"":""dog""}","","../img/tt/524tt.jpg","",""
"null","../img/gs/524gs.jpg","null","reveal","image-keyboard-response","101","649973","0.0-6.0-4.13","3521124","co34174","norming","","","","","","",""
"null","../img/tt/524tt.jpg","null","mooney2","image-keyboard-response","102","651973","0.0-6.0-5.13","3521124","co34174","norming","","","","","","",""
"2438.3300002664328","","","post_reveal_questions","survey-likert","103","654412","0.0-6.0-6.13","3521124","co34174","norming","","","{""aha"":6}","[0]","../img/tt/524tt.jpg","",""
"null","<div style=""font-size:60px;""> </div>","null","fixation","html-keyboard-response","104","654615","0.0-6.0-0.14","3521124","co34174","norming","","","","","","",""
"null","../img/tt/1309tt.jpg","null","mooney1","image-keyboard-response","105","657616","0.0-6.0-1.14","3521124","co34174","norming","","","","","","",""
"4431.745000183582","","","post_mooney1_questions","survey-likert","106","662049","0.0-6.0-2.14","3521124","co34174","norming","","","{""curiosity"":0,""confidence"":2}","[0,1]","../img/tt/1309tt.jpg","",""
"1868.2450000196695","","","recognition","survey-text","107","663919","0.0-6.0-3.14","3521124","co34174","norming","","","{""guess"":""car""}","","../img/tt/1309tt.jpg","",""
"null","../img/gs/1309gs.jpg","null","reveal","image-keyboard-response","108","665921","0.0-6.0-4.14","3521124","co34174","norming","","","","","","",""
"null","../img/tt/1309tt.jpg","null","mooney2","image-keyboard-response","109","667923","0.0-6.0-5.14","3521124","co34174","norming","","","","","","",""
"2151.170000433922","","","post_reveal_questions","survey-likert","110","670075","0.0-6.0-6.14","3521124","co34174","norming","","","{""aha"":5}","[0]","../img/tt/1309tt.jpg","",""
"null","<div style=""font-size:60px;""> </div>","null","fixation","html-keyboard-response","111","670276","0.0-6.0-0.15","3521124","co34174","norming","","","","","","",""
"null","../img/tt/1101tt.jpg","null","mooney1","image-keyboard-response","112","673278","0.0-6.0-1.15","3521124","co34174","norming","","","","","","",""
"10893.920000642538","","","post_mooney1_questions","survey-likert","113","684173","0.0-6.0-2.15","3521124","co34174","norming","","","{""curiosity"":1,""confidence"":4}","[0,1]","../img/tt/1101tt.jpg","",""
"11608.599999919534","","","recognition","survey-text","114","695783","0.0-6.0-3.15","3521124","co34174","norming","","","{""guess"":""rugby""}","","../img/tt/1101tt.jpg","",""
"null","../img/gs/1101gs.jpg","null","reveal","image-keyboard-response","115","697784","0.0-6.0-4.15","3521124","co34174","norming","","","","","","",""
"null","../img/tt/1101tt.jpg","null","mooney2","image-keyboard-response","116","699786","0.0-6.0-5.15","3521124","co34174","norming","","","","","","",""
"1946.8400003388524","","","post_reveal_questions","survey-likert","117","701734","0.0-6.0-6.15","3521124","co34174","norming","","","{""aha"":6}","[0]","../img/tt/1101tt.jpg","",""
"null","<div style=""font-size:60px;""> </div>","null","fixation","html-keyboard-response","118","701936","0.0-6.0-0.16","3521124","co34174","norming","","","","","","",""
"null","../img/tt/1044tt.jpg","null","mooney1","image-keyboard-response","119","704939","0.0-6.0-1.16","3521124","co34174","norming","","","","","","",""
"8751.71499978751","","","post_mooney1_questions","survey-likert","120","713692","0.0-6.0-2.16","3521124","co34174","norming","","","{""curiosity"":4,""confidence"":4}","[0,1]","../img/tt/1044tt.jpg","",""
"6986.959999427199","","","recognition","survey-text","121","720681","0.0-6.0-3.16","3521124","co34174","norming","","","{""guess"":""katachtige""}","","../img/tt/1044tt.jpg","",""
"null","../img/gs/1044gs.jpg","null","reveal","image-keyboard-response","122","722682","0.0-6.0-4.16","3521124","co34174","norming","","","","","","",""
"null","../img/tt/1044tt.jpg","null","mooney2","image-keyboard-response","123","724684","0.0-6.0-5.16","3521124","co34174","norming","","","","","","",""
"1536.4749999716878","","","post_reveal_questions","survey-likert","124","726222","0.0-6.0-6.16","3521124","co34174","norming","","","{""aha"":6}","[0]","../img/tt/1044tt.jpg","",""
"null","<div style=""font-size:60px;""> </div>","null","fixation","html-keyboard-response","125","726423","0.0-6.0-0.17","3521124","co34174","norming","","","","","","",""
"null","../img/tt/1189tt.jpg","null","mooney1","image-keyboard-response","126","729425","0.0-6.0-1.17","3521124","co34174","norming","","","","","","",""
"6937.830000184476","","","post_mooney1_questions","survey-likert","127","736364","0.0-6.0-2.17","3521124","co34174","norming","","","{""curiosity"":0,""confidence"":0}","[0,1]","../img/tt/1189tt.jpg","",""
"794.1749999299645","","","recognition","survey-text","128","737160","0.0-6.0-3.17","3521124","co34174","norming","","","{""guess"":""""}","","../img/tt/1189tt.jpg","",""
"null","../img/gs/1189gs.jpg","null","reveal","image-keyboard-response","129","739161","0.0-6.0-4.17","3521124","co34174","norming","","","","","","",""
"null","../img/tt/1189tt.jpg","null","mooney2","image-keyboard-response","130","741162","0.0-6.0-5.17","3521124","co34174","norming","","","","","","",""
"4155.59499990195","","","post_reveal_questions","survey-likert","131","745318","0.0-6.0-6.17","3521124","co34174","norming","","","{""aha"":0}","[0]","../img/tt/1189tt.jpg","",""
"null","<div style=""font-size:60px;""> </div>","null","fixation","html-keyboard-response","132","745519","0.0-6.0-0.18","3521124","co34174","norming","","","","","","",""
"null","../img/tt/380tt.jpg","null","mooney1","image-keyboard-response","133","748521","0.0-6.0-1.18","3521124","co34174","norming","","","","","","",""
"8621.519999578595","","","post_mooney1_questions","survey-likert","134","757144","0.0-6.0-2.18","3521124","co34174","norming","","","{""curiosity"":4,""confidence"":1}","[0,1]","../img/tt/380tt.jpg","",""
"3618.065000511706","","","recognition","survey-text","135","760764","0.0-6.0-3.18","3521124","co34174","norming","","","{""guess"":""in the bus""}","","../img/tt/380tt.jpg","",""
"null","../img/gs/380gs.jpg","null","reveal","image-keyboard-response","136","762766","0.0-6.0-4.18","3521124","co34174","norming","","","","","","",""
"null","../img/tt/380tt.jpg","null","mooney2","image-keyboard-response","137","764767","0.0-6.0-5.18","3521124","co34174","norming","","","","","","",""
"3360.9250001609325","","","post_reveal_questions","survey-likert","138","768128","0.0-6.0-6.18","3521124","co34174","norming","","","{""aha"":6}","[0]","../img/tt/380tt.jpg","",""
"null","<div style=""font-size:60px;""> </div>","null","fixation","html-keyboard-response","139","768331","0.0-6.0-0.19","3521124","co34174","norming","","","","","","",""
"null","../img/tt/085tt.jpg","null","mooney1","image-keyboard-response","140","771333","0.0-6.0-1.19","3521124","co34174","norming","","","","","","",""
"5310.119999572635","","","post_mooney1_questions","survey-likert","141","776644","0.0-6.0-2.19","3521124","co34174","norming","","","{""curiosity"":6,""confidence"":0}","[0,1]","../img/tt/085tt.jpg","",""
"644.1749995574355","","","recognition","survey-text","142","777290","0.0-6.0-3.19","3521124","co34174","norming","","","{""guess"":""""}","","../img/tt/085tt.jpg","",""
"null","../img/gs/085gs.jpg","null","reveal","image-keyboard-response","143","779293","0.0-6.0-4.19","3521124","co34174","norming","","","","","","",""
"null","../img/tt/085tt.jpg","null","mooney2","image-keyboard-response","144","781294","0.0-6.0-5.19","3521124","co34174","norming","","","","","","",""
"2487.8799999132752","","","post_reveal_questions","survey-likert","145","783782","0.0-6.0-6.19","3521124","co34174","norming","","","{""aha"":4}","[0]","../img/tt/085tt.jpg","",""
"null","<div style=""font-size:60px;""> </div>","null","fixation","html-keyboard-response","146","783983","0.0-6.0-0.20","3521124","co34174","norming","","","","","","",""
"null","../img/tt/007tt.jpg","null","mooney1","image-keyboard-response","147","786986","0.0-6.0-1.20","3521124","co34174","norming","","","","","","",""
"6073.529999703169","","","post_mooney1_questions","survey-likert","148","793060","0.0-6.0-2.20","3521124","co34174","norming","","","{""curiosity"":2,""confidence"":5}","[0,1]","../img/tt/007tt.jpg","",""
"1943.049999885261","","","recognition","survey-text","149","795005","0.0-6.0-3.20","3521124","co34174","norming","","","{""guess"":""olifant""}","","../img/tt/007tt.jpg","",""
"null","../img/gs/007gs.jpg","null","reveal","image-keyboard-response","150","797007","0.0-6.0-4.20","3521124","co34174","norming","","","","","","",""
"null","../img/tt/007tt.jpg","null","mooney2","image-keyboard-response","151","799008","0.0-6.0-5.20","3521124","co34174","norming","","","","","","",""
"2225.5649995058775","","","post_reveal_questions","survey-likert","152","801234","0.0-6.0-6.20","3521124","co34174","norming","","","{""aha"":5}","[0]","../img/tt/007tt.jpg","",""
"null","<div style=""font-size:60px;""> </div>","null","fixation","html-keyboard-response","153","801436","0.0-6.0-0.21","3521124","co34174","norming","","","","","","",""
"null","../img/tt/118tt.jpg","null","mooney1","image-keyboard-response","154","804437","0.0-6.0-1.21","3521124","co34174","norming","","","","","","",""
"15836.06499992311","","","post_mooney1_questions","survey-likert","155","820274","0.0-6.0-2.21","3521124","co34174","norming","","","{""curiosity"":3,""confidence"":4}","[0,1]","../img/tt/118tt.jpg","",""
"2155.0549995154142","","","recognition","survey-text","156","822431","0.0-6.0-3.21","3521124","co34174","norming","","","{""guess"":""bank""}","","../img/tt/118tt.jpg","",""
"null","../img/gs/118gs.jpg","null","reveal","image-keyboard-response","157","824432","0.0-6.0-4.21","3521124","co34174","norming","","","","","","",""
"null","../img/tt/118tt.jpg","null","mooney2","image-keyboard-response","158","826434","0.0-6.0-5.21","3521124","co34174","norming","","","","","","",""
"2446.759999729693","","","post_reveal_questions","survey-likert","159","828882","0.0-6.0-6.21","3521124","co34174","norming","","","{""aha"":0}","[0]","../img/tt/118tt.jpg","",""
"null","<div style=""font-size:60px;""> </div>","null","fixation","html-keyboard-response","160","829083","0.0-6.0-0.22","3521124","co34174","norming","","","","","","",""
"null","../img/tt/1254tt.jpg","null","mooney1","image-keyboard-response","161","832085","0.0-6.0-1.22","3521124","co34174","norming","","","","","","",""
"3180.159999988973","","","post_mooney1_questions","survey-likert","162","835266","0.0-6.0-2.22","3521124","co34174","norming","","","{""curiosity"":0,""confidence"":6}","[0,1]","../img/tt/1254tt.jpg","",""
"2100.004999898374","","","recognition","survey-text","163","837368","0.0-6.0-3.22","3521124","co34174","norming","","","{""guess"":""konijn""}","","../img/tt/1254tt.jpg","",""
"null","../img/gs/1254gs.jpg","null","reveal","image-keyboard-response","164","839369","0.0-6.0-4.22","3521124","co34174","norming","","","","","","",""
"null","../img/tt/1254tt.jpg","null","mooney2","image-keyboard-response","165","841370","0.0-6.0-5.22","3521124","co34174","norming","","","","","","",""
"1654.9450000748038","","","post_reveal_questions","survey-likert","166","843026","0.0-6.0-6.22","3521124","co34174","norming","","","{""aha"":0}","[0]","../img/tt/1254tt.jpg","",""
"null","<div style=""font-size:60px;""> </div>","null","fixation","html-keyboard-response","167","843227","0.0-6.0-0.23","3521124","co34174","norming","","","","","","",""
"null","../img/tt/112tt.jpg","null","mooney1","image-keyboard-response","168","846229","0.0-6.0-1.23","3521124","co34174","norming","","","","","","",""
"9353.875000029802","","","post_mooney1_questions","survey-likert","169","855584","0.0-6.0-2.23","3521124","co34174","norming","","","{""curiosity"":5,""confidence"":4}","[0,1]","../img/tt/112tt.jpg","",""
"2974.144999869168","","","recognition","survey-text","170","858560","0.0-6.0-3.23","3521124","co34174","norming","","","{""guess"":""brandblusser""}","","../img/tt/112tt.jpg","",""
"null","../img/gs/112gs.jpg","null","reveal","image-keyboard-response","171","860562","0.0-6.0-4.23","3521124","co34174","norming","","","","","","",""
"null","../img/tt/112tt.jpg","null","mooney2","image-keyboard-response","172","862564","0.0-6.0-5.23","3521124","co34174","norming","","","","","","",""
"3410.590000450611","","","post_reveal_questions","survey-likert","173","865976","0.0-6.0-6.23","3521124","co34174","norming","","","{""aha"":1}","[0]","../img/tt/112tt.jpg","",""
"null","<div style=""font-size:60px;""> </div>","null","fixation","html-keyboard-response","174","866178","0.0-6.0-0.24","3521124","co34174","norming","","","","","","",""
"null","../img/tt/270tt.jpg","null","mooney1","image-keyboard-response","175","869180","0.0-6.0-1.24","3521124","co34174","norming","","","","","","",""
"7880.77500090003","","","post_mooney1_questions","survey-likert","176","877062","0.0-6.0-2.24","3521124","co34174","norming","","","{""curiosity"":1,""confidence"":4}","[0,1]","../img/tt/270tt.jpg","",""
"1478.0599996447563","","","recognition","survey-text","177","878542","0.0-6.0-3.24","3521124","co34174","norming","","","{""guess"":""sport""}","","../img/tt/270tt.jpg","",""
"null","../img/gs/270gs.jpg","null","reveal","image-keyboard-response","178","880544","0.0-6.0-4.24","3521124","co34174","norming","","","","","","",""
"null","../img/tt/270tt.jpg","null","mooney2","image-keyboard-response","179","882545","0.0-6.0-5.24","3521124","co34174","norming","","","","","","",""
"29190.46500045806","","","post_reveal_questions","survey-likert","180","911736","0.0-6.0-6.24","3521124","co34174","norming","","","{""aha"":4}","[0]","../img/tt/270tt.jpg","",""
"null","<div style=""font-size:60px;""> </div>","null","fixation","html-keyboard-response","181","911938","0.0-6.0-0.25","3521124","co34174","norming","","","","","","",""
"null","../img/tt/056tt.jpg","null","mooney1","image-keyboard-response","182","914939","0.0-6.0-1.25","3521124","co34174","norming","","","","","","",""
"3311.8049995973706","","","post_mooney1_questions","survey-likert","183","918252","0.0-6.0-2.25","3521124","co34174","norming","","","{""curiosity"":0,""confidence"":6}","[0,1]","../img/tt/056tt.jpg","",""
"1574.3599999696016","","","recognition","survey-text","184","919829","0.0-6.0-3.25","3521124","co34174","norming","","","{""guess"":""lion""}","","../img/tt/056tt.jpg","",""
"null","../img/gs/056gs.jpg","null","reveal","image-keyboard-response","185","921831","0.0-6.0-4.25","3521124","co34174","norming","","","","","","",""
"null","../img/tt/056tt.jpg","null","mooney2","image-keyboard-response","186","923832","0.0-6.0-5.25","3521124","co34174","norming","","","","","","",""
"1578.2449999824166","","","post_reveal_questions","survey-likert","187","925412","0.0-6.0-6.25","3521124","co34174","norming","","","{""aha"":0}","[0]","../img/tt/056tt.jpg","",""
"null","<div style=""font-size:60px;""> </div>","null","fixation","html-keyboard-response","188","925614","0.0-6.0-0.26","3521124","co34174","norming","","","","","","",""
"null","../img/tt/1232tt.jpg","null","mooney1","image-keyboard-response","189","928615","0.0-6.0-1.26","3521124","co34174","norming","","","","","","",""
"4323.820000514388","","","post_mooney1_questions","survey-likert","190","932940","0.0-6.0-2.26","3521124","co34174","norming","","","{""curiosity"":0,""confidence"":5}","[0,1]","../img/tt/1232tt.jpg","",""
"2481.174999848008","","","recognition","survey-text","191","935423","0.0-6.0-3.26","3521124","co34174","norming","","","{""guess"":""schildpad""}","","../img/tt/1232tt.jpg","",""
"null","../img/gs/1232gs.jpg","null","reveal","image-keyboard-response","192","937425","0.0-6.0-4.26","3521124","co34174","norming","","","","","","",""
"null","../img/tt/1232tt.jpg","null","mooney2","image-keyboard-response","193","939428","0.0-6.0-5.26","3521124","co34174","norming","","","","","","",""
"2696.9050001353025","","","post_reveal_questions","survey-likert","194","942125","0.0-6.0-6.26","3521124","co34174","norming","","","{""aha"":4}","[0]","../img/tt/1232tt.jpg","",""
"null","<div style=""font-size:60px;""> </div>","null","fixation","html-keyboard-response","195","942328","0.0-6.0-0.27","3521124","co34174","norming","","","","","","",""
"null","../img/tt/357tt.jpg","null","mooney1","image-keyboard-response","196","945330","0.0-6.0-1.27","3521124","co34174","norming","","","","","","",""
"3639.259999617934","","","post_mooney1_questions","survey-likert","197","948970","0.0-6.0-2.27","3521124","co34174","norming","","","{""curiosity"":0,""confidence"":4}","[0,1]","../img/tt/357tt.jpg","",""
"2232.0550000295043","","","recognition","survey-text","198","951204","0.0-6.0-3.27","3521124","co34174","norming","","","{""guess"":""egel""}","","../img/tt/357tt.jpg","",""
"null","../img/gs/357gs.jpg","null","reveal","image-keyboard-response","199","953205","0.0-6.0-4.27","3521124","co34174","norming","","","","","","",""
"null","../img/tt/357tt.jpg","null","mooney2","image-keyboard-response","200","955206","0.0-6.0-5.27","3521124","co34174","norming","","","","","","",""
"1826.3900000602007","","","post_reveal_questions","survey-likert","201","957033","0.0-6.0-6.27","3521124","co34174","norming","","","{""aha"":0}","[0]","../img/tt/357tt.jpg","",""
"null","<div style=""font-size:60px;""> </div>","null","fixation","html-keyboard-response","202","957236","0.0-6.0-0.28","3521124","co34174","norming","","","","","","",""
"null","../img/tt/1283tt.jpg","null","mooney1","image-keyboard-response","203","960238","0.0-6.0-1.28","3521124","co34174","norming","","","","","","",""
"6268.509999848902","","","post_mooney1_questions","survey-likert","204","966508","0.0-6.0-2.28","3521124","co34174","norming","","","{""curiosity"":4,""confidence"":4}","[0,1]","../img/tt/1283tt.jpg","",""
"2033.3550004288554","","","recognition","survey-text","205","968543","0.0-6.0-3.28","3521124","co34174","norming","","","{""guess"":""cow""}","","../img/tt/1283tt.jpg","",""
"null","../img/gs/1283gs.jpg","null","reveal","image-keyboard-response","206","970544","0.0-6.0-4.28","3521124","co34174","norming","","","","","","",""
"null","../img/tt/1283tt.jpg","null","mooney2","image-keyboard-response","207","972547","0.0-6.0-5.28","3521124","co34174","norming","","","","","","",""
"4895.620000548661","","","post_reveal_questions","survey-likert","208","977443","0.0-6.0-6.28","3521124","co34174","norming","","","{""aha"":3}","[0]","../img/tt/1283tt.jpg","",""
"null","<div style=""font-size:60px;""> </div>","null","fixation","html-keyboard-response","209","977646","0.0-6.0-0.29","3521124","co34174","norming","","","","","","",""
"null","../img/tt/1002tt.jpg","null","mooney1","image-keyboard-response","210","980648","0.0-6.0-1.29","3521124","co34174","norming","","","","","","",""
"5651.9950004294515","","","post_mooney1_questions","survey-likert","211","986302","0.0-6.0-2.29","3521124","co34174","norming","","","{""curiosity"":4,""confidence"":4}","[0,1]","../img/tt/1002tt.jpg","",""
"2546.489999629557","","","recognition","survey-text","212","988850","0.0-6.0-3.29","3521124","co34174","norming","","","{""guess"":""wrestle""}","","../img/tt/1002tt.jpg","",""
"null","../img/gs/1002gs.jpg","null","reveal","image-keyboard-response","213","990853","0.0-6.0-4.29","3521124","co34174","norming","","","","","","",""
"null","../img/tt/1002tt.jpg","null","mooney2","image-keyboard-response","214","992855","0.0-6.0-5.29","3521124","co34174","norming","","","","","","",""
"1595.7000004127622","","","post_reveal_questions","survey-likert","215","994451","0.0-6.0-6.29","3521124","co34174","norming","","","{""aha"":6}","[0]","../img/tt/1002tt.jpg","",""
"null","<div style=""font-size:60px;""> </div>","null","fixation","html-keyboard-response","216","994654","0.0-6.0-0.30","3521124","co34174","norming","","","","","","",""
"null","../img/tt/416tt.jpg","null","mooney1","image-keyboard-response","217","997655","0.0-6.0-1.30","3521124","co34174","norming","","","","","","",""
"3451.7550002783537","","","post_mooney1_questions","survey-likert","218","1001108","0.0-6.0-2.30","3521124","co34174","norming","","","{""curiosity"":0,""confidence"":6}","[0,1]","../img/tt/416tt.jpg","",""
"3097.915000282228","","","recognition","survey-text","219","1004208","0.0-6.0-3.30","3521124","co34174","norming","","","{""guess"":""struisvogel""}","","../img/tt/416tt.jpg","",""
"null","../img/gs/416gs.jpg","null","reveal","image-keyboard-response","220","1006209","0.0-6.0-4.30","3521124","co34174","norming","","","","","","",""
"null","../img/tt/416tt.jpg","null","mooney2","image-keyboard-response","221","1008210","0.0-6.0-5.30","3521124","co34174","norming","","","","","","",""
"1878.3450005576015","","","post_reveal_questions","survey-likert","222","1010090","0.0-6.0-6.30","3521124","co34174","norming","","","{""aha"":0}","[0]","../img/tt/416tt.jpg","",""
"null","<div style=""font-size:60px;""> </div>","null","fixation","html-keyboard-response","223","1010292","0.0-6.0-0.31","3521124","co34174","norming","","","","","","",""
"null","../img/tt/1186tt.jpg","null","mooney1","image-keyboard-response","224","1013294","0.0-6.0-1.31","3521124","co34174","norming","","","","","","",""
"4539.229999296367","","","post_mooney1_questions","survey-likert","225","1017834","0.0-6.0-2.31","3521124","co34174","norming","","","{""curiosity"":0,""confidence"":6}","[0,1]","../img/tt/1186tt.jpg","",""
"2914.334999397397","","","recognition","survey-text","226","1020750","0.0-6.0-3.31","3521124","co34174","norming","","","{""guess"":""rollerblade""}","","../img/tt/1186tt.jpg","",""
"null","../img/gs/1186gs.jpg","null","reveal","image-keyboard-response","227","1022752","0.0-6.0-4.31","3521124","co34174","norming","","","","","","",""
"null","../img/tt/1186tt.jpg","null","mooney2","image-keyboard-response","228","1024753","0.0-6.0-5.31","3521124","co34174","norming","","","","","","",""
"2896.0700007155538","","","post_reveal_questions","survey-likert","229","1027650","0.0-6.0-6.31","3521124","co34174","norming","","","{""aha"":0}","[0]","../img/tt/1186tt.jpg","",""
"null","<div style=""font-size:60px;""> </div>","null","fixation","html-keyboard-response","230","1027852","0.0-6.0-0.32","3521124","co34174","norming","","","","","","",""
"null","../img/tt/1053tt.jpg","null","mooney1","image-keyboard-response","231","1030853","0.0-6.0-1.32","3521124","co34174","norming","","","","","","",""
"4461.819999851286","","","post_mooney1_questions","survey-likert","232","1035316","0.0-6.0-2.32","3521124","co34174","norming","","","{""curiosity"":0,""confidence"":5}","[0,1]","../img/tt/1053tt.jpg","",""
"1604.2849998921156","","","recognition","survey-text","233","1036922","0.0-6.0-3.32","3521124","co34174","norming","","","{""guess"":""cow""}","","../img/tt/1053tt.jpg","",""
"null","../img/gs/1053gs.jpg","null","reveal","image-keyboard-response","234","1038925","0.0-6.0-4.32","3521124","co34174","norming","","","","","","",""
"null","../img/tt/1053tt.jpg","null","mooney2","image-keyboard-response","235","1040926","0.0-6.0-5.32","3521124","co34174","norming","","","","","","",""
"1516.7100001126528","","","post_reveal_questions","survey-likert","236","1042444","0.0-6.0-6.32","3521124","co34174","norming","","","{""aha"":0}","[0]","../img/tt/1053tt.jpg","",""
"null","<div style=""font-size:60px;""> </div>","null","fixation","html-keyboard-response","237","1042645","0.0-6.0-0.33","3521124","co34174","norming","","","","","","",""
"null","../img/tt/1362tt.jpg","null","mooney1","image-keyboard-response","238","1045646","0.0-6.0-1.33","3521124","co34174","norming","","","","","","",""
"4058.6750004440546","","","post_mooney1_questions","survey-likert","239","1049706","0.0-6.0-2.33","3521124","co34174","norming","","","{""curiosity"":0,""confidence"":4}","[0,1]","../img/tt/1362tt.jpg","",""
"2735.6449998915195","","","recognition","survey-text","240","1052443","0.0-6.0-3.33","3521124","co34174","norming","","","{""guess"":""servies""}","","../img/tt/1362tt.jpg","",""
"null","../img/gs/1362gs.jpg","null","reveal","image-keyboard-response","241","1054445","0.0-6.0-4.33","3521124","co34174","norming","","","","","","",""
"null","../img/tt/1362tt.jpg","null","mooney2","image-keyboard-response","242","1056446","0.0-6.0-5.33","3521124","co34174","norming","","","","","","",""
"2263.1099997088313","","","post_reveal_questions","survey-likert","243","1058710","0.0-6.0-6.33","3521124","co34174","norming","","","{""aha"":2}","[0]","../img/tt/1362tt.jpg","",""
"null","<div style=""font-size:60px;""> </div>","null","fixation","html-keyboard-response","244","1058911","0.0-6.0-0.34","3521124","co34174","norming","","","","","","",""
"null","../img/tt/497tt.jpg","null","mooney1","image-keyboard-response","245","1061913","0.0-6.0-1.34","3521124","co34174","norming","","","","","","",""
"4999.4350001215935","","","post_mooney1_questions","survey-likert","246","1066914","0.0-6.0-2.34","3521124","co34174","norming","","","{""curiosity"":2,""confidence"":5}","[0,1]","../img/tt/497tt.jpg","",""
"2956.4999993890524","","","recognition","survey-text","247","1069873","0.0-6.0-3.34","3521124","co34174","norming","","","{""guess"":""kookplaat""}","","../img/tt/497tt.jpg","",""
"null","../img/gs/497gs.jpg","null","reveal","image-keyboard-response","248","1071875","0.0-6.0-4.34","3521124","co34174","norming","","","","","","",""
"null","../img/tt/497tt.jpg","null","mooney2","image-keyboard-response","249","1073876","0.0-6.0-5.34","3521124","co34174","norming","","","","","","",""
"1390.4099995270371","","","post_reveal_questions","survey-likert","250","1075267","0.0-6.0-6.34","3521124","co34174","norming","","","{""aha"":0}","[0]","../img/tt/497tt.jpg","",""
"null","<div style=""font-size:60px;""> </div>","null","fixation","html-keyboard-response","251","1075469","0.0-6.0-0.35","3521124","co34174","norming","","","","","","",""
"null","../img/tt/440tt.jpg","null","mooney1","image-keyboard-response","252","1078470","0.0-6.0-1.35","3521124","co34174","norming","","","","","","",""
"5840.6250001862645","","","post_mooney1_questions","survey-likert","253","1084312","0.0-6.0-2.35","3521124","co34174","norming","","","{""curiosity"":4,""confidence"":2}","[0,1]","../img/tt/440tt.jpg","",""
"2141.5100004523993","","","recognition","survey-text","254","1086455","0.0-6.0-3.35","3521124","co34174","norming","","","{""guess"":""horse""}","","../img/tt/440tt.jpg","",""
"null","../img/gs/440gs.jpg","null","reveal","image-keyboard-response","255","1088457","0.0-6.0-4.35","3521124","co34174","norming","","","","","","",""
"null","../img/tt/440tt.jpg","null","mooney2","image-keyboard-response","256","1090458","0.0-6.0-5.35","3521124","co34174","norming","","","","","","",""
"2276.3449996709824","","","post_reveal_questions","survey-likert","257","1092735","0.0-6.0-6.35","3521124","co34174","norming","","","{""aha"":5}","[0]","../img/tt/440tt.jpg","",""
"null","<div style=""font-size:60px;""> </div>","null","fixation","html-keyboard-response","258","1092936","0.0-6.0-0.36","3521124","co34174","norming","","","","","","",""
"null","../img/tt/1156tt.jpg","null","mooney1","image-keyboard-response","259","1095937","0.0-6.0-1.36","3521124","co34174","norming","","","","","","",""
"5218.634999357164","","","post_mooney1_questions","survey-likert","260","1101157","0.0-6.0-2.36","3521124","co34174","norming","","","{""curiosity"":4,""confidence"":5}","[0,1]","../img/tt/1156tt.jpg","",""
"3110.3250002488494","","","recognition","survey-text","261","1104269","0.0-6.0-3.36","3521124","co34174","norming","","","{""guess"":""zwemmen""}","","../img/tt/1156tt.jpg","",""
"null","../img/gs/1156gs.jpg","null","reveal","image-keyboard-response","262","1106272","0.0-6.0-4.36","3521124","co34174","norming","","","","","","",""
"null","../img/tt/1156tt.jpg","null","mooney2","image-keyboard-response","263","1108273","0.0-6.0-5.36","3521124","co34174","norming","","","","","","",""
"3499.699999578297","","","post_reveal_questions","survey-likert","264","1111773","0.0-6.0-6.36","3521124","co34174","norming","","","{""aha"":4}","[0]","../img/tt/1156tt.jpg","",""
"null","<div style=""font-size:60px;""> </div>","null","fixation","html-keyboard-response","265","1111975","0.0-6.0-0.37","3521124","co34174","norming","","","","","","",""
"null","../img/tt/1116tt.jpg","null","mooney1","image-keyboard-response","266","1114978","0.0-6.0-1.37","3521124","co34174","norming","","","","","","",""
"3116.4849996566772","","","post_mooney1_questions","survey-likert","267","1118095","0.0-6.0-2.37","3521124","co34174","norming","","","{""curiosity"":4,""confidence"":5}","[0,1]","../img/tt/1116tt.jpg","",""
"2229.6399995684624","","","recognition","survey-text","268","1120327","0.0-6.0-3.37","3521124","co34174","norming","","","{""guess"":""cars""}","","../img/tt/1116tt.jpg","",""
"null","../img/gs/1116gs.jpg","null","reveal","image-keyboard-response","269","1122329","0.0-6.0-4.37","3521124","co34174","norming","","","","","","",""
"null","../img/tt/1116tt.jpg","null","mooney2","image-keyboard-response","270","1124331","0.0-6.0-5.37","3521124","co34174","norming","","","","","","",""
"3383.21499992162","","","post_reveal_questions","survey-likert","271","1127715","0.0-6.0-6.37","3521124","co34174","norming","","","{""aha"":5}","[0]","../img/tt/1116tt.jpg","",""
"null","<div style=""font-size:60px;""> </div>","null","fixation","html-keyboard-response","272","1127916","0.0-6.0-0.38","3521124","co34174","norming","","","","","","",""
"null","../img/tt/1363tt.jpg","null","mooney1","image-keyboard-response","273","1130918","0.0-6.0-1.38","3521124","co34174","norming","","","","","","",""
"6478.149999864399","","","post_mooney1_questions","survey-likert","274","1137397","0.0-6.0-2.38","3521124","co34174","norming","","","{""curiosity"":4,""confidence"":4}","[0,1]","../img/tt/1363tt.jpg","",""
"7673.670000396669","","","recognition","survey-text","275","1145073","0.0-6.0-3.38","3521124","co34174","norming","","","{""guess"":""saucekan""}","","../img/tt/1363tt.jpg","",""
"null","../img/gs/1363gs.jpg","null","reveal","image-keyboard-response","276","1147074","0.0-6.0-4.38","3521124","co34174","norming","","","","","","",""
"null","../img/tt/1363tt.jpg","null","mooney2","image-keyboard-response","277","1149075","0.0-6.0-5.38","3521124","co34174","norming","","","","","","",""
"2932.7150005847216","","","post_reveal_questions","survey-likert","278","1152009","0.0-6.0-6.38","3521124","co34174","norming","","","{""aha"":0}","[0]","../img/tt/1363tt.jpg","",""
"null","<div style=""font-size:60px;""> </div>","null","fixation","html-keyboard-response","279","1152211","0.0-6.0-0.39","3521124","co34174","norming","","","","","","",""
"null","../img/tt/1087tt.jpg","null","mooney1","image-keyboard-response","280","1155214","0.0-6.0-1.39","3521124","co34174","norming","","","","","","",""
"7310.674999840558","","","post_mooney1_questions","survey-likert","281","1162526","0.0-6.0-2.39","3521124","co34174","norming","","","{""curiosity"":5,""confidence"":4}","[0,1]","../img/tt/1087tt.jpg","",""
"2187.610000371933","","","recognition","survey-text","282","1164715","0.0-6.0-3.39","3521124","co34174","norming","","","{""guess"":""cow""}","","../img/tt/1087tt.jpg","",""
"null","../img/gs/1087gs.jpg","null","reveal","image-keyboard-response","283","1166717","0.0-6.0-4.39","3521124","co34174","norming","","","","","","",""
"null","../img/tt/1087tt.jpg","null","mooney2","image-keyboard-response","284","1168719","0.0-6.0-5.39","3521124","co34174","norming","","","","","","",""
"2507.2900000959635","","","post_reveal_questions","survey-likert","285","1171227","0.0-6.0-6.39","3521124","co34174","norming","","","{""aha"":1}","[0]","../img/tt/1087tt.jpg","",""
"null","<div style=""font-size:60px;""> </div>","null","fixation","html-keyboard-response","286","1171429","0.0-6.0-0.40","3521124","co34174","norming","","","","","","",""
"null","../img/tt/1366tt.jpg","null","mooney1","image-keyboard-response","287","1174430","0.0-6.0-1.40","3521124","co34174","norming","","","","","","",""
"4028.314999304712","","","post_mooney1_questions","survey-likert","288","1178459","0.0-6.0-2.40","3521124","co34174","norming","","","{""curiosity"":6,""confidence"":2}","[0,1]","../img/tt/1366tt.jpg","",""
"4365.495000034571","","","recognition","survey-text","289","1182827","0.0-6.0-3.40","3521124","co34174","norming","","","{""guess"":""kebab""}","","../img/tt/1366tt.jpg","",""
"null","../img/gs/1366gs.jpg","null","reveal","image-keyboard-response","290","1184828","0.0-6.0-4.40","3521124","co34174","norming","","","","","","",""
"null","../img/tt/1366tt.jpg","null","mooney2","image-keyboard-response","291","1186830","0.0-6.0-5.40","3521124","co34174","norming","","","","","","",""
"1894.3499997258186","","","post_reveal_questions","survey-likert","292","1188725","0.0-6.0-6.40","3521124","co34174","norming","","","{""aha"":3}","[0]","../img/tt/1366tt.jpg","",""
"null","<div style=""font-size:60px;""> </div>","null","fixation","html-keyboard-response","293","1188926","0.0-6.0-0.41","3521124","co34174","norming","","","","","","",""
"null","../img/tt/020tt.jpg","null","mooney1","image-keyboard-response","294","1191928","0.0-6.0-1.41","3521124","co34174","norming","","","","","","",""
"5810.3899993002415","","","post_mooney1_questions","survey-likert","295","1197739","0.0-6.0-2.41","3521124","co34174","norming","","","{""curiosity"":4,""confidence"":5}","[0,1]","../img/tt/020tt.jpg","",""
"1150.0650001689792","","","recognition","survey-text","296","1198891","0.0-6.0-3.41","3521124","co34174","norming","","","{""guess"":""dog""}","","../img/tt/020tt.jpg","",""
"null","../img/gs/020gs.jpg","null","reveal","image-keyboard-response","297","1200892","0.0-6.0-4.41","3521124","co34174","norming","","","","","","",""
"null","../img/tt/020tt.jpg","null","mooney2","image-keyboard-response","298","1202893","0.0-6.0-5.41","3521124","co34174","norming","","","","","","",""
"4486.965000629425","","","post_reveal_questions","survey-likert","299","1207381","0.0-6.0-6.41","3521124","co34174","norming","","","{""aha"":6}","[0]","../img/tt/020tt.jpg","",""
"null","<div style=""font-size:60px;""> </div>","null","fixation","html-keyboard-response","300","1207582","0.0-6.0-0.42","3521124","co34174","norming","","","","","","",""
"null","../img/tt/1142tt.jpg","null","mooney1","image-keyboard-response","301","1210584","0.0-6.0-1.42","3521124","co34174","norming","","","","","","",""
"8564.120000228286","","","post_mooney1_questions","survey-likert","302","1219149","0.0-6.0-2.42","3521124","co34174","norming","","","{""curiosity"":4,""confidence"":4}","[0,1]","../img/tt/1142tt.jpg","",""
"4152.754999697208","","","recognition","survey-text","303","1223304","0.0-6.0-3.42","3521124","co34174","norming","","","{""guess"":""discuswerpen""}","","../img/tt/1142tt.jpg","",""
"null","../img/gs/1142gs.jpg","null","reveal","image-keyboard-response","304","1225305","0.0-6.0-4.42","3521124","co34174","norming","","","","","","",""
"null","../img/tt/1142tt.jpg","null","mooney2","image-keyboard-response","305","1227306","0.0-6.0-5.42","3521124","co34174","norming","","","","","","",""
"2390.110000036657","","","post_reveal_questions","survey-likert","306","1229697","0.0-6.0-6.42","3521124","co34174","norming","","","{""aha"":5}","[0]","../img/tt/1142tt.jpg","",""
"null","<div style=""font-size:60px;""> </div>","null","fixation","html-keyboard-response","307","1229898","0.0-6.0-0.43","3521124","co34174","norming","","","","","","",""
"null","../img/tt/049tt.jpg","null","mooney1","image-keyboard-response","308","1232901","0.0-6.0-1.43","3521124","co34174","norming","","","","","","",""
"5192.409999668598","","","post_mooney1_questions","survey-likert","309","1238095","0.0-6.0-2.43","3521124","co34174","norming","","","{""curiosity"":6,""confidence"":0}","[0,1]","../img/tt/049tt.jpg","",""
"909.2200007289648","","","recognition","survey-text","310","1239007","0.0-6.0-3.43","3521124","co34174","norming","","","{""guess"":""""}","","../img/tt/049tt.jpg","",""
"null","../img/gs/049gs.jpg","null","reveal","image-keyboard-response","311","1241009","0.0-6.0-4.43","3521124","co34174","norming","","","","","","",""
"null","../img/tt/049tt.jpg","null","mooney2","image-keyboard-response","312","1243010","0.0-6.0-5.43","3521124","co34174","norming","","","","","","",""
"2813.2249992340803","","","post_reveal_questions","survey-likert","313","1245825","0.0-6.0-6.43","3521124","co34174","norming","","","{""aha"":2}","[0]","../img/tt/049tt.jpg","",""
"null","<div style=""font-size:60px;""> </div>","null","fixation","html-keyboard-response","314","1246027","0.0-6.0-0.44","3521124","co34174","norming","","","","","","",""
"null","../img/tt/1171tt.jpg","null","mooney1","image-keyboard-response","315","1249030","0.0-6.0-1.44","3521124","co34174","norming","","","","","","",""
"7464.449999853969","","","post_mooney1_questions","survey-likert","316","1256495","0.0-6.0-2.44","3521124","co34174","norming","","","{""curiosity"":0,""confidence"":6}","[0,1]","../img/tt/1171tt.jpg","",""
"2052.4350004270673","","","recognition","survey-text","317","1258550","0.0-6.0-3.44","3521124","co34174","norming","","","{""guess"":""basket""}","","../img/tt/1171tt.jpg","",""
"null","../img/gs/1171gs.jpg","null","reveal","image-keyboard-response","318","1260551","0.0-6.0-4.44","3521124","co34174","norming","","","","","","",""
"null","../img/tt/1171tt.jpg","null","mooney2","image-keyboard-response","319","1262553","0.0-6.0-5.44","3521124","co34174","norming","","","","","","",""
"2409.0400002896786","","","post_reveal_questions","survey-likert","320","1264963","0.0-6.0-6.44","3521124","co34174","norming","","","{""aha"":0}","[0]","../img/tt/1171tt.jpg","",""
"null","<div style=""font-size:60px;""> </div>","null","fixation","html-keyboard-response","321","1265165","0.0-6.0-0.45","3521124","co34174","norming","","","","","","",""
"null","../img/tt/1063tt.jpg","null","mooney1","image-keyboard-response","322","1268167","0.0-6.0-1.45","3521124","co34174","norming","","","","","","",""
"4818.754999898374","","","post_mooney1_questions","survey-likert","323","1272987","0.0-6.0-2.45","3521124","co34174","norming","","","{""curiosity"":4,""confidence"":5}","[0,1]","../img/tt/1063tt.jpg","",""
"2453.8450008258224","","","recognition","survey-text","324","1275443","0.0-6.0-3.45","3521124","co34174","norming","","","{""guess"":""monkey""}","","../img/tt/1063tt.jpg","",""
"null","../img/gs/1063gs.jpg","null","reveal","image-keyboard-response","325","1277445","0.0-6.0-4.45","3521124","co34174","norming","","","","","","",""
"null","../img/tt/1063tt.jpg","null","mooney2","image-keyboard-response","326","1279447","0.0-6.0-5.45","3521124","co34174","norming","","","","","","",""
"2138.834999874234","","","post_reveal_questions","survey-likert","327","1281587","0.0-6.0-6.45","3521124","co34174","norming","","","{""aha"":6}","[0]","../img/tt/1063tt.jpg","",""
"null","<div style=""font-size:60px;""> </div>","null","fixation","html-keyboard-response","328","1281788","0.0-6.0-0.46","3521124","co34174","norming","","","","","","",""
"null","../img/tt/1224tt.jpg","null","mooney1","image-keyboard-response","329","1284790","0.0-6.0-1.46","3521124","co34174","norming","","","","","","",""
"5365.965000353754","","","post_mooney1_questions","survey-likert","330","1290157","0.0-6.0-2.46","3521124","co34174","norming","","","{""curiosity"":4,""confidence"":5}","[0,1]","../img/tt/1224tt.jpg","",""
"1769.3799994885921","","","recognition","survey-text","331","1291928","0.0-6.0-3.46","3521124","co34174","norming","","","{""guess"":""boksen""}","","../img/tt/1224tt.jpg","",""
"null","../img/gs/1224gs.jpg","null","reveal","image-keyboard-response","332","1293930","0.0-6.0-4.46","3521124","co34174","norming","","","","","","",""
"null","../img/tt/1224tt.jpg","null","mooney2","image-keyboard-response","333","1295931","0.0-6.0-5.46","3521124","co34174","norming","","","","","","",""
"2132.41000007838","","","post_reveal_questions","survey-likert","334","1298065","0.0-6.0-6.46","3521124","co34174","norming","","","{""aha"":5}","[0]","../img/tt/1224tt.jpg","",""
"null","<div style=""font-size:60px;""> </div>","null","fixation","html-keyboard-response","335","1298267","0.0-6.0-0.47","3521124","co34174","norming","","","","","","",""
"null","../img/tt/1255tt.jpg","null","mooney1","image-keyboard-response","336","1301268","0.0-6.0-1.47","3521124","co34174","norming","","","","","","",""
"3669.4650007411838","","","post_mooney1_questions","survey-likert","337","1304939","0.0-6.0-2.47","3521124","co34174","norming","","","{""curiosity"":5,""confidence"":6}","[0,1]","../img/tt/1255tt.jpg","",""
"1420.9399996325374","","","recognition","survey-text","338","1306362","0.0-6.0-3.47","3521124","co34174","norming","","","{""guess"":""haas""}","","../img/tt/1255tt.jpg","",""
"null","../img/gs/1255gs.jpg","null","reveal","image-keyboard-response","339","1308363","0.0-6.0-4.47","3521124","co34174","norming","","","","","","",""
"null","../img/tt/1255tt.jpg","null","mooney2","image-keyboard-response","340","1310365","0.0-6.0-5.47","3521124","co34174","norming","","","","","","",""
"4597.329999320209","","","post_reveal_questions","survey-likert","341","1314963","0.0-6.0-6.47","3521124","co34174","norming","","","{""aha"":1}","[0]","../img/tt/1255tt.jpg","",""
"null","<div style=""font-size:60px;""> </div>","null","fixation","html-keyboard-response","342","1315165","0.0-6.0-0.48","3521124","co34174","norming","","","","","","",""
"null","../img/tt/008tt.jpg","null","mooney1","image-keyboard-response","343","1318167","0.0-6.0-1.48","3521124","co34174","norming","","","","","","",""
"3700.389999896288","","","post_mooney1_questions","survey-likert","344","1321869","0.0-6.0-2.48","3521124","co34174","norming","","","{""curiosity"":6,""confidence"":0}","[0,1]","../img/tt/008tt.jpg","",""
"533.8700003921986","","","recognition","survey-text","345","1322405","0.0-6.0-3.48","3521124","co34174","norming","","","{""guess"":""""}","","../img/tt/008tt.jpg","",""
"null","../img/gs/008gs.jpg","null","reveal","image-keyboard-response","346","1324407","0.0-6.0-4.48","3521124","co34174","norming","","","","","","",""
"null","../img/tt/008tt.jpg","null","mooney2","image-keyboard-response","347","1326408","0.0-6.0-5.48","3521124","co34174","norming","","","","","","",""
"2643.6499999836087","","","post_reveal_questions","survey-likert","348","1329053","0.0-6.0-6.48","3521124","co34174","norming","","","{""aha"":6}","[0]","../img/tt/008tt.jpg","",""
"null","<div style=""font-size:60px;""> </div>","null","fixation","html-keyboard-response","349","1329254","0.0-6.0-0.49","3521124","co34174","norming","","","","","","",""
"null","../img/tt/032tt.jpg","null","mooney1","image-keyboard-response","350","1332256","0.0-6.0-1.49","3521124","co34174","norming","","","","","","",""
"6878.3200001344085","","","post_mooney1_questions","survey-likert","351","1339135","0.0-6.0-2.49","3521124","co34174","norming","","","{""curiosity"":5,""confidence"":2}","[0,1]","../img/tt/032tt.jpg","",""
"1376.4050006866455","","","recognition","survey-text","352","1340513","0.0-6.0-3.49","3521124","co34174","norming","","","{""guess"":""ree""}","","../img/tt/032tt.jpg","",""
"null","../img/gs/032gs.jpg","null","reveal","image-keyboard-response","353","1342516","0.0-6.0-4.49","3521124","co34174","norming","","","","","","",""
"null","../img/tt/032tt.jpg","null","mooney2","image-keyboard-response","354","1344517","0.0-6.0-5.49","3521124","co34174","norming","","","","","","",""
"2508.9950002729893","","","post_reveal_questions","survey-likert","355","1347027","0.0-6.0-6.49","3521124","co34174","norming","","","{""aha"":6}","[0]","../img/tt/032tt.jpg","",""
"null","<div style=""font-size:60px;""> </div>","null","fixation","html-keyboard-response","356","1347229","0.0-6.0-0.50","3521124","co34174","norming","","","","","","",""
"null","../img/tt/1250tt.jpg","null","mooney1","image-keyboard-response","357","1350230","0.0-6.0-1.50","3521124","co34174","norming","","","","","","",""
"5841.810000129044","","","post_mooney1_questions","survey-likert","358","1356073","0.0-6.0-2.50","3521124","co34174","norming","","","{""curiosity"":2,""confidence"":4}","[0,1]","../img/tt/1250tt.jpg","",""
"2344.825000502169","","","recognition","survey-text","359","1358420","0.0-6.0-3.50","3521124","co34174","norming","","","{""guess"":""zonnebaden""}","","../img/tt/1250tt.jpg","",""
"null","../img/gs/1250gs.jpg","null","reveal","image-keyboard-response","360","1360422","0.0-6.0-4.50","3521124","co34174","norming","","","","","","",""
"null","../img/tt/1250tt.jpg","null","mooney2","image-keyboard-response","361","1362424","0.0-6.0-5.50","3521124","co34174","norming","","","","","","",""
"3254.145000129938","","","post_reveal_questions","survey-likert","362","1365679","0.0-6.0-6.50","3521124","co34174","norming","","","{""aha"":4}","[0]","../img/tt/1250tt.jpg","",""
"null","<div style=""font-size:60px;""> </div>","null","fixation","html-keyboard-response","363","1365881","0.0-6.0-0.51","3521124","co34174","norming","","","","","","",""
"null","../img/tt/1102tt.jpg","null","mooney1","image-keyboard-response","364","1368883","0.0-6.0-1.51","3521124","co34174","norming","","","","","","",""
"3876.8500005826354","","","post_mooney1_questions","survey-likert","365","1372761","0.0-6.0-2.51","3521124","co34174","norming","","","{""curiosity"":1,""confidence"":4}","[0,1]","../img/tt/1102tt.jpg","",""
"1967.735000886023","","","recognition","survey-text","366","1374730","0.0-6.0-3.51","3521124","co34174","norming","","","{""guess"":""car""}","","../img/tt/1102tt.jpg","",""
"null","../img/gs/1102gs.jpg","null","reveal","image-keyboard-response","367","1376732","0.0-6.0-4.51","3521124","co34174","norming","","","","","","",""
"null","../img/tt/1102tt.jpg","null","mooney2","image-keyboard-response","368","1378733","0.0-6.0-5.51","3521124","co34174","norming","","","","","","",""
"1974.5650002732873","","","post_reveal_questions","survey-likert","369","1380708","0.0-6.0-6.51","3521124","co34174","norming","","","{""aha"":5}","[0]","../img/tt/1102tt.jpg","",""
"null","<div style=""font-size:60px;""> </div>","null","fixation","html-keyboard-response","370","1380910","0.0-6.0-0.52","3521124","co34174","norming","","","","","","",""
"null","../img/tt/189tt.jpg","null","mooney1","image-keyboard-response","371","1383912","0.0-6.0-1.52","3521124","co34174","norming","","","","","","",""
"3722.915000282228","","","post_mooney1_questions","survey-likert","372","1387636","0.0-6.0-2.52","3521124","co34174","norming","","","{""curiosity"":5,""confidence"":6}","[0,1]","../img/tt/189tt.jpg","",""
"1986.2400004640222","","","recognition","survey-text","373","1389625","0.0-6.0-3.52","3521124","co34174","norming","","","{""guess"":""hangmat""}","","../img/tt/189tt.jpg","",""
"null","../img/gs/189gs.jpg","null","reveal","image-keyboard-response","374","1391626","0.0-6.0-4.52","3521124","co34174","norming","","","","","","",""
"null","../img/tt/189tt.jpg","null","mooney2","image-keyboard-response","375","1393628","0.0-6.0-5.52","3521124","co34174","norming","","","","","","",""
"4155.214999802411","","","post_reveal_questions","survey-likert","376","1397784","0.0-6.0-6.52","3521124","co34174","norming","","","{""aha"":1}","[0]","../img/tt/189tt.jpg","",""
"null","<div style=""font-size:60px;""> </div>","null","fixation","html-keyboard-response","377","1397987","0.0-6.0-0.53","3521124","co34174","norming","","","","","","",""
"null","../img/tt/1118tt.jpg","null","mooney1","image-keyboard-response","378","1400988","0.0-6.0-1.53","3521124","co34174","norming","","","","","","",""
"5069.690000265837","","","post_mooney1_questions","survey-likert","379","1406058","0.0-6.0-2.53","3521124","co34174","norming","","","{""curiosity"":0,""confidence"":6}","[0,1]","../img/tt/1118tt.jpg","",""
"2438.4600007906556","","","recognition","survey-text","380","1408499","0.0-6.0-3.53","3521124","co34174","norming","","","{""guess"":""olifant""}","","../img/tt/1118tt.jpg","",""
"null","../img/gs/1118gs.jpg","null","reveal","image-keyboard-response","381","1410501","0.0-6.0-4.53","3521124","co34174","norming","","","","","","",""
"null","../img/tt/1118tt.jpg","null","mooney2","image-keyboard-response","382","1412503","0.0-6.0-5.53","3521124","co34174","norming","","","","","","",""
"1968.2350000366569","","","post_reveal_questions","survey-likert","383","1414472","0.0-6.0-6.53","3521124","co34174","norming","","","{""aha"":0}","[0]","../img/tt/1118tt.jpg","",""
"null","<div style=""font-size:60px;""> </div>","null","fixation","html-keyboard-response","384","1414673","0.0-6.0-0.54","3521124","co34174","norming","","","","","","",""
"null","../img/tt/096tt.jpg","null","mooney1","image-keyboard-response","385","1417676","0.0-6.0-1.54","3521124","co34174","norming","","","","","","",""
"2781.3449995592237","","","post_mooney1_questions","survey-likert","386","1420459","0.0-6.0-2.54","3521124","co34174","norming","","","{""curiosity"":0,""confidence"":6}","[0,1]","../img/tt/096tt.jpg","",""
"1703.2850002869964","","","recognition","survey-text","387","1422164","0.0-6.0-3.54","3521124","co34174","norming","","","{""guess"":""piano""}","","../img/tt/096tt.jpg","",""
"null","../img/gs/096gs.jpg","null","reveal","image-keyboard-response","388","1424166","0.0-6.0-4.54","3521124","co34174","norming","","","","","","",""
"null","../img/tt/096tt.jpg","null","mooney2","image-keyboard-response","389","1426167","0.0-6.0-5.54","3521124","co34174","norming","","","","","","",""
"2158.045000396669","","","post_reveal_questions","survey-likert","390","1428326","0.0-6.0-6.54","3521124","co34174","norming","","","{""aha"":1}","[0]","../img/tt/096tt.jpg","",""
"null","<div style=""font-size:60px;""> </div>","null","fixation","html-keyboard-response","391","1428528","0.0-6.0-0.55","3521124","co34174","norming","","","","","","",""
"null","../img/tt/084tt.jpg","null","mooney1","image-keyboard-response","392","1431530","0.0-6.0-1.55","3521124","co34174","norming","","","","","","",""
"5418.944999575615","","","post_mooney1_questions","survey-likert","393","1436950","0.0-6.0-2.55","3521124","co34174","norming","","","{""curiosity"":4,""confidence"":5}","[0,1]","../img/tt/084tt.jpg","",""
"1273.9949999377131","","","recognition","survey-text","394","1438226","0.0-6.0-3.55","3521124","co34174","norming","","","{""guess"":""duck""}","","../img/tt/084tt.jpg","",""
"null","../img/gs/084gs.jpg","null","reveal","image-keyboard-response","395","1440228","0.0-6.0-4.55","3521124","co34174","norming","","","","","","",""
"null","../img/tt/084tt.jpg","null","mooney2","image-keyboard-response","396","1442229","0.0-6.0-5.55","3521124","co34174","norming","","","","","","",""
"1693.6750002205372","","","post_reveal_questions","survey-likert","397","1443924","0.0-6.0-6.55","3521124","co34174","norming","","","{""aha"":2}","[0]","../img/tt/084tt.jpg","",""
"null","<div style=""font-size:60px;""> </div>","null","fixation","html-keyboard-response","398","1444125","0.0-6.0-0.56","3521124","co34174","norming","","","","","","",""
"null","../img/tt/580tt.jpg","null","mooney1","image-keyboard-response","399","1447128","0.0-6.0-1.56","3521124","co34174","norming","","","","","","",""
"5855.405000038445","","","post_mooney1_questions","survey-likert","400","1452984","0.0-6.0-2.56","3521124","co34174","norming","","","{""curiosity"":4,""confidence"":1}","[0,1]","../img/tt/580tt.jpg","",""
"2205.049999989569","","","recognition","survey-text","401","1455191","0.0-6.0-3.56","3521124","co34174","norming","","","{""guess"":""monkey""}","","../img/tt/580tt.jpg","",""
"null","../img/gs/580gs.jpg","null","reveal","image-keyboard-response","402","1457192","0.0-6.0-4.56","3521124","co34174","norming","","","","","","",""
"null","../img/tt/580tt.jpg","null","mooney2","image-keyboard-response","403","1459193","0.0-6.0-5.56","3521124","co34174","norming","","","","","","",""
"1991.3499997928739","","","post_reveal_questions","survey-likert","404","1461186","0.0-6.0-6.56","3521124","co34174","norming","","","{""aha"":6}","[0]","../img/tt/580tt.jpg","",""
"null","<div style=""font-size:60px;""> </div>","null","fixation","html-keyboard-response","405","1461388","0.0-6.0-0.57","3521124","co34174","norming","","","","","","",""
"null","../img/tt/098tt.jpg","null","mooney1","image-keyboard-response","406","1464389","0.0-6.0-1.57","3521124","co34174","norming","","","","","","",""
"5825.675000436604","","","post_mooney1_questions","survey-likert","407","1470216","0.0-6.0-2.57","3521124","co34174","norming","","","{""curiosity"":3,""confidence"":1}","[0,1]","../img/tt/098tt.jpg","",""
"1587.3699998483062","","","recognition","survey-text","408","1471805","0.0-6.0-3.57","3521124","co34174","norming","","","{""guess"":""war""}","","../img/tt/098tt.jpg","",""
"null","../img/gs/098gs.jpg","null","reveal","image-keyboard-response","409","1473808","0.0-6.0-4.57","3521124","co34174","norming","","","","","","",""
"null","../img/tt/098tt.jpg","null","mooney2","image-keyboard-response","410","1475809","0.0-6.0-5.57","3521124","co34174","norming","","","","","","",""
"1761.3650001585484","","","post_reveal_questions","survey-likert","411","1477572","0.0-6.0-6.57","3521124","co34174","norming","","","{""aha"":6}","[0]","../img/tt/098tt.jpg","",""
"null","<div style=""font-size:60px;""> </div>","null","fixation","html-keyboard-response","412","1477774","0.0-6.0-0.58","3521124","co34174","norming","","","","","","",""
"null","../img/tt/442tt.jpg","null","mooney1","image-keyboard-response","413","1480775","0.0-6.0-1.58","3521124","co34174","norming","","","","","","",""
"3947.3700001835823","","","post_mooney1_questions","survey-likert","414","1484724","0.0-6.0-2.58","3521124","co34174","norming","","","{""curiosity"":6,""confidence"":0}","[0,1]","../img/tt/442tt.jpg","",""
"627.9100002720952","","","recognition","survey-text","415","1485354","0.0-6.0-3.58","3521124","co34174","norming","","","{""guess"":""""}","","../img/tt/442tt.jpg","",""
"null","../img/gs/442gs.jpg","null","reveal","image-keyboard-response","416","1487356","0.0-6.0-4.58","3521124","co34174","norming","","","","","","",""
"null","../img/tt/442tt.jpg","null","mooney2","image-keyboard-response","417","1489357","0.0-6.0-5.58","3521124","co34174","norming","","","","","","",""
"1965.3850002214313","","","post_reveal_questions","survey-likert","418","1491324","0.0-6.0-6.58","3521124","co34174","norming","","","{""aha"":2}","[0]","../img/tt/442tt.jpg","",""
"null","<div style=""font-size:60px;""> </div>","null","fixation","html-keyboard-response","419","1491526","0.0-6.0-0.59","3521124","co34174","norming","","","","","","",""
"null","../img/tt/1235tt.jpg","null","mooney1","image-keyboard-response","420","1494528","0.0-6.0-1.59","3521124","co34174","norming","","","","","","",""
"5816.835000179708","","","post_mooney1_questions","survey-likert","421","1500347","0.0-6.0-2.59","3521124","co34174","norming","","","{""curiosity"":4,""confidence"":5}","[0,1]","../img/tt/1235tt.jpg","",""
"2741.2799997255206","","","recognition","survey-text","422","1503090","0.0-6.0-3.59","3521124","co34174","norming","","","{""guess"":""struisvogel""}","","../img/tt/1235tt.jpg","",""
"null","../img/gs/1235gs.jpg","null","reveal","image-keyboard-response","423","1505092","0.0-6.0-4.59","3521124","co34174","norming","","","","","","",""
"null","../img/tt/1235tt.jpg","null","mooney2","image-keyboard-response","424","1507094","0.0-6.0-5.59","3521124","co34174","norming","","","","","","",""
"2909.3599999323487","","","post_reveal_questions","survey-likert","425","1510005","0.0-6.0-6.59","3521124","co34174","norming","","","{""aha"":1}","[0]","../img/tt/1235tt.jpg","",""
"null","<div style=""font-size:60px;""> </div>","null","fixation","html-keyboard-response","426","1510206","0.0-6.0-0.60","3521124","co34174","norming","","","","","","",""
"null","../img/tt/111tt.jpg","null","mooney1","image-keyboard-response","427","1513208","0.0-6.0-1.60","3521124","co34174","norming","","","","","","",""
"5599.479999393225","","","post_mooney1_questions","survey-likert","428","1518809","0.0-6.0-2.60","3521124","co34174","norming","","","{""curiosity"":0,""confidence"":6}","[0,1]","../img/tt/111tt.jpg","",""
"2913.3899994194508","","","recognition","survey-text","429","1521725","0.0-6.0-3.60","3521124","co34174","norming","","","{""guess"":""douche""}","","../img/tt/111tt.jpg","",""
"null","../img/gs/111gs.jpg","null","reveal","image-keyboard-response","430","1523727","0.0-6.0-4.60","3521124","co34174","norming","","","","","","",""
"null","../img/tt/111tt.jpg","null","mooney2","image-keyboard-response","431","1525729","0.0-6.0-5.60","3521124","co34174","norming","","","","","","",""
"1999.1150004789233","","","post_reveal_questions","survey-likert","432","1527729","0.0-6.0-6.60","3521124","co34174","norming","","","{""aha"":0}","[0]","../img/tt/111tt.jpg","",""
"null","<div style=""font-size:60px;""> </div>","null","fixation","html-keyboard-response","433","1527930","0.0-6.0-0.61","3521124","co34174","norming","","","","","","",""
"null","../img/tt/1097tt.jpg","null","mooney1","image-keyboard-response","434","1530932","0.0-6.0-1.61","3521124","co34174","norming","","","","","","",""
"4787.704999558628","","","post_mooney1_questions","survey-likert","435","1535721","0.0-6.0-2.61","3521124","co34174","norming","","","{""curiosity"":0,""confidence"":6}","[0,1]","../img/tt/1097tt.jpg","",""
"2927.079999819398","","","recognition","survey-text","436","1538650","0.0-6.0-3.61","3521124","co34174","norming","","","{""guess"":""hockey""}","","../img/tt/1097tt.jpg","",""
"null","../img/gs/1097gs.jpg","null","reveal","image-keyboard-response","437","1540651","0.0-6.0-4.61","3521124","co34174","norming","","","","","","",""
"null","../img/tt/1097tt.jpg","null","mooney2","image-keyboard-response","438","1542652","0.0-6.0-5.61","3521124","co34174","norming","","","","","","",""
"3973.234999924898","","","post_reveal_questions","survey-likert","439","1546627","0.0-6.0-6.61","3521124","co34174","norming","","","{""aha"":4}","[0]","../img/tt/1097tt.jpg","",""
"null","<div style=""font-size:60px;""> </div>","null","fixation","html-keyboard-response","440","1546828","0.0-6.0-0.62","3521124","co34174","norming","","","","","","",""
"null","../img/tt/123tt.jpg","null","mooney1","image-keyboard-response","441","1549829","0.0-6.0-1.62","3521124","co34174","norming","","","","","","",""
"7616.100000217557","","","post_mooney1_questions","survey-likert","442","1557447","0.0-6.0-2.62","3521124","co34174","norming","","","{""curiosity"":1,""confidence"":0}","[0,1]","../img/tt/123tt.jpg","",""
"719.9399992823601","","","recognition","survey-text","443","1558169","0.0-6.0-3.62","3521124","co34174","norming","","","{""guess"":""""}","","../img/tt/123tt.jpg","",""
"null","../img/gs/123gs.jpg","null","reveal","image-keyboard-response","444","1560170","0.0-6.0-4.62","3521124","co34174","norming","","","","","","",""
"null","../img/tt/123tt.jpg","null","mooney2","image-keyboard-response","445","1562169","0.0-6.0-5.62","3521124","co34174","norming","","","","","","",""
"2131.184999831021","","","post_reveal_questions","survey-likert","446","1564302","0.0-6.0-6.62","3521124","co34174","norming","","","{""aha"":1}","[0]","../img/tt/123tt.jpg","",""
"null","<div style=""font-size:60px;""> </div>","null","fixation","html-keyboard-response","447","1564503","0.0-6.0-0.63","3521124","co34174","norming","","","","","","",""
"null","../img/tt/436tt.jpg","null","mooney1","image-keyboard-response","448","1567505","0.0-6.0-1.63","3521124","co34174","norming","","","","","","",""
"3842.025000602007","","","post_mooney1_questions","survey-likert","449","1571348","0.0-6.0-2.63","3521124","co34174","norming","","","{""curiosity"":4,""confidence"":2}","[0,1]","../img/tt/436tt.jpg","",""
"1824.860000051558","","","recognition","survey-text","450","1573174","0.0-6.0-3.63","3521124","co34174","norming","","","{""guess"":""zebra""}","","../img/tt/436tt.jpg","",""
"null","../img/gs/436gs.jpg","null","reveal","image-keyboard-response","451","1575176","0.0-6.0-4.63","3521124","co34174","norming","","","","","","",""
"null","../img/tt/436tt.jpg","null","mooney2","image-keyboard-response","452","1577178","0.0-6.0-5.63","3521124","co34174","norming","","","","","","",""
"3812.3399997130036","","","post_reveal_questions","survey-likert","453","1580992","0.0-6.0-6.63","3521124","co34174","norming","","","{""aha"":0}","[0]","../img/tt/436tt.jpg","",""
"null","<div style=""font-size:60px;""> </div>","null","fixation","html-keyboard-response","454","1581193","0.0-6.0-0.64","3521124","co34174","norming","","","","","","",""
"null","../img/tt/1353tt.jpg","null","mooney1","image-keyboard-response","455","1584195","0.0-6.0-1.64","3521124","co34174","norming","","","","","","",""
"5715.764999389648","","","post_mooney1_questions","survey-likert","456","1589912","0.0-6.0-2.64","3521124","co34174","norming","","","{""curiosity"":4,""confidence"":2}","[0,1]","../img/tt/1353tt.jpg","",""
"1954.3449999764562","","","recognition","survey-text","457","1591868","0.0-6.0-3.64","3521124","co34174","norming","","","{""guess"":""brillen""}","","../img/tt/1353tt.jpg","",""
"null","../img/gs/1353gs.jpg","null","reveal","image-keyboard-response","458","1593869","0.0-6.0-4.64","3521124","co34174","norming","","","","","","",""
"null","../img/tt/1353tt.jpg","null","mooney2","image-keyboard-response","459","1595871","0.0-6.0-5.64","3521124","co34174","norming","","","","","","",""
"3901.300000026822","","","post_reveal_questions","survey-likert","460","1599774","0.0-6.0-6.64","3521124","co34174","norming","","","{""aha"":2}","[0]","../img/tt/1353tt.jpg","",""
"null","<div style=""font-size:60px;""> </div>","null","fixation","html-keyboard-response","461","1599975","0.0-6.0-0.65","3521124","co34174","norming","","","","","","",""
"null","../img/tt/064tt.jpg","null","mooney1","image-keyboard-response","462","1602977","0.0-6.0-1.65","3521124","co34174","norming","","","","","","",""
"3707.6150001958013","","","post_mooney1_questions","survey-likert","463","1606686","0.0-6.0-2.65","3521124","co34174","norming","","","{""curiosity"":0,""confidence"":6}","[0,1]","../img/tt/064tt.jpg","",""
"2221.245000138879","","","recognition","survey-text","464","1608909","0.0-6.0-3.65","3521124","co34174","norming","","","{""guess"":""schildpad""}","","../img/tt/064tt.jpg","",""
"null","../img/gs/064gs.jpg","null","reveal","image-keyboard-response","465","1610910","0.0-6.0-4.65","3521124","co34174","norming","","","","","","",""
"null","../img/tt/064tt.jpg","null","mooney2","image-keyboard-response","466","1612911","0.0-6.0-5.65","3521124","co34174","norming","","","","","","",""
"2817.540000192821","","","post_reveal_questions","survey-likert","467","1615730","0.0-6.0-6.65","3521124","co34174","norming","","","{""aha"":0}","[0]","../img/tt/064tt.jpg","",""
"null","<div style=""font-size:60px;""> </div>","null","fixation","html-keyboard-response","468","1615932","0.0-6.0-0.66","3521124","co34174","norming","","","","","","",""
"null","../img/tt/1024tt.jpg","null","mooney1","image-keyboard-response","469","1618934","0.0-6.0-1.66","3521124","co34174","norming","","","","","","",""
"2724.4600001722574","","","post_mooney1_questions","survey-likert","470","1621660","0.0-6.0-2.66","3521124","co34174","norming","","","{""curiosity"":0,""confidence"":6}","[0,1]","../img/tt/1024tt.jpg","",""
"1779.3700005859137","","","recognition","survey-text","471","1623441","0.0-6.0-3.66","3521124","co34174","norming","","","{""guess"":""tennis""}","","../img/tt/1024tt.jpg","",""
"null","../img/gs/1024gs.jpg","null","reveal","image-keyboard-response","472","1625442","0.0-6.0-4.66","3521124","co34174","norming","","","","","","",""
"null","../img/tt/1024tt.jpg","null","mooney2","image-keyboard-response","473","1627443","0.0-6.0-5.66","3521124","co34174","norming","","","","","","",""
"2380.9399995952845","","","post_reveal_questions","survey-likert","474","1629826","0.0-6.0-6.66","3521124","co34174","norming","","","{""aha"":0}","[0]","../img/tt/1024tt.jpg","",""
"null","<div style=""font-size:60px;""> </div>","null","fixation","html-keyboard-response","475","1630028","0.0-6.0-0.67","3521124","co34174","norming","","","","","","",""
"null","../img/tt/1199tt.jpg","null","mooney1","image-keyboard-response","476","1633030","0.0-6.0-1.67","3521124","co34174","norming","","","","","","",""
"6080.865000374615","","","post_mooney1_questions","survey-likert","477","1639112","0.0-6.0-2.67","3521124","co34174","norming","","","{""curiosity"":5,""confidence"":1}","[0,1]","../img/tt/1199tt.jpg","",""
"603.4450000151992","","","recognition","survey-text","478","1639717","0.0-6.0-3.67","3521124","co34174","norming","","","{""guess"":""""}","","../img/tt/1199tt.jpg","",""
"null","../img/gs/1199gs.jpg","null","reveal","image-keyboard-response","479","1641720","0.0-6.0-4.67","3521124","co34174","norming","","","","","","",""
"null","../img/tt/1199tt.jpg","null","mooney2","image-keyboard-response","480","1643721","0.0-6.0-5.67","3521124","co34174","norming","","","","","","",""
"1833.8849991559982","","","post_reveal_questions","survey-likert","481","1645556","0.0-6.0-6.67","3521124","co34174","norming","","","{""aha"":6}","[0]","../img/tt/1199tt.jpg","",""
"null","<div style=""font-size:60px;""> </div>","null","fixation","html-keyboard-response","482","1645759","0.0-6.0-0.68","3521124","co34174","norming","","","","","","",""
"null","../img/tt/1261tt.jpg","null","mooney1","image-keyboard-response","483","1648761","0.0-6.0-1.68","3521124","co34174","norming","","","","","","",""
"6647.765000350773","","","post_mooney1_questions","survey-likert","484","1655410","0.0-6.0-2.68","3521124","co34174","norming","","","{""curiosity"":5,""confidence"":2}","[0,1]","../img/tt/1261tt.jpg","",""
"948.2500003650784","","","recognition","survey-text","485","1656360","0.0-6.0-3.68","3521124","co34174","norming","","","{""guess"":""dog""}","","../img/tt/1261tt.jpg","",""
"null","../img/gs/1261gs.jpg","null","reveal","image-keyboard-response","486","1658362","0.0-6.0-4.68","3521124","co34174","norming","","","","","","",""
"null","../img/tt/1261tt.jpg","null","mooney2","image-keyboard-response","487","1660365","0.0-6.0-5.68","3521124","co34174","norming","","","","","","",""
"2220.0400000438094","","","post_reveal_questions","survey-likert","488","1662586","0.0-6.0-6.68","3521124","co34174","norming","","","{""aha"":5}","[0]","../img/tt/1261tt.jpg","",""
"null","<div style=""font-size:60px;""> </div>","null","fixation","html-keyboard-response","489","1662787","0.0-6.0-0.69","3521124","co34174","norming","","","","","","",""
"null","../img/tt/300tt.jpg","null","mooney1","image-keyboard-response","490","1665789","0.0-6.0-1.69","3521124","co34174","norming","","","","","","",""
"4561.410000547767","","","post_mooney1_questions","survey-likert","491","1670352","0.0-6.0-2.69","3521124","co34174","norming","","","{""curiosity"":4,""confidence"":2}","[0,1]","../img/tt/300tt.jpg","",""
"2007.0550004020333","","","recognition","survey-text","492","1672361","0.0-6.0-3.69","3521124","co34174","norming","","","{""guess"":""wrestle""}","","../img/tt/300tt.jpg","",""
"null","../img/gs/300gs.jpg","null","reveal","image-keyboard-response","493","1674363","0.0-6.0-4.69","3521124","co34174","norming","","","","","","",""
"null","../img/tt/300tt.jpg","null","mooney2","image-keyboard-response","494","1676366","0.0-6.0-5.69","3521124","co34174","norming","","","","","","",""
"2032.9799996688962","","","post_reveal_questions","survey-likert","495","1678400","0.0-6.0-6.69","3521124","co34174","norming","","","{""aha"":6}","[0]","../img/tt/300tt.jpg","",""
"null","<div style=""font-size:60px;""> </div>","null","fixation","html-keyboard-response","496","1678602","0.0-6.0-0.70","3521124","co34174","norming","","","","","","",""
"null","../img/tt/1239tt.jpg","null","mooney1","image-keyboard-response","497","1681604","0.0-6.0-1.70","3521124","co34174","norming","","","","","","",""
"5886.289999820292","","","post_mooney1_questions","survey-likert","498","1687492","0.0-6.0-2.70","3521124","co34174","norming","","","{""curiosity"":6,""confidence"":0}","[0,1]","../img/tt/1239tt.jpg","",""
"822.0899999141693","","","recognition","survey-text","499","1688316","0.0-6.0-3.70","3521124","co34174","norming","","","{""guess"":""""}","","../img/tt/1239tt.jpg","",""
"null","../img/gs/1239gs.jpg","null","reveal","image-keyboard-response","500","1690319","0.0-6.0-4.70","3521124","co34174","norming","","","","","","",""
"null","../img/tt/1239tt.jpg","null","mooney2","image-keyboard-response","501","1692320","0.0-6.0-5.70","3521124","co34174","norming","","","","","","",""
"1841.0949995741248","","","post_reveal_questions","survey-likert","502","1694163","0.0-6.0-6.70","3521124","co34174","norming","","","{""aha"":6}","[0]","../img/tt/1239tt.jpg","",""
"null","<div style=""font-size:60px;""> </div>","null","fixation","html-keyboard-response","503","1694365","0.0-6.0-0.71","3521124","co34174","norming","","","","","","",""
"null","../img/tt/1243tt.jpg","null","mooney1","image-keyboard-response","504","1697367","0.0-6.0-1.71","3521124","co34174","norming","","","","","","",""
"6639.9050001055","","","post_mooney1_questions","survey-likert","505","1704009","0.0-6.0-2.71","3521124","co34174","norming","","","{""curiosity"":5,""confidence"":1}","[0,1]","../img/tt/1243tt.jpg","",""
"6698.379999957979","","","recognition","survey-text","506","1710709","0.0-6.0-3.71","3521124","co34174","norming","","","{""guess"":""kooivechter""}","","../img/tt/1243tt.jpg","",""
"null","../img/gs/1243gs.jpg","null","reveal","image-keyboard-response","507","1712710","0.0-6.0-4.71","3521124","co34174","norming","","","","","","",""
"null","../img/tt/1243tt.jpg","null","mooney2","image-keyboard-response","508","1714711","0.0-6.0-5.71","3521124","co34174","norming","","","","","","",""
"26626.424999907613","","","post_reveal_questions","survey-likert","509","1741338","0.0-6.0-6.71","3521124","co34174","norming","","","{""aha"":6}","[0]","../img/tt/1243tt.jpg","",""
"null","<div style=""font-size:60px;""> </div>","null","fixation","html-keyboard-response","510","1741540","0.0-6.0-0.72","3521124","co34174","norming","","","","","","",""
"null","../img/tt/063tt.jpg","null","mooney1","image-keyboard-response","511","1744543","0.0-6.0-1.72","3521124","co34174","norming","","","","","","",""
"5847.620000131428","","","post_mooney1_questions","survey-likert","512","1750391","0.0-6.0-2.72","3521124","co34174","norming","","","{""curiosity"":4,""confidence"":2}","[0,1]","../img/tt/063tt.jpg","",""
"2845.435000024736","","","recognition","survey-text","513","1753238","0.0-6.0-3.72","3521124","co34174","norming","","","{""guess"":""typemachine""}","","../img/tt/063tt.jpg","",""
"null","../img/gs/063gs.jpg","null","reveal","image-keyboard-response","514","1755240","0.0-6.0-4.72","3521124","co34174","norming","","","","","","",""
"null","../img/tt/063tt.jpg","null","mooney2","image-keyboard-response","515","1757243","0.0-6.0-5.72","3521124","co34174","norming","","","","","","",""
"4974.899999797344","","","post_reveal_questions","survey-likert","516","1762219","0.0-6.0-6.72","3521124","co34174","norming","","","{""aha"":5}","[0]","../img/tt/063tt.jpg","",""
"null","<div style=""font-size:60px;""> </div>","null","fixation","html-keyboard-response","517","1762421","0.0-6.0-0.73","3521124","co34174","norming","","","","","","",""
"null","../img/tt/1126tt.jpg","null","mooney1","image-keyboard-response","518","1765423","0.0-6.0-1.73","3521124","co34174","norming","","","","","","",""
"4546.8700006604195","","","post_mooney1_questions","survey-likert","519","1769971","0.0-6.0-2.73","3521124","co34174","norming","","","{""curiosity"":6,""confidence"":0}","[0,1]","../img/tt/1126tt.jpg","",""
"1814.5599998533726","","","recognition","survey-text","520","1771787","0.0-6.0-3.73","3521124","co34174","norming","","","{""guess"":""""}","","../img/tt/1126tt.jpg","",""
"null","../img/gs/1126gs.jpg","null","reveal","image-keyboard-response","521","1773788","0.0-6.0-4.73","3521124","co34174","norming","","","","","","",""
"null","../img/tt/1126tt.jpg","null","mooney2","image-keyboard-response","522","1775789","0.0-6.0-5.73","3521124","co34174","norming","","","","","","",""
"2196.759999729693","","","post_reveal_questions","survey-likert","523","1777987","0.0-6.0-6.73","3521124","co34174","norming","","","{""aha"":6}","[0]","../img/tt/1126tt.jpg","",""
"null","<div style=""font-size:60px;""> </div>","null","fixation","html-keyboard-response","524","1778188","0.0-6.0-0.74","3521124","co34174","norming","","","","","","",""
"null","../img/tt/055tt.jpg","null","mooney1","image-keyboard-response","525","1781190","0.0-6.0-1.74","3521124","co34174","norming","","","","","","",""
"5774.2999996989965","","","post_mooney1_questions","survey-likert","526","1786966","0.0-6.0-2.74","3521124","co34174","norming","","","{""curiosity"":4,""confidence"":2}","[0,1]","../img/tt/055tt.jpg","",""
"5046.47499974817","","","recognition","survey-text","527","1792015","0.0-6.0-3.74","3521124","co34174","norming","","","{""guess"":""discuswerpen""}","","../img/tt/055tt.jpg","",""
"null","../img/gs/055gs.jpg","null","reveal","image-keyboard-response","528","1794016","0.0-6.0-4.74","3521124","co34174","norming","","","","","","",""
"null","../img/tt/055tt.jpg","null","mooney2","image-keyboard-response","529","1796018","0.0-6.0-5.74","3521124","co34174","norming","","","","","","",""
"2647.56500069052","","","post_reveal_questions","survey-likert","530","1798666","0.0-6.0-6.74","3521124","co34174","norming","","","{""aha"":0}","[0]","../img/tt/055tt.jpg","",""
"null","<div style=""font-size:60px;""> </div>","null","fixation","html-keyboard-response","531","1798867","0.0-6.0-0.75","3521124","co34174","norming","","","","","","",""
"null","../img/tt/590tt.jpg","null","mooney1","image-keyboard-response","532","1801868","0.0-6.0-1.75","3521124","co34174","norming","","","","","","",""
"5868.789999745786","","","post_mooney1_questions","survey-likert","533","1807739","0.0-6.0-2.75","3521124","co34174","norming","","","{""curiosity"":6,""confidence"":1}","[0,1]","../img/tt/590tt.jpg","",""
"1333.5400000214577","","","recognition","survey-text","534","1809074","0.0-6.0-3.75","3521124","co34174","norming","","","{""guess"":""table""}","","../img/tt/590tt.jpg","",""
"null","../img/gs/590gs.jpg","null","reveal","image-keyboard-response","535","1811076","0.0-6.0-4.75","3521124","co34174","norming","","","","","","",""
"null","../img/tt/590tt.jpg","null","mooney2","image-keyboard-response","536","1813078","0.0-6.0-5.75","3521124","co34174","norming","","","","","","",""
"4413.544999435544","","","post_reveal_questions","survey-likert","537","1817492","0.0-6.0-6.75","3521124","co34174","norming","","","{""aha"":3}","[0]","../img/tt/590tt.jpg","",""
"null","<div style=""font-size:60px;""> </div>","null","fixation","html-keyboard-response","538","1817694","0.0-6.0-0.76","3521124","co34174","norming","","","","","","",""
"null","../img/tt/036tt.jpg","null","mooney1","image-keyboard-response","539","1820695","0.0-6.0-1.76","3521124","co34174","norming","","","","","","",""
"6419.289999641478","","","post_mooney1_questions","survey-likert","540","1827116","0.0-6.0-2.76","3521124","co34174","norming","","","{""curiosity"":6,""confidence"":4}","[0,1]","../img/tt/036tt.jpg","",""
"2454.2350005358458","","","recognition","survey-text","541","1829572","0.0-6.0-3.76","3521124","co34174","norming","","","{""guess"":""butterfly""}","","../img/tt/036tt.jpg","",""
"null","../img/gs/036gs.jpg","null","reveal","image-keyboard-response","542","1831575","0.0-6.0-4.76","3521124","co34174","norming","","","","","","",""
"null","../img/tt/036tt.jpg","null","mooney2","image-keyboard-response","543","1833577","0.0-6.0-5.76","3521124","co34174","norming","","","","","","",""
"3033.4149999544024","","","post_reveal_questions","survey-likert","544","1836612","0.0-6.0-6.76","3521124","co34174","norming","","","{""aha"":0}","[0]","../img/tt/036tt.jpg","",""
"null","<div style=""font-size:60px;""> </div>","null","fixation","html-keyboard-response","545","1836813","0.0-6.0-0.77","3521124","co34174","norming","","","","","","",""
"null","../img/tt/1200tt.jpg","null","mooney1","image-keyboard-response","546","1839815","0.0-6.0-1.77","3521124","co34174","norming","","","","","","",""
"6684.444999322295","","","post_mooney1_questions","survey-likert","547","1846501","0.0-6.0-2.77","3521124","co34174","norming","","","{""curiosity"":3,""confidence"":2}","[0,1]","../img/tt/1200tt.jpg","",""
"5191.439999267459","","","recognition","survey-text","548","1851694","0.0-6.0-3.77","3521124","co34174","norming","","","{""guess"":""bank om op te zitten""}","","../img/tt/1200tt.jpg","",""
"null","../img/gs/1200gs.jpg","null","reveal","image-keyboard-response","549","1853696","0.0-6.0-4.77","3521124","co34174","norming","","","","","","",""
"null","../img/tt/1200tt.jpg","null","mooney2","image-keyboard-response","550","1855697","0.0-6.0-5.77","3521124","co34174","norming","","","","","","",""
"3049.4050001725554","","","post_reveal_questions","survey-likert","551","1858747","0.0-6.0-6.77","3521124","co34174","norming","","","{""aha"":2}","[0]","../img/tt/1200tt.jpg","",""
