"rt","stimulus","key_press","test_part","trial_type","trial_index","time_elapsed","internal_node_id","totalTime","subject","experiment_name","button_pressed","success","responses","question_order","currentStim","old","correct"
"11331.900000001042","Welcome to the experiment. This is an online experiment so please don't close the tab/window until we say goodbye.  Press any key to begin.","13","instructions","html-keyboard-response","0","11349","0.0-0.0","2629842","co37960","norming","","","","","","",""
"44006.26999999804","<div style='word-wrap: break-word; width: 900px'><h3>Please consider this information carefully before deciding whether to participate in this research</h3><ul style='text-align: left; font-size: .8em;'><li><b>Purpose of the research</b>: To examine how people process images.</li><li><b>What you will do in this research</b>:  Stimuli (images) will be presented on the computer and you will be asked different questions about them.</li><li><b>Time required</b>: Participation will take between 45 and 60 minutes to complete.</li><li><b>Risks</b>:  There are no anticipated risks associated with participating in this study. The effects of participating should be comparable to those you would experience from viewing a computer monitor for 30 minutes and using a mouse or keyboard.</li><li><b>Benefits</b>:  This study provides no benefits to you individually except for the credit. The study provides important information about the nature of perception and learning.</li><li><b>Confidentiality</b>:  Your participation in this study will remain confidential. No personally identifiable information will be associated with your data. Your de-identified data may be shared with other researchers and used in future projects.</li><li><b>Participation and withdrawal</b>:  Your participation in this study is completely voluntary and you may refuse to participate or you may choose to withdraw at any time without penalty.</li><li><b>How to contact the researchers</b>: If you have questions or concerns about your participation or payment, or want to request a summary of research findings, please contact Sander Van de Cruys (KU Leuven), at sander.vandecruys@kuleuven.be.</li></ul><p>The nature and purpose of this research have been sufficiently explained and I agree to participate in this study.  I understand that I am free to withdraw at any time without incurring any penalty.</p><p>Please consent by clicking the button below to continue. Otherwise, please exit the study at this time.</p></div>","","instructions","html-button-response","1","55363","0.0-1.0","2629842","co37960","norming","0","","","","","",""
"","","","instructions","fullscreen","2","60924","0.0-2.0","2629842","co37960","norming","","true","","","","",""
"61884.22499999797","","","sona","survey-html-form","3","122813","0.0-3.0","2629842","co37960","norming","","","[{""name"":""sonaid"",""value"":""37960""},{""name"":""debrief"",""value"":""no""},{""name"":""datajoin"",""value"":""yes""}]","","","",""
"63115.24499999723","<div style='word-wrap: break-word; width: 900px'><h3>Instructions</h3><p>This experiment will have 3 parts. In the first part you will see a series of distorted images like the one below on the left. As you can see in the righthand image, the distorted images are derived from actual photographs. In what follows, you will <strong>briefly</strong> be presented with <strong>only</strong> the distorted image.</p> <div style='float: left; margin-right: 20px;'><img src='../img/018tt.jpg' height='250' width='250'></img></div><div style='float: right; margin-left: 20px;'><img src='../img/018gs.jpg' height='250' width='250'></img></div><p>Subsequently you will be asked a few questions about the image: One question on how <strong>curious</strong> you are about the solution and one on how <strong>confident</strong> you are that you know the solution.</p>Next, we ask you to make a guess on what is in the image. Note that it is OK to name just the <strong>basic level category</strong>. For example when you see a parrot in the image, 'parrot' will obviously be a correct answer but also correct is 'bird'. However, 'animal' will <strong>not</strong> be counted as a correct response. For the example above, 'rose' would be correct or 'flower', but not 'plant'. When soccer players are depicted, 'soccer', 'football', 'soccer players' will be correct, but not 'humans', 'outdoors', or 'sports'. You do not need to describe the image in full, just name the main object in it <strong>in one or two words</strong>. All images depict objects from one of the following broad level categories: animals, inanimate objects, plants, sports, vehicles, and food. Recognizing means knowing <strong>more</strong> than these broad labels for a given image. But we always encourage you to <strong>make a guess</strong> if you can. Note that you are allowed to use <strong>Dutch and English</strong> in your answers, whatever comes easiest for you.</p><p>Press any key to continue.</p></div>","32","instructions","html-keyboard-response","4","185926","0.0-4.0","2629842","co37960","norming","","","","","","",""
"84446.04499999696","<div style='word-wrap: break-word; width: 900px'><h3>Instructions</h3> <p>Next, the solution image will be revealed to you and you'll be asked to indicate how strong your <strong>aha-experience</strong> was after seeing the solution. This describes the positive feeling of the 'click' you sometimes experience, when the pieces of the 'puzzle' fall together and you suddenly have 'insight' in the image.</p><img src='aha.jpg' height='188' width='250'></img><p>Note that there are no right or wrong answers. We are interested in what <strong>you</strong> see in the image and how <strong>you</strong> feel about it.</p><p>Press any key to start the experiment.</p></div>","32","instructions","html-keyboard-response","5","270377","0.0-5.0","2629842","co37960","norming","","","","","","",""
"null","<div style=""font-size:60px;""> </div>","null","fixation","html-keyboard-response","6","270586","0.0-6.0-0.0","2629842","co37960","norming","","","","","","",""
"null","../img/tt/412tt.jpg","null","mooney1","image-keyboard-response","7","273599","0.0-6.0-1.0","2629842","co37960","norming","","","","","","",""
"7045.459999997518","","","post_mooney1_questions","survey-likert","8","280649","0.0-6.0-2.0","2629842","co37960","norming","","","{""curiosity"":5,""confidence"":1}","[0,1]","../img/tt/412tt.jpg","",""
"7829.444999999367","","","recognition","survey-text","9","288480","0.0-6.0-3.0","2629842","co37960","norming","","","{""guess"":""a man ""}","","../img/tt/412tt.jpg","",""
"null","../img/gs/412gs.jpg","null","reveal","image-keyboard-response","10","290486","0.0-6.0-4.0","2629842","co37960","norming","","","","","","",""
"null","../img/tt/412tt.jpg","null","mooney2","image-keyboard-response","11","292488","0.0-6.0-5.0","2629842","co37960","norming","","","","","","",""
"3159.7949999995762","","","post_reveal_questions","survey-likert","12","295648","0.0-6.0-6.0","2629842","co37960","norming","","","{""aha"":5}","[0]","../img/tt/412tt.jpg","",""
"null","<div style=""font-size:60px;""> </div>","null","fixation","html-keyboard-response","13","295858","0.0-6.0-0.1","2629842","co37960","norming","","","","","","",""
"null","../img/tt/481tt.jpg","null","mooney1","image-keyboard-response","14","298865","0.0-6.0-1.1","2629842","co37960","norming","","","","","","",""
"6950.065000000934","","","post_mooney1_questions","survey-likert","15","305816","0.0-6.0-2.1","2629842","co37960","norming","","","{""curiosity"":5,""confidence"":1}","[0,1]","../img/tt/481tt.jpg","",""
"2909.83000000054","","","recognition","survey-text","16","308728","0.0-6.0-3.1","2629842","co37960","norming","","","{""guess"":""a cat""}","","../img/tt/481tt.jpg","",""
"null","../img/gs/481gs.jpg","null","reveal","image-keyboard-response","17","310729","0.0-6.0-4.1","2629842","co37960","norming","","","","","","",""
"null","../img/tt/481tt.jpg","null","mooney2","image-keyboard-response","18","312735","0.0-6.0-5.1","2629842","co37960","norming","","","","","","",""
"2751.505000000121","","","post_reveal_questions","survey-likert","19","315488","0.0-6.0-6.1","2629842","co37960","norming","","","{""aha"":5}","[0]","../img/tt/481tt.jpg","",""
"null","<div style=""font-size:60px;""> </div>","null","fixation","html-keyboard-response","20","315693","0.0-6.0-0.2","2629842","co37960","norming","","","","","","",""
"null","../img/tt/1290tt.jpg","null","mooney1","image-keyboard-response","21","318705","0.0-6.0-1.2","2629842","co37960","norming","","","","","","",""
"4125.004999998084","","","post_mooney1_questions","survey-likert","22","322832","0.0-6.0-2.2","2629842","co37960","norming","","","{""curiosity"":3,""confidence"":0}","[0,1]","../img/tt/1290tt.jpg","",""
"1150.0050000031479","","","recognition","survey-text","23","323984","0.0-6.0-3.2","2629842","co37960","norming","","","{""guess"":""""}","","../img/tt/1290tt.jpg","",""
"null","../img/gs/1290gs.jpg","null","reveal","image-keyboard-response","24","325988","0.0-6.0-4.2","2629842","co37960","norming","","","","","","",""
"null","../img/tt/1290tt.jpg","null","mooney2","image-keyboard-response","25","327993","0.0-6.0-5.2","2629842","co37960","norming","","","","","","",""
"4444.675000002491","","","post_reveal_questions","survey-likert","26","332441","0.0-6.0-6.2","2629842","co37960","norming","","","{""aha"":4}","[0]","../img/tt/1290tt.jpg","",""
"null","<div style=""font-size:60px;""> </div>","null","fixation","html-keyboard-response","27","332650","0.0-6.0-0.3","2629842","co37960","norming","","","","","","",""
"null","../img/tt/1217tt.jpg","null","mooney1","image-keyboard-response","28","335659","0.0-6.0-1.3","2629842","co37960","norming","","","","","","",""
"9291.259999998147","","","post_mooney1_questions","survey-likert","29","344953","0.0-6.0-2.3","2629842","co37960","norming","","","{""curiosity"":3,""confidence"":1}","[0,1]","../img/tt/1217tt.jpg","",""
"11670.354999998352","","","recognition","survey-text","30","356625","0.0-6.0-3.3","2629842","co37960","norming","","","{""guess"":""een koe""}","","../img/tt/1217tt.jpg","",""
"null","../img/gs/1217gs.jpg","null","reveal","image-keyboard-response","31","358626","0.0-6.0-4.3","2629842","co37960","norming","","","","","","",""
"null","../img/tt/1217tt.jpg","null","mooney2","image-keyboard-response","32","360630","0.0-6.0-5.3","2629842","co37960","norming","","","","","","",""
"3017.550000000454","","","post_reveal_questions","survey-likert","33","363649","0.0-6.0-6.3","2629842","co37960","norming","","","{""aha"":6}","[0]","../img/tt/1217tt.jpg","",""
"null","<div style=""font-size:60px;""> </div>","null","fixation","html-keyboard-response","34","363857","0.0-6.0-0.4","2629842","co37960","norming","","","","","","",""
"null","../img/tt/1154tt.jpg","null","mooney1","image-keyboard-response","35","366860","0.0-6.0-1.4","2629842","co37960","norming","","","","","","",""
"4177.934999999707","","","post_mooney1_questions","survey-likert","36","371041","0.0-6.0-2.4","2629842","co37960","norming","","","{""curiosity"":2,""confidence"":0}","[0,1]","../img/tt/1154tt.jpg","",""
"798.2450000017416","","","recognition","survey-text","37","371841","0.0-6.0-3.4","2629842","co37960","norming","","","{""guess"":""""}","","../img/tt/1154tt.jpg","",""
"null","../img/gs/1154gs.jpg","null","reveal","image-keyboard-response","38","373848","0.0-6.0-4.4","2629842","co37960","norming","","","","","","",""
"null","../img/tt/1154tt.jpg","null","mooney2","image-keyboard-response","39","375854","0.0-6.0-5.4","2629842","co37960","norming","","","","","","",""
"2978.4249999975436","","","post_reveal_questions","survey-likert","40","378833","0.0-6.0-6.4","2629842","co37960","norming","","","{""aha"":4}","[0]","../img/tt/1154tt.jpg","",""
"null","<div style=""font-size:60px;""> </div>","null","fixation","html-keyboard-response","41","379034","0.0-6.0-0.5","2629842","co37960","norming","","","","","","",""
"null","../img/tt/1242tt.jpg","null","mooney1","image-keyboard-response","42","382040","0.0-6.0-1.5","2629842","co37960","norming","","","","","","",""
"4374.385000002803","","","post_mooney1_questions","survey-likert","43","386417","0.0-6.0-2.5","2629842","co37960","norming","","","{""curiosity"":4,""confidence"":4}","[0,1]","../img/tt/1242tt.jpg","",""
"1958.3349999993807","","","recognition","survey-text","44","388377","0.0-6.0-3.5","2629842","co37960","norming","","","{""guess"":""a cat""}","","../img/tt/1242tt.jpg","",""
"null","../img/gs/1242gs.jpg","null","reveal","image-keyboard-response","45","390379","0.0-6.0-4.5","2629842","co37960","norming","","","","","","",""
"null","../img/tt/1242tt.jpg","null","mooney2","image-keyboard-response","46","392390","0.0-6.0-5.5","2629842","co37960","norming","","","","","","",""
"1634.3499999966589","","","post_reveal_questions","survey-likert","47","394027","0.0-6.0-6.5","2629842","co37960","norming","","","{""aha"":2}","[0]","../img/tt/1242tt.jpg","",""
"null","<div style=""font-size:60px;""> </div>","null","fixation","html-keyboard-response","48","394228","0.0-6.0-0.6","2629842","co37960","norming","","","","","","",""
"null","../img/tt/307tt.jpg","null","mooney1","image-keyboard-response","49","397237","0.0-6.0-1.6","2629842","co37960","norming","","","","","","",""
"3483.1999999987893","","","post_mooney1_questions","survey-likert","50","400723","0.0-6.0-2.6","2629842","co37960","norming","","","{""curiosity"":4,""confidence"":1}","[0,1]","../img/tt/307tt.jpg","",""
"2326.1949999978533","","","recognition","survey-text","51","403051","0.0-6.0-3.6","2629842","co37960","norming","","","{""guess"":""a shoe ""}","","../img/tt/307tt.jpg","",""
"null","../img/gs/307gs.jpg","null","reveal","image-keyboard-response","52","405055","0.0-6.0-4.6","2629842","co37960","norming","","","","","","",""
"null","../img/tt/307tt.jpg","null","mooney2","image-keyboard-response","53","407057","0.0-6.0-5.6","2629842","co37960","norming","","","","","","",""
"1551.6649999989895","","","post_reveal_questions","survey-likert","54","408611","0.0-6.0-6.6","2629842","co37960","norming","","","{""aha"":3}","[0]","../img/tt/307tt.jpg","",""
"null","<div style=""font-size:60px;""> </div>","null","fixation","html-keyboard-response","55","408818","0.0-6.0-0.7","2629842","co37960","norming","","","","","","",""
"null","../img/tt/1362tt.jpg","null","mooney1","image-keyboard-response","56","411821","0.0-6.0-1.7","2629842","co37960","norming","","","","","","",""
"4498.63500000356","","","post_mooney1_questions","survey-likert","57","416323","0.0-6.0-2.7","2629842","co37960","norming","","","{""curiosity"":4,""confidence"":2}","[0,1]","../img/tt/1362tt.jpg","",""
"2342.244999999879","","","recognition","survey-text","58","418667","0.0-6.0-3.7","2629842","co37960","norming","","","{""guess"":""a pan ""}","","../img/tt/1362tt.jpg","",""
"null","../img/gs/1362gs.jpg","null","reveal","image-keyboard-response","59","420668","0.0-6.0-4.7","2629842","co37960","norming","","","","","","",""
"null","../img/tt/1362tt.jpg","null","mooney2","image-keyboard-response","60","422673","0.0-6.0-5.7","2629842","co37960","norming","","","","","","",""
"6679.114999998943","","","post_reveal_questions","survey-likert","61","429355","0.0-6.0-6.7","2629842","co37960","norming","","","{""aha"":2}","[0]","../img/tt/1362tt.jpg","",""
"null","<div style=""font-size:60px;""> </div>","null","fixation","html-keyboard-response","62","429557","0.0-6.0-0.8","2629842","co37960","norming","","","","","","",""
"null","../img/tt/098tt.jpg","null","mooney1","image-keyboard-response","63","432560","0.0-6.0-1.8","2629842","co37960","norming","","","","","","",""
"2951.6550000007264","","","post_mooney1_questions","survey-likert","64","435515","0.0-6.0-2.8","2629842","co37960","norming","","","{""curiosity"":4,""confidence"":0}","[0,1]","../img/tt/098tt.jpg","",""
"1246.1550000007264","","","recognition","survey-text","65","436762","0.0-6.0-3.8","2629842","co37960","norming","","","{""guess"":""""}","","../img/tt/098tt.jpg","",""
"null","../img/gs/098gs.jpg","null","reveal","image-keyboard-response","66","438772","0.0-6.0-4.8","2629842","co37960","norming","","","","","","",""
"null","../img/tt/098tt.jpg","null","mooney2","image-keyboard-response","67","440783","0.0-6.0-5.8","2629842","co37960","norming","","","","","","",""
"3219.43999999715","","","post_reveal_questions","survey-likert","68","444003","0.0-6.0-6.8","2629842","co37960","norming","","","{""aha"":0}","[0]","../img/tt/098tt.jpg","",""
"null","<div style=""font-size:60px;""> </div>","null","fixation","html-keyboard-response","69","444207","0.0-6.0-0.9","2629842","co37960","norming","","","","","","",""
"null","../img/tt/124tt.jpg","null","mooney1","image-keyboard-response","70","447209","0.0-6.0-1.9","2629842","co37960","norming","","","","","","",""
"4094.924999997602","","","post_mooney1_questions","survey-likert","71","451307","0.0-6.0-2.9","2629842","co37960","norming","","","{""curiosity"":5,""confidence"":5}","[0,1]","../img/tt/124tt.jpg","",""
"2542.31499999878","","","recognition","survey-text","72","453847","0.0-6.0-3.9","2629842","co37960","norming","","","{""guess"":""a bear ""}","","../img/tt/124tt.jpg","",""
"null","../img/gs/124gs.jpg","null","reveal","image-keyboard-response","73","455848","0.0-6.0-4.9","2629842","co37960","norming","","","","","","",""
"null","../img/tt/124tt.jpg","null","mooney2","image-keyboard-response","74","457858","0.0-6.0-5.9","2629842","co37960","norming","","","","","","",""
"2402.5999999976484","","","post_reveal_questions","survey-likert","75","460263","0.0-6.0-6.9","2629842","co37960","norming","","","{""aha"":4}","[0]","../img/tt/124tt.jpg","",""
"null","<div style=""font-size:60px;""> </div>","null","fixation","html-keyboard-response","76","460472","0.0-6.0-0.10","2629842","co37960","norming","","","","","","",""
"null","../img/tt/084tt.jpg","null","mooney1","image-keyboard-response","77","463475","0.0-6.0-1.10","2629842","co37960","norming","","","","","","",""
"2681.635000000824","","","post_mooney1_questions","survey-likert","78","466159","0.0-6.0-2.10","2629842","co37960","norming","","","{""curiosity"":2,""confidence"":2}","[0,1]","../img/tt/084tt.jpg","",""
"2374.260000000475","","","recognition","survey-text","79","468535","0.0-6.0-3.10","2629842","co37960","norming","","","{""guess"":""a duck ""}","","../img/tt/084tt.jpg","",""
"null","../img/gs/084gs.jpg","null","reveal","image-keyboard-response","80","470544","0.0-6.0-4.10","2629842","co37960","norming","","","","","","",""
"null","../img/tt/084tt.jpg","null","mooney2","image-keyboard-response","81","472550","0.0-6.0-5.10","2629842","co37960","norming","","","","","","",""
"2598.4749999988708","","","post_reveal_questions","survey-likert","82","475151","0.0-6.0-6.10","2629842","co37960","norming","","","{""aha"":3}","[0]","../img/tt/084tt.jpg","",""
"null","<div style=""font-size:60px;""> </div>","null","fixation","html-keyboard-response","83","475353","0.0-6.0-0.11","2629842","co37960","norming","","","","","","",""
"null","../img/tt/055tt.jpg","null","mooney1","image-keyboard-response","84","478359","0.0-6.0-1.11","2629842","co37960","norming","","","","","","",""
"3445.224999999511","","","post_mooney1_questions","survey-likert","85","481807","0.0-6.0-2.11","2629842","co37960","norming","","","{""curiosity"":5,""confidence"":0}","[0,1]","../img/tt/055tt.jpg","",""
"590.234999999695","","","recognition","survey-text","86","482399","0.0-6.0-3.11","2629842","co37960","norming","","","{""guess"":""""}","","../img/tt/055tt.jpg","",""
"null","../img/gs/055gs.jpg","null","reveal","image-keyboard-response","87","484406","0.0-6.0-4.11","2629842","co37960","norming","","","","","","",""
"null","../img/tt/055tt.jpg","null","mooney2","image-keyboard-response","88","486414","0.0-6.0-5.11","2629842","co37960","norming","","","","","","",""
"3366.7099999984493","","","post_reveal_questions","survey-likert","89","489783","0.0-6.0-6.11","2629842","co37960","norming","","","{""aha"":2}","[0]","../img/tt/055tt.jpg","",""
"null","<div style=""font-size:60px;""> </div>","null","fixation","html-keyboard-response","90","489986","0.0-6.0-0.12","2629842","co37960","norming","","","","","","",""
"null","../img/tt/078tt.jpg","null","mooney1","image-keyboard-response","91","492993","0.0-6.0-1.12","2629842","co37960","norming","","","","","","",""
"5034.834999998566","","","post_mooney1_questions","survey-likert","92","498031","0.0-6.0-2.12","2629842","co37960","norming","","","{""curiosity"":2,""confidence"":2}","[0,1]","../img/tt/078tt.jpg","",""
"2278.3049999998184","","","recognition","survey-text","93","500311","0.0-6.0-3.12","2629842","co37960","norming","","","{""guess"":""grapes ""}","","../img/tt/078tt.jpg","",""
"null","../img/gs/078gs.jpg","null","reveal","image-keyboard-response","94","502317","0.0-6.0-4.12","2629842","co37960","norming","","","","","","",""
"null","../img/tt/078tt.jpg","null","mooney2","image-keyboard-response","95","504326","0.0-6.0-5.12","2629842","co37960","norming","","","","","","",""
"1686.535000000731","","","post_reveal_questions","survey-likert","96","506015","0.0-6.0-6.12","2629842","co37960","norming","","","{""aha"":1}","[0]","../img/tt/078tt.jpg","",""
"null","<div style=""font-size:60px;""> </div>","null","fixation","html-keyboard-response","97","506224","0.0-6.0-0.13","2629842","co37960","norming","","","","","","",""
"null","../img/tt/052tt.jpg","null","mooney1","image-keyboard-response","98","509234","0.0-6.0-1.13","2629842","co37960","norming","","","","","","",""
"6026.259999998729","","","post_mooney1_questions","survey-likert","99","515261","0.0-6.0-2.13","2629842","co37960","norming","","","{""curiosity"":3,""confidence"":3}","[0,1]","../img/tt/052tt.jpg","",""
"1862.7349999988219","","","recognition","survey-text","100","517125","0.0-6.0-3.13","2629842","co37960","norming","","","{""guess"":""chees""}","","../img/tt/052tt.jpg","",""
"null","../img/gs/052gs.jpg","null","reveal","image-keyboard-response","101","519132","0.0-6.0-4.13","2629842","co37960","norming","","","","","","",""
"null","../img/tt/052tt.jpg","null","mooney2","image-keyboard-response","102","521143","0.0-6.0-5.13","2629842","co37960","norming","","","","","","",""
"3507.7450000025565","","","post_reveal_questions","survey-likert","103","524653","0.0-6.0-6.13","2629842","co37960","norming","","","{""aha"":4}","[0]","../img/tt/052tt.jpg","",""
"null","<div style=""font-size:60px;""> </div>","null","fixation","html-keyboard-response","104","524859","0.0-6.0-0.14","2629842","co37960","norming","","","","","","",""
"null","../img/tt/1171tt.jpg","null","mooney1","image-keyboard-response","105","527871","0.0-6.0-1.14","2629842","co37960","norming","","","","","","",""
"4059.2150000011316","","","post_mooney1_questions","survey-likert","106","531933","0.0-6.0-2.14","2629842","co37960","norming","","","{""curiosity"":4,""confidence"":1}","[0,1]","../img/tt/1171tt.jpg","",""
"3110.130000000936","","","recognition","survey-text","107","535045","0.0-6.0-3.14","2629842","co37960","norming","","","{""guess"":""a man""}","","../img/tt/1171tt.jpg","",""
"null","../img/gs/1171gs.jpg","null","reveal","image-keyboard-response","108","537051","0.0-6.0-4.14","2629842","co37960","norming","","","","","","",""
"null","../img/tt/1171tt.jpg","null","mooney2","image-keyboard-response","109","539053","0.0-6.0-5.14","2629842","co37960","norming","","","","","","",""
"2893.059999998426","","","post_reveal_questions","survey-likert","110","541949","0.0-6.0-6.14","2629842","co37960","norming","","","{""aha"":3}","[0]","../img/tt/1171tt.jpg","",""
"null","<div style=""font-size:60px;""> </div>","null","fixation","html-keyboard-response","111","542153","0.0-6.0-0.15","2629842","co37960","norming","","","","","","",""
"null","../img/tt/001tt.jpg","null","mooney1","image-keyboard-response","112","545159","0.0-6.0-1.15","2629842","co37960","norming","","","","","","",""
"3227.2549999980256","","","post_mooney1_questions","survey-likert","113","548389","0.0-6.0-2.15","2629842","co37960","norming","","","{""curiosity"":3,""confidence"":2}","[0,1]","../img/tt/001tt.jpg","",""
"6974.054999998771","","","recognition","survey-text","114","555365","0.0-6.0-3.15","2629842","co37960","norming","","","{""guess"":""a giraf""}","","../img/tt/001tt.jpg","",""
"null","../img/gs/001gs.jpg","null","reveal","image-keyboard-response","115","557366","0.0-6.0-4.15","2629842","co37960","norming","","","","","","",""
"null","../img/tt/001tt.jpg","null","mooney2","image-keyboard-response","116","559370","0.0-6.0-5.15","2629842","co37960","norming","","","","","","",""
"5209.269999999437","","","post_reveal_questions","survey-likert","117","564581","0.0-6.0-6.15","2629842","co37960","norming","","","{""aha"":4}","[0]","../img/tt/001tt.jpg","",""
"null","<div style=""font-size:60px;""> </div>","null","fixation","html-keyboard-response","118","564783","0.0-6.0-0.16","2629842","co37960","norming","","","","","","",""
"null","../img/tt/1091tt.jpg","null","mooney1","image-keyboard-response","119","567787","0.0-6.0-1.16","2629842","co37960","norming","","","","","","",""
"4373.01000000292","","","post_mooney1_questions","survey-likert","120","572165","0.0-6.0-2.16","2629842","co37960","norming","","","{""curiosity"":2,""confidence"":4}","[0,1]","../img/tt/1091tt.jpg","",""
"2942.190000001574","","","recognition","survey-text","121","575108","0.0-6.0-3.16","2629842","co37960","norming","","","{""guess"":""a horse ""}","","../img/tt/1091tt.jpg","",""
"null","../img/gs/1091gs.jpg","null","reveal","image-keyboard-response","122","577110","0.0-6.0-4.16","2629842","co37960","norming","","","","","","",""
"null","../img/tt/1091tt.jpg","null","mooney2","image-keyboard-response","123","579115","0.0-6.0-5.16","2629842","co37960","norming","","","","","","",""
"3821.9349999999395","","","post_reveal_questions","survey-likert","124","582940","0.0-6.0-6.16","2629842","co37960","norming","","","{""aha"":1}","[0]","../img/tt/1091tt.jpg","",""
"null","<div style=""font-size:60px;""> </div>","null","fixation","html-keyboard-response","125","583142","0.0-6.0-0.17","2629842","co37960","norming","","","","","","",""
"null","../img/tt/1027tt.jpg","null","mooney1","image-keyboard-response","126","586148","0.0-6.0-1.17","2629842","co37960","norming","","","","","","",""
"3508.850000001956","","","post_mooney1_questions","survey-likert","127","589660","0.0-6.0-2.17","2629842","co37960","norming","","","{""curiosity"":2,""confidence"":2}","[0,1]","../img/tt/1027tt.jpg","",""
"3653.824999997625","","","recognition","survey-text","128","593315","0.0-6.0-3.17","2629842","co37960","norming","","","{""guess"":""een koe""}","","../img/tt/1027tt.jpg","",""
"null","../img/gs/1027gs.jpg","null","reveal","image-keyboard-response","129","595320","0.0-6.0-4.17","2629842","co37960","norming","","","","","","",""
"null","../img/tt/1027tt.jpg","null","mooney2","image-keyboard-response","130","597327","0.0-6.0-5.17","2629842","co37960","norming","","","","","","",""
"3515.7650000001304","","","post_reveal_questions","survey-likert","131","600844","0.0-6.0-6.17","2629842","co37960","norming","","","{""aha"":4}","[0]","../img/tt/1027tt.jpg","",""
"null","<div style=""font-size:60px;""> </div>","null","fixation","html-keyboard-response","132","601047","0.0-6.0-0.18","2629842","co37960","norming","","","","","","",""
"null","../img/tt/1307tt.jpg","null","mooney1","image-keyboard-response","133","604057","0.0-6.0-1.18","2629842","co37960","norming","","","","","","",""
"3888.3849999983795","","","post_mooney1_questions","survey-likert","134","607948","0.0-6.0-2.18","2629842","co37960","norming","","","{""curiosity"":3,""confidence"":0}","[0,1]","../img/tt/1307tt.jpg","",""
"605.8850000008242","","","recognition","survey-text","135","608555","0.0-6.0-3.18","2629842","co37960","norming","","","{""guess"":""""}","","../img/tt/1307tt.jpg","",""
"null","../img/gs/1307gs.jpg","null","reveal","image-keyboard-response","136","610566","0.0-6.0-4.18","2629842","co37960","norming","","","","","","",""
"null","../img/tt/1307tt.jpg","null","mooney2","image-keyboard-response","137","612573","0.0-6.0-5.18","2629842","co37960","norming","","","","","","",""
"1948.534999999567","","","post_reveal_questions","survey-likert","138","614523","0.0-6.0-6.18","2629842","co37960","norming","","","{""aha"":3}","[0]","../img/tt/1307tt.jpg","",""
"null","<div style=""font-size:60px;""> </div>","null","fixation","html-keyboard-response","139","614730","0.0-6.0-0.19","2629842","co37960","norming","","","","","","",""
"null","../img/tt/468tt.jpg","null","mooney1","image-keyboard-response","140","617736","0.0-6.0-1.19","2629842","co37960","norming","","","","","","",""
"4560.8250000005355","","","post_mooney1_questions","survey-likert","141","622300","0.0-6.0-2.19","2629842","co37960","norming","","","{""curiosity"":1,""confidence"":2}","[0,1]","../img/tt/468tt.jpg","",""
"4454.3400000002","","","recognition","survey-text","142","626756","0.0-6.0-3.19","2629842","co37960","norming","","","{""guess"":""een viool""}","","../img/tt/468tt.jpg","",""
"null","../img/gs/468gs.jpg","null","reveal","image-keyboard-response","143","628758","0.0-6.0-4.19","2629842","co37960","norming","","","","","","",""
"null","../img/tt/468tt.jpg","null","mooney2","image-keyboard-response","144","630759","0.0-6.0-5.19","2629842","co37960","norming","","","","","","",""
"1913.6749999998137","","","post_reveal_questions","survey-likert","145","632675","0.0-6.0-6.19","2629842","co37960","norming","","","{""aha"":4}","[0]","../img/tt/468tt.jpg","",""
"null","<div style=""font-size:60px;""> </div>","null","fixation","html-keyboard-response","146","632885","0.0-6.0-0.20","2629842","co37960","norming","","","","","","",""
"null","../img/tt/1063tt.jpg","null","mooney1","image-keyboard-response","147","635899","0.0-6.0-1.20","2629842","co37960","norming","","","","","","",""
"5573.319999999483","","","post_mooney1_questions","survey-likert","148","641475","0.0-6.0-2.20","2629842","co37960","norming","","","{""curiosity"":4,""confidence"":1}","[0,1]","../img/tt/1063tt.jpg","",""
"1733.9300000021467","","","recognition","survey-text","149","643210","0.0-6.0-3.20","2629842","co37960","norming","","","{""guess"":""a dog ""}","","../img/tt/1063tt.jpg","",""
"null","../img/gs/1063gs.jpg","null","reveal","image-keyboard-response","150","645213","0.0-6.0-4.20","2629842","co37960","norming","","","","","","",""
"null","../img/tt/1063tt.jpg","null","mooney2","image-keyboard-response","151","647222","0.0-6.0-5.20","2629842","co37960","norming","","","","","","",""
"2266.5350000024773","","","post_reveal_questions","survey-likert","152","649491","0.0-6.0-6.20","2629842","co37960","norming","","","{""aha"":4}","[0]","../img/tt/1063tt.jpg","",""
"null","<div style=""font-size:60px;""> </div>","null","fixation","html-keyboard-response","153","649700","0.0-6.0-0.21","2629842","co37960","norming","","","","","","",""
"null","../img/tt/112tt.jpg","null","mooney1","image-keyboard-response","154","652707","0.0-6.0-1.21","2629842","co37960","norming","","","","","","",""
"4788.384999999893","","","post_mooney1_questions","survey-likert","155","657499","0.0-6.0-2.21","2629842","co37960","norming","","","{""curiosity"":3,""confidence"":0}","[0,1]","../img/tt/112tt.jpg","",""
"750.1100000009174","","","recognition","survey-text","156","658250","0.0-6.0-3.21","2629842","co37960","norming","","","{""guess"":""""}","","../img/tt/112tt.jpg","",""
"null","../img/gs/112gs.jpg","null","reveal","image-keyboard-response","157","660260","0.0-6.0-4.21","2629842","co37960","norming","","","","","","",""
"null","../img/tt/112tt.jpg","null","mooney2","image-keyboard-response","158","662263","0.0-6.0-5.21","2629842","co37960","norming","","","","","","",""
"2473.5000000001164","","","post_reveal_questions","survey-likert","159","664738","0.0-6.0-6.21","2629842","co37960","norming","","","{""aha"":2}","[0]","../img/tt/112tt.jpg","",""
"null","<div style=""font-size:60px;""> </div>","null","fixation","html-keyboard-response","160","664945","0.0-6.0-0.22","2629842","co37960","norming","","","","","","",""
"null","../img/tt/1190tt.jpg","null","mooney1","image-keyboard-response","161","667953","0.0-6.0-1.22","2629842","co37960","norming","","","","","","",""
"3774.265000000014","","","post_mooney1_questions","survey-likert","162","671730","0.0-6.0-2.22","2629842","co37960","norming","","","{""curiosity"":1,""confidence"":1}","[0,1]","../img/tt/1190tt.jpg","",""
"3126.604999997653","","","recognition","survey-text","163","674858","0.0-6.0-3.22","2629842","co37960","norming","","","{""guess"":""a pig""}","","../img/tt/1190tt.jpg","",""
"null","../img/gs/1190gs.jpg","null","reveal","image-keyboard-response","164","676860","0.0-6.0-4.22","2629842","co37960","norming","","","","","","",""
"null","../img/tt/1190tt.jpg","null","mooney2","image-keyboard-response","165","678869","0.0-6.0-5.22","2629842","co37960","norming","","","","","","",""
"1754.5350000000326","","","post_reveal_questions","survey-likert","166","680626","0.0-6.0-6.22","2629842","co37960","norming","","","{""aha"":5}","[0]","../img/tt/1190tt.jpg","",""
"null","<div style=""font-size:60px;""> </div>","null","fixation","html-keyboard-response","167","680836","0.0-6.0-0.23","2629842","co37960","norming","","","","","","",""
"null","../img/tt/524tt.jpg","null","mooney1","image-keyboard-response","168","683842","0.0-6.0-1.23","2629842","co37960","norming","","","","","","",""
"4180.990000000689","","","post_mooney1_questions","survey-likert","169","688026","0.0-6.0-2.23","2629842","co37960","norming","","","{""curiosity"":2,""confidence"":1}","[0,1]","../img/tt/524tt.jpg","",""
"11006.385000000591","","","recognition","survey-text","170","699034","0.0-6.0-3.23","2629842","co37960","norming","","","{""guess"":""een neushoorn ""}","","../img/tt/524tt.jpg","",""
"null","../img/gs/524gs.jpg","null","reveal","image-keyboard-response","171","701040","0.0-6.0-4.23","2629842","co37960","norming","","","","","","",""
"null","../img/tt/524tt.jpg","null","mooney2","image-keyboard-response","172","703042","0.0-6.0-5.23","2629842","co37960","norming","","","","","","",""
"2054.1749999974854","","","post_reveal_questions","survey-likert","173","705098","0.0-6.0-6.23","2629842","co37960","norming","","","{""aha"":2}","[0]","../img/tt/524tt.jpg","",""
"null","<div style=""font-size:60px;""> </div>","null","fixation","html-keyboard-response","174","705309","0.0-6.0-0.24","2629842","co37960","norming","","","","","","",""
"null","../img/tt/357tt.jpg","null","mooney1","image-keyboard-response","175","708317","0.0-6.0-1.24","2629842","co37960","norming","","","","","","",""
"3579.375000001164","","","post_mooney1_questions","survey-likert","176","711899","0.0-6.0-2.24","2629842","co37960","norming","","","{""curiosity"":3,""confidence"":2}","[0,1]","../img/tt/357tt.jpg","",""
"2926.200000001816","","","recognition","survey-text","177","714826","0.0-6.0-3.24","2629842","co37960","norming","","","{""guess"":""een  egel""}","","../img/tt/357tt.jpg","",""
"null","../img/gs/357gs.jpg","null","reveal","image-keyboard-response","178","716834","0.0-6.0-4.24","2629842","co37960","norming","","","","","","",""
"null","../img/tt/357tt.jpg","null","mooney2","image-keyboard-response","179","718844","0.0-6.0-5.24","2629842","co37960","norming","","","","","","",""
"7402.930000000284","","","post_reveal_questions","survey-likert","180","726250","0.0-6.0-6.24","2629842","co37960","norming","","","{""aha"":3}","[0]","../img/tt/357tt.jpg","",""
"null","<div style=""font-size:60px;""> </div>","null","fixation","html-keyboard-response","181","726459","0.0-6.0-0.25","2629842","co37960","norming","","","","","","",""
"null","../img/tt/1024tt.jpg","null","mooney1","image-keyboard-response","182","729465","0.0-6.0-1.25","2629842","co37960","norming","","","","","","",""
"4326.900000000023","","","post_mooney1_questions","survey-likert","183","733795","0.0-6.0-2.25","2629842","co37960","norming","","","{""curiosity"":4,""confidence"":0}","[0,1]","../img/tt/1024tt.jpg","",""
"565.9900000027847","","","recognition","survey-text","184","734362","0.0-6.0-3.25","2629842","co37960","norming","","","{""guess"":""""}","","../img/tt/1024tt.jpg","",""
"null","../img/gs/1024gs.jpg","null","reveal","image-keyboard-response","185","736363","0.0-6.0-4.25","2629842","co37960","norming","","","","","","",""
"null","../img/tt/1024tt.jpg","null","mooney2","image-keyboard-response","186","738369","0.0-6.0-5.25","2629842","co37960","norming","","","","","","",""
"2207.429999998538","","","post_reveal_questions","survey-likert","187","740578","0.0-6.0-6.25","2629842","co37960","norming","","","{""aha"":3}","[0]","../img/tt/1024tt.jpg","",""
"null","<div style=""font-size:60px;""> </div>","null","fixation","html-keyboard-response","188","740785","0.0-6.0-0.26","2629842","co37960","norming","","","","","","",""
"null","../img/tt/163tt.jpg","null","mooney1","image-keyboard-response","189","743789","0.0-6.0-1.26","2629842","co37960","norming","","","","","","",""
"4130.815000000526","","","post_mooney1_questions","survey-likert","190","747922","0.0-6.0-2.26","2629842","co37960","norming","","","{""curiosity"":2,""confidence"":1}","[0,1]","../img/tt/163tt.jpg","",""
"1942.4349999971455","","","recognition","survey-text","191","749866","0.0-6.0-3.26","2629842","co37960","norming","","","{""guess"":""a snake""}","","../img/tt/163tt.jpg","",""
"null","../img/gs/163gs.jpg","null","reveal","image-keyboard-response","192","751869","0.0-6.0-4.26","2629842","co37960","norming","","","","","","",""
"null","../img/tt/163tt.jpg","null","mooney2","image-keyboard-response","193","753871","0.0-6.0-5.26","2629842","co37960","norming","","","","","","",""
"1856.7949999996927","","","post_reveal_questions","survey-likert","194","755730","0.0-6.0-6.26","2629842","co37960","norming","","","{""aha"":5}","[0]","../img/tt/163tt.jpg","",""
"null","<div style=""font-size:60px;""> </div>","null","fixation","html-keyboard-response","195","755937","0.0-6.0-0.27","2629842","co37960","norming","","","","","","",""
"null","../img/tt/123tt.jpg","null","mooney1","image-keyboard-response","196","758947","0.0-6.0-1.27","2629842","co37960","norming","","","","","","",""
"3620.6850000016857","","","post_mooney1_questions","survey-likert","197","762571","0.0-6.0-2.27","2629842","co37960","norming","","","{""curiosity"":1,""confidence"":1}","[0,1]","../img/tt/123tt.jpg","",""
"5819.5249999989755","","","recognition","survey-text","198","768395","0.0-6.0-3.27","2629842","co37960","norming","","","{""guess"":""een boekentas""}","","../img/tt/123tt.jpg","",""
"null","../img/gs/123gs.jpg","null","reveal","image-keyboard-response","199","770405","0.0-6.0-4.27","2629842","co37960","norming","","","","","","",""
"null","../img/tt/123tt.jpg","null","mooney2","image-keyboard-response","200","772413","0.0-6.0-5.27","2629842","co37960","norming","","","","","","",""
"1756.7149999996182","","","post_reveal_questions","survey-likert","201","774170","0.0-6.0-6.27","2629842","co37960","norming","","","{""aha"":4}","[0]","../img/tt/123tt.jpg","",""
"null","<div style=""font-size:60px;""> </div>","null","fixation","html-keyboard-response","202","774374","0.0-6.0-0.28","2629842","co37960","norming","","","","","","",""
"null","../img/tt/1260tt.jpg","null","mooney1","image-keyboard-response","203","777385","0.0-6.0-1.28","2629842","co37960","norming","","","","","","",""
"2864.2799999979325","","","post_mooney1_questions","survey-likert","204","780251","0.0-6.0-2.28","2629842","co37960","norming","","","{""curiosity"":2,""confidence"":1}","[0,1]","../img/tt/1260tt.jpg","",""
"3982.2299999977695","","","recognition","survey-text","205","784234","0.0-6.0-3.28","2629842","co37960","norming","","","{""guess"":""een leguaan ""}","","../img/tt/1260tt.jpg","",""
"null","../img/gs/1260gs.jpg","null","reveal","image-keyboard-response","206","786236","0.0-6.0-4.28","2629842","co37960","norming","","","","","","",""
"null","../img/tt/1260tt.jpg","null","mooney2","image-keyboard-response","207","788237","0.0-6.0-5.28","2629842","co37960","norming","","","","","","",""
"2898.890000000363","","","post_reveal_questions","survey-likert","208","791138","0.0-6.0-6.28","2629842","co37960","norming","","","{""aha"":2}","[0]","../img/tt/1260tt.jpg","",""
"null","<div style=""font-size:60px;""> </div>","null","fixation","html-keyboard-response","209","791341","0.0-6.0-0.29","2629842","co37960","norming","","","","","","",""
"null","../img/tt/436tt.jpg","null","mooney1","image-keyboard-response","210","794348","0.0-6.0-1.29","2629842","co37960","norming","","","","","","",""
"4523.999999997672","","","post_mooney1_questions","survey-likert","211","798875","0.0-6.0-2.29","2629842","co37960","norming","","","{""curiosity"":2,""confidence"":1}","[0,1]","../img/tt/436tt.jpg","",""
"4510.210000000312","","","recognition","survey-text","212","803387","0.0-6.0-3.29","2629842","co37960","norming","","","{""guess"":""een krokodil ""}","","../img/tt/436tt.jpg","",""
"null","../img/gs/436gs.jpg","null","reveal","image-keyboard-response","213","805393","0.0-6.0-4.29","2629842","co37960","norming","","","","","","",""
"null","../img/tt/436tt.jpg","null","mooney2","image-keyboard-response","214","807395","0.0-6.0-5.29","2629842","co37960","norming","","","","","","",""
"2718.4049999995623","","","post_reveal_questions","survey-likert","215","810114","0.0-6.0-6.29","2629842","co37960","norming","","","{""aha"":4}","[0]","../img/tt/436tt.jpg","",""
"null","<div style=""font-size:60px;""> </div>","null","fixation","html-keyboard-response","216","810323","0.0-6.0-0.30","2629842","co37960","norming","","","","","","",""
"null","../img/tt/418tt.jpg","null","mooney1","image-keyboard-response","217","813333","0.0-6.0-1.30","2629842","co37960","norming","","","","","","",""
"3076.1899999998277","","","post_mooney1_questions","survey-likert","218","816411","0.0-6.0-2.30","2629842","co37960","norming","","","{""curiosity"":2,""confidence"":2}","[0,1]","../img/tt/418tt.jpg","",""
"3022.1400000009453","","","recognition","survey-text","219","819426","0.0-6.0-3.30","2629842","co37960","norming","","","{""guess"":""a tomato ""}","","../img/tt/418tt.jpg","",""
"null","../img/gs/418gs.jpg","null","reveal","image-keyboard-response","220","821433","0.0-6.0-4.30","2629842","co37960","norming","","","","","","",""
"null","../img/tt/418tt.jpg","null","mooney2","image-keyboard-response","221","823442","0.0-6.0-5.30","2629842","co37960","norming","","","","","","",""
"5751.380000001518","","","post_reveal_questions","survey-likert","222","829194","0.0-6.0-6.30","2629842","co37960","norming","","","{""aha"":3}","[0]","../img/tt/418tt.jpg","",""
"null","<div style=""font-size:60px;""> </div>","null","fixation","html-keyboard-response","223","829397","0.0-6.0-0.31","2629842","co37960","norming","","","","","","",""
"null","../img/tt/085tt.jpg","null","mooney1","image-keyboard-response","224","832401","0.0-6.0-1.31","2629842","co37960","norming","","","","","","",""
"5230.244999998831","","","post_mooney1_questions","survey-likert","225","837635","0.0-6.0-2.31","2629842","co37960","norming","","","{""curiosity"":2,""confidence"":1}","[0,1]","../img/tt/085tt.jpg","",""
"3133.9400000034366","","","recognition","survey-text","226","840770","0.0-6.0-3.31","2629842","co37960","norming","","","{""guess"":""a mouse""}","","../img/tt/085tt.jpg","",""
"null","../img/gs/085gs.jpg","null","reveal","image-keyboard-response","227","842781","0.0-6.0-4.31","2629842","co37960","norming","","","","","","",""
"null","../img/tt/085tt.jpg","null","mooney2","image-keyboard-response","228","844787","0.0-6.0-5.31","2629842","co37960","norming","","","","","","",""
"3276.8450000004377","","","post_reveal_questions","survey-likert","229","848066","0.0-6.0-6.31","2629842","co37960","norming","","","{""aha"":2}","[0]","../img/tt/085tt.jpg","",""
"null","<div style=""font-size:60px;""> </div>","null","fixation","html-keyboard-response","230","848268","0.0-6.0-0.32","2629842","co37960","norming","","","","","","",""
"null","../img/tt/1128tt.jpg","null","mooney1","image-keyboard-response","231","851282","0.0-6.0-1.32","2629842","co37960","norming","","","","","","",""
"5575.765000001411","","","post_mooney1_questions","survey-likert","232","856859","0.0-6.0-2.32","2629842","co37960","norming","","","{""curiosity"":4,""confidence"":0}","[0,1]","../img/tt/1128tt.jpg","",""
"662.1200000008103","","","recognition","survey-text","233","857522","0.0-6.0-3.32","2629842","co37960","norming","","","{""guess"":""""}","","../img/tt/1128tt.jpg","",""
"null","../img/gs/1128gs.jpg","null","reveal","image-keyboard-response","234","859530","0.0-6.0-4.32","2629842","co37960","norming","","","","","","",""
"null","../img/tt/1128tt.jpg","null","mooney2","image-keyboard-response","235","861534","0.0-6.0-5.32","2629842","co37960","norming","","","","","","",""
"3250.930000001914","","","post_reveal_questions","survey-likert","236","864786","0.0-6.0-6.32","2629842","co37960","norming","","","{""aha"":5}","[0]","../img/tt/1128tt.jpg","",""
"null","<div style=""font-size:60px;""> </div>","null","fixation","html-keyboard-response","237","864989","0.0-6.0-0.33","2629842","co37960","norming","","","","","","",""
"null","../img/tt/111tt.jpg","null","mooney1","image-keyboard-response","238","868002","0.0-6.0-1.33","2629842","co37960","norming","","","","","","",""
"4541.294999999111","","","post_mooney1_questions","survey-likert","239","872546","0.0-6.0-2.33","2629842","co37960","norming","","","{""curiosity"":1,""confidence"":1}","[0,1]","../img/tt/111tt.jpg","",""
"2222.0550000020303","","","recognition","survey-text","240","874770","0.0-6.0-3.33","2629842","co37960","norming","","","{""guess"":""a phone""}","","../img/tt/111tt.jpg","",""
"null","../img/gs/111gs.jpg","null","reveal","image-keyboard-response","241","876772","0.0-6.0-4.33","2629842","co37960","norming","","","","","","",""
"null","../img/tt/111tt.jpg","null","mooney2","image-keyboard-response","242","878773","0.0-6.0-5.33","2629842","co37960","norming","","","","","","",""
"2018.5549999986542","","","post_reveal_questions","survey-likert","243","880794","0.0-6.0-6.33","2629842","co37960","norming","","","{""aha"":4}","[0]","../img/tt/111tt.jpg","",""
"null","<div style=""font-size:60px;""> </div>","null","fixation","html-keyboard-response","244","881000","0.0-6.0-0.34","2629842","co37960","norming","","","","","","",""
"null","../img/tt/549tt.jpg","null","mooney1","image-keyboard-response","245","884010","0.0-6.0-1.34","2629842","co37960","norming","","","","","","",""
"4093.3449999975273","","","post_mooney1_questions","survey-likert","246","888107","0.0-6.0-2.34","2629842","co37960","norming","","","{""curiosity"":2,""confidence"":1}","[0,1]","../img/tt/549tt.jpg","",""
"2053.7850000000326","","","recognition","survey-text","247","890162","0.0-6.0-3.34","2629842","co37960","norming","","","{""guess"":""a knife""}","","../img/tt/549tt.jpg","",""
"null","../img/gs/549gs.jpg","null","reveal","image-keyboard-response","248","892170","0.0-6.0-4.34","2629842","co37960","norming","","","","","","",""
"null","../img/tt/549tt.jpg","null","mooney2","image-keyboard-response","249","894179","0.0-6.0-5.34","2629842","co37960","norming","","","","","","",""
"1710.3500000011409","","","post_reveal_questions","survey-likert","250","895890","0.0-6.0-6.34","2629842","co37960","norming","","","{""aha"":4}","[0]","../img/tt/549tt.jpg","",""
"null","<div style=""font-size:60px;""> </div>","null","fixation","html-keyboard-response","251","896095","0.0-6.0-0.35","2629842","co37960","norming","","","","","","",""
"null","../img/tt/1234tt.jpg","null","mooney1","image-keyboard-response","252","899100","0.0-6.0-1.35","2629842","co37960","norming","","","","","","",""
"4037.000000000233","","","post_mooney1_questions","survey-likert","253","903138","0.0-6.0-2.35","2629842","co37960","norming","","","{""curiosity"":2,""confidence"":1}","[0,1]","../img/tt/1234tt.jpg","",""
"4414.089999998338","","","recognition","survey-text","254","907554","0.0-6.0-3.35","2629842","co37960","norming","","","{""guess"":""a duck ""}","","../img/tt/1234tt.jpg","",""
"null","../img/gs/1234gs.jpg","null","reveal","image-keyboard-response","255","909555","0.0-6.0-4.35","2629842","co37960","norming","","","","","","",""
"null","../img/tt/1234tt.jpg","null","mooney2","image-keyboard-response","256","911561","0.0-6.0-5.35","2629842","co37960","norming","","","","","","",""
"5200.890000000014","","","post_reveal_questions","survey-likert","257","916762","0.0-6.0-6.35","2629842","co37960","norming","","","{""aha"":3}","[0]","../img/tt/1234tt.jpg","",""
"null","<div style=""font-size:60px;""> </div>","null","fixation","html-keyboard-response","258","916965","0.0-6.0-0.36","2629842","co37960","norming","","","","","","",""
"null","../img/tt/1188tt.jpg","null","mooney1","image-keyboard-response","259","919978","0.0-6.0-1.36","2629842","co37960","norming","","","","","","",""
"3677.560000000056","","","post_mooney1_questions","survey-likert","260","923658","0.0-6.0-2.36","2629842","co37960","norming","","","{""curiosity"":3,""confidence"":0}","[0,1]","../img/tt/1188tt.jpg","",""
"870.3500000011409","","","recognition","survey-text","261","924530","0.0-6.0-3.36","2629842","co37960","norming","","","{""guess"":""""}","","../img/tt/1188tt.jpg","",""
"null","../img/gs/1188gs.jpg","null","reveal","image-keyboard-response","262","926541","0.0-6.0-4.36","2629842","co37960","norming","","","","","","",""
"null","../img/tt/1188tt.jpg","null","mooney2","image-keyboard-response","263","928552","0.0-6.0-5.36","2629842","co37960","norming","","","","","","",""
"1864.3999999986263","","","post_reveal_questions","survey-likert","264","930419","0.0-6.0-6.36","2629842","co37960","norming","","","{""aha"":5}","[0]","../img/tt/1188tt.jpg","",""
"null","<div style=""font-size:60px;""> </div>","null","fixation","html-keyboard-response","265","930621","0.0-6.0-0.37","2629842","co37960","norming","","","","","","",""
"null","../img/tt/126tt.jpg","null","mooney1","image-keyboard-response","266","933632","0.0-6.0-1.37","2629842","co37960","norming","","","","","","",""
"4095.4450000027427","","","post_mooney1_questions","survey-likert","267","937731","0.0-6.0-2.37","2629842","co37960","norming","","","{""curiosity"":1,""confidence"":0}","[0,1]","../img/tt/126tt.jpg","",""
"502.08999999810476","","","recognition","survey-text","268","938234","0.0-6.0-3.37","2629842","co37960","norming","","","{""guess"":""""}","","../img/tt/126tt.jpg","",""
"null","../img/gs/126gs.jpg","null","reveal","image-keyboard-response","269","940244","0.0-6.0-4.37","2629842","co37960","norming","","","","","","",""
"null","../img/tt/126tt.jpg","null","mooney2","image-keyboard-response","270","942252","0.0-6.0-5.37","2629842","co37960","norming","","","","","","",""
"2427.4750000004424","","","post_reveal_questions","survey-likert","271","944682","0.0-6.0-6.37","2629842","co37960","norming","","","{""aha"":3}","[0]","../img/tt/126tt.jpg","",""
"null","<div style=""font-size:60px;""> </div>","null","fixation","html-keyboard-response","272","944885","0.0-6.0-0.38","2629842","co37960","norming","","","","","","",""
"null","../img/tt/1226tt.jpg","null","mooney1","image-keyboard-response","273","947891","0.0-6.0-1.38","2629842","co37960","norming","","","","","","",""
"5387.68499999796","","","post_mooney1_questions","survey-likert","274","953282","0.0-6.0-2.38","2629842","co37960","norming","","","{""curiosity"":1,""confidence"":1}","[0,1]","../img/tt/1226tt.jpg","",""
"1958.2700000028126","","","recognition","survey-text","275","955242","0.0-6.0-3.38","2629842","co37960","norming","","","{""guess"":""a duck ""}","","../img/tt/1226tt.jpg","",""
"null","../img/gs/1226gs.jpg","null","reveal","image-keyboard-response","276","957244","0.0-6.0-4.38","2629842","co37960","norming","","","","","","",""
"null","../img/tt/1226tt.jpg","null","mooney2","image-keyboard-response","277","959248","0.0-6.0-5.38","2629842","co37960","norming","","","","","","",""
"1631.949999999022","","","post_reveal_questions","survey-likert","278","960883","0.0-6.0-6.38","2629842","co37960","norming","","","{""aha"":5}","[0]","../img/tt/1226tt.jpg","",""
"null","<div style=""font-size:60px;""> </div>","null","fixation","html-keyboard-response","279","961089","0.0-6.0-0.39","2629842","co37960","norming","","","","","","",""
"null","../img/tt/1087tt.jpg","null","mooney1","image-keyboard-response","280","964094","0.0-6.0-1.39","2629842","co37960","norming","","","","","","",""
"3433.7949999971315","","","post_mooney1_questions","survey-likert","281","967531","0.0-6.0-2.39","2629842","co37960","norming","","","{""curiosity"":1,""confidence"":2}","[0,1]","../img/tt/1087tt.jpg","",""
"3614.2800000016578","","","recognition","survey-text","282","971147","0.0-6.0-3.39","2629842","co37960","norming","","","{""guess"":""een koe""}","","../img/tt/1087tt.jpg","",""
"null","../img/gs/1087gs.jpg","null","reveal","image-keyboard-response","283","973150","0.0-6.0-4.39","2629842","co37960","norming","","","","","","",""
"null","../img/tt/1087tt.jpg","null","mooney2","image-keyboard-response","284","975153","0.0-6.0-5.39","2629842","co37960","norming","","","","","","",""
"2663.155000002007","","","post_reveal_questions","survey-likert","285","977818","0.0-6.0-6.39","2629842","co37960","norming","","","{""aha"":1}","[0]","../img/tt/1087tt.jpg","",""
"null","<div style=""font-size:60px;""> </div>","null","fixation","html-keyboard-response","286","978020","0.0-6.0-0.40","2629842","co37960","norming","","","","","","",""
"null","../img/tt/013tt.jpg","null","mooney1","image-keyboard-response","287","981026","0.0-6.0-1.40","2629842","co37960","norming","","","","","","",""
"4661.364999999874","","","post_mooney1_questions","survey-likert","288","985691","0.0-6.0-2.40","2629842","co37960","norming","","","{""curiosity"":1,""confidence"":2}","[0,1]","../img/tt/013tt.jpg","",""
"2302.110000000568","","","recognition","survey-text","289","987994","0.0-6.0-3.40","2629842","co37960","norming","","","{""guess"":""een kameel ""}","","../img/tt/013tt.jpg","",""
"null","../img/gs/013gs.jpg","null","reveal","image-keyboard-response","290","989998","0.0-6.0-4.40","2629842","co37960","norming","","","","","","",""
"null","../img/tt/013tt.jpg","null","mooney2","image-keyboard-response","291","992009","0.0-6.0-5.40","2629842","co37960","norming","","","","","","",""
"3886.9450000020443","","","post_reveal_questions","survey-likert","292","995898","0.0-6.0-6.40","2629842","co37960","norming","","","{""aha"":1}","[0]","../img/tt/013tt.jpg","",""
"null","<div style=""font-size:60px;""> </div>","null","fixation","html-keyboard-response","293","996101","0.0-6.0-0.41","2629842","co37960","norming","","","","","","",""
"null","../img/tt/1211tt.jpg","null","mooney1","image-keyboard-response","294","999110","0.0-6.0-1.41","2629842","co37960","norming","","","","","","",""
"4473.095000001253","","","post_mooney1_questions","survey-likert","295","1003583","0.0-6.0-2.41","2629842","co37960","norming","","","{""curiosity"":3,""confidence"":0}","[0,1]","../img/tt/1211tt.jpg","",""
"694.1299999998882","","","recognition","survey-text","296","1004279","0.0-6.0-3.41","2629842","co37960","norming","","","{""guess"":""""}","","../img/tt/1211tt.jpg","",""
"null","../img/gs/1211gs.jpg","null","reveal","image-keyboard-response","297","1006288","0.0-6.0-4.41","2629842","co37960","norming","","","","","","",""
"null","../img/tt/1211tt.jpg","null","mooney2","image-keyboard-response","298","1008299","0.0-6.0-5.41","2629842","co37960","norming","","","","","","",""
"3841.9599999979837","","","post_reveal_questions","survey-likert","299","1012143","0.0-6.0-6.41","2629842","co37960","norming","","","{""aha"":4}","[0]","../img/tt/1211tt.jpg","",""
"null","<div style=""font-size:60px;""> </div>","null","fixation","html-keyboard-response","300","1012347","0.0-6.0-0.42","2629842","co37960","norming","","","","","","",""
"null","../img/tt/1049tt.jpg","null","mooney1","image-keyboard-response","301","1015359","0.0-6.0-1.42","2629842","co37960","norming","","","","","","",""
"3699.5050000005867","","","post_mooney1_questions","survey-likert","302","1019063","0.0-6.0-2.42","2629842","co37960","norming","","","{""curiosity"":2,""confidence"":0}","[0,1]","../img/tt/1049tt.jpg","",""
"565.9699999996228","","","recognition","survey-text","303","1019631","0.0-6.0-3.42","2629842","co37960","norming","","","{""guess"":""""}","","../img/tt/1049tt.jpg","",""
"null","../img/gs/1049gs.jpg","null","reveal","image-keyboard-response","304","1021638","0.0-6.0-4.42","2629842","co37960","norming","","","","","","",""
"null","../img/tt/1049tt.jpg","null","mooney2","image-keyboard-response","305","1023639","0.0-6.0-5.42","2629842","co37960","norming","","","","","","",""
"2419.1250000003492","","","post_reveal_questions","survey-likert","306","1026063","0.0-6.0-6.42","2629842","co37960","norming","","","{""aha"":4}","[0]","../img/tt/1049tt.jpg","",""
"null","<div style=""font-size:60px;""> </div>","null","fixation","html-keyboard-response","307","1026266","0.0-6.0-0.43","2629842","co37960","norming","","","","","","",""
"null","../img/tt/1130tt.jpg","null","mooney1","image-keyboard-response","308","1029269","0.0-6.0-1.43","2629842","co37960","norming","","","","","","",""
"3326.9700000018347","","","post_mooney1_questions","survey-likert","309","1032599","0.0-6.0-2.43","2629842","co37960","norming","","","{""curiosity"":2,""confidence"":3}","[0,1]","../img/tt/1130tt.jpg","",""
"3886.1550000001444","","","recognition","survey-text","310","1036487","0.0-6.0-3.43","2629842","co37960","norming","","","{""guess"":""a tenniser""}","","../img/tt/1130tt.jpg","",""
"null","../img/gs/1130gs.jpg","null","reveal","image-keyboard-response","311","1038492","0.0-6.0-4.43","2629842","co37960","norming","","","","","","",""
"null","../img/tt/1130tt.jpg","null","mooney2","image-keyboard-response","312","1040496","0.0-6.0-5.43","2629842","co37960","norming","","","","","","",""
"1926.2049999998417","","","post_reveal_questions","survey-likert","313","1042423","0.0-6.0-6.43","2629842","co37960","norming","","","{""aha"":5}","[0]","../img/tt/1130tt.jpg","",""
"null","<div style=""font-size:60px;""> </div>","null","fixation","html-keyboard-response","314","1042625","0.0-6.0-0.44","2629842","co37960","norming","","","","","","",""
"null","../img/tt/1101tt.jpg","null","mooney1","image-keyboard-response","315","1045629","0.0-6.0-1.44","2629842","co37960","norming","","","","","","",""
"4407.0699999976205","","","post_mooney1_questions","survey-likert","316","1050039","0.0-6.0-2.44","2629842","co37960","norming","","","{""curiosity"":3,""confidence"":2}","[0,1]","../img/tt/1101tt.jpg","",""
"4206.129999998491","","","recognition","survey-text","317","1054247","0.0-6.0-3.44","2629842","co37960","norming","","","{""guess"":""a footballer""}","","../img/tt/1101tt.jpg","",""
"null","../img/gs/1101gs.jpg","null","reveal","image-keyboard-response","318","1056248","0.0-6.0-4.44","2629842","co37960","norming","","","","","","",""
"null","../img/tt/1101tt.jpg","null","mooney2","image-keyboard-response","319","1058255","0.0-6.0-5.44","2629842","co37960","norming","","","","","","",""
"1573.7149999986868","","","post_reveal_questions","survey-likert","320","1059831","0.0-6.0-6.44","2629842","co37960","norming","","","{""aha"":1}","[0]","../img/tt/1101tt.jpg","",""
"null","<div style=""font-size:60px;""> </div>","null","fixation","html-keyboard-response","321","1060034","0.0-6.0-0.45","2629842","co37960","norming","","","","","","",""
"null","../img/tt/1123tt.jpg","null","mooney1","image-keyboard-response","322","1063045","0.0-6.0-1.45","2629842","co37960","norming","","","","","","",""
"4098.689999999013","","","post_mooney1_questions","survey-likert","323","1067146","0.0-6.0-2.45","2629842","co37960","norming","","","{""curiosity"":3,""confidence"":1}","[0,1]","../img/tt/1123tt.jpg","",""
"4493.815000001574","","","recognition","survey-text","324","1071642","0.0-6.0-3.45","2629842","co37960","norming","","","{""guess"":""een basketballer""}","","../img/tt/1123tt.jpg","",""
"null","../img/gs/1123gs.jpg","null","reveal","image-keyboard-response","325","1073644","0.0-6.0-4.45","2629842","co37960","norming","","","","","","",""
"null","../img/tt/1123tt.jpg","null","mooney2","image-keyboard-response","326","1075649","0.0-6.0-5.45","2629842","co37960","norming","","","","","","",""
"1614.4999999995343","","","post_reveal_questions","survey-likert","327","1077266","0.0-6.0-6.45","2629842","co37960","norming","","","{""aha"":2}","[0]","../img/tt/1123tt.jpg","",""
"null","<div style=""font-size:60px;""> </div>","null","fixation","html-keyboard-response","328","1077469","0.0-6.0-0.46","2629842","co37960","norming","","","","","","",""
"null","../img/tt/1366tt.jpg","null","mooney1","image-keyboard-response","329","1080472","0.0-6.0-1.46","2629842","co37960","norming","","","","","","",""
"3967.4449999984354","","","post_mooney1_questions","survey-likert","330","1084442","0.0-6.0-2.46","2629842","co37960","norming","","","{""curiosity"":1,""confidence"":1}","[0,1]","../img/tt/1366tt.jpg","",""
"3166.189999999944","","","recognition","survey-text","331","1087610","0.0-6.0-3.46","2629842","co37960","norming","","","{""guess"":""a buritto""}","","../img/tt/1366tt.jpg","",""
"null","../img/gs/1366gs.jpg","null","reveal","image-keyboard-response","332","1089618","0.0-6.0-4.46","2629842","co37960","norming","","","","","","",""
"null","../img/tt/1366tt.jpg","null","mooney2","image-keyboard-response","333","1091621","0.0-6.0-5.46","2629842","co37960","norming","","","","","","",""
"3746.460000002058","","","post_reveal_questions","survey-likert","334","1095370","0.0-6.0-6.46","2629842","co37960","norming","","","{""aha"":2}","[0]","../img/tt/1366tt.jpg","",""
"null","<div style=""font-size:60px;""> </div>","null","fixation","html-keyboard-response","335","1095572","0.0-6.0-0.47","2629842","co37960","norming","","","","","","",""
"null","../img/tt/1118tt.jpg","null","mooney1","image-keyboard-response","336","1098575","0.0-6.0-1.47","2629842","co37960","norming","","","","","","",""
"2968.240000002086","","","post_mooney1_questions","survey-likert","337","1101546","0.0-6.0-2.47","2629842","co37960","norming","","","{""curiosity"":1,""confidence"":0}","[0,1]","../img/tt/1118tt.jpg","",""
"981.9149999965448","","","recognition","survey-text","338","1102530","0.0-6.0-3.47","2629842","co37960","norming","","","{""guess"":""""}","","../img/tt/1118tt.jpg","",""
"null","../img/gs/1118gs.jpg","null","reveal","image-keyboard-response","339","1104535","0.0-6.0-4.47","2629842","co37960","norming","","","","","","",""
"null","../img/tt/1118tt.jpg","null","mooney2","image-keyboard-response","340","1106538","0.0-6.0-5.47","2629842","co37960","norming","","","","","","",""
"2012.935000002617","","","post_reveal_questions","survey-likert","341","1108554","0.0-6.0-6.47","2629842","co37960","norming","","","{""aha"":4}","[0]","../img/tt/1118tt.jpg","",""
"null","<div style=""font-size:60px;""> </div>","null","fixation","html-keyboard-response","342","1108756","0.0-6.0-0.48","2629842","co37960","norming","","","","","","",""
"null","../img/tt/118tt.jpg","null","mooney1","image-keyboard-response","343","1111764","0.0-6.0-1.48","2629842","co37960","norming","","","","","","",""
"3395.309999999823","","","post_mooney1_questions","survey-likert","344","1115162","0.0-6.0-2.48","2629842","co37960","norming","","","{""curiosity"":1,""confidence"":0}","[0,1]","../img/tt/118tt.jpg","",""
"2494.1550000002608","","","recognition","survey-text","345","1117658","0.0-6.0-3.48","2629842","co37960","norming","","","{""guess"":""a stair""}","","../img/tt/118tt.jpg","",""
"null","../img/gs/118gs.jpg","null","reveal","image-keyboard-response","346","1119660","0.0-6.0-4.48","2629842","co37960","norming","","","","","","",""
"null","../img/tt/118tt.jpg","null","mooney2","image-keyboard-response","347","1121670","0.0-6.0-5.48","2629842","co37960","norming","","","","","","",""
"2937.4500000013504","","","post_reveal_questions","survey-likert","348","1124607","0.0-6.0-6.48","2629842","co37960","norming","","","{""aha"":5}","[0]","../img/tt/118tt.jpg","",""
"null","<div style=""font-size:60px;""> </div>","null","fixation","html-keyboard-response","349","1124809","0.0-6.0-0.49","2629842","co37960","norming","","","","","","",""
"null","../img/tt/296tt.jpg","null","mooney1","image-keyboard-response","350","1127812","0.0-6.0-1.49","2629842","co37960","norming","","","","","","",""
"3666.3499999996275","","","post_mooney1_questions","survey-likert","351","1131479","0.0-6.0-2.49","2629842","co37960","norming","","","{""curiosity"":2,""confidence"":1}","[0,1]","../img/tt/296tt.jpg","",""
"2222.1099999987055","","","recognition","survey-text","352","1133703","0.0-6.0-3.49","2629842","co37960","norming","","","{""guess"":""a sofa""}","","../img/tt/296tt.jpg","",""
"null","../img/gs/296gs.jpg","null","reveal","image-keyboard-response","353","1135705","0.0-6.0-4.49","2629842","co37960","norming","","","","","","",""
"null","../img/tt/296tt.jpg","null","mooney2","image-keyboard-response","354","1137713","0.0-6.0-5.49","2629842","co37960","norming","","","","","","",""
"4123.240000000922","","","post_reveal_questions","survey-likert","355","1141839","0.0-6.0-6.49","2629842","co37960","norming","","","{""aha"":5}","[0]","../img/tt/296tt.jpg","",""
"null","<div style=""font-size:60px;""> </div>","null","fixation","html-keyboard-response","356","1142047","0.0-6.0-0.50","2629842","co37960","norming","","","","","","",""
"null","../img/tt/1044tt.jpg","null","mooney1","image-keyboard-response","357","1145058","0.0-6.0-1.50","2629842","co37960","norming","","","","","","",""
"2922.2549999977928","","","post_mooney1_questions","survey-likert","358","1147983","0.0-6.0-2.50","2629842","co37960","norming","","","{""curiosity"":2,""confidence"":2}","[0,1]","../img/tt/1044tt.jpg","",""
"2406.3249999999534","","","recognition","survey-text","359","1150391","0.0-6.0-3.50","2629842","co37960","norming","","","{""guess"":""a giraf""}","","../img/tt/1044tt.jpg","",""
"null","../img/gs/1044gs.jpg","null","reveal","image-keyboard-response","360","1152398","0.0-6.0-4.50","2629842","co37960","norming","","","","","","",""
"null","../img/tt/1044tt.jpg","null","mooney2","image-keyboard-response","361","1154408","0.0-6.0-5.50","2629842","co37960","norming","","","","","","",""
"3372.9000000020023","","","post_reveal_questions","survey-likert","362","1157783","0.0-6.0-6.50","2629842","co37960","norming","","","{""aha"":2}","[0]","../img/tt/1044tt.jpg","",""
"null","<div style=""font-size:60px;""> </div>","null","fixation","html-keyboard-response","363","1157984","0.0-6.0-0.51","2629842","co37960","norming","","","","","","",""
"null","../img/tt/194tt.jpg","null","mooney1","image-keyboard-response","364","1160988","0.0-6.0-1.51","2629842","co37960","norming","","","","","","",""
"3234.440000000177","","","post_mooney1_questions","survey-likert","365","1164223","0.0-6.0-2.51","2629842","co37960","norming","","","{""curiosity"":1,""confidence"":1}","[0,1]","../img/tt/194tt.jpg","",""
"2582.259999999311","","","recognition","survey-text","366","1166807","0.0-6.0-3.51","2629842","co37960","norming","","","{""guess"":""a women ""}","","../img/tt/194tt.jpg","",""
"null","../img/gs/194gs.jpg","null","reveal","image-keyboard-response","367","1168814","0.0-6.0-4.51","2629842","co37960","norming","","","","","","",""
"null","../img/tt/194tt.jpg","null","mooney2","image-keyboard-response","368","1170822","0.0-6.0-5.51","2629842","co37960","norming","","","","","","",""
"2478.760000001872","","","post_reveal_questions","survey-likert","369","1173303","0.0-6.0-6.51","2629842","co37960","norming","","","{""aha"":4}","[0]","../img/tt/194tt.jpg","",""
"null","<div style=""font-size:60px;""> </div>","null","fixation","html-keyboard-response","370","1173511","0.0-6.0-0.52","2629842","co37960","norming","","","","","","",""
"null","../img/tt/456tt.jpg","null","mooney1","image-keyboard-response","371","1176520","0.0-6.0-1.52","2629842","co37960","norming","","","","","","",""
"3019.990000000689","","","post_mooney1_questions","survey-likert","372","1179543","0.0-6.0-2.52","2629842","co37960","norming","","","{""curiosity"":2,""confidence"":1}","[0,1]","../img/tt/456tt.jpg","",""
"2365.925000001909","","","recognition","survey-text","373","1181911","0.0-6.0-3.52","2629842","co37960","norming","","","{""guess"":""a shoe ""}","","../img/tt/456tt.jpg","",""
"null","../img/gs/456gs.jpg","null","reveal","image-keyboard-response","374","1183917","0.0-6.0-4.52","2629842","co37960","norming","","","","","","",""
"null","../img/tt/456tt.jpg","null","mooney2","image-keyboard-response","375","1185925","0.0-6.0-5.52","2629842","co37960","norming","","","","","","",""
"1627.0149999982677","","","post_reveal_questions","survey-likert","376","1187555","0.0-6.0-6.52","2629842","co37960","norming","","","{""aha"":5}","[0]","../img/tt/456tt.jpg","",""
"null","<div style=""font-size:60px;""> </div>","null","fixation","html-keyboard-response","377","1187756","0.0-6.0-0.53","2629842","co37960","norming","","","","","","",""
"null","../img/tt/1181tt.jpg","null","mooney1","image-keyboard-response","378","1190762","0.0-6.0-1.53","2629842","co37960","norming","","","","","","",""
"4781.754999999888","","","post_mooney1_questions","survey-likert","379","1195547","0.0-6.0-2.53","2629842","co37960","norming","","","{""curiosity"":2,""confidence"":1}","[0,1]","../img/tt/1181tt.jpg","",""
"3646.194999997504","","","recognition","survey-text","380","1199195","0.0-6.0-3.53","2629842","co37960","norming","","","{""guess"":""two men""}","","../img/tt/1181tt.jpg","",""
"null","../img/gs/1181gs.jpg","null","reveal","image-keyboard-response","381","1201196","0.0-6.0-4.53","2629842","co37960","norming","","","","","","",""
"null","../img/tt/1181tt.jpg","null","mooney2","image-keyboard-response","382","1203204","0.0-6.0-5.53","2629842","co37960","norming","","","","","","",""
"3348.749999997206","","","post_reveal_questions","survey-likert","383","1206555","0.0-6.0-6.53","2629842","co37960","norming","","","{""aha"":6}","[0]","../img/tt/1181tt.jpg","",""
"null","<div style=""font-size:60px;""> </div>","null","fixation","html-keyboard-response","384","1206760","0.0-6.0-0.54","2629842","co37960","norming","","","","","","",""
"null","../img/tt/318tt.jpg","null","mooney1","image-keyboard-response","385","1209772","0.0-6.0-1.54","2629842","co37960","norming","","","","","","",""
"2947.629999998957","","","post_mooney1_questions","survey-likert","386","1212723","0.0-6.0-2.54","2629842","co37960","norming","","","{""curiosity"":1,""confidence"":2}","[0,1]","../img/tt/318tt.jpg","",""
"1798.419999999227","","","recognition","survey-text","387","1214523","0.0-6.0-3.54","2629842","co37960","norming","","","{""guess"":""a car""}","","../img/tt/318tt.jpg","",""
"null","../img/gs/318gs.jpg","null","reveal","image-keyboard-response","388","1216525","0.0-6.0-4.54","2629842","co37960","norming","","","","","","",""
"null","../img/tt/318tt.jpg","null","mooney2","image-keyboard-response","389","1218527","0.0-6.0-5.54","2629842","co37960","norming","","","","","","",""
"1744.9349999988917","","","post_reveal_questions","survey-likert","390","1220275","0.0-6.0-6.54","2629842","co37960","norming","","","{""aha"":3}","[0]","../img/tt/318tt.jpg","",""
"null","<div style=""font-size:60px;""> </div>","null","fixation","html-keyboard-response","391","1220480","0.0-6.0-0.55","2629842","co37960","norming","","","","","","",""
"null","../img/tt/315tt.jpg","null","mooney1","image-keyboard-response","392","1223490","0.0-6.0-1.55","2629842","co37960","norming","","","","","","",""
"4573.884999997914","","","post_mooney1_questions","survey-likert","393","1228067","0.0-6.0-2.55","2629842","co37960","norming","","","{""curiosity"":0,""confidence"":0}","[0,1]","../img/tt/315tt.jpg","",""
"702.0400000000373","","","recognition","survey-text","394","1228771","0.0-6.0-3.55","2629842","co37960","norming","","","{""guess"":""""}","","../img/tt/315tt.jpg","",""
"null","../img/gs/315gs.jpg","null","reveal","image-keyboard-response","395","1230778","0.0-6.0-4.55","2629842","co37960","norming","","","","","","",""
"null","../img/tt/315tt.jpg","null","mooney2","image-keyboard-response","396","1232788","0.0-6.0-5.55","2629842","co37960","norming","","","","","","",""
"2043.924999998184","","","post_reveal_questions","survey-likert","397","1234834","0.0-6.0-6.55","2629842","co37960","norming","","","{""aha"":5}","[0]","../img/tt/315tt.jpg","",""
"null","<div style=""font-size:60px;""> </div>","null","fixation","html-keyboard-response","398","1235040","0.0-6.0-0.56","2629842","co37960","norming","","","","","","",""
"null","../img/tt/301tt.jpg","null","mooney1","image-keyboard-response","399","1238050","0.0-6.0-1.56","2629842","co37960","norming","","","","","","",""
"3820.4000000006054","","","post_mooney1_questions","survey-likert","400","1241875","0.0-6.0-2.56","2629842","co37960","norming","","","{""curiosity"":0,""confidence"":0}","[0,1]","../img/tt/301tt.jpg","",""
"942.6550000025891","","","recognition","survey-text","401","1242819","0.0-6.0-3.56","2629842","co37960","norming","","","{""guess"":""""}","","../img/tt/301tt.jpg","",""
"null","../img/gs/301gs.jpg","null","reveal","image-keyboard-response","402","1244832","0.0-6.0-4.56","2629842","co37960","norming","","","","","","",""
"null","../img/tt/301tt.jpg","null","mooney2","image-keyboard-response","403","1246836","0.0-6.0-5.56","2629842","co37960","norming","","","","","","",""
"1805.5950000016019","","","post_reveal_questions","survey-likert","404","1248645","0.0-6.0-6.56","2629842","co37960","norming","","","{""aha"":6}","[0]","../img/tt/301tt.jpg","",""
"null","<div style=""font-size:60px;""> </div>","null","fixation","html-keyboard-response","405","1248848","0.0-6.0-0.57","2629842","co37960","norming","","","","","","",""
"null","../img/tt/1122tt.jpg","null","mooney1","image-keyboard-response","406","1251854","0.0-6.0-1.57","2629842","co37960","norming","","","","","","",""
"5563.584999999963","","","post_mooney1_questions","survey-likert","407","1257421","0.0-6.0-2.57","2629842","co37960","norming","","","{""curiosity"":2,""confidence"":2}","[0,1]","../img/tt/1122tt.jpg","",""
"1933.849999997532","","","recognition","survey-text","408","1259357","0.0-6.0-3.57","2629842","co37960","norming","","","{""guess"":""bboats""}","","../img/tt/1122tt.jpg","",""
"null","../img/gs/1122gs.jpg","null","reveal","image-keyboard-response","409","1261358","0.0-6.0-4.57","2629842","co37960","norming","","","","","","",""
"null","../img/tt/1122tt.jpg","null","mooney2","image-keyboard-response","410","1263359","0.0-6.0-5.57","2629842","co37960","norming","","","","","","",""
"1980.9849999984726","","","post_reveal_questions","survey-likert","411","1265341","0.0-6.0-6.57","2629842","co37960","norming","","","{""aha"":1}","[0]","../img/tt/1122tt.jpg","",""
"null","<div style=""font-size:60px;""> </div>","null","fixation","html-keyboard-response","412","1265548","0.0-6.0-0.58","2629842","co37960","norming","","","","","","",""
"null","../img/tt/060tt.jpg","null","mooney1","image-keyboard-response","413","1268561","0.0-6.0-1.58","2629842","co37960","norming","","","","","","",""
"3144.1999999987893","","","post_mooney1_questions","survey-likert","414","1271709","0.0-6.0-2.58","2629842","co37960","norming","","","{""curiosity"":1,""confidence"":1}","[0,1]","../img/tt/060tt.jpg","",""
"1982.2550000026822","","","recognition","survey-text","415","1273693","0.0-6.0-3.58","2629842","co37960","norming","","","{""guess"":""a pan ""}","","../img/tt/060tt.jpg","",""
"null","../img/gs/060gs.jpg","null","reveal","image-keyboard-response","416","1275694","0.0-6.0-4.58","2629842","co37960","norming","","","","","","",""
"null","../img/tt/060tt.jpg","null","mooney2","image-keyboard-response","417","1277699","0.0-6.0-5.58","2629842","co37960","norming","","","","","","",""
"3463.1199999966193","","","post_reveal_questions","survey-likert","418","1281165","0.0-6.0-6.58","2629842","co37960","norming","","","{""aha"":3}","[0]","../img/tt/060tt.jpg","",""
"null","<div style=""font-size:60px;""> </div>","null","fixation","html-keyboard-response","419","1281367","0.0-6.0-0.59","2629842","co37960","norming","","","","","","",""
"null","../img/tt/1241tt.jpg","null","mooney1","image-keyboard-response","420","1284372","0.0-6.0-1.59","2629842","co37960","norming","","","","","","",""
"2893.9900000004563","","","post_mooney1_questions","survey-likert","421","1287269","0.0-6.0-2.59","2629842","co37960","norming","","","{""curiosity"":2,""confidence"":1}","[0,1]","../img/tt/1241tt.jpg","",""
"1638.230000000447","","","recognition","survey-text","422","1288909","0.0-6.0-3.59","2629842","co37960","norming","","","{""guess"":""a dog""}","","../img/tt/1241tt.jpg","",""
"null","../img/gs/1241gs.jpg","null","reveal","image-keyboard-response","423","1290911","0.0-6.0-4.59","2629842","co37960","norming","","","","","","",""
"null","../img/tt/1241tt.jpg","null","mooney2","image-keyboard-response","424","1292920","0.0-6.0-5.59","2629842","co37960","norming","","","","","","",""
"1424.6349999993108","","","post_reveal_questions","survey-likert","425","1294349","0.0-6.0-6.59","2629842","co37960","norming","","","{""aha"":2}","[0]","../img/tt/1241tt.jpg","",""
"null","<div style=""font-size:60px;""> </div>","null","fixation","html-keyboard-response","426","1294557","0.0-6.0-0.60","2629842","co37960","norming","","","","","","",""
"null","../img/tt/1097tt.jpg","null","mooney1","image-keyboard-response","427","1297565","0.0-6.0-1.60","2629842","co37960","norming","","","","","","",""
"3604.709999999497","","","post_mooney1_questions","survey-likert","428","1301173","0.0-6.0-2.60","2629842","co37960","norming","","","{""curiosity"":1,""confidence"":1}","[0,1]","../img/tt/1097tt.jpg","",""
"3206.4050000009593","","","recognition","survey-text","429","1304381","0.0-6.0-3.60","2629842","co37960","norming","","","{""guess"":""een roeier ""}","","../img/tt/1097tt.jpg","",""
"null","../img/gs/1097gs.jpg","null","reveal","image-keyboard-response","430","1306392","0.0-6.0-4.60","2629842","co37960","norming","","","","","","",""
"null","../img/tt/1097tt.jpg","null","mooney2","image-keyboard-response","431","1308398","0.0-6.0-5.60","2629842","co37960","norming","","","","","","",""
"2622.115000002086","","","post_reveal_questions","survey-likert","432","1311023","0.0-6.0-6.60","2629842","co37960","norming","","","{""aha"":3}","[0]","../img/tt/1097tt.jpg","",""
"null","<div style=""font-size:60px;""> </div>","null","fixation","html-keyboard-response","433","1311227","0.0-6.0-0.61","2629842","co37960","norming","","","","","","",""
"null","../img/tt/522tt.jpg","null","mooney1","image-keyboard-response","434","1314237","0.0-6.0-1.61","2629842","co37960","norming","","","","","","",""
"3544.4050000004936","","","post_mooney1_questions","survey-likert","435","1317783","0.0-6.0-2.61","2629842","co37960","norming","","","{""curiosity"":3,""confidence"":1}","[0,1]","../img/tt/522tt.jpg","",""
"1510.050000000745","","","recognition","survey-text","436","1319295","0.0-6.0-3.61","2629842","co37960","norming","","","{""guess"":""""}","","../img/tt/522tt.jpg","",""
"null","../img/gs/522gs.jpg","null","reveal","image-keyboard-response","437","1321304","0.0-6.0-4.61","2629842","co37960","norming","","","","","","",""
"null","../img/tt/522tt.jpg","null","mooney2","image-keyboard-response","438","1323307","0.0-6.0-5.61","2629842","co37960","norming","","","","","","",""
"4034.0350000006147","","","post_reveal_questions","survey-likert","439","1327342","0.0-6.0-6.61","2629842","co37960","norming","","","{""aha"":5}","[0]","../img/tt/522tt.jpg","",""
"null","<div style=""font-size:60px;""> </div>","null","fixation","html-keyboard-response","440","1327548","0.0-6.0-0.62","2629842","co37960","norming","","","","","","",""
"null","../img/tt/020tt.jpg","null","mooney1","image-keyboard-response","441","1330556","0.0-6.0-1.62","2629842","co37960","norming","","","","","","",""
"3326.810000002384","","","post_mooney1_questions","survey-likert","442","1333887","0.0-6.0-2.62","2629842","co37960","norming","","","{""curiosity"":1,""confidence"":2}","[0,1]","../img/tt/020tt.jpg","",""
"3182.5250000001397","","","recognition","survey-text","443","1337071","0.0-6.0-3.62","2629842","co37960","norming","","","{""guess"":""a baby""}","","../img/tt/020tt.jpg","",""
"null","../img/gs/020gs.jpg","null","reveal","image-keyboard-response","444","1339078","0.0-6.0-4.62","2629842","co37960","norming","","","","","","",""
"null","../img/tt/020tt.jpg","null","mooney2","image-keyboard-response","445","1341082","0.0-6.0-5.62","2629842","co37960","norming","","","","","","",""
"2810.7100000015926","","","post_reveal_questions","survey-likert","446","1343895","0.0-6.0-6.62","2629842","co37960","norming","","","{""aha"":5}","[0]","../img/tt/020tt.jpg","",""
"null","<div style=""font-size:60px;""> </div>","null","fixation","html-keyboard-response","447","1344103","0.0-6.0-0.63","2629842","co37960","norming","","","","","","",""
"null","../img/tt/319tt.jpg","null","mooney1","image-keyboard-response","448","1347116","0.0-6.0-1.63","2629842","co37960","norming","","","","","","",""
"3598.5299999993294","","","post_mooney1_questions","survey-likert","449","1350719","0.0-6.0-2.63","2629842","co37960","norming","","","{""curiosity"":1,""confidence"":2}","[0,1]","../img/tt/319tt.jpg","",""
"3245.740000002086","","","recognition","survey-text","450","1353967","0.0-6.0-3.63","2629842","co37960","norming","","","{""guess"":""koeen ""}","","../img/tt/319tt.jpg","",""
"null","../img/gs/319gs.jpg","null","reveal","image-keyboard-response","451","1355970","0.0-6.0-4.63","2629842","co37960","norming","","","","","","",""
"null","../img/tt/319tt.jpg","null","mooney2","image-keyboard-response","452","1357972","0.0-6.0-5.63","2629842","co37960","norming","","","","","","",""
"1575.959999998333","","","post_reveal_questions","survey-likert","453","1359551","0.0-6.0-6.63","2629842","co37960","norming","","","{""aha"":1}","[0]","../img/tt/319tt.jpg","",""
"null","<div style=""font-size:60px;""> </div>","null","fixation","html-keyboard-response","454","1359757","0.0-6.0-0.64","2629842","co37960","norming","","","","","","",""
"null","../img/tt/081tt.jpg","null","mooney1","image-keyboard-response","455","1362760","0.0-6.0-1.64","2629842","co37960","norming","","","","","","",""
"3411.7049999986775","","","post_mooney1_questions","survey-likert","456","1366175","0.0-6.0-2.64","2629842","co37960","norming","","","{""curiosity"":0,""confidence"":0}","[0,1]","../img/tt/081tt.jpg","",""
"1125.550000000745","","","recognition","survey-text","457","1367300","0.0-6.0-3.64","2629842","co37960","norming","","","{""guess"":""""}","","../img/tt/081tt.jpg","",""
"null","../img/gs/081gs.jpg","null","reveal","image-keyboard-response","458","1369309","0.0-6.0-4.64","2629842","co37960","norming","","","","","","",""
"null","../img/tt/081tt.jpg","null","mooney2","image-keyboard-response","459","1371313","0.0-6.0-5.64","2629842","co37960","norming","","","","","","",""
"3658.5649999978486","","","post_reveal_questions","survey-likert","460","1374972","0.0-6.0-6.64","2629842","co37960","norming","","","{""aha"":2}","[0]","../img/tt/081tt.jpg","",""
"null","<div style=""font-size:60px;""> </div>","null","fixation","html-keyboard-response","461","1375175","0.0-6.0-0.65","2629842","co37960","norming","","","","","","",""
"null","../img/tt/1004tt.jpg","null","mooney1","image-keyboard-response","462","1378187","0.0-6.0-1.65","2629842","co37960","norming","","","","","","",""
"2765.70999999973","","","post_mooney1_questions","survey-likert","463","1380957","0.0-6.0-2.65","2629842","co37960","norming","","","{""curiosity"":1,""confidence"":0}","[0,1]","../img/tt/1004tt.jpg","",""
"862.0150000024587","","","recognition","survey-text","464","1381820","0.0-6.0-3.65","2629842","co37960","norming","","","{""guess"":""""}","","../img/tt/1004tt.jpg","",""
"null","../img/gs/1004gs.jpg","null","reveal","image-keyboard-response","465","1383822","0.0-6.0-4.65","2629842","co37960","norming","","","","","","",""
"null","../img/tt/1004tt.jpg","null","mooney2","image-keyboard-response","466","1385827","0.0-6.0-5.65","2629842","co37960","norming","","","","","","",""
"3950.06000000285","","","post_reveal_questions","survey-likert","467","1389780","0.0-6.0-6.65","2629842","co37960","norming","","","{""aha"":3}","[0]","../img/tt/1004tt.jpg","",""
"null","<div style=""font-size:60px;""> </div>","null","fixation","html-keyboard-response","468","1389991","0.0-6.0-0.66","2629842","co37960","norming","","","","","","",""
"null","../img/tt/1048tt.jpg","null","mooney1","image-keyboard-response","469","1392998","0.0-6.0-1.66","2629842","co37960","norming","","","","","","",""
"3211.119999999879","","","post_mooney1_questions","survey-likert","470","1396212","0.0-6.0-2.66","2629842","co37960","norming","","","{""curiosity"":1,""confidence"":1}","[0,1]","../img/tt/1048tt.jpg","",""
"2390.049999998184","","","recognition","survey-text","471","1398604","0.0-6.0-3.66","2629842","co37960","norming","","","{""guess"":""a lion ""}","","../img/tt/1048tt.jpg","",""
"null","../img/gs/1048gs.jpg","null","reveal","image-keyboard-response","472","1400611","0.0-6.0-4.66","2629842","co37960","norming","","","","","","",""
"null","../img/tt/1048tt.jpg","null","mooney2","image-keyboard-response","473","1402613","0.0-6.0-5.66","2629842","co37960","norming","","","","","","",""
"2092.1699999999255","","","post_reveal_questions","survey-likert","474","1404708","0.0-6.0-6.66","2629842","co37960","norming","","","{""aha"":6}","[0]","../img/tt/1048tt.jpg","",""
"null","<div style=""font-size:60px;""> </div>","null","fixation","html-keyboard-response","475","1404914","0.0-6.0-0.67","2629842","co37960","norming","","","","","","",""
"null","../img/tt/279tt.jpg","null","mooney1","image-keyboard-response","476","1407925","0.0-6.0-1.67","2629842","co37960","norming","","","","","","",""
"3084.0700000007637","","","post_mooney1_questions","survey-likert","477","1411012","0.0-6.0-2.67","2629842","co37960","norming","","","{""curiosity"":1,""confidence"":1}","[0,1]","../img/tt/279tt.jpg","",""
"2998.274999998044","","","recognition","survey-text","478","1414012","0.0-6.0-3.67","2629842","co37960","norming","","","{""guess"":""a koala ""}","","../img/tt/279tt.jpg","",""
"null","../img/gs/279gs.jpg","null","reveal","image-keyboard-response","479","1416019","0.0-6.0-4.67","2629842","co37960","norming","","","","","","",""
"null","../img/tt/279tt.jpg","null","mooney2","image-keyboard-response","480","1418029","0.0-6.0-5.67","2629842","co37960","norming","","","","","","",""
"2411.965000002878","","","post_reveal_questions","survey-likert","481","1420444","0.0-6.0-6.67","2629842","co37960","norming","","","{""aha"":2}","[0]","../img/tt/279tt.jpg","",""
"null","<div style=""font-size:60px;""> </div>","null","fixation","html-keyboard-response","482","1420651","0.0-6.0-0.68","2629842","co37960","norming","","","","","","",""
"null","../img/tt/076tt.jpg","null","mooney1","image-keyboard-response","483","1423661","0.0-6.0-1.68","2629842","co37960","norming","","","","","","",""
"2675.3700000008103","","","post_mooney1_questions","survey-likert","484","1426340","0.0-6.0-2.68","2629842","co37960","norming","","","{""curiosity"":1,""confidence"":1}","[0,1]","../img/tt/076tt.jpg","",""
"4022.1200000015087","","","recognition","survey-text","485","1430364","0.0-6.0-3.68","2629842","co37960","norming","","","{""guess"":""a rollerskate ""}","","../img/tt/076tt.jpg","",""
"null","../img/gs/076gs.jpg","null","reveal","image-keyboard-response","486","1432366","0.0-6.0-4.68","2629842","co37960","norming","","","","","","",""
"null","../img/tt/076tt.jpg","null","mooney2","image-keyboard-response","487","1434376","0.0-6.0-5.68","2629842","co37960","norming","","","","","","",""
"2832.640000000596","","","post_reveal_questions","survey-likert","488","1437212","0.0-6.0-6.68","2629842","co37960","norming","","","{""aha"":2}","[0]","../img/tt/076tt.jpg","",""
"null","<div style=""font-size:60px;""> </div>","null","fixation","html-keyboard-response","489","1437414","0.0-6.0-0.69","2629842","co37960","norming","","","","","","",""
"null","../img/tt/552tt.jpg","null","mooney1","image-keyboard-response","490","1440422","0.0-6.0-1.69","2629842","co37960","norming","","","","","","",""
"3324.069999998901","","","post_mooney1_questions","survey-likert","491","1443748","0.0-6.0-2.69","2629842","co37960","norming","","","{""curiosity"":1,""confidence"":1}","[0,1]","../img/tt/552tt.jpg","",""
"2790.175000001909","","","recognition","survey-text","492","1446540","0.0-6.0-3.69","2629842","co37960","norming","","","{""guess"":""a trach""}","","../img/tt/552tt.jpg","",""
"null","../img/gs/552gs.jpg","null","reveal","image-keyboard-response","493","1448548","0.0-6.0-4.69","2629842","co37960","norming","","","","","","",""
"null","../img/tt/552tt.jpg","null","mooney2","image-keyboard-response","494","1450550","0.0-6.0-5.69","2629842","co37960","norming","","","","","","",""
"2243.320000001462","","","post_reveal_questions","survey-likert","495","1452796","0.0-6.0-6.69","2629842","co37960","norming","","","{""aha"":4}","[0]","../img/tt/552tt.jpg","",""
"null","<div style=""font-size:60px;""> </div>","null","fixation","html-keyboard-response","496","1452999","0.0-6.0-0.70","2629842","co37960","norming","","","","","","",""
"null","../img/tt/056tt.jpg","null","mooney1","image-keyboard-response","497","1456002","0.0-6.0-1.70","2629842","co37960","norming","","","","","","",""
"3254.385000000242","","","post_mooney1_questions","survey-likert","498","1459260","0.0-6.0-2.70","2629842","co37960","norming","","","{""curiosity"":1,""confidence"":0}","[0,1]","../img/tt/056tt.jpg","",""
"757.9650000007823","","","recognition","survey-text","499","1460020","0.0-6.0-3.70","2629842","co37960","norming","","","{""guess"":""""}","","../img/tt/056tt.jpg","",""
"null","../img/gs/056gs.jpg","null","reveal","image-keyboard-response","500","1462027","0.0-6.0-4.70","2629842","co37960","norming","","","","","","",""
"null","../img/tt/056tt.jpg","null","mooney2","image-keyboard-response","501","1464035","0.0-6.0-5.70","2629842","co37960","norming","","","","","","",""
"1293.5149999973364","","","post_reveal_questions","survey-likert","502","1465331","0.0-6.0-6.70","2629842","co37960","norming","","","{""aha"":4}","[0]","../img/tt/056tt.jpg","",""
"null","<div style=""font-size:60px;""> </div>","null","fixation","html-keyboard-response","503","1465538","0.0-6.0-0.71","2629842","co37960","norming","","","","","","",""
"null","../img/tt/1159tt.jpg","null","mooney1","image-keyboard-response","504","1468550","0.0-6.0-1.71","2629842","co37960","norming","","","","","","",""
"2859.8750000018626","","","post_mooney1_questions","survey-likert","505","1471412","0.0-6.0-2.71","2629842","co37960","norming","","","{""curiosity"":3,""confidence"":1}","[0,1]","../img/tt/1159tt.jpg","",""
"1888.8499999993946","","","recognition","survey-text","506","1473307","0.0-6.0-3.71","2629842","co37960","norming","","","{""guess"":""a bird""}","","../img/tt/1159tt.jpg","",""
"null","../img/gs/1159gs.jpg","null","reveal","image-keyboard-response","507","1475309","0.0-6.0-4.71","2629842","co37960","norming","","","","","","",""
"null","../img/tt/1159tt.jpg","null","mooney2","image-keyboard-response","508","1477310","0.0-6.0-5.71","2629842","co37960","norming","","","","","","",""
"1348.1700000013225","","","post_reveal_questions","survey-likert","509","1478659","0.0-6.0-6.71","2629842","co37960","norming","","","{""aha"":6}","[0]","../img/tt/1159tt.jpg","",""
"null","<div style=""font-size:60px;""> </div>","null","fixation","html-keyboard-response","510","1478860","0.0-6.0-0.72","2629842","co37960","norming","","","","","","",""
"null","../img/tt/1173tt.jpg","null","mooney1","image-keyboard-response","511","1481870","0.0-6.0-1.72","2629842","co37960","norming","","","","","","",""
"5217.605000001844","","","post_mooney1_questions","survey-likert","512","1487092","0.0-6.0-2.72","2629842","co37960","norming","","","{""curiosity"":1,""confidence"":1}","[0,1]","../img/tt/1173tt.jpg","",""
"5222.540000002366","","","recognition","survey-text","513","1492323","0.0-6.0-3.72","2629842","co37960","norming","","","{""guess"":""hokkyplayer""}","","../img/tt/1173tt.jpg","",""
"null","../img/gs/1173gs.jpg","null","reveal","image-keyboard-response","514","1494328","0.0-6.0-4.72","2629842","co37960","norming","","","","","","",""
"null","../img/tt/1173tt.jpg","null","mooney2","image-keyboard-response","515","1496338","0.0-6.0-5.72","2629842","co37960","norming","","","","","","",""
"3509.6200000008103","","","post_reveal_questions","survey-likert","516","1499851","0.0-6.0-6.72","2629842","co37960","norming","","","{""aha"":2}","[0]","../img/tt/1173tt.jpg","",""
"null","<div style=""font-size:60px;""> </div>","null","fixation","html-keyboard-response","517","1500061","0.0-6.0-0.73","2629842","co37960","norming","","","","","","",""
"null","../img/tt/1262tt.jpg","null","mooney1","image-keyboard-response","518","1503068","0.0-6.0-1.73","2629842","co37960","norming","","","","","","",""
"5571.364999999991","","","post_mooney1_questions","survey-likert","519","1508643","0.0-6.0-2.73","2629842","co37960","norming","","","{""curiosity"":1,""confidence"":1}","[0,1]","../img/tt/1262tt.jpg","",""
"9614.535000000615","","","recognition","survey-text","520","1518259","0.0-6.0-3.73","2629842","co37960","norming","","","{""guess"":""een zeeuwleeuw""}","","../img/tt/1262tt.jpg","",""
"null","../img/gs/1262gs.jpg","null","reveal","image-keyboard-response","521","1520268","0.0-6.0-4.73","2629842","co37960","norming","","","","","","",""
"null","../img/tt/1262tt.jpg","null","mooney2","image-keyboard-response","522","1522275","0.0-6.0-5.73","2629842","co37960","norming","","","","","","",""
"1508.749999997206","","","post_reveal_questions","survey-likert","523","1523787","0.0-6.0-6.73","2629842","co37960","norming","","","{""aha"":3}","[0]","../img/tt/1262tt.jpg","",""
"null","<div style=""font-size:60px;""> </div>","null","fixation","html-keyboard-response","524","1523988","0.0-6.0-0.74","2629842","co37960","norming","","","","","","",""
"null","../img/tt/1040tt.jpg","null","mooney1","image-keyboard-response","525","1526996","0.0-6.0-1.74","2629842","co37960","norming","","","","","","",""
"4354.609999998473","","","post_mooney1_questions","survey-likert","526","1531355","0.0-6.0-2.74","2629842","co37960","norming","","","{""curiosity"":1,""confidence"":1}","[0,1]","../img/tt/1040tt.jpg","",""
"4566.134999997215","","","recognition","survey-text","527","1535923","0.0-6.0-3.74","2629842","co37960","norming","","","{""guess"":""een krokdil ""}","","../img/tt/1040tt.jpg","",""
"null","../img/gs/1040gs.jpg","null","reveal","image-keyboard-response","528","1537925","0.0-6.0-4.74","2629842","co37960","norming","","","","","","",""
"null","../img/tt/1040tt.jpg","null","mooney2","image-keyboard-response","529","1539928","0.0-6.0-5.74","2629842","co37960","norming","","","","","","",""
"2800.0500000016764","","","post_reveal_questions","survey-likert","530","1542731","0.0-6.0-6.74","2629842","co37960","norming","","","{""aha"":6}","[0]","../img/tt/1040tt.jpg","",""
"null","<div style=""font-size:60px;""> </div>","null","fixation","html-keyboard-response","531","1542940","0.0-6.0-0.75","2629842","co37960","norming","","","","","","",""
"null","../img/tt/091tt.jpg","null","mooney1","image-keyboard-response","532","1545943","0.0-6.0-1.75","2629842","co37960","norming","","","","","","",""
"3783.919999998063","","","post_mooney1_questions","survey-likert","533","1549735","0.0-6.0-2.75","2629842","co37960","norming","","","{""curiosity"":0,""confidence"":1}","[0,1]","../img/tt/091tt.jpg","",""
"3166.4349999991246","","","recognition","survey-text","534","1552903","0.0-6.0-3.75","2629842","co37960","norming","","","{""guess"":""een krokdil""}","","../img/tt/091tt.jpg","",""
"null","../img/gs/091gs.jpg","null","reveal","image-keyboard-response","535","1554912","0.0-6.0-4.75","2629842","co37960","norming","","","","","","",""
"null","../img/tt/091tt.jpg","null","mooney2","image-keyboard-response","536","1556914","0.0-6.0-5.75","2629842","co37960","norming","","","","","","",""
"3273.699999998091","","","post_reveal_questions","survey-likert","537","1560191","0.0-6.0-6.75","2629842","co37960","norming","","","{""aha"":4}","[0]","../img/tt/091tt.jpg","",""
"null","<div style=""font-size:60px;""> </div>","null","fixation","html-keyboard-response","538","1560392","0.0-6.0-0.76","2629842","co37960","norming","","","","","","",""
"null","../img/tt/507tt.jpg","null","mooney1","image-keyboard-response","539","1563398","0.0-6.0-1.76","2629842","co37960","norming","","","","","","",""
"4416.225000000792","","","post_mooney1_questions","survey-likert","540","1567815","0.0-6.0-2.76","2629842","co37960","norming","","","{""curiosity"":1,""confidence"":2}","[0,1]","../img/tt/507tt.jpg","",""
"3133.9350000016857","","","recognition","survey-text","541","1570951","0.0-6.0-3.76","2629842","co37960","norming","","","{""guess"":""a giraf""}","","../img/tt/507tt.jpg","",""
"null","../img/gs/507gs.jpg","null","reveal","image-keyboard-response","542","1572953","0.0-6.0-4.76","2629842","co37960","norming","","","","","","",""
"null","../img/tt/507tt.jpg","null","mooney2","image-keyboard-response","543","1574964","0.0-6.0-5.76","2629842","co37960","norming","","","","","","",""
"5999.2050000000745","","","post_reveal_questions","survey-likert","544","1580967","0.0-6.0-6.76","2629842","co37960","norming","","","{""aha"":4}","[0]","../img/tt/507tt.jpg","",""
"null","<div style=""font-size:60px;""> </div>","null","fixation","html-keyboard-response","545","1581177","0.0-6.0-0.77","2629842","co37960","norming","","","","","","",""
"null","../img/tt/222tt.jpg","null","mooney1","image-keyboard-response","546","1584185","0.0-6.0-1.77","2629842","co37960","norming","","","","","","",""
"3538.069999998668","","","post_mooney1_questions","survey-likert","547","1587727","0.0-6.0-2.77","2629842","co37960","norming","","","{""curiosity"":1,""confidence"":0}","[0,1]","../img/tt/222tt.jpg","",""
"525.9850000001024","","","recognition","survey-text","548","1588255","0.0-6.0-3.77","2629842","co37960","norming","","","{""guess"":""""}","","../img/tt/222tt.jpg","",""
"null","../img/gs/222gs.jpg","null","reveal","image-keyboard-response","549","1590265","0.0-6.0-4.77","2629842","co37960","norming","","","","","","",""
"null","../img/tt/222tt.jpg","null","mooney2","image-keyboard-response","550","1592273","0.0-6.0-5.77","2629842","co37960","norming","","","","","","",""
"2658.6150000002235","","","post_reveal_questions","survey-likert","551","1594934","0.0-6.0-6.77","2629842","co37960","norming","","","{""aha"":4}","[0]","../img/tt/222tt.jpg","",""
