"rt","stimulus","key_press","test_part","trial_type","trial_index","time_elapsed","internal_node_id","totalTime","subject","experiment_name","button_pressed","success","responses","question_order","currentStim","old","correct"
"9366.930000000026","Welcome to the experiment. This is an online experiment so please don't close the tab/window until we say goodbye.  Press any key to begin.","32","instructions","html-keyboard-response","0","9382","0.0-0.0","4019329","co37570","norming","","","","","","",""
"36717.805","<div style='word-wrap: break-word; width: 900px'><h3>Please consider this information carefully before deciding whether to participate in this research</h3><ul style='text-align: left; font-size: .8em;'><li><b>Purpose of the research</b>: To examine how people process images.</li><li><b>What you will do in this research</b>:  Stimuli (images) will be presented on the computer and you will be asked different questions about them.</li><li><b>Time required</b>: Participation will take between 45 and 60 minutes to complete.</li><li><b>Risks</b>:  There are no anticipated risks associated with participating in this study. The effects of participating should be comparable to those you would experience from viewing a computer monitor for 30 minutes and using a mouse or keyboard.</li><li><b>Benefits</b>:  This study provides no benefits to you individually except for the credit. The study provides important information about the nature of perception and learning.</li><li><b>Confidentiality</b>:  Your participation in this study will remain confidential. No personally identifiable information will be associated with your data. Your de-identified data may be shared with other researchers and used in future projects.</li><li><b>Participation and withdrawal</b>:  Your participation in this study is completely voluntary and you may refuse to participate or you may choose to withdraw at any time without penalty.</li><li><b>How to contact the researchers</b>: If you have questions or concerns about your participation or payment, or want to request a summary of research findings, please contact Sander Van de Cruys (KU Leuven), at sander.vandecruys@kuleuven.be.</li></ul><p>The nature and purpose of this research have been sufficiently explained and I agree to participate in this study.  I understand that I am free to withdraw at any time without incurring any penalty.</p><p>Please consent by clicking the button below to continue. Otherwise, please exit the study at this time.</p></div>","","instructions","html-button-response","1","46097","0.0-1.0","4019329","co37570","norming","0","","","","","",""
"","","","instructions","fullscreen","2","52358","0.0-2.0","4019329","co37570","norming","","true","","","","",""
"47183.36","","","sona","survey-html-form","3","99549","0.0-3.0","4019329","co37570","norming","","","[{""name"":""sonaid"",""value"":""37570""},{""name"":""debrief"",""value"":""yes""},{""name"":""datajoin"",""value"":""yes""}]","","","",""
"85570.99499999992","<div style='word-wrap: break-word; width: 900px'><h3>Instructions</h3><p>This experiment will have 3 parts. In the first part you will see a series of distorted images like the one below on the left. As you can see in the righthand image, the distorted images are derived from actual photographs. In what follows, you will <strong>briefly</strong> be presented with <strong>only</strong> the distorted image.</p> <div style='float: left; margin-right: 20px;'><img src='../img/018tt.jpg' height='250' width='250'></img></div><div style='float: right; margin-left: 20px;'><img src='../img/018gs.jpg' height='250' width='250'></img></div><p>Subsequently you will be asked a few questions about the image: One question on how <strong>curious</strong> you are about the solution and one on how <strong>confident</strong> you are that you know the solution.</p>Next, we ask you to make a guess on what is in the image. Note that it is OK to name just the <strong>basic level category</strong>. For example when you see a parrot in the image, 'parrot' will obviously be a correct answer but also correct is 'bird'. However, 'animal' will <strong>not</strong> be counted as a correct response. For the example above, 'rose' would be correct or 'flower', but not 'plant'. When soccer players are depicted, 'soccer', 'football', 'soccer players' will be correct, but not 'humans', 'outdoors', or 'sports'. You do not need to describe the image in full, just name the main object in it <strong>in one or two words</strong>. All images depict objects from one of the following broad level categories: animals, inanimate objects, plants, sports, vehicles, and food. Recognizing means knowing <strong>more</strong> than these broad labels for a given image. But we always encourage you to <strong>make a guess</strong> if you can. Note that you are allowed to use <strong>Dutch and English</strong> in your answers, whatever comes easiest for you.</p><p>Press any key to continue.</p></div>","32","instructions","html-keyboard-response","4","185121","0.0-4.0","4019329","co37570","norming","","","","","","",""
"22013.45000000004","<div style='word-wrap: break-word; width: 900px'><h3>Instructions</h3> <p>Next, the solution image will be revealed to you and you'll be asked to indicate how strong your <strong>aha-experience</strong> was after seeing the solution. This describes the positive feeling of the 'click' you sometimes experience, when the pieces of the 'puzzle' fall together and you suddenly have 'insight' in the image.</p><img src='aha.jpg' height='188' width='250'></img><p>Note that there are no right or wrong answers. We are interested in what <strong>you</strong> see in the image and how <strong>you</strong> feel about it.</p><p>Press any key to start the experiment.</p></div>","32","instructions","html-keyboard-response","5","207136","0.0-5.0","4019329","co37570","norming","","","","","","",""
"null","<div style=""font-size:60px;""> </div>","null","fixation","html-keyboard-response","6","207349","0.0-6.0-0.0","4019329","co37570","norming","","","","","","",""
"null","../img/tt/019tt.jpg","null","mooney1","image-keyboard-response","7","210368","0.0-6.0-1.0","4019329","co37570","norming","","","","","","",""
"21557.069999999978","","","post_mooney1_questions","survey-likert","8","231928","0.0-6.0-2.0","4019329","co37570","norming","","","{""curiosity"":6,""confidence"":2}","[0,1]","../img/tt/019tt.jpg","",""
"6341.699999999953","","","recognition","survey-text","9","238272","0.0-6.0-3.0","4019329","co37570","norming","","","{""guess"":""vliegtuig""}","","../img/tt/019tt.jpg","",""
"null","../img/gs/019gs.jpg","null","reveal","image-keyboard-response","10","240281","0.0-6.0-4.0","4019329","co37570","norming","","","","","","",""
"null","../img/tt/019tt.jpg","null","mooney2","image-keyboard-response","11","242284","0.0-6.0-5.0","4019329","co37570","norming","","","","","","",""
"6377.75999999998","","","post_reveal_questions","survey-likert","12","248663","0.0-6.0-6.0","4019329","co37570","norming","","","{""aha"":2}","[0]","../img/tt/019tt.jpg","",""
"null","<div style=""font-size:60px;""> </div>","null","fixation","html-keyboard-response","13","248875","0.0-6.0-0.1","4019329","co37570","norming","","","","","","",""
"null","../img/tt/163tt.jpg","null","mooney1","image-keyboard-response","14","251883","0.0-6.0-1.1","4019329","co37570","norming","","","","","","",""
"11874.13500000001","","","post_mooney1_questions","survey-likert","15","263759","0.0-6.0-2.1","4019329","co37570","norming","","","{""curiosity"":6,""confidence"":2}","[0,1]","../img/tt/163tt.jpg","",""
"3166.164999999979","","","recognition","survey-text","16","266927","0.0-6.0-3.1","4019329","co37570","norming","","","{""guess"":""nier""}","","../img/tt/163tt.jpg","",""
"null","../img/gs/163gs.jpg","null","reveal","image-keyboard-response","17","268935","0.0-6.0-4.1","4019329","co37570","norming","","","","","","",""
"null","../img/tt/163tt.jpg","null","mooney2","image-keyboard-response","18","270937","0.0-6.0-5.1","4019329","co37570","norming","","","","","","",""
"2059.554999999935","","","post_reveal_questions","survey-likert","19","272999","0.0-6.0-6.1","4019329","co37570","norming","","","{""aha"":3}","[0]","../img/tt/163tt.jpg","",""
"null","<div style=""font-size:60px;""> </div>","null","fixation","html-keyboard-response","20","273207","0.0-6.0-0.2","4019329","co37570","norming","","","","","","",""
"null","../img/tt/1040tt.jpg","null","mooney1","image-keyboard-response","21","276220","0.0-6.0-1.2","4019329","co37570","norming","","","","","","",""
"9448.56500000006","","","post_mooney1_questions","survey-likert","22","285671","0.0-6.0-2.2","4019329","co37570","norming","","","{""curiosity"":6,""confidence"":2}","[0,1]","../img/tt/1040tt.jpg","",""
"6982.080000000016","","","recognition","survey-text","23","292655","0.0-6.0-3.2","4019329","co37570","norming","","","{""guess"":""krokodiel""}","","../img/tt/1040tt.jpg","",""
"null","../img/gs/1040gs.jpg","null","reveal","image-keyboard-response","24","294660","0.0-6.0-4.2","4019329","co37570","norming","","","","","","",""
"null","../img/tt/1040tt.jpg","null","mooney2","image-keyboard-response","25","296669","0.0-6.0-5.2","4019329","co37570","norming","","","","","","",""
"4487.830000000016","","","post_reveal_questions","survey-likert","26","301159","0.0-6.0-6.2","4019329","co37570","norming","","","{""aha"":4}","[0]","../img/tt/1040tt.jpg","",""
"null","<div style=""font-size:60px;""> </div>","null","fixation","html-keyboard-response","27","301374","0.0-6.0-0.3","4019329","co37570","norming","","","","","","",""
"null","../img/tt/1189tt.jpg","null","mooney1","image-keyboard-response","28","304383","0.0-6.0-1.3","4019329","co37570","norming","","","","","","",""
"5100.994999999995","","","post_mooney1_questions","survey-likert","29","309481","0.0-6.0-2.3","4019329","co37570","norming","","","{""curiosity"":6,""confidence"":0}","[0,1]","../img/tt/1189tt.jpg","",""
"5806.014999999956","","","recognition","survey-text","30","315289","0.0-6.0-3.3","4019329","co37570","norming","","","{""guess"":""snow""}","","../img/tt/1189tt.jpg","",""
"null","../img/gs/1189gs.jpg","null","reveal","image-keyboard-response","31","317295","0.0-6.0-4.3","4019329","co37570","norming","","","","","","",""
"null","../img/tt/1189tt.jpg","null","mooney2","image-keyboard-response","32","319297","0.0-6.0-5.3","4019329","co37570","norming","","","","","","",""
"3270.445000000007","","","post_reveal_questions","survey-likert","33","322569","0.0-6.0-6.3","4019329","co37570","norming","","","{""aha"":6}","[0]","../img/tt/1189tt.jpg","",""
"null","<div style=""font-size:60px;""> </div>","null","fixation","html-keyboard-response","34","322770","0.0-6.0-0.4","4019329","co37570","norming","","","","","","",""
"null","../img/tt/1161tt.jpg","null","mooney1","image-keyboard-response","35","325781","0.0-6.0-1.4","4019329","co37570","norming","","","","","","",""
"3504.8099999999977","","","post_mooney1_questions","survey-likert","36","329289","0.0-6.0-2.4","4019329","co37570","norming","","","{""curiosity"":6,""confidence"":4}","[0,1]","../img/tt/1161tt.jpg","",""
"13070.41499999992","","","recognition","survey-text","37","342361","0.0-6.0-3.4","4019329","co37570","norming","","","{""guess"":""watersky""}","","../img/tt/1161tt.jpg","",""
"null","../img/gs/1161gs.jpg","null","reveal","image-keyboard-response","38","344363","0.0-6.0-4.4","4019329","co37570","norming","","","","","","",""
"null","../img/tt/1161tt.jpg","null","mooney2","image-keyboard-response","39","346381","0.0-6.0-5.4","4019329","co37570","norming","","","","","","",""
"4507.114999999991","","","post_reveal_questions","survey-likert","40","350889","0.0-6.0-6.4","4019329","co37570","norming","","","{""aha"":6}","[0]","../img/tt/1161tt.jpg","",""
"null","<div style=""font-size:60px;""> </div>","null","fixation","html-keyboard-response","41","351101","0.0-6.0-0.5","4019329","co37570","norming","","","","","","",""
"null","../img/tt/1066tt.jpg","null","mooney1","image-keyboard-response","42","354104","0.0-6.0-1.5","4019329","co37570","norming","","","","","","",""
"6342.579999999958","","","post_mooney1_questions","survey-likert","43","360449","0.0-6.0-2.5","4019329","co37570","norming","","","{""curiosity"":6,""confidence"":6}","[0,1]","../img/tt/1066tt.jpg","",""
"9574.025000000023","","","recognition","survey-text","44","370023","0.0-6.0-3.5","4019329","co37570","norming","","","{""guess"":""bus op straat""}","","../img/tt/1066tt.jpg","",""
"null","../img/gs/1066gs.jpg","null","reveal","image-keyboard-response","45","372024","0.0-6.0-4.5","4019329","co37570","norming","","","","","","",""
"null","../img/tt/1066tt.jpg","null","mooney2","image-keyboard-response","46","374039","0.0-6.0-5.5","4019329","co37570","norming","","","","","","",""
"2166.1650000000955","","","post_reveal_questions","survey-likert","47","376207","0.0-6.0-6.5","4019329","co37570","norming","","","{""aha"":6}","[0]","../img/tt/1066tt.jpg","",""
"null","<div style=""font-size:60px;""> </div>","null","fixation","html-keyboard-response","48","376415","0.0-6.0-0.6","4019329","co37570","norming","","","","","","",""
"null","../img/tt/1228tt.jpg","null","mooney1","image-keyboard-response","49","379426","0.0-6.0-1.6","4019329","co37570","norming","","","","","","",""
"6970.464999999967","","","post_mooney1_questions","survey-likert","50","386399","0.0-6.0-2.6","4019329","co37570","norming","","","{""curiosity"":6,""confidence"":2}","[0,1]","../img/tt/1228tt.jpg","",""
"4110.225000000035","","","recognition","survey-text","51","390511","0.0-6.0-3.6","4019329","co37570","norming","","","{""guess"":""vogel""}","","../img/tt/1228tt.jpg","",""
"null","../img/gs/1228gs.jpg","null","reveal","image-keyboard-response","52","392523","0.0-6.0-4.6","4019329","co37570","norming","","","","","","",""
"null","../img/tt/1228tt.jpg","null","mooney2","image-keyboard-response","53","394537","0.0-6.0-5.6","4019329","co37570","norming","","","","","","",""
"3211.7799999999697","","","post_reveal_questions","survey-likert","54","397751","0.0-6.0-6.6","4019329","co37570","norming","","","{""aha"":6}","[0]","../img/tt/1228tt.jpg","",""
"null","<div style=""font-size:60px;""> </div>","null","fixation","html-keyboard-response","55","397961","0.0-6.0-0.7","4019329","co37570","norming","","","","","","",""
"null","../img/tt/1309tt.jpg","null","mooney1","image-keyboard-response","56","400967","0.0-6.0-1.7","4019329","co37570","norming","","","","","","",""
"6933.760000000009","","","post_mooney1_questions","survey-likert","57","407903","0.0-6.0-2.7","4019329","co37570","norming","","","{""curiosity"":6,""confidence"":4}","[0,1]","../img/tt/1309tt.jpg","",""
"5374.074999999953","","","recognition","survey-text","58","413279","0.0-6.0-3.7","4019329","co37570","norming","","","{""guess"":""traktor""}","","../img/tt/1309tt.jpg","",""
"null","../img/gs/1309gs.jpg","null","reveal","image-keyboard-response","59","415285","0.0-6.0-4.7","4019329","co37570","norming","","","","","","",""
"null","../img/tt/1309tt.jpg","null","mooney2","image-keyboard-response","60","417300","0.0-6.0-5.7","4019329","co37570","norming","","","","","","",""
"2826.365000000049","","","post_reveal_questions","survey-likert","61","420127","0.0-6.0-6.7","4019329","co37570","norming","","","{""aha"":6}","[0]","../img/tt/1309tt.jpg","",""
"null","<div style=""font-size:60px;""> </div>","null","fixation","html-keyboard-response","62","420343","0.0-6.0-0.8","4019329","co37570","norming","","","","","","",""
"null","../img/tt/1254tt.jpg","null","mooney1","image-keyboard-response","63","423352","0.0-6.0-1.8","4019329","co37570","norming","","","","","","",""
"4669.444999999891","","","post_mooney1_questions","survey-likert","64","428023","0.0-6.0-2.8","4019329","co37570","norming","","","{""curiosity"":6,""confidence"":6}","[0,1]","../img/tt/1254tt.jpg","",""
"3502.020000000135","","","recognition","survey-text","65","431538","0.0-6.0-3.8","4019329","co37570","norming","","","{""guess"":""konijn""}","","../img/tt/1254tt.jpg","",""
"null","../img/gs/1254gs.jpg","null","reveal","image-keyboard-response","66","433551","0.0-6.0-4.8","4019329","co37570","norming","","","","","","",""
"null","../img/tt/1254tt.jpg","null","mooney2","image-keyboard-response","67","435558","0.0-6.0-5.8","4019329","co37570","norming","","","","","","",""
"1938.0750000000116","","","post_reveal_questions","survey-likert","68","437498","0.0-6.0-6.8","4019329","co37570","norming","","","{""aha"":6}","[0]","../img/tt/1254tt.jpg","",""
"null","<div style=""font-size:60px;""> </div>","null","fixation","html-keyboard-response","69","437713","0.0-6.0-0.9","4019329","co37570","norming","","","","","","",""
"null","../img/tt/1190tt.jpg","null","mooney1","image-keyboard-response","70","440728","0.0-6.0-1.9","4019329","co37570","norming","","","","","","",""
"3959.679999999935","","","post_mooney1_questions","survey-likert","71","444690","0.0-6.0-2.9","4019329","co37570","norming","","","{""curiosity"":6,""confidence"":0}","[0,1]","../img/tt/1190tt.jpg","",""
"4126.064999999944","","","recognition","survey-text","72","448818","0.0-6.0-3.9","4019329","co37570","norming","","","{""guess"":""dier""}","","../img/tt/1190tt.jpg","",""
"null","../img/gs/1190gs.jpg","null","reveal","image-keyboard-response","73","450827","0.0-6.0-4.9","4019329","co37570","norming","","","","","","",""
"null","../img/tt/1190tt.jpg","null","mooney2","image-keyboard-response","74","452829","0.0-6.0-5.9","4019329","co37570","norming","","","","","","",""
"4755.834999999963","","","post_reveal_questions","survey-likert","75","457586","0.0-6.0-6.9","4019329","co37570","norming","","","{""aha"":5}","[0]","../img/tt/1190tt.jpg","",""
"null","<div style=""font-size:60px;""> </div>","null","fixation","html-keyboard-response","76","457794","0.0-6.0-0.10","4019329","co37570","norming","","","","","","",""
"null","../img/tt/060tt.jpg","null","mooney1","image-keyboard-response","77","460807","0.0-6.0-1.10","4019329","co37570","norming","","","","","","",""
"4537.719999999797","","","post_mooney1_questions","survey-likert","78","465346","0.0-6.0-2.10","4019329","co37570","norming","","","{""curiosity"":6,""confidence"":4}","[0,1]","../img/tt/060tt.jpg","",""
"4341.09500000003","","","recognition","survey-text","79","469690","0.0-6.0-3.10","4019329","co37570","norming","","","{""guess"":""helm""}","","../img/tt/060tt.jpg","",""
"null","../img/gs/060gs.jpg","null","reveal","image-keyboard-response","80","471706","0.0-6.0-4.10","4019329","co37570","norming","","","","","","",""
"null","../img/tt/060tt.jpg","null","mooney2","image-keyboard-response","81","473712","0.0-6.0-5.10","4019329","co37570","norming","","","","","","",""
"2032.2300000000396","","","post_reveal_questions","survey-likert","82","475746","0.0-6.0-6.10","4019329","co37570","norming","","","{""aha"":6}","[0]","../img/tt/060tt.jpg","",""
"null","<div style=""font-size:60px;""> </div>","null","fixation","html-keyboard-response","83","475956","0.0-6.0-0.11","4019329","co37570","norming","","","","","","",""
"null","../img/tt/001tt.jpg","null","mooney1","image-keyboard-response","84","478966","0.0-6.0-1.11","4019329","co37570","norming","","","","","","",""
"14498.760000000126","","","post_mooney1_questions","survey-likert","85","493455","0.0-6.0-2.11","4019329","co37570","norming","","","{""curiosity"":6,""confidence"":3}","[0,1]","../img/tt/001tt.jpg","",""
"9221.994999999879","","","recognition","survey-text","86","502679","0.0-6.0-3.11","4019329","co37570","norming","","","{""guess"":""vos""}","","../img/tt/001tt.jpg","",""
"null","../img/gs/001gs.jpg","null","reveal","image-keyboard-response","87","504681","0.0-6.0-4.11","4019329","co37570","norming","","","","","","",""
"null","../img/tt/001tt.jpg","null","mooney2","image-keyboard-response","88","506683","0.0-6.0-5.11","4019329","co37570","norming","","","","","","",""
"2594.3600000000442","","","post_reveal_questions","survey-likert","89","509279","0.0-6.0-6.11","4019329","co37570","norming","","","{""aha"":4}","[0]","../img/tt/001tt.jpg","",""
"null","<div style=""font-size:60px;""> </div>","null","fixation","html-keyboard-response","90","509483","0.0-6.0-0.12","4019329","co37570","norming","","","","","","",""
"null","../img/tt/307tt.jpg","null","mooney1","image-keyboard-response","91","512487","0.0-6.0-1.12","4019329","co37570","norming","","","","","","",""
"3119.960000000021","","","post_mooney1_questions","survey-likert","92","515607","0.0-6.0-2.12","4019329","co37570","norming","","","{""curiosity"":6,""confidence"":5}","[0,1]","../img/tt/307tt.jpg","",""
"4798.124999999825","","","recognition","survey-text","93","520407","0.0-6.0-3.12","4019329","co37570","norming","","","{""guess"":""schildpad""}","","../img/tt/307tt.jpg","",""
"null","../img/gs/307gs.jpg","null","reveal","image-keyboard-response","94","522417","0.0-6.0-4.12","4019329","co37570","norming","","","","","","",""
"null","../img/tt/307tt.jpg","null","mooney2","image-keyboard-response","95","524419","0.0-6.0-5.12","4019329","co37570","norming","","","","","","",""
"2265.8150000000605","","","post_reveal_questions","survey-likert","96","526687","0.0-6.0-6.12","4019329","co37570","norming","","","{""aha"":6}","[0]","../img/tt/307tt.jpg","",""
"null","<div style=""font-size:60px;""> </div>","null","fixation","html-keyboard-response","97","526892","0.0-6.0-0.13","4019329","co37570","norming","","","","","","",""
"null","../img/tt/1096tt.jpg","null","mooney1","image-keyboard-response","98","529905","0.0-6.0-1.13","4019329","co37570","norming","","","","","","",""
"8851.415000000154","","","post_mooney1_questions","survey-likert","99","538759","0.0-6.0-2.13","4019329","co37570","norming","","","{""curiosity"":6,""confidence"":3}","[0,1]","../img/tt/1096tt.jpg","",""
"10942.080000000075","","","recognition","survey-text","100","549703","0.0-6.0-3.13","4019329","co37570","norming","","","{""guess"":""primitieve houten vliegtuig""}","","../img/tt/1096tt.jpg","",""
"null","../img/gs/1096gs.jpg","null","reveal","image-keyboard-response","101","551707","0.0-6.0-4.13","4019329","co37570","norming","","","","","","",""
"null","../img/tt/1096tt.jpg","null","mooney2","image-keyboard-response","102","553734","0.0-6.0-5.13","4019329","co37570","norming","","","","","","",""
"3780.640000000014","","","post_reveal_questions","survey-likert","103","557517","0.0-6.0-6.13","4019329","co37570","norming","","","{""aha"":5}","[0]","../img/tt/1096tt.jpg","",""
"null","<div style=""font-size:60px;""> </div>","null","fixation","html-keyboard-response","104","557727","0.0-6.0-0.14","4019329","co37570","norming","","","","","","",""
"null","../img/tt/357tt.jpg","null","mooney1","image-keyboard-response","105","560740","0.0-6.0-1.14","4019329","co37570","norming","","","","","","",""
"6926.030000000028","","","post_mooney1_questions","survey-likert","106","567669","0.0-6.0-2.14","4019329","co37570","norming","","","{""curiosity"":6,""confidence"":5}","[0,1]","../img/tt/357tt.jpg","",""
"3350.130000000121","","","recognition","survey-text","107","571021","0.0-6.0-3.14","4019329","co37570","norming","","","{""guess"":""egel""}","","../img/tt/357tt.jpg","",""
"null","../img/gs/357gs.jpg","null","reveal","image-keyboard-response","108","573031","0.0-6.0-4.14","4019329","co37570","norming","","","","","","",""
"null","../img/tt/357tt.jpg","null","mooney2","image-keyboard-response","109","575035","0.0-6.0-5.14","4019329","co37570","norming","","","","","","",""
"2815.405000000028","","","post_reveal_questions","survey-likert","110","577853","0.0-6.0-6.14","4019329","co37570","norming","","","{""aha"":6}","[0]","../img/tt/357tt.jpg","",""
"null","<div style=""font-size:60px;""> </div>","null","fixation","html-keyboard-response","111","578056","0.0-6.0-0.15","4019329","co37570","norming","","","","","","",""
"null","../img/tt/1078tt.jpg","null","mooney1","image-keyboard-response","112","581064","0.0-6.0-1.15","4019329","co37570","norming","","","","","","",""
"15754.0900000002","","","post_mooney1_questions","survey-likert","113","596821","0.0-6.0-2.15","4019329","co37570","norming","","","{""curiosity"":6,""confidence"":6}","[0,1]","../img/tt/1078tt.jpg","",""
"70373.8350000002","","","recognition","survey-text","114","667182","0.0-6.0-3.15","4019329","co37570","norming","","","{""guess"":""streetsport: boord op willetjes en je kan trukjes op doen""}","","../img/tt/1078tt.jpg","",""
"null","../img/gs/1078gs.jpg","null","reveal","image-keyboard-response","115","669183","0.0-6.0-4.15","4019329","co37570","norming","","","","","","",""
"null","../img/tt/1078tt.jpg","null","mooney2","image-keyboard-response","116","671190","0.0-6.0-5.15","4019329","co37570","norming","","","","","","",""
"2198.4749999998603","","","post_reveal_questions","survey-likert","117","673390","0.0-6.0-6.15","4019329","co37570","norming","","","{""aha"":6}","[0]","../img/tt/1078tt.jpg","",""
"null","<div style=""font-size:60px;""> </div>","null","fixation","html-keyboard-response","118","673591","0.0-6.0-0.16","4019329","co37570","norming","","","","","","",""
"null","../img/tt/1188tt.jpg","null","mooney1","image-keyboard-response","119","676614","0.0-6.0-1.16","4019329","co37570","norming","","","","","","",""
"3453.3349999999627","","","post_mooney1_questions","survey-likert","120","680069","0.0-6.0-2.16","4019329","co37570","norming","","","{""curiosity"":6,""confidence"":6}","[0,1]","../img/tt/1188tt.jpg","",""
"9606.120000000112","","","recognition","survey-text","121","689677","0.0-6.0-3.16","4019329","co37570","norming","","","{""guess"":""wielrenner""}","","../img/tt/1188tt.jpg","",""
"null","../img/gs/1188gs.jpg","null","reveal","image-keyboard-response","122","691692","0.0-6.0-4.16","4019329","co37570","norming","","","","","","",""
"null","../img/tt/1188tt.jpg","null","mooney2","image-keyboard-response","123","693694","0.0-6.0-5.16","4019329","co37570","norming","","","","","","",""
"2413.3699999999953","","","post_reveal_questions","survey-likert","124","696109","0.0-6.0-6.16","4019329","co37570","norming","","","{""aha"":6}","[0]","../img/tt/1188tt.jpg","",""
"null","<div style=""font-size:60px;""> </div>","null","fixation","html-keyboard-response","125","696312","0.0-6.0-0.17","4019329","co37570","norming","","","","","","",""
"null","../img/tt/1307tt.jpg","null","mooney1","image-keyboard-response","126","699315","0.0-6.0-1.17","4019329","co37570","norming","","","","","","",""
"5296.660000000033","","","post_mooney1_questions","survey-likert","127","704613","0.0-6.0-2.17","4019329","co37570","norming","","","{""curiosity"":6,""confidence"":2}","[0,1]","../img/tt/1307tt.jpg","",""
"35685.95499999996","","","recognition","survey-text","128","740301","0.0-6.0-3.17","4019329","co37570","norming","","","{""guess"":""liberty stambeeld van new york""}","","../img/tt/1307tt.jpg","",""
"null","../img/gs/1307gs.jpg","null","reveal","image-keyboard-response","129","742302","0.0-6.0-4.17","4019329","co37570","norming","","","","","","",""
"null","../img/tt/1307tt.jpg","null","mooney2","image-keyboard-response","130","744305","0.0-6.0-5.17","4019329","co37570","norming","","","","","","",""
"3090.729999999865","","","post_reveal_questions","survey-likert","131","747397","0.0-6.0-6.17","4019329","co37570","norming","","","{""aha"":5}","[0]","../img/tt/1307tt.jpg","",""
"null","<div style=""font-size:60px;""> </div>","null","fixation","html-keyboard-response","132","747610","0.0-6.0-0.18","4019329","co37570","norming","","","","","","",""
"null","../img/tt/094tt.jpg","null","mooney1","image-keyboard-response","133","750617","0.0-6.0-1.18","4019329","co37570","norming","","","","","","",""
"3521.715000000084","","","post_mooney1_questions","survey-likert","134","754141","0.0-6.0-2.18","4019329","co37570","norming","","","{""curiosity"":6,""confidence"":3}","[0,1]","../img/tt/094tt.jpg","",""
"3558.139999999781","","","recognition","survey-text","135","757701","0.0-6.0-3.18","4019329","co37570","norming","","","{""guess"":""volf""}","","../img/tt/094tt.jpg","",""
"null","../img/gs/094gs.jpg","null","reveal","image-keyboard-response","136","759713","0.0-6.0-4.18","4019329","co37570","norming","","","","","","",""
"null","../img/tt/094tt.jpg","null","mooney2","image-keyboard-response","137","761716","0.0-6.0-5.18","4019329","co37570","norming","","","","","","",""
"2238.5500000000466","","","post_reveal_questions","survey-likert","138","763957","0.0-6.0-6.18","4019329","co37570","norming","","","{""aha"":6}","[0]","../img/tt/094tt.jpg","",""
"null","<div style=""font-size:60px;""> </div>","null","fixation","html-keyboard-response","139","764158","0.0-6.0-0.19","4019329","co37570","norming","","","","","","",""
"null","../img/tt/319tt.jpg","null","mooney1","image-keyboard-response","140","767161","0.0-6.0-1.19","4019329","co37570","norming","","","","","","",""
"4761.659999999916","","","post_mooney1_questions","survey-likert","141","771925","0.0-6.0-2.19","4019329","co37570","norming","","","{""curiosity"":6,""confidence"":3}","[0,1]","../img/tt/319tt.jpg","",""
"4398","","","recognition","survey-text","142","776324","0.0-6.0-3.19","4019329","co37570","norming","","","{""guess"":""koe""}","","../img/tt/319tt.jpg","",""
"null","../img/gs/319gs.jpg","null","reveal","image-keyboard-response","143","778329","0.0-6.0-4.19","4019329","co37570","norming","","","","","","",""
"null","../img/tt/319tt.jpg","null","mooney2","image-keyboard-response","144","780346","0.0-6.0-5.19","4019329","co37570","norming","","","","","","",""
"2184.1049999999814","","","post_reveal_questions","survey-likert","145","782533","0.0-6.0-6.19","4019329","co37570","norming","","","{""aha"":6}","[0]","../img/tt/319tt.jpg","",""
"null","<div style=""font-size:60px;""> </div>","null","fixation","html-keyboard-response","146","782734","0.0-6.0-0.20","4019329","co37570","norming","","","","","","",""
"null","../img/tt/406tt.jpg","null","mooney1","image-keyboard-response","147","785747","0.0-6.0-1.20","4019329","co37570","norming","","","","","","",""
"3607.7050000000745","","","post_mooney1_questions","survey-likert","148","789357","0.0-6.0-2.20","4019329","co37570","norming","","","{""curiosity"":6,""confidence"":1}","[0,1]","../img/tt/406tt.jpg","",""
"10302.050000000047","","","recognition","survey-text","149","799587","0.0-6.0-3.20","4019329","co37570","norming","","","{""guess"":""vliermuis""}","","../img/tt/406tt.jpg","",""
"null","../img/gs/406gs.jpg","null","reveal","image-keyboard-response","150","801601","0.0-6.0-4.20","4019329","co37570","norming","","","","","","",""
"null","../img/tt/406tt.jpg","null","mooney2","image-keyboard-response","151","803616","0.0-6.0-5.20","4019329","co37570","norming","","","","","","",""
"2585.2700000000186","","","post_reveal_questions","survey-likert","152","806203","0.0-6.0-6.20","4019329","co37570","norming","","","{""aha"":6}","[0]","../img/tt/406tt.jpg","",""
"null","<div style=""font-size:60px;""> </div>","null","fixation","html-keyboard-response","153","806409","0.0-6.0-0.21","4019329","co37570","norming","","","","","","",""
"null","../img/tt/1243tt.jpg","null","mooney1","image-keyboard-response","154","809412","0.0-6.0-1.21","4019329","co37570","norming","","","","","","",""
"5349.165000000154","","","post_mooney1_questions","survey-likert","155","814764","0.0-6.0-2.21","4019329","co37570","norming","","","{""curiosity"":6,""confidence"":2}","[0,1]","../img/tt/1243tt.jpg","",""
"11022.18499999994","","","recognition","survey-text","156","825787","0.0-6.0-3.21","4019329","co37570","norming","","","{""guess"":""beer in de zoo""}","","../img/tt/1243tt.jpg","",""
"null","../img/gs/1243gs.jpg","null","reveal","image-keyboard-response","157","827790","0.0-6.0-4.21","4019329","co37570","norming","","","","","","",""
"null","../img/tt/1243tt.jpg","null","mooney2","image-keyboard-response","158","829794","0.0-6.0-5.21","4019329","co37570","norming","","","","","","",""
"3231.3449999998556","","","post_reveal_questions","survey-likert","159","833027","0.0-6.0-6.21","4019329","co37570","norming","","","{""aha"":6}","[0]","../img/tt/1243tt.jpg","",""
"null","<div style=""font-size:60px;""> </div>","null","fixation","html-keyboard-response","160","833228","0.0-6.0-0.22","4019329","co37570","norming","","","","","","",""
"null","../img/tt/126tt.jpg","null","mooney1","image-keyboard-response","161","836230","0.0-6.0-1.22","4019329","co37570","norming","","","","","","",""
"8234.724999999977","","","post_mooney1_questions","survey-likert","162","844468","0.0-6.0-2.22","4019329","co37570","norming","","","{""curiosity"":6,""confidence"":4}","[0,1]","../img/tt/126tt.jpg","",""
"14973.98999999999","","","recognition","survey-text","163","859299","0.0-6.0-3.22","4019329","co37570","norming","","","{""guess"":""walvis onder water""}","","../img/tt/126tt.jpg","",""
"null","../img/gs/126gs.jpg","null","reveal","image-keyboard-response","164","861307","0.0-6.0-4.22","4019329","co37570","norming","","","","","","",""
"null","../img/tt/126tt.jpg","null","mooney2","image-keyboard-response","165","863324","0.0-6.0-5.22","4019329","co37570","norming","","","","","","",""
"5276.845000000205","","","post_reveal_questions","survey-likert","166","868603","0.0-6.0-6.22","4019329","co37570","norming","","","{""aha"":4}","[0]","../img/tt/126tt.jpg","",""
"null","<div style=""font-size:60px;""> </div>","null","fixation","html-keyboard-response","167","868805","0.0-6.0-0.23","4019329","co37570","norming","","","","","","",""
"null","../img/tt/1087tt.jpg","null","mooney1","image-keyboard-response","168","871817","0.0-6.0-1.23","4019329","co37570","norming","","","","","","",""
"7429.660000000033","","","post_mooney1_questions","survey-likert","169","879251","0.0-6.0-2.23","4019329","co37570","norming","","","{""curiosity"":6,""confidence"":2}","[0,1]","../img/tt/1087tt.jpg","",""
"7166.185000000056","","","recognition","survey-text","170","886419","0.0-6.0-3.23","4019329","co37570","norming","","","{""guess"":""zeehonden""}","","../img/tt/1087tt.jpg","",""
"null","../img/gs/1087gs.jpg","null","reveal","image-keyboard-response","171","888429","0.0-6.0-4.23","4019329","co37570","norming","","","","","","",""
"null","../img/tt/1087tt.jpg","null","mooney2","image-keyboard-response","172","890431","0.0-6.0-5.23","4019329","co37570","norming","","","","","","",""
"8994.020000000135","","","post_reveal_questions","survey-likert","173","899427","0.0-6.0-6.23","4019329","co37570","norming","","","{""aha"":4}","[0]","../img/tt/1087tt.jpg","",""
"null","<div style=""font-size:60px;""> </div>","null","fixation","html-keyboard-response","174","899640","0.0-6.0-0.24","4019329","co37570","norming","","","","","","",""
"null","../img/tt/1046tt.jpg","null","mooney1","image-keyboard-response","175","902654","0.0-6.0-1.24","4019329","co37570","norming","","","","","","",""
"4690.399999999907","","","post_mooney1_questions","survey-likert","176","907347","0.0-6.0-2.24","4019329","co37570","norming","","","{""curiosity"":6,""confidence"":3}","[0,1]","../img/tt/1046tt.jpg","",""
"8390.040000000037","","","recognition","survey-text","177","915739","0.0-6.0-3.24","4019329","co37570","norming","","","{""guess"":""pizza op een boord""}","","../img/tt/1046tt.jpg","",""
"null","../img/gs/1046gs.jpg","null","reveal","image-keyboard-response","178","917601","0.0-6.0-4.24","4019329","co37570","norming","","","","","","",""
"null","../img/tt/1046tt.jpg","null","mooney2","image-keyboard-response","179","919609","0.0-6.0-5.24","4019329","co37570","norming","","","","","","",""
"3746.329999999958","","","post_reveal_questions","survey-likert","180","923358","0.0-6.0-6.24","4019329","co37570","norming","","","{""aha"":6}","[0]","../img/tt/1046tt.jpg","",""
"null","<div style=""font-size:60px;""> </div>","null","fixation","html-keyboard-response","181","923573","0.0-6.0-0.25","4019329","co37570","norming","","","","","","",""
"null","../img/tt/1122tt.jpg","null","mooney1","image-keyboard-response","182","926586","0.0-6.0-1.25","4019329","co37570","norming","","","","","","",""
"6457.035000000149","","","post_mooney1_questions","survey-likert","183","933046","0.0-6.0-2.25","4019329","co37570","norming","","","{""curiosity"":6,""confidence"":5}","[0,1]","../img/tt/1122tt.jpg","",""
"14806.149999999907","","","recognition","survey-text","184","947854","0.0-6.0-3.25","4019329","co37570","norming","","","{""guess"":""bootjes in en dok""}","","../img/tt/1122tt.jpg","",""
"null","../img/gs/1122gs.jpg","null","reveal","image-keyboard-response","185","949863","0.0-6.0-4.25","4019329","co37570","norming","","","","","","",""
"null","../img/tt/1122tt.jpg","null","mooney2","image-keyboard-response","186","951876","0.0-6.0-5.25","4019329","co37570","norming","","","","","","",""
"2375.4299999998184","","","post_reveal_questions","survey-likert","187","954254","0.0-6.0-6.25","4019329","co37570","norming","","","{""aha"":6}","[0]","../img/tt/1122tt.jpg","",""
"null","<div style=""font-size:60px;""> </div>","null","fixation","html-keyboard-response","188","954460","0.0-6.0-0.26","4019329","co37570","norming","","","","","","",""
"null","../img/tt/1027tt.jpg","null","mooney1","image-keyboard-response","189","957475","0.0-6.0-1.26","4019329","co37570","norming","","","","","","",""
"3288.4299999998184","","","post_mooney1_questions","survey-likert","190","960766","0.0-6.0-2.26","4019329","co37570","norming","","","{""curiosity"":6,""confidence"":5}","[0,1]","../img/tt/1027tt.jpg","",""
"9566.13500000001","","","recognition","survey-text","191","970334","0.0-6.0-3.26","4019329","co37570","norming","","","{""guess"":""koe kop""}","","../img/tt/1027tt.jpg","",""
"null","../img/gs/1027gs.jpg","null","reveal","image-keyboard-response","192","972342","0.0-6.0-4.26","4019329","co37570","norming","","","","","","",""
"null","../img/tt/1027tt.jpg","null","mooney2","image-keyboard-response","193","974357","0.0-6.0-5.26","4019329","co37570","norming","","","","","","",""
"2206.2349999998696","","","post_reveal_questions","survey-likert","194","976566","0.0-6.0-6.26","4019329","co37570","norming","","","{""aha"":6}","[0]","../img/tt/1027tt.jpg","",""
"null","<div style=""font-size:60px;""> </div>","null","fixation","html-keyboard-response","195","976774","0.0-6.0-0.27","4019329","co37570","norming","","","","","","",""
"null","../img/tt/1126tt.jpg","null","mooney1","image-keyboard-response","196","979630","0.0-6.0-1.27","4019329","co37570","norming","","","","","","",""
"4244.7050000000745","","","post_mooney1_questions","survey-likert","197","983876","0.0-6.0-2.27","4019329","co37570","norming","","","{""curiosity"":6,""confidence"":5}","[0,1]","../img/tt/1126tt.jpg","",""
"16958.04999999993","","","recognition","survey-text","198","1000836","0.0-6.0-3.27","4019329","co37570","norming","","","{""guess"":""bergklimmen""}","","../img/tt/1126tt.jpg","",""
"null","../img/gs/1126gs.jpg","null","reveal","image-keyboard-response","199","1002849","0.0-6.0-4.27","4019329","co37570","norming","","","","","","",""
"null","../img/tt/1126tt.jpg","null","mooney2","image-keyboard-response","200","1004852","0.0-6.0-5.27","4019329","co37570","norming","","","","","","",""
"2118.5150000001304","","","post_reveal_questions","survey-likert","201","1006972","0.0-6.0-6.27","4019329","co37570","norming","","","{""aha"":6}","[0]","../img/tt/1126tt.jpg","",""
"null","<div style=""font-size:60px;""> </div>","null","fixation","html-keyboard-response","202","1007176","0.0-6.0-0.28","4019329","co37570","norming","","","","","","",""
"null","../img/tt/1272tt.jpg","null","mooney1","image-keyboard-response","203","1010184","0.0-6.0-1.28","4019329","co37570","norming","","","","","","",""
"5528.954999999958","","","post_mooney1_questions","survey-likert","204","1015716","0.0-6.0-2.28","4019329","co37570","norming","","","{""curiosity"":6,""confidence"":3}","[0,1]","../img/tt/1272tt.jpg","",""
"14878.084999999846","","","recognition","survey-text","205","1030596","0.0-6.0-3.28","4019329","co37570","norming","","","{""guess"":""dier achter de metalen net""}","","../img/tt/1272tt.jpg","",""
"null","../img/gs/1272gs.jpg","null","reveal","image-keyboard-response","206","1032609","0.0-6.0-4.28","4019329","co37570","norming","","","","","","",""
"null","../img/tt/1272tt.jpg","null","mooney2","image-keyboard-response","207","1034625","0.0-6.0-5.28","4019329","co37570","norming","","","","","","",""
"2392.6200000001118","","","post_reveal_questions","survey-likert","208","1037020","0.0-6.0-6.28","4019329","co37570","norming","","","{""aha"":6}","[0]","../img/tt/1272tt.jpg","",""
"null","<div style=""font-size:60px;""> </div>","null","fixation","html-keyboard-response","209","1037224","0.0-6.0-0.29","4019329","co37570","norming","","","","","","",""
"null","../img/tt/007tt.jpg","null","mooney1","image-keyboard-response","210","1040086","0.0-6.0-1.29","4019329","co37570","norming","","","","","","",""
"3459.9550000003073","","","post_mooney1_questions","survey-likert","211","1043549","0.0-6.0-2.29","4019329","co37570","norming","","","{""curiosity"":6,""confidence"":0}","[0,1]","../img/tt/007tt.jpg","",""
"10134.479999999632","","","recognition","survey-text","212","1053685","0.0-6.0-3.29","4019329","co37570","norming","","","{""guess"":""zeevier""}","","../img/tt/007tt.jpg","",""
"null","../img/gs/007gs.jpg","null","reveal","image-keyboard-response","213","1055687","0.0-6.0-4.29","4019329","co37570","norming","","","","","","",""
"null","../img/tt/007tt.jpg","null","mooney2","image-keyboard-response","214","1057691","0.0-6.0-5.29","4019329","co37570","norming","","","","","","",""
"2287.4749999998603","","","post_reveal_questions","survey-likert","215","1059981","0.0-6.0-6.29","4019329","co37570","norming","","","{""aha"":6}","[0]","../img/tt/007tt.jpg","",""
"null","<div style=""font-size:60px;""> </div>","null","fixation","html-keyboard-response","216","1060189","0.0-6.0-0.30","4019329","co37570","norming","","","","","","",""
"null","../img/tt/405tt.jpg","null","mooney1","image-keyboard-response","217","1063193","0.0-6.0-1.30","4019329","co37570","norming","","","","","","",""
"5129.264999999665","","","post_mooney1_questions","survey-likert","218","1068326","0.0-6.0-2.30","4019329","co37570","norming","","","{""curiosity"":6,""confidence"":0}","[0,1]","../img/tt/405tt.jpg","",""
"3973.83499999973","","","recognition","survey-text","219","1072301","0.0-6.0-3.30","4019329","co37570","norming","","","{""guess"":""handen""}","","../img/tt/405tt.jpg","",""
"null","../img/gs/405gs.jpg","null","reveal","image-keyboard-response","220","1074316","0.0-6.0-4.30","4019329","co37570","norming","","","","","","",""
"null","../img/tt/405tt.jpg","null","mooney2","image-keyboard-response","221","1076318","0.0-6.0-5.30","4019329","co37570","norming","","","","","","",""
"2740.4149999995716","","","post_reveal_questions","survey-likert","222","1079061","0.0-6.0-6.30","4019329","co37570","norming","","","{""aha"":4}","[0]","../img/tt/405tt.jpg","",""
"null","<div style=""font-size:60px;""> </div>","null","fixation","html-keyboard-response","223","1079266","0.0-6.0-0.31","4019329","co37570","norming","","","","","","",""
"null","../img/tt/053tt.jpg","null","mooney1","image-keyboard-response","224","1082284","0.0-6.0-1.31","4019329","co37570","norming","","","","","","",""
"19990.21999999974","","","post_mooney1_questions","survey-likert","225","1102192","0.0-6.0-2.31","4019329","co37570","norming","","","{""curiosity"":6,""confidence"":6}","[0,1]","../img/tt/053tt.jpg","",""
"14990.16500000027","","","recognition","survey-text","226","1117184","0.0-6.0-3.31","4019329","co37570","norming","","","{""guess"":""surfing""}","","../img/tt/053tt.jpg","",""
"null","../img/gs/053gs.jpg","null","reveal","image-keyboard-response","227","1119186","0.0-6.0-4.31","4019329","co37570","norming","","","","","","",""
"null","../img/tt/053tt.jpg","null","mooney2","image-keyboard-response","228","1121188","0.0-6.0-5.31","4019329","co37570","norming","","","","","","",""
"2465.505000000121","","","post_reveal_questions","survey-likert","229","1123656","0.0-6.0-6.31","4019329","co37570","norming","","","{""aha"":6}","[0]","../img/tt/053tt.jpg","",""
"null","<div style=""font-size:60px;""> </div>","null","fixation","html-keyboard-response","230","1123859","0.0-6.0-0.32","4019329","co37570","norming","","","","","","",""
"null","../img/tt/590tt.jpg","null","mooney1","image-keyboard-response","231","1126868","0.0-6.0-1.32","4019329","co37570","norming","","","","","","",""
"4376.909999999916","","","post_mooney1_questions","survey-likert","232","1131248","0.0-6.0-2.32","4019329","co37570","norming","","","{""curiosity"":6,""confidence"":0}","[0,1]","../img/tt/590tt.jpg","",""
"5526.010000000242","","","recognition","survey-text","233","1136776","0.0-6.0-3.32","4019329","co37570","norming","","","{""guess"":""water""}","","../img/tt/590tt.jpg","",""
"null","../img/gs/590gs.jpg","null","reveal","image-keyboard-response","234","1138781","0.0-6.0-4.32","4019329","co37570","norming","","","","","","",""
"null","../img/tt/590tt.jpg","null","mooney2","image-keyboard-response","235","1140790","0.0-6.0-5.32","4019329","co37570","norming","","","","","","",""
"1399.2100000001956","","","post_reveal_questions","survey-likert","236","1142192","0.0-6.0-6.32","4019329","co37570","norming","","","{""aha"":4}","[0]","../img/tt/590tt.jpg","",""
"null","<div style=""font-size:60px;""> </div>","null","fixation","html-keyboard-response","237","1142393","0.0-6.0-0.33","4019329","co37570","norming","","","","","","",""
"null","../img/tt/438tt.jpg","null","mooney1","image-keyboard-response","238","1145395","0.0-6.0-1.33","4019329","co37570","norming","","","","","","",""
"3346.195000000065","","","post_mooney1_questions","survey-likert","239","1148744","0.0-6.0-2.33","4019329","co37570","norming","","","{""curiosity"":6,""confidence"":2}","[0,1]","../img/tt/438tt.jpg","",""
"3862.2299999997485","","","recognition","survey-text","240","1152608","0.0-6.0-3.33","4019329","co37570","norming","","","{""guess"":""slang""}","","../img/tt/438tt.jpg","",""
"null","../img/gs/438gs.jpg","null","reveal","image-keyboard-response","241","1154616","0.0-6.0-4.33","4019329","co37570","norming","","","","","","",""
"null","../img/tt/438tt.jpg","null","mooney2","image-keyboard-response","242","1156624","0.0-6.0-5.33","4019329","co37570","norming","","","","","","",""
"2029.820000000298","","","post_reveal_questions","survey-likert","243","1158656","0.0-6.0-6.33","4019329","co37570","norming","","","{""aha"":6}","[0]","../img/tt/438tt.jpg","",""
"null","<div style=""font-size:60px;""> </div>","null","fixation","html-keyboard-response","244","1158866","0.0-6.0-0.34","4019329","co37570","norming","","","","","","",""
"null","../img/tt/080tt.jpg","null","mooney1","image-keyboard-response","245","1161890","0.0-6.0-1.34","4019329","co37570","norming","","","","","","",""
"10016.204999999842","","","post_mooney1_questions","survey-likert","246","1171909","0.0-6.0-2.34","4019329","co37570","norming","","","{""curiosity"":6,""confidence"":0}","[0,1]","../img/tt/080tt.jpg","",""
"7133.969999999739","","","recognition","survey-text","247","1179044","0.0-6.0-3.34","4019329","co37570","norming","","","{""guess"":""berg""}","","../img/tt/080tt.jpg","",""
"null","../img/gs/080gs.jpg","null","reveal","image-keyboard-response","248","1181046","0.0-6.0-4.34","4019329","co37570","norming","","","","","","",""
"null","../img/tt/080tt.jpg","null","mooney2","image-keyboard-response","249","1183057","0.0-6.0-5.34","4019329","co37570","norming","","","","","","",""
"2353.0150000001304","","","post_reveal_questions","survey-likert","250","1185413","0.0-6.0-6.34","4019329","co37570","norming","","","{""aha"":6}","[0]","../img/tt/080tt.jpg","",""
"null","<div style=""font-size:60px;""> </div>","null","fixation","html-keyboard-response","251","1185628","0.0-6.0-0.35","4019329","co37570","norming","","","","","","",""
"null","../img/tt/412tt.jpg","null","mooney1","image-keyboard-response","252","1188642","0.0-6.0-1.35","4019329","co37570","norming","","","","","","",""
"8920.124999999767","","","post_mooney1_questions","survey-likert","253","1197565","0.0-6.0-2.35","4019329","co37570","norming","","","{""curiosity"":6,""confidence"":2}","[0,1]","../img/tt/412tt.jpg","",""
"7709.945000000065","","","recognition","survey-text","254","1205276","0.0-6.0-3.35","4019329","co37570","norming","","","{""guess"":""fles""}","","../img/tt/412tt.jpg","",""
"null","../img/gs/412gs.jpg","null","reveal","image-keyboard-response","255","1207277","0.0-6.0-4.35","4019329","co37570","norming","","","","","","",""
"null","../img/tt/412tt.jpg","null","mooney2","image-keyboard-response","256","1209281","0.0-6.0-5.35","4019329","co37570","norming","","","","","","",""
"2145.4550000000745","","","post_reveal_questions","survey-likert","257","1211429","0.0-6.0-6.35","4019329","co37570","norming","","","{""aha"":6}","[0]","../img/tt/412tt.jpg","",""
"null","<div style=""font-size:60px;""> </div>","null","fixation","html-keyboard-response","258","1211643","0.0-6.0-0.36","4019329","co37570","norming","","","","","","",""
"null","../img/tt/1250tt.jpg","null","mooney1","image-keyboard-response","259","1214647","0.0-6.0-1.36","4019329","co37570","norming","","","","","","",""
"3634.8549999997485","","","post_mooney1_questions","survey-likert","260","1218285","0.0-6.0-2.36","4019329","co37570","norming","","","{""curiosity"":6,""confidence"":0}","[0,1]","../img/tt/1250tt.jpg","",""
"9982.02500000014","","","recognition","survey-text","261","1228268","0.0-6.0-3.36","4019329","co37570","norming","","","{""guess"":""berg""}","","../img/tt/1250tt.jpg","",""
"null","../img/gs/1250gs.jpg","null","reveal","image-keyboard-response","262","1230272","0.0-6.0-4.36","4019329","co37570","norming","","","","","","",""
"null","../img/tt/1250tt.jpg","null","mooney2","image-keyboard-response","263","1232287","0.0-6.0-5.36","4019329","co37570","norming","","","","","","",""
"2468.340000000084","","","post_reveal_questions","survey-likert","264","1234757","0.0-6.0-6.36","4019329","co37570","norming","","","{""aha"":6}","[0]","../img/tt/1250tt.jpg","",""
"null","<div style=""font-size:60px;""> </div>","null","fixation","html-keyboard-response","265","1234960","0.0-6.0-0.37","4019329","co37570","norming","","","","","","",""
"null","../img/tt/436tt.jpg","null","mooney1","image-keyboard-response","266","1237975","0.0-6.0-1.37","4019329","co37570","norming","","","","","","",""
"5040.879999999888","","","post_mooney1_questions","survey-likert","267","1243020","0.0-6.0-2.37","4019329","co37570","norming","","","{""curiosity"":6,""confidence"":3}","[0,1]","../img/tt/436tt.jpg","",""
"4622.060000000289","","","recognition","survey-text","268","1247644","0.0-6.0-3.37","4019329","co37570","norming","","","{""guess"":""krokodiel""}","","../img/tt/436tt.jpg","",""
"null","../img/gs/436gs.jpg","null","reveal","image-keyboard-response","269","1249658","0.0-6.0-4.37","4019329","co37570","norming","","","","","","",""
"null","../img/tt/436tt.jpg","null","mooney2","image-keyboard-response","270","1251662","0.0-6.0-5.37","4019329","co37570","norming","","","","","","",""
"3541.035000000149","","","post_reveal_questions","survey-likert","271","1255204","0.0-6.0-6.37","4019329","co37570","norming","","","{""aha"":6}","[0]","../img/tt/436tt.jpg","",""
"null","<div style=""font-size:60px;""> </div>","null","fixation","html-keyboard-response","272","1255414","0.0-6.0-0.38","4019329","co37570","norming","","","","","","",""
"null","../img/tt/1363tt.jpg","null","mooney1","image-keyboard-response","273","1258429","0.0-6.0-1.38","4019329","co37570","norming","","","","","","",""
"4206.280000000028","","","post_mooney1_questions","survey-likert","274","1262636","0.0-6.0-2.38","4019329","co37570","norming","","","{""curiosity"":6,""confidence"":3}","[0,1]","../img/tt/1363tt.jpg","",""
"5861.869999999646","","","recognition","survey-text","275","1268500","0.0-6.0-3.38","4019329","co37570","norming","","","{""guess"":""walvis""}","","../img/tt/1363tt.jpg","",""
"null","../img/gs/1363gs.jpg","null","reveal","image-keyboard-response","276","1270503","0.0-6.0-4.38","4019329","co37570","norming","","","","","","",""
"null","../img/tt/1363tt.jpg","null","mooney2","image-keyboard-response","277","1272509","0.0-6.0-5.38","4019329","co37570","norming","","","","","","",""
"5886.745000000345","","","post_reveal_questions","survey-likert","278","1278396","0.0-6.0-6.38","4019329","co37570","norming","","","{""aha"":6}","[0]","../img/tt/1363tt.jpg","",""
"null","<div style=""font-size:60px;""> </div>","null","fixation","html-keyboard-response","279","1278603","0.0-6.0-0.39","4019329","co37570","norming","","","","","","",""
"null","../img/tt/549tt.jpg","null","mooney1","image-keyboard-response","280","1281610","0.0-6.0-1.39","4019329","co37570","norming","","","","","","",""
"4937.309999999823","","","post_mooney1_questions","survey-likert","281","1286544","0.0-6.0-2.39","4019329","co37570","norming","","","{""curiosity"":6,""confidence"":2}","[0,1]","../img/tt/549tt.jpg","",""
"5597.965000000084","","","recognition","survey-text","282","1292143","0.0-6.0-3.39","4019329","co37570","norming","","","{""guess"":""helicopter""}","","../img/tt/549tt.jpg","",""
"null","../img/gs/549gs.jpg","null","reveal","image-keyboard-response","283","1294151","0.0-6.0-4.39","4019329","co37570","norming","","","","","","",""
"null","../img/tt/549tt.jpg","null","mooney2","image-keyboard-response","284","1296153","0.0-6.0-5.39","4019329","co37570","norming","","","","","","",""
"7077.679999999935","","","post_reveal_questions","survey-likert","285","1303231","0.0-6.0-6.39","4019329","co37570","norming","","","{""aha"":6}","[0]","../img/tt/549tt.jpg","",""
"null","<div style=""font-size:60px;""> </div>","null","fixation","html-keyboard-response","286","1303445","0.0-6.0-0.40","4019329","co37570","norming","","","","","","",""
"null","../img/tt/273tt.jpg","null","mooney1","image-keyboard-response","287","1306460","0.0-6.0-1.40","4019329","co37570","norming","","","","","","",""
"9138.635000000242","","","post_mooney1_questions","survey-likert","288","1315600","0.0-6.0-2.40","4019329","co37570","norming","","","{""curiosity"":6,""confidence"":3}","[0,1]","../img/tt/273tt.jpg","",""
"7341.995000000345","","","recognition","survey-text","289","1322943","0.0-6.0-3.40","4019329","co37570","norming","","","{""guess"":""etende mens""}","","../img/tt/273tt.jpg","",""
"null","../img/gs/273gs.jpg","null","reveal","image-keyboard-response","290","1324954","0.0-6.0-4.40","4019329","co37570","norming","","","","","","",""
"null","../img/tt/273tt.jpg","null","mooney2","image-keyboard-response","291","1326958","0.0-6.0-5.40","4019329","co37570","norming","","","","","","",""
"2152.8849999997765","","","post_reveal_questions","survey-likert","292","1329111","0.0-6.0-6.40","4019329","co37570","norming","","","{""aha"":6}","[0]","../img/tt/273tt.jpg","",""
"null","<div style=""font-size:60px;""> </div>","null","fixation","html-keyboard-response","293","1329313","0.0-6.0-0.41","4019329","co37570","norming","","","","","","",""
"null","../img/tt/078tt.jpg","null","mooney1","image-keyboard-response","294","1332315","0.0-6.0-1.41","4019329","co37570","norming","","","","","","",""
"4555.190000000177","","","post_mooney1_questions","survey-likert","295","1336872","0.0-6.0-2.41","4019329","co37570","norming","","","{""curiosity"":6,""confidence"":3}","[0,1]","../img/tt/078tt.jpg","",""
"10493.895000000019","","","recognition","survey-text","296","1347369","0.0-6.0-3.41","4019329","co37570","norming","","","{""guess"":""druif""}","","../img/tt/078tt.jpg","",""
"null","../img/gs/078gs.jpg","null","reveal","image-keyboard-response","297","1349370","0.0-6.0-4.41","4019329","co37570","norming","","","","","","",""
"null","../img/tt/078tt.jpg","null","mooney2","image-keyboard-response","298","1351375","0.0-6.0-5.41","4019329","co37570","norming","","","","","","",""
"3312.7950000001583","","","post_reveal_questions","survey-likert","299","1354689","0.0-6.0-6.41","4019329","co37570","norming","","","{""aha"":6}","[0]","../img/tt/078tt.jpg","",""
"null","<div style=""font-size:60px;""> </div>","null","fixation","html-keyboard-response","300","1354898","0.0-6.0-0.42","4019329","co37570","norming","","","","","","",""
"null","../img/tt/1235tt.jpg","null","mooney1","image-keyboard-response","301","1357911","0.0-6.0-1.42","4019329","co37570","norming","","","","","","",""
"8865.040000000037","","","post_mooney1_questions","survey-likert","302","1366777","0.0-6.0-2.42","4019329","co37570","norming","","","{""curiosity"":6,""confidence"":2}","[0,1]","../img/tt/1235tt.jpg","",""
"9845.975000000093","","","recognition","survey-text","303","1376625","0.0-6.0-3.42","4019329","co37570","norming","","","{""guess"":""papua""}","","../img/tt/1235tt.jpg","",""
"null","../img/gs/1235gs.jpg","null","reveal","image-keyboard-response","304","1378629","0.0-6.0-4.42","4019329","co37570","norming","","","","","","",""
"null","../img/tt/1235tt.jpg","null","mooney2","image-keyboard-response","305","1380629","0.0-6.0-5.42","4019329","co37570","norming","","","","","","",""
"1914.0250000001397","","","post_reveal_questions","survey-likert","306","1382545","0.0-6.0-6.42","4019329","co37570","norming","","","{""aha"":6}","[0]","../img/tt/1235tt.jpg","",""
"null","<div style=""font-size:60px;""> </div>","null","fixation","html-keyboard-response","307","1382748","0.0-6.0-0.43","4019329","co37570","norming","","","","","","",""
"null","../img/tt/599tt.jpg","null","mooney1","image-keyboard-response","308","1385759","0.0-6.0-1.43","4019329","co37570","norming","","","","","","",""
"4360.595000000205","","","post_mooney1_questions","survey-likert","309","1390121","0.0-6.0-2.43","4019329","co37570","norming","","","{""curiosity"":6,""confidence"":3}","[0,1]","../img/tt/599tt.jpg","",""
"2981.695000000298","","","recognition","survey-text","310","1393105","0.0-6.0-3.43","4019329","co37570","norming","","","{""guess"":""uil""}","","../img/tt/599tt.jpg","",""
"null","../img/gs/599gs.jpg","null","reveal","image-keyboard-response","311","1395116","0.0-6.0-4.43","4019329","co37570","norming","","","","","","",""
"null","../img/tt/599tt.jpg","null","mooney2","image-keyboard-response","312","1397128","0.0-6.0-5.43","4019329","co37570","norming","","","","","","",""
"2046.690000000177","","","post_reveal_questions","survey-likert","313","1399177","0.0-6.0-6.43","4019329","co37570","norming","","","{""aha"":6}","[0]","../img/tt/599tt.jpg","",""
"null","<div style=""font-size:60px;""> </div>","null","fixation","html-keyboard-response","314","1399384","0.0-6.0-0.44","4019329","co37570","norming","","","","","","",""
"null","../img/tt/358tt.jpg","null","mooney1","image-keyboard-response","315","1402391","0.0-6.0-1.44","4019329","co37570","norming","","","","","","",""
"6406.869999999879","","","post_mooney1_questions","survey-likert","316","1408802","0.0-6.0-2.44","4019329","co37570","norming","","","{""curiosity"":6,""confidence"":0}","[0,1]","../img/tt/358tt.jpg","",""
"2646.0100000000093","","","recognition","survey-text","317","1411450","0.0-6.0-3.44","4019329","co37570","norming","","","{""guess"":""koe""}","","../img/tt/358tt.jpg","",""
"null","../img/gs/358gs.jpg","null","reveal","image-keyboard-response","318","1413463","0.0-6.0-4.44","4019329","co37570","norming","","","","","","",""
"null","../img/tt/358tt.jpg","null","mooney2","image-keyboard-response","319","1415477","0.0-6.0-5.44","4019329","co37570","norming","","","","","","",""
"1890.9050000002608","","","post_reveal_questions","survey-likert","320","1417370","0.0-6.0-6.44","4019329","co37570","norming","","","{""aha"":6}","[0]","../img/tt/358tt.jpg","",""
"null","<div style=""font-size:60px;""> </div>","null","fixation","html-keyboard-response","321","1417572","0.0-6.0-0.45","4019329","co37570","norming","","","","","","",""
"null","../img/tt/1063tt.jpg","null","mooney1","image-keyboard-response","322","1420575","0.0-6.0-1.45","4019329","co37570","norming","","","","","","",""
"4402.215000000084","","","post_mooney1_questions","survey-likert","323","1424978","0.0-6.0-2.45","4019329","co37570","norming","","","{""curiosity"":6,""confidence"":3}","[0,1]","../img/tt/1063tt.jpg","",""
"3718.0250000001397","","","recognition","survey-text","324","1428698","0.0-6.0-3.45","4019329","co37570","norming","","","{""guess"":""aap""}","","../img/tt/1063tt.jpg","",""
"null","../img/gs/1063gs.jpg","null","reveal","image-keyboard-response","325","1430708","0.0-6.0-4.45","4019329","co37570","norming","","","","","","",""
"null","../img/tt/1063tt.jpg","null","mooney2","image-keyboard-response","326","1432720","0.0-6.0-5.45","4019329","co37570","norming","","","","","","",""
"2775.500000000233","","","post_reveal_questions","survey-likert","327","1435498","0.0-6.0-6.45","4019329","co37570","norming","","","{""aha"":4}","[0]","../img/tt/1063tt.jpg","",""
"null","<div style=""font-size:60px;""> </div>","null","fixation","html-keyboard-response","328","1435700","0.0-6.0-0.46","4019329","co37570","norming","","","","","","",""
"null","../img/tt/194tt.jpg","null","mooney1","image-keyboard-response","329","1438713","0.0-6.0-1.46","4019329","co37570","norming","","","","","","",""
"3790.1599999996834","","","post_mooney1_questions","survey-likert","330","1442506","0.0-6.0-2.46","4019329","co37570","norming","","","{""curiosity"":6,""confidence"":3}","[0,1]","../img/tt/194tt.jpg","",""
"9326.215000000084","","","recognition","survey-text","331","1451834","0.0-6.0-3.46","4019329","co37570","norming","","","{""guess"":""een vrouw in metro""}","","../img/tt/194tt.jpg","",""
"null","../img/gs/194gs.jpg","null","reveal","image-keyboard-response","332","1453845","0.0-6.0-4.46","4019329","co37570","norming","","","","","","",""
"null","../img/tt/194tt.jpg","null","mooney2","image-keyboard-response","333","1455855","0.0-6.0-5.46","4019329","co37570","norming","","","","","","",""
"3616.3299999998417","","","post_reveal_questions","survey-likert","334","1459474","0.0-6.0-6.46","4019329","co37570","norming","","","{""aha"":4}","[0]","../img/tt/194tt.jpg","",""
"null","<div style=""font-size:60px;""> </div>","null","fixation","html-keyboard-response","335","1459682","0.0-6.0-0.47","4019329","co37570","norming","","","","","","",""
"null","../img/tt/1279tt.jpg","null","mooney1","image-keyboard-response","336","1462698","0.0-6.0-1.47","4019329","co37570","norming","","","","","","",""
"3541.445000000298","","","post_mooney1_questions","survey-likert","337","1466244","0.0-6.0-2.47","4019329","co37570","norming","","","{""curiosity"":6,""confidence"":2}","[0,1]","../img/tt/1279tt.jpg","",""
"4037.690000000177","","","recognition","survey-text","338","1470284","0.0-6.0-3.47","4019329","co37570","norming","","","{""guess"":""honden""}","","../img/tt/1279tt.jpg","",""
"null","../img/gs/1279gs.jpg","null","reveal","image-keyboard-response","339","1472286","0.0-6.0-4.47","4019329","co37570","norming","","","","","","",""
"null","../img/tt/1279tt.jpg","null","mooney2","image-keyboard-response","340","1474287","0.0-6.0-5.47","4019329","co37570","norming","","","","","","",""
"2122.5500000000466","","","post_reveal_questions","survey-likert","341","1476412","0.0-6.0-6.47","4019329","co37570","norming","","","{""aha"":4}","[0]","../img/tt/1279tt.jpg","",""
"null","<div style=""font-size:60px;""> </div>","null","fixation","html-keyboard-response","342","1476627","0.0-6.0-0.48","4019329","co37570","norming","","","","","","",""
"null","../img/tt/380tt.jpg","null","mooney1","image-keyboard-response","343","1479638","0.0-6.0-1.48","4019329","co37570","norming","","","","","","",""
"4075.3899999998976","","","post_mooney1_questions","survey-likert","344","1483716","0.0-6.0-2.48","4019329","co37570","norming","","","{""curiosity"":6,""confidence"":3}","[0,1]","../img/tt/380tt.jpg","",""
"3598.1550000002608","","","recognition","survey-text","345","1487316","0.0-6.0-3.48","4019329","co37570","norming","","","{""guess"":""een vos""}","","../img/tt/380tt.jpg","",""
"null","../img/gs/380gs.jpg","null","reveal","image-keyboard-response","346","1489329","0.0-6.0-4.48","4019329","co37570","norming","","","","","","",""
"null","../img/tt/380tt.jpg","null","mooney2","image-keyboard-response","347","1491346","0.0-6.0-5.48","4019329","co37570","norming","","","","","","",""
"2309.7349999998696","","","post_reveal_questions","survey-likert","348","1493660","0.0-6.0-6.48","4019329","co37570","norming","","","{""aha"":4}","[0]","../img/tt/380tt.jpg","",""
"null","<div style=""font-size:60px;""> </div>","null","fixation","html-keyboard-response","349","1493863","0.0-6.0-0.49","4019329","co37570","norming","","","","","","",""
"null","../img/tt/1241tt.jpg","null","mooney1","image-keyboard-response","350","1496880","0.0-6.0-1.49","4019329","co37570","norming","","","","","","",""
"5754.699999999953","","","post_mooney1_questions","survey-likert","351","1502644","0.0-6.0-2.49","4019329","co37570","norming","","","{""curiosity"":6,""confidence"":0}","[0,1]","../img/tt/1241tt.jpg","",""
"15222.180000000168","","","recognition","survey-text","352","1517868","0.0-6.0-3.49","4019329","co37570","norming","","","{""guess"":""dieren""}","","../img/tt/1241tt.jpg","",""
"null","../img/gs/1241gs.jpg","null","reveal","image-keyboard-response","353","1519881","0.0-6.0-4.49","4019329","co37570","norming","","","","","","",""
"null","../img/tt/1241tt.jpg","null","mooney2","image-keyboard-response","354","1521894","0.0-6.0-5.49","4019329","co37570","norming","","","","","","",""
"3651.2750000001397","","","post_reveal_questions","survey-likert","355","1525548","0.0-6.0-6.49","4019329","co37570","norming","","","{""aha"":5}","[0]","../img/tt/1241tt.jpg","",""
"null","<div style=""font-size:60px;""> </div>","null","fixation","html-keyboard-response","356","1525758","0.0-6.0-0.50","4019329","co37570","norming","","","","","","",""
"null","../img/tt/1125tt.jpg","null","mooney1","image-keyboard-response","357","1528762","0.0-6.0-1.50","4019329","co37570","norming","","","","","","",""
"8024.300000000047","","","post_mooney1_questions","survey-likert","358","1536789","0.0-6.0-2.50","4019329","co37570","norming","","","{""curiosity"":6,""confidence"":0}","[0,1]","../img/tt/1125tt.jpg","",""
"10654.01500000013","","","recognition","survey-text","359","1547445","0.0-6.0-3.50","4019329","co37570","norming","","","{""guess"":""een lopende mens""}","","../img/tt/1125tt.jpg","",""
"null","../img/gs/1125gs.jpg","null","reveal","image-keyboard-response","360","1549451","0.0-6.0-4.50","4019329","co37570","norming","","","","","","",""
"null","../img/tt/1125tt.jpg","null","mooney2","image-keyboard-response","361","1551468","0.0-6.0-5.50","4019329","co37570","norming","","","","","","",""
"2166.6399999998976","","","post_reveal_questions","survey-likert","362","1553637","0.0-6.0-6.50","4019329","co37570","norming","","","{""aha"":6}","[0]","../img/tt/1125tt.jpg","",""
"null","<div style=""font-size:60px;""> </div>","null","fixation","html-keyboard-response","363","1553838","0.0-6.0-0.51","4019329","co37570","norming","","","","","","",""
"null","../img/tt/1196tt.jpg","null","mooney1","image-keyboard-response","364","1556855","0.0-6.0-1.51","4019329","co37570","norming","","","","","","",""
"8483.110000000335","","","post_mooney1_questions","survey-likert","365","1565341","0.0-6.0-2.51","4019329","co37570","norming","","","{""curiosity"":6,""confidence"":3}","[0,1]","../img/tt/1196tt.jpg","",""
"15478.36499999999","","","recognition","survey-text","366","1580821","0.0-6.0-3.51","4019329","co37570","norming","","","{""guess"":""wedstrijdsdecoratie""}","","../img/tt/1196tt.jpg","",""
"null","../img/gs/1196gs.jpg","null","reveal","image-keyboard-response","367","1582823","0.0-6.0-4.51","4019329","co37570","norming","","","","","","",""
"null","../img/tt/1196tt.jpg","null","mooney2","image-keyboard-response","368","1584834","0.0-6.0-5.51","4019329","co37570","norming","","","","","","",""
"4376.734999999637","","","post_reveal_questions","survey-likert","369","1589208","0.0-6.0-6.51","4019329","co37570","norming","","","{""aha"":5}","[0]","../img/tt/1196tt.jpg","",""
"null","<div style=""font-size:60px;""> </div>","null","fixation","html-keyboard-response","370","1589410","0.0-6.0-0.52","4019329","co37570","norming","","","","","","",""
"null","../img/tt/1118tt.jpg","null","mooney1","image-keyboard-response","371","1592422","0.0-6.0-1.52","4019329","co37570","norming","","","","","","",""
"3887.2350000001024","","","post_mooney1_questions","survey-likert","372","1596312","0.0-6.0-2.52","4019329","co37570","norming","","","{""curiosity"":6,""confidence"":0}","[0,1]","../img/tt/1118tt.jpg","",""
"24734.04000000027","","","recognition","survey-text","373","1621048","0.0-6.0-3.52","4019329","co37570","norming","","","{""guess"":""kanoa""}","","../img/tt/1118tt.jpg","",""
"null","../img/gs/1118gs.jpg","null","reveal","image-keyboard-response","374","1623064","0.0-6.0-4.52","4019329","co37570","norming","","","","","","",""
"null","../img/tt/1118tt.jpg","null","mooney2","image-keyboard-response","375","1625075","0.0-6.0-5.52","4019329","co37570","norming","","","","","","",""
"3258.795000000391","","","post_reveal_questions","survey-likert","376","1628336","0.0-6.0-6.52","4019329","co37570","norming","","","{""aha"":4}","[0]","../img/tt/1118tt.jpg","",""
"null","<div style=""font-size:60px;""> </div>","null","fixation","html-keyboard-response","377","1628537","0.0-6.0-0.53","4019329","co37570","norming","","","","","","",""
"null","../img/tt/559tt.jpg","null","mooney1","image-keyboard-response","378","1631539","0.0-6.0-1.53","4019329","co37570","norming","","","","","","",""
"3305.595000000205","","","post_mooney1_questions","survey-likert","379","1634848","0.0-6.0-2.53","4019329","co37570","norming","","","{""curiosity"":6,""confidence"":0}","[0,1]","../img/tt/559tt.jpg","",""
"5333.970000000205","","","recognition","survey-text","380","1640184","0.0-6.0-3.53","4019329","co37570","norming","","","{""guess"":""naaimachine""}","","../img/tt/559tt.jpg","",""
"null","../img/gs/559gs.jpg","null","reveal","image-keyboard-response","381","1642189","0.0-6.0-4.53","4019329","co37570","norming","","","","","","",""
"null","../img/tt/559tt.jpg","null","mooney2","image-keyboard-response","382","1644205","0.0-6.0-5.53","4019329","co37570","norming","","","","","","",""
"2352.3549999999814","","","post_reveal_questions","survey-likert","383","1646560","0.0-6.0-6.53","4019329","co37570","norming","","","{""aha"":6}","[0]","../img/tt/559tt.jpg","",""
"null","<div style=""font-size:60px;""> </div>","null","fixation","html-keyboard-response","384","1646763","0.0-6.0-0.54","4019329","co37570","norming","","","","","","",""
"null","../img/tt/1048tt.jpg","null","mooney1","image-keyboard-response","385","1649782","0.0-6.0-1.54","4019329","co37570","norming","","","","","","",""
"3837.869999999879","","","post_mooney1_questions","survey-likert","386","1653623","0.0-6.0-2.54","4019329","co37570","norming","","","{""curiosity"":6,""confidence"":3}","[0,1]","../img/tt/1048tt.jpg","",""
"15637.995000000112","","","recognition","survey-text","387","1669263","0.0-6.0-3.54","4019329","co37570","norming","","","{""guess"":""skien in het bos""}","","../img/tt/1048tt.jpg","",""
"null","../img/gs/1048gs.jpg","null","reveal","image-keyboard-response","388","1671265","0.0-6.0-4.54","4019329","co37570","norming","","","","","","",""
"null","../img/tt/1048tt.jpg","null","mooney2","image-keyboard-response","389","1673271","0.0-6.0-5.54","4019329","co37570","norming","","","","","","",""
"2461.6750000000466","","","post_reveal_questions","survey-likert","390","1675735","0.0-6.0-6.54","4019329","co37570","norming","","","{""aha"":6}","[0]","../img/tt/1048tt.jpg","",""
"null","<div style=""font-size:60px;""> </div>","null","fixation","html-keyboard-response","391","1675940","0.0-6.0-0.55","4019329","co37570","norming","","","","","","",""
"null","../img/tt/1044tt.jpg","null","mooney1","image-keyboard-response","392","1678952","0.0-6.0-1.55","4019329","co37570","norming","","","","","","",""
"4884.129999999888","","","post_mooney1_questions","survey-likert","393","1683840","0.0-6.0-2.55","4019329","co37570","norming","","","{""curiosity"":6,""confidence"":0}","[0,1]","../img/tt/1044tt.jpg","",""
"4398.040000000037","","","recognition","survey-text","394","1688239","0.0-6.0-3.55","4019329","co37570","norming","","","{""guess"":""bergen""}","","../img/tt/1044tt.jpg","",""
"null","../img/gs/1044gs.jpg","null","reveal","image-keyboard-response","395","1690241","0.0-6.0-4.55","4019329","co37570","norming","","","","","","",""
"null","../img/tt/1044tt.jpg","null","mooney2","image-keyboard-response","396","1692249","0.0-6.0-5.55","4019329","co37570","norming","","","","","","",""
"2243.2450000001118","","","post_reveal_questions","survey-likert","397","1694495","0.0-6.0-6.55","4019329","co37570","norming","","","{""aha"":6}","[0]","../img/tt/1044tt.jpg","",""
"null","<div style=""font-size:60px;""> </div>","null","fixation","html-keyboard-response","398","1694696","0.0-6.0-0.56","4019329","co37570","norming","","","","","","",""
"null","../img/tt/567tt.jpg","null","mooney1","image-keyboard-response","399","1697699","0.0-6.0-1.56","4019329","co37570","norming","","","","","","",""
"5585.385000000242","","","post_mooney1_questions","survey-likert","400","1703287","0.0-6.0-2.56","4019329","co37570","norming","","","{""curiosity"":6,""confidence"":1}","[0,1]","../img/tt/567tt.jpg","",""
"10710.145000000019","","","recognition","survey-text","401","1714000","0.0-6.0-3.56","4019329","co37570","norming","","","{""guess"":""boter""}","","../img/tt/567tt.jpg","",""
"null","../img/gs/567gs.jpg","null","reveal","image-keyboard-response","402","1716005","0.0-6.0-4.56","4019329","co37570","norming","","","","","","",""
"null","../img/tt/567tt.jpg","null","mooney2","image-keyboard-response","403","1718020","0.0-6.0-5.56","4019329","co37570","norming","","","","","","",""
"3929.0250000003725","","","post_reveal_questions","survey-likert","404","1721952","0.0-6.0-6.56","4019329","co37570","norming","","","{""aha"":6}","[0]","../img/tt/567tt.jpg","",""
"null","<div style=""font-size:60px;""> </div>","null","fixation","html-keyboard-response","405","1722168","0.0-6.0-0.57","4019329","co37570","norming","","","","","","",""
"null","../img/tt/435tt.jpg","null","mooney1","image-keyboard-response","406","1725179","0.0-6.0-1.57","4019329","co37570","norming","","","","","","",""
"5729.585000000196","","","post_mooney1_questions","survey-likert","407","1730912","0.0-6.0-2.57","4019329","co37570","norming","","","{""curiosity"":6,""confidence"":1}","[0,1]","../img/tt/435tt.jpg","",""
"5333.924999999814","","","recognition","survey-text","408","1736248","0.0-6.0-3.57","4019329","co37570","norming","","","{""guess"":""biljard""}","","../img/tt/435tt.jpg","",""
"null","../img/gs/435gs.jpg","null","reveal","image-keyboard-response","409","1738262","0.0-6.0-4.57","4019329","co37570","norming","","","","","","",""
"null","../img/tt/435tt.jpg","null","mooney2","image-keyboard-response","410","1740273","0.0-6.0-5.57","4019329","co37570","norming","","","","","","",""
"2205.8649999999907","","","post_reveal_questions","survey-likert","411","1742480","0.0-6.0-6.57","4019329","co37570","norming","","","{""aha"":6}","[0]","../img/tt/435tt.jpg","",""
"null","<div style=""font-size:60px;""> </div>","null","fixation","html-keyboard-response","412","1742685","0.0-6.0-0.58","4019329","co37570","norming","","","","","","",""
"null","../img/tt/552tt.jpg","null","mooney1","image-keyboard-response","413","1745690","0.0-6.0-1.58","4019329","co37570","norming","","","","","","",""
"4579.280000000494","","","post_mooney1_questions","survey-likert","414","1750272","0.0-6.0-2.58","4019329","co37570","norming","","","{""curiosity"":6,""confidence"":0}","[0,1]","../img/tt/552tt.jpg","",""
"4373.909999999916","","","recognition","survey-text","415","1754648","0.0-6.0-3.58","4019329","co37570","norming","","","{""guess"":""een vos""}","","../img/tt/552tt.jpg","",""
"null","../img/gs/552gs.jpg","null","reveal","image-keyboard-response","416","1756651","0.0-6.0-4.58","4019329","co37570","norming","","","","","","",""
"null","../img/tt/552tt.jpg","null","mooney2","image-keyboard-response","417","1758657","0.0-6.0-5.58","4019329","co37570","norming","","","","","","",""
"3514.7299999999814","","","post_reveal_questions","survey-likert","418","1762173","0.0-6.0-6.58","4019329","co37570","norming","","","{""aha"":6}","[0]","../img/tt/552tt.jpg","",""
"null","<div style=""font-size:60px;""> </div>","null","fixation","html-keyboard-response","419","1762378","0.0-6.0-0.59","4019329","co37570","norming","","","","","","",""
"null","../img/tt/1173tt.jpg","null","mooney1","image-keyboard-response","420","1765390","0.0-6.0-1.59","4019329","co37570","norming","","","","","","",""
"3807.1049999999814","","","post_mooney1_questions","survey-likert","421","1769200","0.0-6.0-2.59","4019329","co37570","norming","","","{""curiosity"":6,""confidence"":1}","[0,1]","../img/tt/1173tt.jpg","",""
"8462.279999999795","","","recognition","survey-text","422","1777665","0.0-6.0-3.59","4019329","co37570","norming","","","{""guess"":""vrouwenvoetbal""}","","../img/tt/1173tt.jpg","",""
"null","../img/gs/1173gs.jpg","null","reveal","image-keyboard-response","423","1779671","0.0-6.0-4.59","4019329","co37570","norming","","","","","","",""
"null","../img/tt/1173tt.jpg","null","mooney2","image-keyboard-response","424","1781685","0.0-6.0-5.59","4019329","co37570","norming","","","","","","",""
"3929.4899999999907","","","post_reveal_questions","survey-likert","425","1785617","0.0-6.0-6.59","4019329","co37570","norming","","","{""aha"":5}","[0]","../img/tt/1173tt.jpg","",""
"null","<div style=""font-size:60px;""> </div>","null","fixation","html-keyboard-response","426","1785827","0.0-6.0-0.60","4019329","co37570","norming","","","","","","",""
"null","../img/tt/522tt.jpg","null","mooney1","image-keyboard-response","427","1788836","0.0-6.0-1.60","4019329","co37570","norming","","","","","","",""
"5626.25","","","post_mooney1_questions","survey-likert","428","1794465","0.0-6.0-2.60","4019329","co37570","norming","","","{""curiosity"":6,""confidence"":0}","[0,1]","../img/tt/522tt.jpg","",""
"3909.869999999879","","","recognition","survey-text","429","1798377","0.0-6.0-3.60","4019329","co37570","norming","","","{""guess"":""een slak""}","","../img/tt/522tt.jpg","",""
"null","../img/gs/522gs.jpg","null","reveal","image-keyboard-response","430","1800382","0.0-6.0-4.60","4019329","co37570","norming","","","","","","",""
"null","../img/tt/522tt.jpg","null","mooney2","image-keyboard-response","431","1802396","0.0-6.0-5.60","4019329","co37570","norming","","","","","","",""
"5858.269999999786","","","post_reveal_questions","survey-likert","432","1808257","0.0-6.0-6.60","4019329","co37570","norming","","","{""aha"":6}","[0]","../img/tt/522tt.jpg","",""
"null","<div style=""font-size:60px;""> </div>","null","fixation","html-keyboard-response","433","1808459","0.0-6.0-0.61","4019329","co37570","norming","","","","","","",""
"null","../img/tt/1261tt.jpg","null","mooney1","image-keyboard-response","434","1811465","0.0-6.0-1.61","4019329","co37570","norming","","","","","","",""
"8084.925000000047","","","post_mooney1_questions","survey-likert","435","1819553","0.0-6.0-2.61","4019329","co37570","norming","","","{""curiosity"":6,""confidence"":1}","[0,1]","../img/tt/1261tt.jpg","",""
"11766.235000000102","","","recognition","survey-text","436","1831321","0.0-6.0-3.61","4019329","co37570","norming","","","{""guess"":""een eekhorn""}","","../img/tt/1261tt.jpg","",""
"null","../img/gs/1261gs.jpg","null","reveal","image-keyboard-response","437","1833324","0.0-6.0-4.61","4019329","co37570","norming","","","","","","",""
"null","../img/tt/1261tt.jpg","null","mooney2","image-keyboard-response","438","1835326","0.0-6.0-5.61","4019329","co37570","norming","","","","","","",""
"2201.1249999995343","","","post_reveal_questions","survey-likert","439","1837529","0.0-6.0-6.61","4019329","co37570","norming","","","{""aha"":6}","[0]","../img/tt/1261tt.jpg","",""
"null","<div style=""font-size:60px;""> </div>","null","fixation","html-keyboard-response","440","1837743","0.0-6.0-0.62","4019329","co37570","norming","","","","","","",""
"null","../img/tt/1049tt.jpg","null","mooney1","image-keyboard-response","441","1840752","0.0-6.0-1.62","4019329","co37570","norming","","","","","","",""
"4990.504999999888","","","post_mooney1_questions","survey-likert","442","1845746","0.0-6.0-2.62","4019329","co37570","norming","","","{""curiosity"":6,""confidence"":2}","[0,1]","../img/tt/1049tt.jpg","",""
"11893.939999999944","","","recognition","survey-text","443","1857641","0.0-6.0-3.62","4019329","co37570","norming","","","{""guess"":""een hokeyspeler""}","","../img/tt/1049tt.jpg","",""
"null","../img/gs/1049gs.jpg","null","reveal","image-keyboard-response","444","1859657","0.0-6.0-4.62","4019329","co37570","norming","","","","","","",""
"null","../img/tt/1049tt.jpg","null","mooney2","image-keyboard-response","445","1861674","0.0-6.0-5.62","4019329","co37570","norming","","","","","","",""
"3380.6049999997485","","","post_reveal_questions","survey-likert","446","1865057","0.0-6.0-6.62","4019329","co37570","norming","","","{""aha"":4}","[0]","../img/tt/1049tt.jpg","",""
"null","<div style=""font-size:60px;""> </div>","null","fixation","html-keyboard-response","447","1865260","0.0-6.0-0.63","4019329","co37570","norming","","","","","","",""
"null","../img/tt/084tt.jpg","null","mooney1","image-keyboard-response","448","1868273","0.0-6.0-1.63","4019329","co37570","norming","","","","","","",""
"4173.244999999879","","","post_mooney1_questions","survey-likert","449","1872450","0.0-6.0-2.63","4019329","co37570","norming","","","{""curiosity"":6,""confidence"":1}","[0,1]","../img/tt/084tt.jpg","",""
"5302.01500000013","","","recognition","survey-text","450","1877753","0.0-6.0-3.63","4019329","co37570","norming","","","{""guess"":""een vogel""}","","../img/tt/084tt.jpg","",""
"null","../img/gs/084gs.jpg","null","reveal","image-keyboard-response","451","1879764","0.0-6.0-4.63","4019329","co37570","norming","","","","","","",""
"null","../img/tt/084tt.jpg","null","mooney2","image-keyboard-response","452","1881780","0.0-6.0-5.63","4019329","co37570","norming","","","","","","",""
"2801.9499999999534","","","post_reveal_questions","survey-likert","453","1884585","0.0-6.0-6.63","4019329","co37570","norming","","","{""aha"":6}","[0]","../img/tt/084tt.jpg","",""
"null","<div style=""font-size:60px;""> </div>","null","fixation","html-keyboard-response","454","1884788","0.0-6.0-0.64","4019329","co37570","norming","","","","","","",""
"null","../img/tt/534tt.jpg","null","mooney1","image-keyboard-response","455","1887806","0.0-6.0-1.64","4019329","co37570","norming","","","","","","",""
"4287.780000000028","","","post_mooney1_questions","survey-likert","456","1892087","0.0-6.0-2.64","4019329","co37570","norming","","","{""curiosity"":6,""confidence"":1}","[0,1]","../img/tt/534tt.jpg","",""
"6045.824999999721","","","recognition","survey-text","457","1898134","0.0-6.0-3.64","4019329","co37570","norming","","","{""guess"":""kaktussen ""}","","../img/tt/534tt.jpg","",""
"null","../img/gs/534gs.jpg","null","reveal","image-keyboard-response","458","1900145","0.0-6.0-4.64","4019329","co37570","norming","","","","","","",""
"null","../img/tt/534tt.jpg","null","mooney2","image-keyboard-response","459","1902147","0.0-6.0-5.64","4019329","co37570","norming","","","","","","",""
"2305.100000000093","","","post_reveal_questions","survey-likert","460","1904454","0.0-6.0-6.64","4019329","co37570","norming","","","{""aha"":6}","[0]","../img/tt/534tt.jpg","",""
"null","<div style=""font-size:60px;""> </div>","null","fixation","html-keyboard-response","461","1904659","0.0-6.0-0.65","4019329","co37570","norming","","","","","","",""
"null","../img/tt/055tt.jpg","null","mooney1","image-keyboard-response","462","1907662","0.0-6.0-1.65","4019329","co37570","norming","","","","","","",""
"3060.9500000001863","","","post_mooney1_questions","survey-likert","463","1910727","0.0-6.0-2.65","4019329","co37570","norming","","","{""curiosity"":6,""confidence"":1}","[0,1]","../img/tt/055tt.jpg","",""
"8918","","","recognition","survey-text","464","1919646","0.0-6.0-3.65","4019329","co37570","norming","","","{""guess"":""paardenzatel""}","","../img/tt/055tt.jpg","",""
"null","../img/gs/055gs.jpg","null","reveal","image-keyboard-response","465","1921648","0.0-6.0-4.65","4019329","co37570","norming","","","","","","",""
"null","../img/tt/055tt.jpg","null","mooney2","image-keyboard-response","466","1923656","0.0-6.0-5.65","4019329","co37570","norming","","","","","","",""
"1947.570000000298","","","post_reveal_questions","survey-likert","467","1925607","0.0-6.0-6.65","4019329","co37570","norming","","","{""aha"":6}","[0]","../img/tt/055tt.jpg","",""
"null","<div style=""font-size:60px;""> </div>","null","fixation","html-keyboard-response","468","1925821","0.0-6.0-0.66","4019329","co37570","norming","","","","","","",""
"null","../img/tt/1186tt.jpg","null","mooney1","image-keyboard-response","469","1928827","0.0-6.0-1.66","4019329","co37570","norming","","","","","","",""
"16824.17500000028","","","post_mooney1_questions","survey-likert","470","1945655","0.0-6.0-2.66","4019329","co37570","norming","","","{""curiosity"":6,""confidence"":2}","[0,1]","../img/tt/1186tt.jpg","",""
"7430.050000000047","","","recognition","survey-text","471","1953098","0.0-6.0-3.66","4019329","co37570","norming","","","{""guess"":""rolleyschaatsen""}","","../img/tt/1186tt.jpg","",""
"null","../img/gs/1186gs.jpg","null","reveal","image-keyboard-response","472","1955100","0.0-6.0-4.66","4019329","co37570","norming","","","","","","",""
"null","../img/tt/1186tt.jpg","null","mooney2","image-keyboard-response","473","1957113","0.0-6.0-5.66","4019329","co37570","norming","","","","","","",""
"2453.684999999823","","","post_reveal_questions","survey-likert","474","1959570","0.0-6.0-6.66","4019329","co37570","norming","","","{""aha"":6}","[0]","../img/tt/1186tt.jpg","",""
"null","<div style=""font-size:60px;""> </div>","null","fixation","html-keyboard-response","475","1959784","0.0-6.0-0.67","4019329","co37570","norming","","","","","","",""
"null","../img/tt/098tt.jpg","null","mooney1","image-keyboard-response","476","1962795","0.0-6.0-1.67","4019329","co37570","norming","","","","","","",""
"5059.590000000317","","","post_mooney1_questions","survey-likert","477","1967858","0.0-6.0-2.67","4019329","co37570","norming","","","{""curiosity"":6,""confidence"":2}","[0,1]","../img/tt/098tt.jpg","",""
"3765.940000000177","","","recognition","survey-text","478","1971626","0.0-6.0-3.67","4019329","co37570","norming","","","{""guess"":""een beer""}","","../img/tt/098tt.jpg","",""
"null","../img/gs/098gs.jpg","null","reveal","image-keyboard-response","479","1973640","0.0-6.0-4.67","4019329","co37570","norming","","","","","","",""
"null","../img/tt/098tt.jpg","null","mooney2","image-keyboard-response","480","1975645","0.0-6.0-5.67","4019329","co37570","norming","","","","","","",""
"3578.820000000065","","","post_reveal_questions","survey-likert","481","1979226","0.0-6.0-6.67","4019329","co37570","norming","","","{""aha"":4}","[0]","../img/tt/098tt.jpg","",""
"null","<div style=""font-size:60px;""> </div>","null","fixation","html-keyboard-response","482","1979432","0.0-6.0-0.68","4019329","co37570","norming","","","","","","",""
"null","../img/tt/1128tt.jpg","null","mooney1","image-keyboard-response","483","1982441","0.0-6.0-1.68","4019329","co37570","norming","","","","","","",""
"3574.2900000000373","","","post_mooney1_questions","survey-likert","484","1986018","0.0-6.0-2.68","4019329","co37570","norming","","","{""curiosity"":6,""confidence"":2}","[0,1]","../img/tt/1128tt.jpg","",""
"4109.9550000000745","","","recognition","survey-text","485","1990130","0.0-6.0-3.68","4019329","co37570","norming","","","{""guess"":""een beer""}","","../img/tt/1128tt.jpg","",""
"null","../img/gs/1128gs.jpg","null","reveal","image-keyboard-response","486","1992136","0.0-6.0-4.68","4019329","co37570","norming","","","","","","",""
"null","../img/tt/1128tt.jpg","null","mooney2","image-keyboard-response","487","1994138","0.0-6.0-5.68","4019329","co37570","norming","","","","","","",""
"3892.9549999998417","","","post_reveal_questions","survey-likert","488","1998034","0.0-6.0-6.68","4019329","co37570","norming","","","{""aha"":6}","[0]","../img/tt/1128tt.jpg","",""
"null","<div style=""font-size:60px;""> </div>","null","fixation","html-keyboard-response","489","1998245","0.0-6.0-0.69","4019329","co37570","norming","","","","","","",""
"null","../img/tt/081tt.jpg","null","mooney1","image-keyboard-response","490","2001248","0.0-6.0-1.69","4019329","co37570","norming","","","","","","",""
"5246.789999999804","","","post_mooney1_questions","survey-likert","491","2006498","0.0-6.0-2.69","4019329","co37570","norming","","","{""curiosity"":6,""confidence"":2}","[0,1]","../img/tt/081tt.jpg","",""
"5606.239999999991","","","recognition","survey-text","492","2012091","0.0-6.0-3.69","4019329","co37570","norming","","","{""guess"":""een kikker""}","","../img/tt/081tt.jpg","",""
"null","../img/gs/081gs.jpg","null","reveal","image-keyboard-response","493","2014100","0.0-6.0-4.69","4019329","co37570","norming","","","","","","",""
"null","../img/tt/081tt.jpg","null","mooney2","image-keyboard-response","494","2016102","0.0-6.0-5.69","4019329","co37570","norming","","","","","","",""
"2578.980000000214","","","post_reveal_questions","survey-likert","495","2018683","0.0-6.0-6.69","4019329","co37570","norming","","","{""aha"":6}","[0]","../img/tt/081tt.jpg","",""
"null","<div style=""font-size:60px;""> </div>","null","fixation","html-keyboard-response","496","2018893","0.0-6.0-0.70","4019329","co37570","norming","","","","","","",""
"null","../img/tt/1290tt.jpg","null","mooney1","image-keyboard-response","497","2021906","0.0-6.0-1.70","4019329","co37570","norming","","","","","","",""
"7950.380000000121","","","post_mooney1_questions","survey-likert","498","2029859","0.0-6.0-2.70","4019329","co37570","norming","","","{""curiosity"":6,""confidence"":2}","[0,1]","../img/tt/1290tt.jpg","",""
"23341.684999999823","","","recognition","survey-text","499","2053203","0.0-6.0-3.70","4019329","co37570","norming","","","{""guess"":""een vogelnest met hangende voeding""}","","../img/tt/1290tt.jpg","",""
"null","../img/gs/1290gs.jpg","null","reveal","image-keyboard-response","500","2055211","0.0-6.0-4.70","4019329","co37570","norming","","","","","","",""
"null","../img/tt/1290tt.jpg","null","mooney2","image-keyboard-response","501","2057227","0.0-6.0-5.70","4019329","co37570","norming","","","","","","",""
"2557.4000000001397","","","post_reveal_questions","survey-likert","502","2059787","0.0-6.0-6.70","4019329","co37570","norming","","","{""aha"":5}","[0]","../img/tt/1290tt.jpg","",""
"null","<div style=""font-size:60px;""> </div>","null","fixation","html-keyboard-response","503","2060001","0.0-6.0-0.71","4019329","co37570","norming","","","","","","",""
"null","../img/tt/580tt.jpg","null","mooney1","image-keyboard-response","504","2063006","0.0-6.0-1.71","4019329","co37570","norming","","","","","","",""
"7753.850000000093","","","post_mooney1_questions","survey-likert","505","2070763","0.0-6.0-2.71","4019329","co37570","norming","","","{""curiosity"":6,""confidence"":0}","[0,1]","../img/tt/580tt.jpg","",""
"15958.085000000196","","","recognition","survey-text","506","2086724","0.0-6.0-3.71","4019329","co37570","norming","","","{""guess"":""een hond""}","","../img/tt/580tt.jpg","",""
"null","../img/gs/580gs.jpg","null","reveal","image-keyboard-response","507","2088733","0.0-6.0-4.71","4019329","co37570","norming","","","","","","",""
"null","../img/tt/580tt.jpg","null","mooney2","image-keyboard-response","508","2090750","0.0-6.0-5.71","4019329","co37570","norming","","","","","","",""
"2395.4749999998603","","","post_reveal_questions","survey-likert","509","2093148","0.0-6.0-6.71","4019329","co37570","norming","","","{""aha"":6}","[0]","../img/tt/580tt.jpg","",""
"null","<div style=""font-size:60px;""> </div>","null","fixation","html-keyboard-response","510","2093350","0.0-6.0-0.72","4019329","co37570","norming","","","","","","",""
"null","../img/tt/318tt.jpg","null","mooney1","image-keyboard-response","511","2096352","0.0-6.0-1.72","4019329","co37570","norming","","","","","","",""
"4264.845000000205","","","post_mooney1_questions","survey-likert","512","2100620","0.0-6.0-2.72","4019329","co37570","norming","","","{""curiosity"":6,""confidence"":0}","[0,1]","../img/tt/318tt.jpg","",""
"5790.075000000652","","","recognition","survey-text","513","2106412","0.0-6.0-3.72","4019329","co37570","norming","","","{""guess"":""en wiel""}","","../img/tt/318tt.jpg","",""
"null","../img/gs/318gs.jpg","null","reveal","image-keyboard-response","514","2108428","0.0-6.0-4.72","4019329","co37570","norming","","","","","","",""
"null","../img/tt/318tt.jpg","null","mooney2","image-keyboard-response","515","2110444","0.0-6.0-5.72","4019329","co37570","norming","","","","","","",""
"3653.4550000000745","","","post_reveal_questions","survey-likert","516","2114100","0.0-6.0-6.72","4019329","co37570","norming","","","{""aha"":4}","[0]","../img/tt/318tt.jpg","",""
"null","<div style=""font-size:60px;""> </div>","null","fixation","html-keyboard-response","517","2114301","0.0-6.0-0.73","4019329","co37570","norming","","","","","","",""
"null","../img/tt/329tt.jpg","null","mooney1","image-keyboard-response","518","2117307","0.0-6.0-1.73","4019329","co37570","norming","","","","","","",""
"4742.4350000005215","","","post_mooney1_questions","survey-likert","519","2122053","0.0-6.0-2.73","4019329","co37570","norming","","","{""curiosity"":6,""confidence"":1}","[0,1]","../img/tt/329tt.jpg","",""
"8357.849999999627","","","recognition","survey-text","520","2130412","0.0-6.0-3.73","4019329","co37570","norming","","","{""guess"":""een fietsenstuur""}","","../img/tt/329tt.jpg","",""
"null","../img/gs/329gs.jpg","null","reveal","image-keyboard-response","521","2132421","0.0-6.0-4.73","4019329","co37570","norming","","","","","","",""
"null","../img/tt/329tt.jpg","null","mooney2","image-keyboard-response","522","2134435","0.0-6.0-5.73","4019329","co37570","norming","","","","","","",""
"6159.305000000168","","","post_reveal_questions","survey-likert","523","2140596","0.0-6.0-6.73","4019329","co37570","norming","","","{""aha"":5}","[0]","../img/tt/329tt.jpg","",""
"null","<div style=""font-size:60px;""> </div>","null","fixation","html-keyboard-response","524","2140804","0.0-6.0-0.74","4019329","co37570","norming","","","","","","",""
"null","../img/tt/1012tt.jpg","null","mooney1","image-keyboard-response","525","2143826","0.0-6.0-1.74","4019329","co37570","norming","","","","","","",""
"4091.4900000002235","","","post_mooney1_questions","survey-likert","526","2147921","0.0-6.0-2.74","4019329","co37570","norming","","","{""curiosity"":6,""confidence"":1}","[0,1]","../img/tt/1012tt.jpg","",""
"6013.95500000054","","","recognition","survey-text","527","2153937","0.0-6.0-3.74","4019329","co37570","norming","","","{""guess"":""een paard""}","","../img/tt/1012tt.jpg","",""
"null","../img/gs/1012gs.jpg","null","reveal","image-keyboard-response","528","2155945","0.0-6.0-4.74","4019329","co37570","norming","","","","","","",""
"null","../img/tt/1012tt.jpg","null","mooney2","image-keyboard-response","529","2157955","0.0-6.0-5.74","4019329","co37570","norming","","","","","","",""
"2459.665000000503","","","post_reveal_questions","survey-likert","530","2160417","0.0-6.0-6.74","4019329","co37570","norming","","","{""aha"":6}","[0]","../img/tt/1012tt.jpg","",""
"null","<div style=""font-size:60px;""> </div>","null","fixation","html-keyboard-response","531","2160629","0.0-6.0-0.75","4019329","co37570","norming","","","","","","",""
"null","../img/tt/1353tt.jpg","null","mooney1","image-keyboard-response","532","2163642","0.0-6.0-1.75","4019329","co37570","norming","","","","","","",""
"3891.320000000298","","","post_mooney1_questions","survey-likert","533","2167537","0.0-6.0-2.75","4019329","co37570","norming","","","{""curiosity"":6,""confidence"":2}","[0,1]","../img/tt/1353tt.jpg","",""
"4733.994999999646","","","recognition","survey-text","534","2172273","0.0-6.0-3.75","4019329","co37570","norming","","","{""guess"":""een spin""}","","../img/tt/1353tt.jpg","",""
"null","../img/gs/1353gs.jpg","null","reveal","image-keyboard-response","535","2174275","0.0-6.0-4.75","4019329","co37570","norming","","","","","","",""
"null","../img/tt/1353tt.jpg","null","mooney2","image-keyboard-response","536","2176287","0.0-6.0-5.75","4019329","co37570","norming","","","","","","",""
"3039.375","","","post_reveal_questions","survey-likert","537","2179329","0.0-6.0-6.75","4019329","co37570","norming","","","{""aha"":4}","[0]","../img/tt/1353tt.jpg","",""
"null","<div style=""font-size:60px;""> </div>","null","fixation","html-keyboard-response","538","2179540","0.0-6.0-0.76","4019329","co37570","norming","","","","","","",""
"null","../img/tt/049tt.jpg","null","mooney1","image-keyboard-response","539","2182557","0.0-6.0-1.76","4019329","co37570","norming","","","","","","",""
"3675.3950000000186","","","post_mooney1_questions","survey-likert","540","2186233","0.0-6.0-2.76","4019329","co37570","norming","","","{""curiosity"":6,""confidence"":1}","[0,1]","../img/tt/049tt.jpg","",""
"4797.8300000000745","","","recognition","survey-text","541","2191033","0.0-6.0-3.76","4019329","co37570","norming","","","{""guess"":""een kikker""}","","../img/tt/049tt.jpg","",""
"null","../img/gs/049gs.jpg","null","reveal","image-keyboard-response","542","2193034","0.0-6.0-4.76","4019329","co37570","norming","","","","","","",""
"null","../img/tt/049tt.jpg","null","mooney2","image-keyboard-response","543","2195035","0.0-6.0-5.76","4019329","co37570","norming","","","","","","",""
"2523.185000000056","","","post_reveal_questions","survey-likert","544","2197561","0.0-6.0-6.76","4019329","co37570","norming","","","{""aha"":4}","[0]","../img/tt/049tt.jpg","",""
"null","<div style=""font-size:60px;""> </div>","null","fixation","html-keyboard-response","545","2197762","0.0-6.0-0.77","4019329","co37570","norming","","","","","","",""
"null","../img/tt/584tt.jpg","null","mooney1","image-keyboard-response","546","2200775","0.0-6.0-1.77","4019329","co37570","norming","","","","","","",""
"6919.069999999832","","","post_mooney1_questions","survey-likert","547","2207698","0.0-6.0-2.77","4019329","co37570","norming","","","{""curiosity"":6,""confidence"":2}","[0,1]","../img/tt/584tt.jpg","",""
"5982.149999999907","","","recognition","survey-text","548","2213682","0.0-6.0-3.77","4019329","co37570","norming","","","{""guess"":""schaar""}","","../img/tt/584tt.jpg","",""
"null","../img/gs/584gs.jpg","null","reveal","image-keyboard-response","549","2215691","0.0-6.0-4.77","4019329","co37570","norming","","","","","","",""
