"rt","stimulus","key_press","test_part","trial_type","trial_index","time_elapsed","internal_node_id","totalTime","subject","experiment_name","button_pressed","success","responses","question_order","currentStim","old","correct"
"6376.070000000027","Welcome to the experiment. This is an online experiment so please don't close the tab/window until we say goodbye.  Press any key to begin.","32","instructions","html-keyboard-response","0","6390","0.0-0.0","2739073","co37840","norming","","","","","","",""
"9318.185000000027","<div style='word-wrap: break-word; width: 900px'><h3>Please consider this information carefully before deciding whether to participate in this research</h3><ul style='text-align: left; font-size: .8em;'><li><b>Purpose of the research</b>: To examine how people process images.</li><li><b>What you will do in this research</b>:  Stimuli (images) will be presented on the computer and you will be asked different questions about them.</li><li><b>Time required</b>: Participation will take between 45 and 60 minutes to complete.</li><li><b>Risks</b>:  There are no anticipated risks associated with participating in this study. The effects of participating should be comparable to those you would experience from viewing a computer monitor for 30 minutes and using a mouse or keyboard.</li><li><b>Benefits</b>:  This study provides no benefits to you individually except for the credit. The study provides important information about the nature of perception and learning.</li><li><b>Confidentiality</b>:  Your participation in this study will remain confidential. No personally identifiable information will be associated with your data. Your de-identified data may be shared with other researchers and used in future projects.</li><li><b>Participation and withdrawal</b>:  Your participation in this study is completely voluntary and you may refuse to participate or you may choose to withdraw at any time without penalty.</li><li><b>How to contact the researchers</b>: If you have questions or concerns about your participation or payment, or want to request a summary of research findings, please contact Sander Van de Cruys (KU Leuven), at sander.vandecruys@kuleuven.be.</li></ul><p>The nature and purpose of this research have been sufficiently explained and I agree to participate in this study.  I understand that I am free to withdraw at any time without incurring any penalty.</p><p>Please consent by clicking the button below to continue. Otherwise, please exit the study at this time.</p></div>","","instructions","html-button-response","1","15710","0.0-1.0","2739073","co37840","norming","0","","","","","",""
"","","","instructions","fullscreen","2","19260","0.0-2.0","2739073","co37840","norming","","true","","","","",""
"25136.124999999993","","","sona","survey-html-form","3","44517","0.0-3.0","2739073","co37840","norming","","","[{""name"":""sonaid"",""value"":""37840""},{""name"":""debrief"",""value"":""no""},{""name"":""datajoin"",""value"":""yes""}]","","","",""
"61076.659999999996","<div style='word-wrap: break-word; width: 900px'><h3>Instructions</h3><p>This experiment will have 3 parts. In the first part you will see a series of distorted images like the one below on the left. As you can see in the righthand image, the distorted images are derived from actual photographs. In what follows, you will <strong>briefly</strong> be presented with <strong>only</strong> the distorted image.</p> <div style='float: left; margin-right: 20px;'><img src='../img/018tt.jpg' height='250' width='250'></img></div><div style='float: right; margin-left: 20px;'><img src='../img/018gs.jpg' height='250' width='250'></img></div><p>Subsequently you will be asked a few questions about the image: One question on how <strong>curious</strong> you are about the solution and one on how <strong>confident</strong> you are that you know the solution.</p>Next, we ask you to make a guess on what is in the image. Note that it is OK to name just the <strong>basic level category</strong>. For example when you see a parrot in the image, 'parrot' will obviously be a correct answer but also correct is 'bird'. However, 'animal' will <strong>not</strong> be counted as a correct response. For the example above, 'rose' would be correct or 'flower', but not 'plant'. When soccer players are depicted, 'soccer', 'football', 'soccer players' will be correct, but not 'humans', 'outdoors', or 'sports'. You do not need to describe the image in full, just name the main object in it <strong>in one or two words</strong>. All images depict objects from one of the following broad level categories: animals, inanimate objects, plants, sports, vehicles, and food. Recognizing means knowing <strong>more</strong> than these broad labels for a given image. But we always encourage you to <strong>make a guess</strong> if you can. Note that you are allowed to use <strong>Dutch and English</strong> in your answers, whatever comes easiest for you.</p><p>Press any key to continue.</p></div>","32","instructions","html-keyboard-response","4","105717","0.0-4.0","2739073","co37840","norming","","","","","","",""
"116285.9850000001","<div style='word-wrap: break-word; width: 900px'><h3>Instructions</h3> <p>Next, the solution image will be revealed to you and you'll be asked to indicate how strong your <strong>aha-experience</strong> was after seeing the solution. This describes the positive feeling of the 'click' you sometimes experience, when the pieces of the 'puzzle' fall together and you suddenly have 'insight' in the image.</p><img src='aha.jpg' height='188' width='250'></img><p>Note that there are no right or wrong answers. We are interested in what <strong>you</strong> see in the image and how <strong>you</strong> feel about it.</p><p>Press any key to start the experiment.</p></div>","32","instructions","html-keyboard-response","5","222210","0.0-5.0","2739073","co37840","norming","","","","","","",""
"null","<div style=""font-size:60px;""> </div>","null","fixation","html-keyboard-response","6","222414","0.0-6.0-0.0","2739073","co37840","norming","","","","","","",""
"null","../img/tt/082tt.jpg","null","mooney1","image-keyboard-response","7","225421","0.0-6.0-1.0","2739073","co37840","norming","","","","","","",""
"11762.735000000015","","","post_mooney1_questions","survey-likert","8","237186","0.0-6.0-2.0","2739073","co37840","norming","","","{""curiosity"":1,""confidence"":4}","[0,1]","../img/tt/082tt.jpg","",""
"3117.889999999985","","","recognition","survey-text","9","240306","0.0-6.0-3.0","2739073","co37840","norming","","","{""guess"":""parrot""}","","../img/tt/082tt.jpg","",""
"null","../img/gs/082gs.jpg","null","reveal","image-keyboard-response","10","242307","0.0-6.0-4.0","2739073","co37840","norming","","","","","","",""
"null","../img/tt/082tt.jpg","null","mooney2","image-keyboard-response","11","244310","0.0-6.0-5.0","2739073","co37840","norming","","","","","","",""
"3665.2149999999965","","","post_reveal_questions","survey-likert","12","247977","0.0-6.0-6.0","2739073","co37840","norming","","","{""aha"":0}","[0]","../img/tt/082tt.jpg","",""
"null","<div style=""font-size:60px;""> </div>","null","fixation","html-keyboard-response","13","248183","0.0-6.0-0.1","2739073","co37840","norming","","","","","","",""
"null","../img/tt/497tt.jpg","null","mooney1","image-keyboard-response","14","251188","0.0-6.0-1.1","2739073","co37840","norming","","","","","","",""
"6627.600000000035","","","post_mooney1_questions","survey-likert","15","257817","0.0-6.0-2.1","2739073","co37840","norming","","","{""curiosity"":4,""confidence"":1}","[0,1]","../img/tt/497tt.jpg","",""
"5445.969999999972","","","recognition","survey-text","16","263265","0.0-6.0-3.1","2739073","co37840","norming","","","{""guess"":""fontein""}","","../img/tt/497tt.jpg","",""
"null","../img/gs/497gs.jpg","null","reveal","image-keyboard-response","17","265270","0.0-6.0-4.1","2739073","co37840","norming","","","","","","",""
"null","../img/tt/497tt.jpg","null","mooney2","image-keyboard-response","18","267272","0.0-6.0-5.1","2739073","co37840","norming","","","","","","",""
"2263.134999999893","","","post_reveal_questions","survey-likert","19","269537","0.0-6.0-6.1","2739073","co37840","norming","","","{""aha"":3}","[0]","../img/tt/497tt.jpg","",""
"null","<div style=""font-size:60px;""> </div>","null","fixation","html-keyboard-response","20","269739","0.0-6.0-0.2","2739073","co37840","norming","","","","","","",""
"null","../img/tt/063tt.jpg","null","mooney1","image-keyboard-response","21","272743","0.0-6.0-1.2","2739073","co37840","norming","","","","","","",""
"6951.895000000019","","","post_mooney1_questions","survey-likert","22","279697","0.0-6.0-2.2","2739073","co37840","norming","","","{""curiosity"":3,""confidence"":1}","[0,1]","../img/tt/063tt.jpg","",""
"3006.244999999937","","","recognition","survey-text","23","282706","0.0-6.0-3.2","2739073","co37840","norming","","","{""guess"":""telefoon""}","","../img/tt/063tt.jpg","",""
"null","../img/gs/063gs.jpg","null","reveal","image-keyboard-response","24","284713","0.0-6.0-4.2","2739073","co37840","norming","","","","","","",""
"null","../img/tt/063tt.jpg","null","mooney2","image-keyboard-response","25","286715","0.0-6.0-5.2","2739073","co37840","norming","","","","","","",""
"1836.4300000000512","","","post_reveal_questions","survey-likert","26","288554","0.0-6.0-6.2","2739073","co37840","norming","","","{""aha"":4}","[0]","../img/tt/063tt.jpg","",""
"null","<div style=""font-size:60px;""> </div>","null","fixation","html-keyboard-response","27","288755","0.0-6.0-0.3","2739073","co37840","norming","","","","","","",""
"null","../img/tt/1089tt.jpg","null","mooney1","image-keyboard-response","28","291759","0.0-6.0-1.3","2739073","co37840","norming","","","","","","",""
"4904.809999999998","","","post_mooney1_questions","survey-likert","29","296666","0.0-6.0-2.3","2739073","co37840","norming","","","{""curiosity"":1,""confidence"":5}","[0,1]","../img/tt/1089tt.jpg","",""
"2038.280000000028","","","recognition","survey-text","30","298706","0.0-6.0-3.3","2739073","co37840","norming","","","{""guess"":""olifant""}","","../img/tt/1089tt.jpg","",""
"null","../img/gs/1089gs.jpg","null","reveal","image-keyboard-response","31","300715","0.0-6.0-4.3","2739073","co37840","norming","","","","","","",""
"null","../img/tt/1089tt.jpg","null","mooney2","image-keyboard-response","32","302718","0.0-6.0-5.3","2739073","co37840","norming","","","","","","",""
"2490.7549999998882","","","post_reveal_questions","survey-likert","33","305210","0.0-6.0-6.3","2739073","co37840","norming","","","{""aha"":0}","[0]","../img/tt/1089tt.jpg","",""
"null","<div style=""font-size:60px;""> </div>","null","fixation","html-keyboard-response","34","305411","0.0-6.0-0.4","2739073","co37840","norming","","","","","","",""
"null","../img/tt/507tt.jpg","null","mooney1","image-keyboard-response","35","308418","0.0-6.0-1.4","2739073","co37840","norming","","","","","","",""
"7445.840000000084","","","post_mooney1_questions","survey-likert","36","315866","0.0-6.0-2.4","2739073","co37840","norming","","","{""curiosity"":4,""confidence"":1}","[0,1]","../img/tt/507tt.jpg","",""
"1878.0950000000303","","","recognition","survey-text","37","317746","0.0-6.0-3.4","2739073","co37840","norming","","","{""guess"":""toneel""}","","../img/tt/507tt.jpg","",""
"null","../img/gs/507gs.jpg","null","reveal","image-keyboard-response","38","319752","0.0-6.0-4.4","2739073","co37840","norming","","","","","","",""
"null","../img/tt/507tt.jpg","null","mooney2","image-keyboard-response","39","321764","0.0-6.0-5.4","2739073","co37840","norming","","","","","","",""
"2940.335000000021","","","post_reveal_questions","survey-likert","40","324706","0.0-6.0-6.4","2739073","co37840","norming","","","{""aha"":4}","[0]","../img/tt/507tt.jpg","",""
"null","<div style=""font-size:60px;""> </div>","null","fixation","html-keyboard-response","41","324908","0.0-6.0-0.5","2739073","co37840","norming","","","","","","",""
"null","../img/tt/020tt.jpg","null","mooney1","image-keyboard-response","42","327916","0.0-6.0-1.5","2739073","co37840","norming","","","","","","",""
"5747.025000000023","","","post_mooney1_questions","survey-likert","43","333666","0.0-6.0-2.5","2739073","co37840","norming","","","{""curiosity"":4,""confidence"":0}","[0,1]","../img/tt/020tt.jpg","",""
"2494.399999999965","","","recognition","survey-text","44","336162","0.0-6.0-3.5","2739073","co37840","norming","","","{""guess"":""kameleon""}","","../img/tt/020tt.jpg","",""
"null","../img/gs/020gs.jpg","null","reveal","image-keyboard-response","45","338163","0.0-6.0-4.5","2739073","co37840","norming","","","","","","",""
"null","../img/tt/020tt.jpg","null","mooney2","image-keyboard-response","46","340166","0.0-6.0-5.5","2739073","co37840","norming","","","","","","",""
"1505.9099999999744","","","post_reveal_questions","survey-likert","47","341674","0.0-6.0-6.5","2739073","co37840","norming","","","{""aha"":5}","[0]","../img/tt/020tt.jpg","",""
"null","<div style=""font-size:60px;""> </div>","null","fixation","html-keyboard-response","48","341885","0.0-6.0-0.6","2739073","co37840","norming","","","","","","",""
"null","../img/tt/307tt.jpg","null","mooney1","image-keyboard-response","49","344894","0.0-6.0-1.6","2739073","co37840","norming","","","","","","",""
"5826.535000000033","","","post_mooney1_questions","survey-likert","50","350722","0.0-6.0-2.6","2739073","co37840","norming","","","{""curiosity"":4,""confidence"":2}","[0,1]","../img/tt/307tt.jpg","",""
"1950.240000000049","","","recognition","survey-text","51","352674","0.0-6.0-3.6","2739073","co37840","norming","","","{""guess"":""slak""}","","../img/tt/307tt.jpg","",""
"null","../img/gs/307gs.jpg","null","reveal","image-keyboard-response","52","354684","0.0-6.0-4.6","2739073","co37840","norming","","","","","","",""
"null","../img/tt/307tt.jpg","null","mooney2","image-keyboard-response","53","356693","0.0-6.0-5.6","2739073","co37840","norming","","","","","","",""
"2778.6350000000093","","","post_reveal_questions","survey-likert","54","359474","0.0-6.0-6.6","2739073","co37840","norming","","","{""aha"":4}","[0]","../img/tt/307tt.jpg","",""
"null","<div style=""font-size:60px;""> </div>","null","fixation","html-keyboard-response","55","359675","0.0-6.0-0.7","2739073","co37840","norming","","","","","","",""
"null","../img/tt/135tt.jpg","null","mooney1","image-keyboard-response","56","362678","0.0-6.0-1.7","2739073","co37840","norming","","","","","","",""
"3121.780000000086","","","post_mooney1_questions","survey-likert","57","365802","0.0-6.0-2.7","2739073","co37840","norming","","","{""curiosity"":1,""confidence"":5}","[0,1]","../img/tt/135tt.jpg","",""
"2086.1699999999255","","","recognition","survey-text","58","367890","0.0-6.0-3.7","2739073","co37840","norming","","","{""guess"":""toilet""}","","../img/tt/135tt.jpg","",""
"null","../img/gs/135gs.jpg","null","reveal","image-keyboard-response","59","369900","0.0-6.0-4.7","2739073","co37840","norming","","","","","","",""
"null","../img/tt/135tt.jpg","null","mooney2","image-keyboard-response","60","371901","0.0-6.0-5.7","2739073","co37840","norming","","","","","","",""
"1850.3150000000023","","","post_reveal_questions","survey-likert","61","373754","0.0-6.0-6.7","2739073","co37840","norming","","","{""aha"":0}","[0]","../img/tt/135tt.jpg","",""
"null","<div style=""font-size:60px;""> </div>","null","fixation","html-keyboard-response","62","373959","0.0-6.0-0.8","2739073","co37840","norming","","","","","","",""
"null","../img/tt/118tt.jpg","null","mooney1","image-keyboard-response","63","376965","0.0-6.0-1.8","2739073","co37840","norming","","","","","","",""
"5250.914999999979","","","post_mooney1_questions","survey-likert","64","382218","0.0-6.0-2.8","2739073","co37840","norming","","","{""curiosity"":3,""confidence"":1}","[0,1]","../img/tt/118tt.jpg","",""
"1958.1149999999325","","","recognition","survey-text","65","384178","0.0-6.0-3.8","2739073","co37840","norming","","","{""guess"":""bank""}","","../img/tt/118tt.jpg","",""
"null","../img/gs/118gs.jpg","null","reveal","image-keyboard-response","66","386183","0.0-6.0-4.8","2739073","co37840","norming","","","","","","",""
"null","../img/tt/118tt.jpg","null","mooney2","image-keyboard-response","67","388186","0.0-6.0-5.8","2739073","co37840","norming","","","","","","",""
"2645.7449999999953","","","post_reveal_questions","survey-likert","68","390834","0.0-6.0-6.8","2739073","co37840","norming","","","{""aha"":2}","[0]","../img/tt/118tt.jpg","",""
"null","<div style=""font-size:60px;""> </div>","null","fixation","html-keyboard-response","69","391043","0.0-6.0-0.9","2739073","co37840","norming","","","","","","",""
"null","../img/tt/1130tt.jpg","null","mooney1","image-keyboard-response","70","394046","0.0-6.0-1.9","2739073","co37840","norming","","","","","","",""
"5081.179999999993","","","post_mooney1_questions","survey-likert","71","399130","0.0-6.0-2.9","2739073","co37840","norming","","","{""curiosity"":3,""confidence"":2}","[0,1]","../img/tt/1130tt.jpg","",""
"1862.1900000000605","","","recognition","survey-text","72","400994","0.0-6.0-3.9","2739073","co37840","norming","","","{""guess"":""fietser""}","","../img/tt/1130tt.jpg","",""
"null","../img/gs/1130gs.jpg","null","reveal","image-keyboard-response","73","402998","0.0-6.0-4.9","2739073","co37840","norming","","","","","","",""
"null","../img/tt/1130tt.jpg","null","mooney2","image-keyboard-response","74","405000","0.0-6.0-5.9","2739073","co37840","norming","","","","","","",""
"2768.484999999928","","","post_reveal_questions","survey-likert","75","407770","0.0-6.0-6.9","2739073","co37840","norming","","","{""aha"":0}","[0]","../img/tt/1130tt.jpg","",""
"null","<div style=""font-size:60px;""> </div>","null","fixation","html-keyboard-response","76","407973","0.0-6.0-0.10","2739073","co37840","norming","","","","","","",""
"null","../img/tt/1143tt.jpg","null","mooney1","image-keyboard-response","77","410977","0.0-6.0-1.10","2739073","co37840","norming","","","","","","",""
"9302.56500000006","","","post_mooney1_questions","survey-likert","78","420282","0.0-6.0-2.10","2739073","co37840","norming","","","{""curiosity"":4,""confidence"":0}","[0,1]","../img/tt/1143tt.jpg","",""
"3558.344999999914","","","recognition","survey-text","79","423842","0.0-6.0-3.10","2739073","co37840","norming","","","{""guess"":""eettafel""}","","../img/tt/1143tt.jpg","",""
"null","../img/gs/1143gs.jpg","null","reveal","image-keyboard-response","80","425843","0.0-6.0-4.10","2739073","co37840","norming","","","","","","",""
"null","../img/tt/1143tt.jpg","null","mooney2","image-keyboard-response","81","427848","0.0-6.0-5.10","2739073","co37840","norming","","","","","","",""
"2166.980000000098","","","post_reveal_questions","survey-likert","82","430017","0.0-6.0-6.10","2739073","co37840","norming","","","{""aha"":5}","[0]","../img/tt/1143tt.jpg","",""
"null","<div style=""font-size:60px;""> </div>","null","fixation","html-keyboard-response","83","430227","0.0-6.0-0.11","2739073","co37840","norming","","","","","","",""
"null","../img/tt/1309tt.jpg","null","mooney1","image-keyboard-response","84","433236","0.0-6.0-1.11","2739073","co37840","norming","","","","","","",""
"3403.5299999999115","","","post_mooney1_questions","survey-likert","85","436642","0.0-6.0-2.11","2739073","co37840","norming","","","{""curiosity"":4,""confidence"":1}","[0,1]","../img/tt/1309tt.jpg","",""
"1549.9700000000303","","","recognition","survey-text","86","438193","0.0-6.0-3.11","2739073","co37840","norming","","","{""guess"":""bos""}","","../img/tt/1309tt.jpg","",""
"null","../img/gs/1309gs.jpg","null","reveal","image-keyboard-response","87","440196","0.0-6.0-4.11","2739073","co37840","norming","","","","","","",""
"null","../img/tt/1309tt.jpg","null","mooney2","image-keyboard-response","88","442206","0.0-6.0-5.11","2739073","co37840","norming","","","","","","",""
"2170.134999999951","","","post_reveal_questions","survey-likert","89","444378","0.0-6.0-6.11","2739073","co37840","norming","","","{""aha"":2}","[0]","../img/tt/1309tt.jpg","",""
"null","<div style=""font-size:60px;""> </div>","null","fixation","html-keyboard-response","90","444581","0.0-6.0-0.12","2739073","co37840","norming","","","","","","",""
"null","../img/tt/126tt.jpg","null","mooney1","image-keyboard-response","91","447588","0.0-6.0-1.12","2739073","co37840","norming","","","","","","",""
"5706.98000000004","","","post_mooney1_questions","survey-likert","92","453298","0.0-6.0-2.12","2739073","co37840","norming","","","{""curiosity"":3,""confidence"":0}","[0,1]","../img/tt/126tt.jpg","",""
"2430.2050000000163","","","recognition","survey-text","93","455730","0.0-6.0-3.12","2739073","co37840","norming","","","{""guess"":""krokodil""}","","../img/tt/126tt.jpg","",""
"null","../img/gs/126gs.jpg","null","reveal","image-keyboard-response","94","457740","0.0-6.0-4.12","2739073","co37840","norming","","","","","","",""
"null","../img/tt/126tt.jpg","null","mooney2","image-keyboard-response","95","459749","0.0-6.0-5.12","2739073","co37840","norming","","","","","","",""
"2443.0899999999674","","","post_reveal_questions","survey-likert","96","462194","0.0-6.0-6.12","2739073","co37840","norming","","","{""aha"":5}","[0]","../img/tt/126tt.jpg","",""
"null","<div style=""font-size:60px;""> </div>","null","fixation","html-keyboard-response","97","462400","0.0-6.0-0.13","2739073","co37840","norming","","","","","","",""
"null","../img/tt/091tt.jpg","null","mooney1","image-keyboard-response","98","465405","0.0-6.0-1.13","2739073","co37840","norming","","","","","","",""
"4011.590000000084","","","post_mooney1_questions","survey-likert","99","469418","0.0-6.0-2.13","2739073","co37840","norming","","","{""curiosity"":4,""confidence"":0}","[0,1]","../img/tt/091tt.jpg","",""
"2822.594999999972","","","recognition","survey-text","100","472242","0.0-6.0-3.13","2739073","co37840","norming","","","{""guess"":""landschap""}","","../img/tt/091tt.jpg","",""
"null","../img/gs/091gs.jpg","null","reveal","image-keyboard-response","101","474243","0.0-6.0-4.13","2739073","co37840","norming","","","","","","",""
"null","../img/tt/091tt.jpg","null","mooney2","image-keyboard-response","102","476245","0.0-6.0-5.13","2739073","co37840","norming","","","","","","",""
"1450.6199999999371","","","post_reveal_questions","survey-likert","103","477698","0.0-6.0-6.13","2739073","co37840","norming","","","{""aha"":6}","[0]","../img/tt/091tt.jpg","",""
"null","<div style=""font-size:60px;""> </div>","null","fixation","html-keyboard-response","104","477899","0.0-6.0-0.14","2739073","co37840","norming","","","","","","",""
"null","../img/tt/1241tt.jpg","null","mooney1","image-keyboard-response","105","480910","0.0-6.0-1.14","2739073","co37840","norming","","","","","","",""
"7802.080000000016","","","post_mooney1_questions","survey-likert","106","488714","0.0-6.0-2.14","2739073","co37840","norming","","","{""curiosity"":4,""confidence"":0}","[0,1]","../img/tt/1241tt.jpg","",""
"1798.2100000000792","","","recognition","survey-text","107","490514","0.0-6.0-3.14","2739073","co37840","norming","","","{""guess"":""koe""}","","../img/tt/1241tt.jpg","",""
"null","../img/gs/1241gs.jpg","null","reveal","image-keyboard-response","108","492520","0.0-6.0-4.14","2739073","co37840","norming","","","","","","",""
"null","../img/tt/1241tt.jpg","null","mooney2","image-keyboard-response","109","494523","0.0-6.0-5.14","2739073","co37840","norming","","","","","","",""
"2004.5699999999488","","","post_reveal_questions","survey-likert","110","496530","0.0-6.0-6.14","2739073","co37840","norming","","","{""aha"":4}","[0]","../img/tt/1241tt.jpg","",""
"null","<div style=""font-size:60px;""> </div>","null","fixation","html-keyboard-response","111","496731","0.0-6.0-0.15","2739073","co37840","norming","","","","","","",""
"null","../img/tt/406tt.jpg","null","mooney1","image-keyboard-response","112","499734","0.0-6.0-1.15","2739073","co37840","norming","","","","","","",""
"3985.490000000049","","","post_mooney1_questions","survey-likert","113","503722","0.0-6.0-2.15","2739073","co37840","norming","","","{""curiosity"":4,""confidence"":0}","[0,1]","../img/tt/406tt.jpg","",""
"7110.0599999999395","","","recognition","survey-text","114","510834","0.0-6.0-3.15","2739073","co37840","norming","","","{""guess"":""echt geen idee""}","","../img/tt/406tt.jpg","",""
"null","../img/gs/406gs.jpg","null","reveal","image-keyboard-response","115","512841","0.0-6.0-4.15","2739073","co37840","norming","","","","","","",""
"null","../img/tt/406tt.jpg","null","mooney2","image-keyboard-response","116","514843","0.0-6.0-5.15","2739073","co37840","norming","","","","","","",""
"2444.5200000000186","","","post_reveal_questions","survey-likert","117","517290","0.0-6.0-6.15","2739073","co37840","norming","","","{""aha"":5}","[0]","../img/tt/406tt.jpg","",""
"null","<div style=""font-size:60px;""> </div>","null","fixation","html-keyboard-response","118","517492","0.0-6.0-0.16","2739073","co37840","norming","","","","","","",""
"null","../img/tt/1061tt.jpg","null","mooney1","image-keyboard-response","119","520498","0.0-6.0-1.16","2739073","co37840","norming","","","","","","",""
"9453.085000000021","","","post_mooney1_questions","survey-likert","120","529948","0.0-6.0-2.16","2739073","co37840","norming","","","{""curiosity"":2,""confidence"":3}","[0,1]","../img/tt/1061tt.jpg","",""
"2478.220000000205","","","recognition","survey-text","121","532428","0.0-6.0-3.16","2739073","co37840","norming","","","{""guess"":""man in bos""}","","../img/tt/1061tt.jpg","",""
"null","../img/gs/1061gs.jpg","null","reveal","image-keyboard-response","122","534439","0.0-6.0-4.16","2739073","co37840","norming","","","","","","",""
"null","../img/tt/1061tt.jpg","null","mooney2","image-keyboard-response","123","536445","0.0-6.0-5.16","2739073","co37840","norming","","","","","","",""
"2220.1349999997765","","","post_reveal_questions","survey-likert","124","538668","0.0-6.0-6.16","2739073","co37840","norming","","","{""aha"":1}","[0]","../img/tt/1061tt.jpg","",""
"null","<div style=""font-size:60px;""> </div>","null","fixation","html-keyboard-response","125","538869","0.0-6.0-0.17","2739073","co37840","norming","","","","","","",""
"null","../img/tt/163tt.jpg","null","mooney1","image-keyboard-response","126","541874","0.0-6.0-1.17","2739073","co37840","norming","","","","","","",""
"9735.655000000028","","","post_mooney1_questions","survey-likert","127","551612","0.0-6.0-2.17","2739073","co37840","norming","","","{""curiosity"":3,""confidence"":1}","[0,1]","../img/tt/163tt.jpg","",""
"2189.9749999999767","","","recognition","survey-text","128","553804","0.0-6.0-3.17","2739073","co37840","norming","","","{""guess"":""hamster""}","","../img/tt/163tt.jpg","",""
"null","../img/gs/163gs.jpg","null","reveal","image-keyboard-response","129","555810","0.0-6.0-4.17","2739073","co37840","norming","","","","","","",""
"null","../img/tt/163tt.jpg","null","mooney2","image-keyboard-response","130","557811","0.0-6.0-5.17","2739073","co37840","norming","","","","","","",""
"2766.330000000191","","","post_reveal_questions","survey-likert","131","560580","0.0-6.0-6.17","2739073","co37840","norming","","","{""aha"":2}","[0]","../img/tt/163tt.jpg","",""
"null","<div style=""font-size:60px;""> </div>","null","fixation","html-keyboard-response","132","560781","0.0-6.0-0.18","2739073","co37840","norming","","","","","","",""
"null","../img/tt/1242tt.jpg","null","mooney1","image-keyboard-response","133","563793","0.0-6.0-1.18","2739073","co37840","norming","","","","","","",""
"10744.990000000107","","","post_mooney1_questions","survey-likert","134","574540","0.0-6.0-2.18","2739073","co37840","norming","","","{""curiosity"":3,""confidence"":0}","[0,1]","../img/tt/1242tt.jpg","",""
"3726.194999999949","","","recognition","survey-text","135","578268","0.0-6.0-3.18","2739073","co37840","norming","","","{""guess"":""specht""}","","../img/tt/1242tt.jpg","",""
"null","../img/gs/1242gs.jpg","null","reveal","image-keyboard-response","136","580269","0.0-6.0-4.18","2739073","co37840","norming","","","","","","",""
"null","../img/tt/1242tt.jpg","null","mooney2","image-keyboard-response","137","582271","0.0-6.0-5.18","2739073","co37840","norming","","","","","","",""
"1546.4899999999907","","","post_reveal_questions","survey-likert","138","583820","0.0-6.0-6.18","2739073","co37840","norming","","","{""aha"":5}","[0]","../img/tt/1242tt.jpg","",""
"null","<div style=""font-size:60px;""> </div>","null","fixation","html-keyboard-response","139","584023","0.0-6.0-0.19","2739073","co37840","norming","","","","","","",""
"null","../img/tt/515tt.jpg","null","mooney1","image-keyboard-response","140","587034","0.0-6.0-1.19","2739073","co37840","norming","","","","","","",""
"4685.054999999935","","","post_mooney1_questions","survey-likert","141","591722","0.0-6.0-2.19","2739073","co37840","norming","","","{""curiosity"":4,""confidence"":0}","[0,1]","../img/tt/515tt.jpg","",""
"7710.004999999888","","","recognition","survey-text","142","599434","0.0-6.0-3.19","2739073","co37840","norming","","","{""guess"":""?""}","","../img/tt/515tt.jpg","",""
"null","../img/gs/515gs.jpg","null","reveal","image-keyboard-response","143","601444","0.0-6.0-4.19","2739073","co37840","norming","","","","","","",""
"null","../img/tt/515tt.jpg","null","mooney2","image-keyboard-response","144","603445","0.0-6.0-5.19","2739073","co37840","norming","","","","","","",""
"2587.8749999998836","","","post_reveal_questions","survey-likert","145","606034","0.0-6.0-6.19","2739073","co37840","norming","","","{""aha"":6}","[0]","../img/tt/515tt.jpg","",""
"null","<div style=""font-size:60px;""> </div>","null","fixation","html-keyboard-response","146","606240","0.0-6.0-0.20","2739073","co37840","norming","","","","","","",""
"null","../img/tt/306tt.jpg","null","mooney1","image-keyboard-response","147","609249","0.0-6.0-1.20","2739073","co37840","norming","","","","","","",""
"9518.469999999972","","","post_mooney1_questions","survey-likert","148","618770","0.0-6.0-2.20","2739073","co37840","norming","","","{""curiosity"":4,""confidence"":1}","[0,1]","../img/tt/306tt.jpg","",""
"1966.0500000000466","","","recognition","survey-text","149","620738","0.0-6.0-3.20","2739073","co37840","norming","","","{""guess"":""bloem""}","","../img/tt/306tt.jpg","",""
"null","../img/gs/306gs.jpg","null","reveal","image-keyboard-response","150","622748","0.0-6.0-4.20","2739073","co37840","norming","","","","","","",""
"null","../img/tt/306tt.jpg","null","mooney2","image-keyboard-response","151","624750","0.0-6.0-5.20","2739073","co37840","norming","","","","","","",""
"2169.035000000149","","","post_reveal_questions","survey-likert","152","626922","0.0-6.0-6.20","2739073","co37840","norming","","","{""aha"":5}","[0]","../img/tt/306tt.jpg","",""
"null","<div style=""font-size:60px;""> </div>","null","fixation","html-keyboard-response","153","627127","0.0-6.0-0.21","2739073","co37840","norming","","","","","","",""
"null","../img/tt/1191tt.jpg","null","mooney1","image-keyboard-response","154","630130","0.0-6.0-1.21","2739073","co37840","norming","","","","","","",""
"7797.530000000028","","","post_mooney1_questions","survey-likert","155","637930","0.0-6.0-2.21","2739073","co37840","norming","","","{""curiosity"":4,""confidence"":1}","[0,1]","../img/tt/1191tt.jpg","",""
"2502.269999999902","","","recognition","survey-text","156","640434","0.0-6.0-3.21","2739073","co37840","norming","","","{""guess"":""koeien""}","","../img/tt/1191tt.jpg","",""
"null","../img/gs/1191gs.jpg","null","reveal","image-keyboard-response","157","642440","0.0-6.0-4.21","2739073","co37840","norming","","","","","","",""
"null","../img/tt/1191tt.jpg","null","mooney2","image-keyboard-response","158","644442","0.0-6.0-5.21","2739073","co37840","norming","","","","","","",""
"1861.579999999958","","","post_reveal_questions","survey-likert","159","646306","0.0-6.0-6.21","2739073","co37840","norming","","","{""aha"":6}","[0]","../img/tt/1191tt.jpg","",""
"null","<div style=""font-size:60px;""> </div>","null","fixation","html-keyboard-response","160","646513","0.0-6.0-0.22","2739073","co37840","norming","","","","","","",""
"null","../img/tt/1087tt.jpg","null","mooney1","image-keyboard-response","161","649518","0.0-6.0-1.22","2739073","co37840","norming","","","","","","",""
"7833.714999999967","","","post_mooney1_questions","survey-likert","162","657354","0.0-6.0-2.22","2739073","co37840","norming","","","{""curiosity"":4,""confidence"":1}","[0,1]","../img/tt/1087tt.jpg","",""
"7542.0599999999395","","","recognition","survey-text","163","664898","0.0-6.0-3.22","2739073","co37840","norming","","","{""guess"":""liggende koeien""}","","../img/tt/1087tt.jpg","",""
"null","../img/gs/1087gs.jpg","null","reveal","image-keyboard-response","164","666909","0.0-6.0-4.22","2739073","co37840","norming","","","","","","",""
"null","../img/tt/1087tt.jpg","null","mooney2","image-keyboard-response","165","668914","0.0-6.0-5.22","2739073","co37840","norming","","","","","","",""
"3389.8450000000885","","","post_reveal_questions","survey-likert","166","672306","0.0-6.0-6.22","2739073","co37840","norming","","","{""aha"":3}","[0]","../img/tt/1087tt.jpg","",""
"null","<div style=""font-size:60px;""> </div>","null","fixation","html-keyboard-response","167","672515","0.0-6.0-0.23","2739073","co37840","norming","","","","","","",""
"null","../img/tt/1186tt.jpg","null","mooney1","image-keyboard-response","168","675527","0.0-6.0-1.23","2739073","co37840","norming","","","","","","",""
"7272.980000000214","","","post_mooney1_questions","survey-likert","169","682802","0.0-6.0-2.23","2739073","co37840","norming","","","{""curiosity"":4,""confidence"":1}","[0,1]","../img/tt/1186tt.jpg","",""
"1806.115000000107","","","recognition","survey-text","170","684610","0.0-6.0-3.23","2739073","co37840","norming","","","{""guess"":""man""}","","../img/tt/1186tt.jpg","",""
"null","../img/gs/1186gs.jpg","null","reveal","image-keyboard-response","171","686618","0.0-6.0-4.23","2739073","co37840","norming","","","","","","",""
"null","../img/tt/1186tt.jpg","null","mooney2","image-keyboard-response","172","688622","0.0-6.0-5.23","2739073","co37840","norming","","","","","","",""
"1770.2250000000931","","","post_reveal_questions","survey-likert","173","690394","0.0-6.0-6.23","2739073","co37840","norming","","","{""aha"":3}","[0]","../img/tt/1186tt.jpg","",""
"null","<div style=""font-size:60px;""> </div>","null","fixation","html-keyboard-response","174","690595","0.0-6.0-0.24","2739073","co37840","norming","","","","","","",""
"null","../img/tt/1127tt.jpg","null","mooney1","image-keyboard-response","175","693598","0.0-6.0-1.24","2739073","co37840","norming","","","","","","",""
"4809.509999999893","","","post_mooney1_questions","survey-likert","176","698410","0.0-6.0-2.24","2739073","co37840","norming","","","{""curiosity"":4,""confidence"":1}","[0,1]","../img/tt/1127tt.jpg","",""
"1814.1399999998976","","","recognition","survey-text","177","700226","0.0-6.0-3.24","2739073","co37840","norming","","","{""guess"":""restaurant""}","","../img/tt/1127tt.jpg","",""
"null","../img/gs/1127gs.jpg","null","reveal","image-keyboard-response","178","702234","0.0-6.0-4.24","2739073","co37840","norming","","","","","","",""
"null","../img/tt/1127tt.jpg","null","mooney2","image-keyboard-response","179","704236","0.0-6.0-5.24","2739073","co37840","norming","","","","","","",""
"1667.9399999998277","","","post_reveal_questions","survey-likert","180","705906","0.0-6.0-6.24","2739073","co37840","norming","","","{""aha"":4}","[0]","../img/tt/1127tt.jpg","",""
"null","<div style=""font-size:60px;""> </div>","null","fixation","html-keyboard-response","181","706115","0.0-6.0-0.25","2739073","co37840","norming","","","","","","",""
"null","../img/tt/1156tt.jpg","null","mooney1","image-keyboard-response","182","709123","0.0-6.0-1.25","2739073","co37840","norming","","","","","","",""
"4235.715000000084","","","post_mooney1_questions","survey-likert","183","713365","0.0-6.0-2.25","2739073","co37840","norming","","","{""curiosity"":2,""confidence"":0}","[0,1]","../img/tt/1156tt.jpg","",""
"2622.2499999998836","","","recognition","survey-text","184","715989","0.0-6.0-3.25","2739073","co37840","norming","","","{""guess"":""bloem""}","","../img/tt/1156tt.jpg","",""
"null","../img/gs/1156gs.jpg","null","reveal","image-keyboard-response","185","717991","0.0-6.0-4.25","2739073","co37840","norming","","","","","","",""
"null","../img/tt/1156tt.jpg","null","mooney2","image-keyboard-response","186","719993","0.0-6.0-5.25","2739073","co37840","norming","","","","","","",""
"2129.3800000000047","","","post_reveal_questions","survey-likert","187","722125","0.0-6.0-6.25","2739073","co37840","norming","","","{""aha"":5}","[0]","../img/tt/1156tt.jpg","",""
"null","<div style=""font-size:60px;""> </div>","null","fixation","html-keyboard-response","188","722326","0.0-6.0-0.26","2739073","co37840","norming","","","","","","",""
"null","../img/tt/008tt.jpg","null","mooney1","image-keyboard-response","189","725335","0.0-6.0-1.26","2739073","co37840","norming","","","","","","",""
"3746.4250000000466","","","post_mooney1_questions","survey-likert","190","729085","0.0-6.0-2.26","2739073","co37840","norming","","","{""curiosity"":2,""confidence"":0}","[0,1]","../img/tt/008tt.jpg","",""
"3942.359999999986","","","recognition","survey-text","191","733029","0.0-6.0-3.26","2739073","co37840","norming","","","{""guess"":""vliegtuig""}","","../img/tt/008tt.jpg","",""
"null","../img/gs/008gs.jpg","null","reveal","image-keyboard-response","192","735037","0.0-6.0-4.26","2739073","co37840","norming","","","","","","",""
"null","../img/tt/008tt.jpg","null","mooney2","image-keyboard-response","193","737039","0.0-6.0-5.26","2739073","co37840","norming","","","","","","",""
"2067.765000000014","","","post_reveal_questions","survey-likert","194","739109","0.0-6.0-6.26","2739073","co37840","norming","","","{""aha"":4}","[0]","../img/tt/008tt.jpg","",""
"null","<div style=""font-size:60px;""> </div>","null","fixation","html-keyboard-response","195","739310","0.0-6.0-0.27","2739073","co37840","norming","","","","","","",""
"null","../img/tt/1279tt.jpg","null","mooney1","image-keyboard-response","196","742320","0.0-6.0-1.27","2739073","co37840","norming","","","","","","",""
"5771.085000000079","","","post_mooney1_questions","survey-likert","197","748093","0.0-6.0-2.27","2739073","co37840","norming","","","{""curiosity"":3,""confidence"":0}","[0,1]","../img/tt/1279tt.jpg","",""
"2342.149999999907","","","recognition","survey-text","198","750437","0.0-6.0-3.27","2739073","co37840","norming","","","{""guess"":""koe""}","","../img/tt/1279tt.jpg","",""
"null","../img/gs/1279gs.jpg","null","reveal","image-keyboard-response","199","752444","0.0-6.0-4.27","2739073","co37840","norming","","","","","","",""
"null","../img/tt/1279tt.jpg","null","mooney2","image-keyboard-response","200","754446","0.0-6.0-5.27","2739073","co37840","norming","","","","","","",""
"1212.8250000000698","","","post_reveal_questions","survey-likert","201","755661","0.0-6.0-6.27","2739073","co37840","norming","","","{""aha"":4}","[0]","../img/tt/1279tt.jpg","",""
"null","<div style=""font-size:60px;""> </div>","null","fixation","html-keyboard-response","202","755862","0.0-6.0-0.28","2739073","co37840","norming","","","","","","",""
"null","../img/tt/1254tt.jpg","null","mooney1","image-keyboard-response","203","758868","0.0-6.0-1.28","2739073","co37840","norming","","","","","","",""
"3478.3099999999395","","","post_mooney1_questions","survey-likert","204","762349","0.0-6.0-2.28","2739073","co37840","norming","","","{""curiosity"":4,""confidence"":1}","[0,1]","../img/tt/1254tt.jpg","",""
"2725.92499999993","","","recognition","survey-text","205","765076","0.0-6.0-3.28","2739073","co37840","norming","","","{""guess"":""konijn""}","","../img/tt/1254tt.jpg","",""
"null","../img/gs/1254gs.jpg","null","reveal","image-keyboard-response","206","767085","0.0-6.0-4.28","2739073","co37840","norming","","","","","","",""
"null","../img/tt/1254tt.jpg","null","mooney2","image-keyboard-response","207","769086","0.0-6.0-5.28","2739073","co37840","norming","","","","","","",""
"2548.240000000107","","","post_reveal_questions","survey-likert","208","771633","0.0-6.0-6.28","2739073","co37840","norming","","","{""aha"":1}","[0]","../img/tt/1254tt.jpg","",""
"null","<div style=""font-size:60px;""> </div>","null","fixation","html-keyboard-response","209","771835","0.0-6.0-0.29","2739073","co37840","norming","","","","","","",""
"null","../img/tt/435tt.jpg","null","mooney1","image-keyboard-response","210","774844","0.0-6.0-1.29","2739073","co37840","norming","","","","","","",""
"6362.855000000098","","","post_mooney1_questions","survey-likert","211","781210","0.0-6.0-2.29","2739073","co37840","norming","","","{""curiosity"":4,""confidence"":0}","[0,1]","../img/tt/435tt.jpg","",""
"2613.9749999999767","","","recognition","survey-text","212","783825","0.0-6.0-3.29","2739073","co37840","norming","","","{""guess"":""verfset""}","","../img/tt/435tt.jpg","",""
"null","../img/gs/435gs.jpg","null","reveal","image-keyboard-response","213","785826","0.0-6.0-4.29","2739073","co37840","norming","","","","","","",""
"null","../img/tt/435tt.jpg","null","mooney2","image-keyboard-response","214","787829","0.0-6.0-5.29","2739073","co37840","norming","","","","","","",""
"2274.67499999993","","","post_reveal_questions","survey-likert","215","790106","0.0-6.0-6.29","2739073","co37840","norming","","","{""aha"":5}","[0]","../img/tt/435tt.jpg","",""
"null","<div style=""font-size:60px;""> </div>","null","fixation","html-keyboard-response","216","790313","0.0-6.0-0.30","2739073","co37840","norming","","","","","","",""
"null","../img/tt/1227tt.jpg","null","mooney1","image-keyboard-response","217","793319","0.0-6.0-1.30","2739073","co37840","norming","","","","","","",""
"5416.459999999963","","","post_mooney1_questions","survey-likert","218","798737","0.0-6.0-2.30","2739073","co37840","norming","","","{""curiosity"":4,""confidence"":1}","[0,1]","../img/tt/1227tt.jpg","",""
"7406.160000000033","","","recognition","survey-text","219","806145","0.0-6.0-3.30","2739073","co37840","norming","","","{""guess"":""kippen OF varkens""}","","../img/tt/1227tt.jpg","",""
"null","../img/gs/1227gs.jpg","null","reveal","image-keyboard-response","220","808153","0.0-6.0-4.30","2739073","co37840","norming","","","","","","",""
"null","../img/tt/1227tt.jpg","null","mooney2","image-keyboard-response","221","810156","0.0-6.0-5.30","2739073","co37840","norming","","","","","","",""
"5124.620000000112","","","post_reveal_questions","survey-likert","222","815281","0.0-6.0-6.30","2739073","co37840","norming","","","{""aha"":1}","[0]","../img/tt/1227tt.jpg","",""
"null","<div style=""font-size:60px;""> </div>","null","fixation","html-keyboard-response","223","815487","0.0-6.0-0.31","2739073","co37840","norming","","","","","","",""
"null","../img/tt/222tt.jpg","null","mooney1","image-keyboard-response","224","818493","0.0-6.0-1.31","2739073","co37840","norming","","","","","","",""
"5130.664999999921","","","post_mooney1_questions","survey-likert","225","823625","0.0-6.0-2.31","2739073","co37840","norming","","","{""curiosity"":4,""confidence"":0}","[0,1]","../img/tt/222tt.jpg","",""
"1781.9899999999907","","","recognition","survey-text","226","825409","0.0-6.0-3.31","2739073","co37840","norming","","","{""guess"":""keuken""}","","../img/tt/222tt.jpg","",""
"null","../img/gs/222gs.jpg","null","reveal","image-keyboard-response","227","827419","0.0-6.0-4.31","2739073","co37840","norming","","","","","","",""
"null","../img/tt/222tt.jpg","null","mooney2","image-keyboard-response","228","829421","0.0-6.0-5.31","2739073","co37840","norming","","","","","","",""
"3419.6350000000093","","","post_reveal_questions","survey-likert","229","832844","0.0-6.0-6.31","2739073","co37840","norming","","","{""aha"":4}","[0]","../img/tt/222tt.jpg","",""
"null","<div style=""font-size:60px;""> </div>","null","fixation","html-keyboard-response","230","833045","0.0-6.0-0.32","2739073","co37840","norming","","","","","","",""
"null","../img/tt/1236tt.jpg","null","mooney1","image-keyboard-response","231","836046","0.0-6.0-1.32","2739073","co37840","norming","","","","","","",""
"7197.080000000191","","","post_mooney1_questions","survey-likert","232","843244","0.0-6.0-2.32","2739073","co37840","norming","","","{""curiosity"":3,""confidence"":0}","[0,1]","../img/tt/1236tt.jpg","",""
"2213.810000000056","","","recognition","survey-text","233","845460","0.0-6.0-3.32","2739073","co37840","norming","","","{""guess"":""vijver""}","","../img/tt/1236tt.jpg","",""
"null","../img/gs/1236gs.jpg","null","reveal","image-keyboard-response","234","847469","0.0-6.0-4.32","2739073","co37840","norming","","","","","","",""
"null","../img/tt/1236tt.jpg","null","mooney2","image-keyboard-response","235","849471","0.0-6.0-5.32","2739073","co37840","norming","","","","","","",""
"3324.1199999999953","","","post_reveal_questions","survey-likert","236","852796","0.0-6.0-6.32","2739073","co37840","norming","","","{""aha"":5}","[0]","../img/tt/1236tt.jpg","",""
"null","<div style=""font-size:60px;""> </div>","null","fixation","html-keyboard-response","237","853003","0.0-6.0-0.33","2739073","co37840","norming","","","","","","",""
"null","../img/tt/584tt.jpg","null","mooney1","image-keyboard-response","238","856008","0.0-6.0-1.33","2739073","co37840","norming","","","","","","",""
"7243.034999999916","","","post_mooney1_questions","survey-likert","239","863252","0.0-6.0-2.33","2739073","co37840","norming","","","{""curiosity"":5,""confidence"":0}","[0,1]","../img/tt/584tt.jpg","",""
"1645.9450000000652","","","recognition","survey-text","240","864900","0.0-6.0-3.33","2739073","co37840","norming","","","{""guess"":""handen""}","","../img/tt/584tt.jpg","",""
"null","../img/gs/584gs.jpg","null","reveal","image-keyboard-response","241","866905","0.0-6.0-4.33","2739073","co37840","norming","","","","","","",""
"null","../img/tt/584tt.jpg","null","mooney2","image-keyboard-response","242","868908","0.0-6.0-5.33","2739073","co37840","norming","","","","","","",""
"3342.670000000042","","","post_reveal_questions","survey-likert","243","872252","0.0-6.0-6.33","2739073","co37840","norming","","","{""aha"":6}","[0]","../img/tt/584tt.jpg","",""
"null","<div style=""font-size:60px;""> </div>","null","fixation","html-keyboard-response","244","872462","0.0-6.0-0.34","2739073","co37840","norming","","","","","","",""
"null","../img/tt/053tt.jpg","null","mooney1","image-keyboard-response","245","875463","0.0-6.0-1.34","2739073","co37840","norming","","","","","","",""
"4011.5849999999627","","","post_mooney1_questions","survey-likert","246","879476","0.0-6.0-2.34","2739073","co37840","norming","","","{""curiosity"":4,""confidence"":1}","[0,1]","../img/tt/053tt.jpg","",""
"2334.1199999999953","","","recognition","survey-text","247","881812","0.0-6.0-3.34","2739073","co37840","norming","","","{""guess"":""waterval""}","","../img/tt/053tt.jpg","",""
"null","../img/gs/053gs.jpg","null","reveal","image-keyboard-response","248","883813","0.0-6.0-4.34","2739073","co37840","norming","","","","","","",""
"null","../img/tt/053tt.jpg","null","mooney2","image-keyboard-response","249","885815","0.0-6.0-5.34","2739073","co37840","norming","","","","","","",""
"1211.4300000000512","","","post_reveal_questions","survey-likert","250","887028","0.0-6.0-6.34","2739073","co37840","norming","","","{""aha"":1}","[0]","../img/tt/053tt.jpg","",""
"null","<div style=""font-size:60px;""> </div>","null","fixation","html-keyboard-response","251","887229","0.0-6.0-0.35","2739073","co37840","norming","","","","","","",""
"null","../img/tt/603tt.jpg","null","mooney1","image-keyboard-response","252","890231","0.0-6.0-1.35","2739073","co37840","norming","","","","","","",""
"3451.4349999999395","","","post_mooney1_questions","survey-likert","253","893694","0.0-6.0-2.35","2739073","co37840","norming","","","{""curiosity"":4,""confidence"":1}","[0,1]","../img/tt/603tt.jpg","",""
"1630.1449999999022","","","recognition","survey-text","254","895326","0.0-6.0-3.35","2739073","co37840","norming","","","{""guess"":""kat""}","","../img/tt/603tt.jpg","",""
"null","../img/gs/603gs.jpg","null","reveal","image-keyboard-response","255","897328","0.0-6.0-4.35","2739073","co37840","norming","","","","","","",""
"null","../img/tt/603tt.jpg","null","mooney2","image-keyboard-response","256","899329","0.0-6.0-5.35","2739073","co37840","norming","","","","","","",""
"1282.3649999999907","","","post_reveal_questions","survey-likert","257","900614","0.0-6.0-6.35","2739073","co37840","norming","","","{""aha"":0}","[0]","../img/tt/603tt.jpg","",""
"null","<div style=""font-size:60px;""> </div>","null","fixation","html-keyboard-response","258","900818","0.0-6.0-0.36","2739073","co37840","norming","","","","","","",""
"null","../img/tt/1046tt.jpg","null","mooney1","image-keyboard-response","259","903828","0.0-6.0-1.36","2739073","co37840","norming","","","","","","",""
"5847.139999999898","","","post_mooney1_questions","survey-likert","260","909678","0.0-6.0-2.36","2739073","co37840","norming","","","{""curiosity"":3,""confidence"":0}","[0,1]","../img/tt/1046tt.jpg","",""
"2766.605000000098","","","recognition","survey-text","261","912446","0.0-6.0-3.36","2739073","co37840","norming","","","{""guess"":""waterlelies""}","","../img/tt/1046tt.jpg","",""
"null","../img/gs/1046gs.jpg","null","reveal","image-keyboard-response","262","914453","0.0-6.0-4.36","2739073","co37840","norming","","","","","","",""
"null","../img/tt/1046tt.jpg","null","mooney2","image-keyboard-response","263","916454","0.0-6.0-5.36","2739073","co37840","norming","","","","","","",""
"2525.4999999998836","","","post_reveal_questions","survey-likert","264","918982","0.0-6.0-6.36","2739073","co37840","norming","","","{""aha"":5}","[0]","../img/tt/1046tt.jpg","",""
"null","<div style=""font-size:60px;""> </div>","null","fixation","html-keyboard-response","265","919185","0.0-6.0-0.37","2739073","co37840","norming","","","","","","",""
"null","../img/tt/084tt.jpg","null","mooney1","image-keyboard-response","266","922189","0.0-6.0-1.37","2739073","co37840","norming","","","","","","",""
"5879.750000000116","","","post_mooney1_questions","survey-likert","267","928070","0.0-6.0-2.37","2739073","co37840","norming","","","{""curiosity"":4,""confidence"":5}","[0,1]","../img/tt/084tt.jpg","",""
"4469.994999999995","","","recognition","survey-text","268","932541","0.0-6.0-3.37","2739073","co37840","norming","","","{""guess"":""eend""}","","../img/tt/084tt.jpg","",""
"null","../img/gs/084gs.jpg","null","reveal","image-keyboard-response","269","934551","0.0-6.0-4.37","2739073","co37840","norming","","","","","","",""
"null","../img/tt/084tt.jpg","null","mooney2","image-keyboard-response","270","936552","0.0-6.0-5.37","2739073","co37840","norming","","","","","","",""
"1764.6450000002515","","","post_reveal_questions","survey-likert","271","938318","0.0-6.0-6.37","2739073","co37840","norming","","","{""aha"":0}","[0]","../img/tt/084tt.jpg","",""
"null","<div style=""font-size:60px;""> </div>","null","fixation","html-keyboard-response","272","938521","0.0-6.0-0.38","2739073","co37840","norming","","","","","","",""
"null","../img/tt/319tt.jpg","null","mooney1","image-keyboard-response","273","941528","0.0-6.0-1.38","2739073","co37840","norming","","","","","","",""
"5412.860000000102","","","post_mooney1_questions","survey-likert","274","946942","0.0-6.0-2.38","2739073","co37840","norming","","","{""curiosity"":2,""confidence"":1}","[0,1]","../img/tt/319tt.jpg","",""
"2254.1049999999814","","","recognition","survey-text","275","949198","0.0-6.0-3.38","2739073","co37840","norming","","","{""guess"":""stier""}","","../img/tt/319tt.jpg","",""
"null","../img/gs/319gs.jpg","null","reveal","image-keyboard-response","276","951208","0.0-6.0-4.38","2739073","co37840","norming","","","","","","",""
"null","../img/tt/319tt.jpg","null","mooney2","image-keyboard-response","277","953215","0.0-6.0-5.38","2739073","co37840","norming","","","","","","",""
"1959.75","","","post_reveal_questions","survey-likert","278","955177","0.0-6.0-6.38","2739073","co37840","norming","","","{""aha"":3}","[0]","../img/tt/319tt.jpg","",""
"null","<div style=""font-size:60px;""> </div>","null","fixation","html-keyboard-response","279","955383","0.0-6.0-0.39","2739073","co37840","norming","","","","","","",""
"null","../img/tt/1049tt.jpg","null","mooney1","image-keyboard-response","280","958386","0.0-6.0-1.39","2739073","co37840","norming","","","","","","",""
"5710.035000000033","","","post_mooney1_questions","survey-likert","281","964097","0.0-6.0-2.39","2739073","co37840","norming","","","{""curiosity"":3,""confidence"":0}","[0,1]","../img/tt/1049tt.jpg","",""
"2237.9449999998324","","","recognition","survey-text","282","966337","0.0-6.0-3.39","2739073","co37840","norming","","","{""guess"":""violist""}","","../img/tt/1049tt.jpg","",""
"null","../img/gs/1049gs.jpg","null","reveal","image-keyboard-response","283","968346","0.0-6.0-4.39","2739073","co37840","norming","","","","","","",""
"null","../img/tt/1049tt.jpg","null","mooney2","image-keyboard-response","284","970347","0.0-6.0-5.39","2739073","co37840","norming","","","","","","",""
"1123.0749999999534","","","post_reveal_questions","survey-likert","285","971473","0.0-6.0-6.39","2739073","co37840","norming","","","{""aha"":5}","[0]","../img/tt/1049tt.jpg","",""
"null","<div style=""font-size:60px;""> </div>","null","fixation","html-keyboard-response","286","971674","0.0-6.0-0.40","2739073","co37840","norming","","","","","","",""
"null","../img/tt/1196tt.jpg","null","mooney1","image-keyboard-response","287","974677","0.0-6.0-1.40","2739073","co37840","norming","","","","","","",""
"4272.655000000028","","","post_mooney1_questions","survey-likert","288","978953","0.0-6.0-2.40","2739073","co37840","norming","","","{""curiosity"":2,""confidence"":0}","[0,1]","../img/tt/1196tt.jpg","",""
"1846.130000000121","","","recognition","survey-text","289","980801","0.0-6.0-3.40","2739073","co37840","norming","","","{""guess"":""boeken""}","","../img/tt/1196tt.jpg","",""
"null","../img/gs/1196gs.jpg","null","reveal","image-keyboard-response","290","982805","0.0-6.0-4.40","2739073","co37840","norming","","","","","","",""
"null","../img/tt/1196tt.jpg","null","mooney2","image-keyboard-response","291","984806","0.0-6.0-5.40","2739073","co37840","norming","","","","","","",""
"2495.805000000051","","","post_reveal_questions","survey-likert","292","987305","0.0-6.0-6.40","2739073","co37840","norming","","","{""aha"":2}","[0]","../img/tt/1196tt.jpg","",""
"null","<div style=""font-size:60px;""> </div>","null","fixation","html-keyboard-response","293","987512","0.0-6.0-0.41","2739073","co37840","norming","","","","","","",""
"null","../img/tt/013tt.jpg","null","mooney1","image-keyboard-response","294","990520","0.0-6.0-1.41","2739073","co37840","norming","","","","","","",""
"3717.554999999935","","","post_mooney1_questions","survey-likert","295","994241","0.0-6.0-2.41","2739073","co37840","norming","","","{""curiosity"":1,""confidence"":0}","[0,1]","../img/tt/013tt.jpg","",""
"2221.9699999998556","","","recognition","survey-text","296","996464","0.0-6.0-3.41","2739073","co37840","norming","","","{""guess"":""sport""}","","../img/tt/013tt.jpg","",""
"null","../img/gs/013gs.jpg","null","reveal","image-keyboard-response","297","998471","0.0-6.0-4.41","2739073","co37840","norming","","","","","","",""
"null","../img/tt/013tt.jpg","null","mooney2","image-keyboard-response","298","1000473","0.0-6.0-5.41","2739073","co37840","norming","","","","","","",""
"1917.1300000000047","","","post_reveal_questions","survey-likert","299","1002393","0.0-6.0-6.41","2739073","co37840","norming","","","{""aha"":5}","[0]","../img/tt/013tt.jpg","",""
"null","<div style=""font-size:60px;""> </div>","null","fixation","html-keyboard-response","300","1002603","0.0-6.0-0.42","2739073","co37840","norming","","","","","","",""
"null","../img/tt/416tt.jpg","null","mooney1","image-keyboard-response","301","1005609","0.0-6.0-1.42","2739073","co37840","norming","","","","","","",""
"4493.230000000098","","","post_mooney1_questions","survey-likert","302","1010105","0.0-6.0-2.42","2739073","co37840","norming","","","{""curiosity"":3,""confidence"":3}","[0,1]","../img/tt/416tt.jpg","",""
"3333.8950000000186","","","recognition","survey-text","303","1013441","0.0-6.0-3.42","2739073","co37840","norming","","","{""guess"":""struisvogels""}","","../img/tt/416tt.jpg","",""
"null","../img/gs/416gs.jpg","null","reveal","image-keyboard-response","304","1015443","0.0-6.0-4.42","2739073","co37840","norming","","","","","","",""
"null","../img/tt/416tt.jpg","null","mooney2","image-keyboard-response","305","1017444","0.0-6.0-5.42","2739073","co37840","norming","","","","","","",""
"1451.109999999986","","","post_reveal_questions","survey-likert","306","1018897","0.0-6.0-6.42","2739073","co37840","norming","","","{""aha"":0}","[0]","../img/tt/416tt.jpg","",""
"null","<div style=""font-size:60px;""> </div>","null","fixation","html-keyboard-response","307","1019103","0.0-6.0-0.43","2739073","co37840","norming","","","","","","",""
"null","../img/tt/1102tt.jpg","null","mooney1","image-keyboard-response","308","1022109","0.0-6.0-1.43","2739073","co37840","norming","","","","","","",""
"8304.849999999977","","","post_mooney1_questions","survey-likert","309","1030417","0.0-6.0-2.43","2739073","co37840","norming","","","{""curiosity"":5,""confidence"":0}","[0,1]","../img/tt/1102tt.jpg","",""
"2206.4000000000233","","","recognition","survey-text","310","1032625","0.0-6.0-3.43","2739073","co37840","norming","","","{""guess"":""palmbomen""}","","../img/tt/1102tt.jpg","",""
"null","../img/gs/1102gs.jpg","null","reveal","image-keyboard-response","311","1034633","0.0-6.0-4.43","2739073","co37840","norming","","","","","","",""
"null","../img/tt/1102tt.jpg","null","mooney2","image-keyboard-response","312","1036636","0.0-6.0-5.43","2739073","co37840","norming","","","","","","",""
"2048.869999999879","","","post_reveal_questions","survey-likert","313","1038689","0.0-6.0-6.43","2739073","co37840","norming","","","{""aha"":4}","[0]","../img/tt/1102tt.jpg","",""
"null","<div style=""font-size:60px;""> </div>","null","fixation","html-keyboard-response","314","1038890","0.0-6.0-0.44","2739073","co37840","norming","","","","","","",""
"null","../img/tt/1362tt.jpg","null","mooney1","image-keyboard-response","315","1041893","0.0-6.0-1.44","2739073","co37840","norming","","","","","","",""
"3919.445000000065","","","post_mooney1_questions","survey-likert","316","1045817","0.0-6.0-2.44","2739073","co37840","norming","","","{""curiosity"":4,""confidence"":4}","[0,1]","../img/tt/1362tt.jpg","",""
"4006.0749999999534","","","recognition","survey-text","317","1049825","0.0-6.0-3.44","2739073","co37840","norming","","","{""guess"":""kookgerei""}","","../img/tt/1362tt.jpg","",""
"null","../img/gs/1362gs.jpg","null","reveal","image-keyboard-response","318","1051826","0.0-6.0-4.44","2739073","co37840","norming","","","","","","",""
"null","../img/tt/1362tt.jpg","null","mooney2","image-keyboard-response","319","1053828","0.0-6.0-5.44","2739073","co37840","norming","","","","","","",""
"11074.290000000037","","","post_reveal_questions","survey-likert","320","1064905","0.0-6.0-6.44","2739073","co37840","norming","","","{""aha"":0}","[0]","../img/tt/1362tt.jpg","",""
"null","<div style=""font-size:60px;""> </div>","null","fixation","html-keyboard-response","321","1065115","0.0-6.0-0.45","2739073","co37840","norming","","","","","","",""
"null","../img/tt/085tt.jpg","null","mooney1","image-keyboard-response","322","1068120","0.0-6.0-1.45","2739073","co37840","norming","","","","","","",""
"7141.324999999953","","","post_mooney1_questions","survey-likert","323","1075258","0.0-6.0-2.45","2739073","co37840","norming","","","{""curiosity"":4,""confidence"":0}","[0,1]","../img/tt/085tt.jpg","",""
"1774.2900000000373","","","recognition","survey-text","324","1077034","0.0-6.0-3.45","2739073","co37840","norming","","","{""guess"":""uil""}","","../img/tt/085tt.jpg","",""
"null","../img/gs/085gs.jpg","null","reveal","image-keyboard-response","325","1079044","0.0-6.0-4.45","2739073","co37840","norming","","","","","","",""
"null","../img/tt/085tt.jpg","null","mooney2","image-keyboard-response","326","1081056","0.0-6.0-5.45","2739073","co37840","norming","","","","","","",""
"6280.1349999997765","","","post_reveal_questions","survey-likert","327","1087338","0.0-6.0-6.45","2739073","co37840","norming","","","{""aha"":4}","[0]","../img/tt/085tt.jpg","",""
"null","<div style=""font-size:60px;""> </div>","null","fixation","html-keyboard-response","328","1087547","0.0-6.0-0.46","2739073","co37840","norming","","","","","","",""
"null","../img/tt/1175tt.jpg","null","mooney1","image-keyboard-response","329","1090555","0.0-6.0-1.46","2739073","co37840","norming","","","","","","",""
"3972.2600000000093","","","post_mooney1_questions","survey-likert","330","1094531","0.0-6.0-2.46","2739073","co37840","norming","","","{""curiosity"":3,""confidence"":0}","[0,1]","../img/tt/1175tt.jpg","",""
"2374.029999999795","","","recognition","survey-text","331","1096906","0.0-6.0-3.46","2739073","co37840","norming","","","{""guess"":""rij mensen""}","","../img/tt/1175tt.jpg","",""
"null","../img/gs/1175gs.jpg","null","reveal","image-keyboard-response","332","1098909","0.0-6.0-4.46","2739073","co37840","norming","","","","","","",""
"null","../img/tt/1175tt.jpg","null","mooney2","image-keyboard-response","333","1100915","0.0-6.0-5.46","2739073","co37840","norming","","","","","","",""
"3293.7900000000373","","","post_reveal_questions","survey-likert","334","1104211","0.0-6.0-6.46","2739073","co37840","norming","","","{""aha"":4}","[0]","../img/tt/1175tt.jpg","",""
"null","<div style=""font-size:60px;""> </div>","null","fixation","html-keyboard-response","335","1104412","0.0-6.0-0.47","2739073","co37840","norming","","","","","","",""
"null","../img/tt/1122tt.jpg","null","mooney1","image-keyboard-response","336","1107415","0.0-6.0-1.47","2739073","co37840","norming","","","","","","",""
"8138.445000000065","","","post_mooney1_questions","survey-likert","337","1115554","0.0-6.0-2.47","2739073","co37840","norming","","","{""curiosity"":2,""confidence"":0}","[0,1]","../img/tt/1122tt.jpg","",""
"1557.594999999972","","","recognition","survey-text","338","1117114","0.0-6.0-3.47","2739073","co37840","norming","","","{""guess"":""karting""}","","../img/tt/1122tt.jpg","",""
"null","../img/gs/1122gs.jpg","null","reveal","image-keyboard-response","339","1119116","0.0-6.0-4.47","2739073","co37840","norming","","","","","","",""
"null","../img/tt/1122tt.jpg","null","mooney2","image-keyboard-response","340","1121117","0.0-6.0-5.47","2739073","co37840","norming","","","","","","",""
"2491.3799999998882","","","post_reveal_questions","survey-likert","341","1123610","0.0-6.0-6.47","2739073","co37840","norming","","","{""aha"":4}","[0]","../img/tt/1122tt.jpg","",""
"null","<div style=""font-size:60px;""> </div>","null","fixation","html-keyboard-response","342","1123820","0.0-6.0-0.48","2739073","co37840","norming","","","","","","",""
"null","../img/tt/1237tt.jpg","null","mooney1","image-keyboard-response","343","1126824","0.0-6.0-1.48","2739073","co37840","norming","","","","","","",""
"5407.559999999823","","","post_mooney1_questions","survey-likert","344","1132235","0.0-6.0-2.48","2739073","co37840","norming","","","{""curiosity"":1,""confidence"":4}","[0,1]","../img/tt/1237tt.jpg","",""
"1246.0600000000559","","","recognition","survey-text","345","1133483","0.0-6.0-3.48","2739073","co37840","norming","","","{""guess"":""eend""}","","../img/tt/1237tt.jpg","",""
"null","../img/gs/1237gs.jpg","null","reveal","image-keyboard-response","346","1135493","0.0-6.0-4.48","2739073","co37840","norming","","","","","","",""
"null","../img/tt/1237tt.jpg","null","mooney2","image-keyboard-response","347","1137495","0.0-6.0-5.48","2739073","co37840","norming","","","","","","",""
"2075.409999999916","","","post_reveal_questions","survey-likert","348","1139571","0.0-6.0-6.48","2739073","co37840","norming","","","{""aha"":0}","[0]","../img/tt/1237tt.jpg","",""
"null","<div style=""font-size:60px;""> </div>","null","fixation","html-keyboard-response","349","1139772","0.0-6.0-0.49","2739073","co37840","norming","","","","","","",""
"null","../img/tt/052tt.jpg","null","mooney1","image-keyboard-response","350","1142780","0.0-6.0-1.49","2739073","co37840","norming","","","","","","",""
"3466.719999999972","","","post_mooney1_questions","survey-likert","351","1146251","0.0-6.0-2.49","2739073","co37840","norming","","","{""curiosity"":2,""confidence"":0}","[0,1]","../img/tt/052tt.jpg","",""
"3133.9799999999814","","","recognition","survey-text","352","1149387","0.0-6.0-3.49","2739073","co37840","norming","","","{""guess"":""horloge""}","","../img/tt/052tt.jpg","",""
"null","../img/gs/052gs.jpg","null","reveal","image-keyboard-response","353","1151392","0.0-6.0-4.49","2739073","co37840","norming","","","","","","",""
"null","../img/tt/052tt.jpg","null","mooney2","image-keyboard-response","354","1153394","0.0-6.0-5.49","2739073","co37840","norming","","","","","","",""
"6151.010000000009","","","post_reveal_questions","survey-likert","355","1159547","0.0-6.0-6.49","2739073","co37840","norming","","","{""aha"":5}","[0]","../img/tt/052tt.jpg","",""
"null","<div style=""font-size:60px;""> </div>","null","fixation","html-keyboard-response","356","1159754","0.0-6.0-0.50","2739073","co37840","norming","","","","","","",""
"null","../img/tt/1146tt.jpg","null","mooney1","image-keyboard-response","357","1162756","0.0-6.0-1.50","2739073","co37840","norming","","","","","","",""
"11292.495000000112","","","post_mooney1_questions","survey-likert","358","1174051","0.0-6.0-2.50","2739073","co37840","norming","","","{""curiosity"":2,""confidence"":0}","[0,1]","../img/tt/1146tt.jpg","",""
"4758.77500000014","","","recognition","survey-text","359","1178812","0.0-6.0-3.50","2739073","co37840","norming","","","{""guess"":""persoon die tegen iets leunt""}","","../img/tt/1146tt.jpg","",""
"null","../img/gs/1146gs.jpg","null","reveal","image-keyboard-response","360","1180813","0.0-6.0-4.50","2739073","co37840","norming","","","","","","",""
"null","../img/tt/1146tt.jpg","null","mooney2","image-keyboard-response","361","1182815","0.0-6.0-5.50","2739073","co37840","norming","","","","","","",""
"2145.804999999935","","","post_reveal_questions","survey-likert","362","1184963","0.0-6.0-6.50","2739073","co37840","norming","","","{""aha"":4}","[0]","../img/tt/1146tt.jpg","",""
"null","<div style=""font-size:60px;""> </div>","null","fixation","html-keyboard-response","363","1185166","0.0-6.0-0.51","2739073","co37840","norming","","","","","","",""
"null","../img/tt/1116tt.jpg","null","mooney1","image-keyboard-response","364","1188174","0.0-6.0-1.51","2739073","co37840","norming","","","","","","",""
"4994.135000000242","","","post_mooney1_questions","survey-likert","365","1193171","0.0-6.0-2.51","2739073","co37840","norming","","","{""curiosity"":2,""confidence"":0}","[0,1]","../img/tt/1116tt.jpg","",""
"2694.005000000121","","","recognition","survey-text","366","1195872","0.0-6.0-3.51","2739073","co37840","norming","","","{""guess"":""vliegtuigen""}","","../img/tt/1116tt.jpg","",""
"null","../img/gs/1116gs.jpg","null","reveal","image-keyboard-response","367","1197882","0.0-6.0-4.51","2739073","co37840","norming","","","","","","",""
"null","../img/tt/1116tt.jpg","null","mooney2","image-keyboard-response","368","1199883","0.0-6.0-5.51","2739073","co37840","norming","","","","","","",""
"1706.0700000000652","","","post_reveal_questions","survey-likert","369","1201592","0.0-6.0-6.51","2739073","co37840","norming","","","{""aha"":0}","[0]","../img/tt/1116tt.jpg","",""
"null","<div style=""font-size:60px;""> </div>","null","fixation","html-keyboard-response","370","1201798","0.0-6.0-0.52","2739073","co37840","norming","","","","","","",""
"null","../img/tt/060tt.jpg","null","mooney1","image-keyboard-response","371","1204804","0.0-6.0-1.52","2739073","co37840","norming","","","","","","",""
"3672.8000000000466","","","post_mooney1_questions","survey-likert","372","1208480","0.0-6.0-2.52","2739073","co37840","norming","","","{""curiosity"":3,""confidence"":0}","[0,1]","../img/tt/060tt.jpg","",""
"2910.130000000121","","","recognition","survey-text","373","1211392","0.0-6.0-3.52","2739073","co37840","norming","","","{""guess"":""auto""}","","../img/tt/060tt.jpg","",""
"null","../img/gs/060gs.jpg","null","reveal","image-keyboard-response","374","1213393","0.0-6.0-4.52","2739073","co37840","norming","","","","","","",""
"null","../img/tt/060tt.jpg","null","mooney2","image-keyboard-response","375","1215395","0.0-6.0-5.52","2739073","co37840","norming","","","","","","",""
"3970.159999999916","","","post_reveal_questions","survey-likert","376","1219368","0.0-6.0-6.52","2739073","co37840","norming","","","{""aha"":3}","[0]","../img/tt/060tt.jpg","",""
"null","<div style=""font-size:60px;""> </div>","null","fixation","html-keyboard-response","377","1219573","0.0-6.0-0.53","2739073","co37840","norming","","","","","","",""
"null","../img/tt/094tt.jpg","null","mooney1","image-keyboard-response","378","1222577","0.0-6.0-1.53","2739073","co37840","norming","","","","","","",""
"5523.79000000027","","","post_mooney1_questions","survey-likert","379","1228104","0.0-6.0-2.53","2739073","co37840","norming","","","{""curiosity"":2,""confidence"":0}","[0,1]","../img/tt/094tt.jpg","",""
"2998.350000000093","","","recognition","survey-text","380","1231104","0.0-6.0-3.53","2739073","co37840","norming","","","{""guess"":""leeuw""}","","../img/tt/094tt.jpg","",""
"null","../img/gs/094gs.jpg","null","reveal","image-keyboard-response","381","1233110","0.0-6.0-4.53","2739073","co37840","norming","","","","","","",""
"null","../img/tt/094tt.jpg","null","mooney2","image-keyboard-response","382","1235112","0.0-6.0-5.53","2739073","co37840","norming","","","","","","",""
"1541.4650000000838","","","post_reveal_questions","survey-likert","383","1236656","0.0-6.0-6.53","2739073","co37840","norming","","","{""aha"":4}","[0]","../img/tt/094tt.jpg","",""
"null","<div style=""font-size:60px;""> </div>","null","fixation","html-keyboard-response","384","1236862","0.0-6.0-0.54","2739073","co37840","norming","","","","","","",""
"null","../img/tt/1268tt.jpg","null","mooney1","image-keyboard-response","385","1239866","0.0-6.0-1.54","2739073","co37840","norming","","","","","","",""
"4082.714999999851","","","post_mooney1_questions","survey-likert","386","1243952","0.0-6.0-2.54","2739073","co37840","norming","","","{""curiosity"":1,""confidence"":0}","[0,1]","../img/tt/1268tt.jpg","",""
"4477.614999999991","","","recognition","survey-text","387","1248432","0.0-6.0-3.54","2739073","co37840","norming","","","{""guess"":""vogel""}","","../img/tt/1268tt.jpg","",""
"null","../img/gs/1268gs.jpg","null","reveal","image-keyboard-response","388","1250433","0.0-6.0-4.54","2739073","co37840","norming","","","","","","",""
"null","../img/tt/1268tt.jpg","null","mooney2","image-keyboard-response","389","1252436","0.0-6.0-5.54","2739073","co37840","norming","","","","","","",""
"1225.9350000002887","","","post_reveal_questions","survey-likert","390","1253664","0.0-6.0-6.54","2739073","co37840","norming","","","{""aha"":4}","[0]","../img/tt/1268tt.jpg","",""
"null","<div style=""font-size:60px;""> </div>","null","fixation","html-keyboard-response","391","1253866","0.0-6.0-0.55","2739073","co37840","norming","","","","","","",""
"null","../img/tt/273tt.jpg","null","mooney1","image-keyboard-response","392","1256868","0.0-6.0-1.55","2739073","co37840","norming","","","","","","",""
"4001.6200000001118","","","post_mooney1_questions","survey-likert","393","1260873","0.0-6.0-2.55","2739073","co37840","norming","","","{""curiosity"":1,""confidence"":4}","[0,1]","../img/tt/273tt.jpg","",""
"2934.3649999999907","","","recognition","survey-text","394","1263809","0.0-6.0-3.55","2739073","co37840","norming","","","{""guess"":""beugel""}","","../img/tt/273tt.jpg","",""
"null","../img/gs/273gs.jpg","null","reveal","image-keyboard-response","395","1265819","0.0-6.0-4.55","2739073","co37840","norming","","","","","","",""
"null","../img/tt/273tt.jpg","null","mooney2","image-keyboard-response","396","1267820","0.0-6.0-5.55","2739073","co37840","norming","","","","","","",""
"1274.2600000000093","","","post_reveal_questions","survey-likert","397","1269097","0.0-6.0-6.55","2739073","co37840","norming","","","{""aha"":0}","[0]","../img/tt/273tt.jpg","",""
"null","<div style=""font-size:60px;""> </div>","null","fixation","html-keyboard-response","398","1269298","0.0-6.0-0.56","2739073","co37840","norming","","","","","","",""
"null","../img/tt/1202tt.jpg","null","mooney1","image-keyboard-response","399","1272310","0.0-6.0-1.56","2739073","co37840","norming","","","","","","",""
"6871.594999999972","","","post_mooney1_questions","survey-likert","400","1279185","0.0-6.0-2.56","2739073","co37840","norming","","","{""curiosity"":2,""confidence"":1}","[0,1]","../img/tt/1202tt.jpg","",""
"4430.040000000037","","","recognition","survey-text","401","1283617","0.0-6.0-3.56","2739073","co37840","norming","","","{""guess"":""mensen met honden""}","","../img/tt/1202tt.jpg","",""
"null","../img/gs/1202gs.jpg","null","reveal","image-keyboard-response","402","1285618","0.0-6.0-4.56","2739073","co37840","norming","","","","","","",""
"null","../img/tt/1202tt.jpg","null","mooney2","image-keyboard-response","403","1287623","0.0-6.0-5.56","2739073","co37840","norming","","","","","","",""
"2543.065000000177","","","post_reveal_questions","survey-likert","404","1290168","0.0-6.0-6.56","2739073","co37840","norming","","","{""aha"":5}","[0]","../img/tt/1202tt.jpg","",""
"null","<div style=""font-size:60px;""> </div>","null","fixation","html-keyboard-response","405","1290374","0.0-6.0-0.57","2739073","co37840","norming","","","","","","",""
"null","../img/tt/1040tt.jpg","null","mooney1","image-keyboard-response","406","1293378","0.0-6.0-1.57","2739073","co37840","norming","","","","","","",""
"4101.76500000013","","","post_mooney1_questions","survey-likert","407","1297481","0.0-6.0-2.57","2739073","co37840","norming","","","{""curiosity"":2,""confidence"":0}","[0,1]","../img/tt/1040tt.jpg","",""
"2293.6750000000466","","","recognition","survey-text","408","1299777","0.0-6.0-3.57","2739073","co37840","norming","","","{""guess"":""zwemmers""}","","../img/tt/1040tt.jpg","",""
"null","../img/gs/1040gs.jpg","null","reveal","image-keyboard-response","409","1301778","0.0-6.0-4.57","2739073","co37840","norming","","","","","","",""
"null","../img/tt/1040tt.jpg","null","mooney2","image-keyboard-response","410","1303781","0.0-6.0-5.57","2739073","co37840","norming","","","","","","",""
"2721.404999999795","","","post_reveal_questions","survey-likert","411","1306505","0.0-6.0-6.57","2739073","co37840","norming","","","{""aha"":4}","[0]","../img/tt/1040tt.jpg","",""
"null","<div style=""font-size:60px;""> </div>","null","fixation","html-keyboard-response","412","1306708","0.0-6.0-0.58","2739073","co37840","norming","","","","","","",""
"null","../img/tt/1224tt.jpg","null","mooney1","image-keyboard-response","413","1309716","0.0-6.0-1.58","2739073","co37840","norming","","","","","","",""
"5217.175000000047","","","post_mooney1_questions","survey-likert","414","1314937","0.0-6.0-2.58","2739073","co37840","norming","","","{""curiosity"":3,""confidence"":0}","[0,1]","../img/tt/1224tt.jpg","",""
"2646.2549999998882","","","recognition","survey-text","415","1317585","0.0-6.0-3.58","2739073","co37840","norming","","","{""guess"":""gevechtssport""}","","../img/tt/1224tt.jpg","",""
"null","../img/gs/1224gs.jpg","null","reveal","image-keyboard-response","416","1319595","0.0-6.0-4.58","2739073","co37840","norming","","","","","","",""
"null","../img/tt/1224tt.jpg","null","mooney2","image-keyboard-response","417","1321597","0.0-6.0-5.58","2739073","co37840","norming","","","","","","",""
"1458.6850000000559","","","post_reveal_questions","survey-likert","418","1323057","0.0-6.0-6.58","2739073","co37840","norming","","","{""aha"":4}","[0]","../img/tt/1224tt.jpg","",""
"null","<div style=""font-size:60px;""> </div>","null","fixation","html-keyboard-response","419","1323259","0.0-6.0-0.59","2739073","co37840","norming","","","","","","",""
"null","../img/tt/096tt.jpg","null","mooney1","image-keyboard-response","420","1326271","0.0-6.0-1.59","2739073","co37840","norming","","","","","","",""
"3550.784999999916","","","post_mooney1_questions","survey-likert","421","1329825","0.0-6.0-2.59","2739073","co37840","norming","","","{""curiosity"":0,""confidence"":5}","[0,1]","../img/tt/096tt.jpg","",""
"2718.2999999998137","","","recognition","survey-text","422","1332545","0.0-6.0-3.59","2739073","co37840","norming","","","{""guess"":""piano""}","","../img/tt/096tt.jpg","",""
"null","../img/gs/096gs.jpg","null","reveal","image-keyboard-response","423","1334551","0.0-6.0-4.59","2739073","co37840","norming","","","","","","",""
"null","../img/tt/096tt.jpg","null","mooney2","image-keyboard-response","424","1336553","0.0-6.0-5.59","2739073","co37840","norming","","","","","","",""
"4693.005000000121","","","post_reveal_questions","survey-likert","425","1341249","0.0-6.0-6.59","2739073","co37840","norming","","","{""aha"":0}","[0]","../img/tt/096tt.jpg","",""
"null","<div style=""font-size:60px;""> </div>","null","fixation","html-keyboard-response","426","1341452","0.0-6.0-0.60","2739073","co37840","norming","","","","","","",""
"null","../img/tt/123tt.jpg","null","mooney1","image-keyboard-response","427","1344455","0.0-6.0-1.60","2739073","co37840","norming","","","","","","",""
"11119.084999999963","","","post_mooney1_questions","survey-likert","428","1355577","0.0-6.0-2.60","2739073","co37840","norming","","","{""curiosity"":3,""confidence"":0}","[0,1]","../img/tt/123tt.jpg","",""
"1893.8349999999627","","","recognition","survey-text","429","1357472","0.0-6.0-3.60","2739073","co37840","norming","","","{""guess"":""boekentas""}","","../img/tt/123tt.jpg","",""
"null","../img/gs/123gs.jpg","null","reveal","image-keyboard-response","430","1359475","0.0-6.0-4.60","2739073","co37840","norming","","","","","","",""
"null","../img/tt/123tt.jpg","null","mooney2","image-keyboard-response","431","1361477","0.0-6.0-5.60","2739073","co37840","norming","","","","","","",""
"1715.0250000001397","","","post_reveal_questions","survey-likert","432","1363193","0.0-6.0-6.60","2739073","co37840","norming","","","{""aha"":0}","[0]","../img/tt/123tt.jpg","",""
"null","<div style=""font-size:60px;""> </div>","null","fixation","html-keyboard-response","433","1363394","0.0-6.0-0.61","2739073","co37840","norming","","","","","","",""
"null","../img/tt/1097tt.jpg","null","mooney1","image-keyboard-response","434","1366399","0.0-6.0-1.61","2739073","co37840","norming","","","","","","",""
"9446.780000000028","","","post_mooney1_questions","survey-likert","435","1375846","0.0-6.0-2.61","2739073","co37840","norming","","","{""curiosity"":2,""confidence"":3}","[0,1]","../img/tt/1097tt.jpg","",""
"1813.9249999998137","","","recognition","survey-text","436","1377662","0.0-6.0-3.61","2739073","co37840","norming","","","{""guess"":""golfer""}","","../img/tt/1097tt.jpg","",""
"null","../img/gs/1097gs.jpg","null","reveal","image-keyboard-response","437","1379666","0.0-6.0-4.61","2739073","co37840","norming","","","","","","",""
"null","../img/tt/1097tt.jpg","null","mooney2","image-keyboard-response","438","1381667","0.0-6.0-5.61","2739073","co37840","norming","","","","","","",""
"2048.0800000000745","","","post_reveal_questions","survey-likert","439","1383718","0.0-6.0-6.61","2739073","co37840","norming","","","{""aha"":4}","[0]","../img/tt/1097tt.jpg","",""
"null","<div style=""font-size:60px;""> </div>","null","fixation","html-keyboard-response","440","1383925","0.0-6.0-0.62","2739073","co37840","norming","","","","","","",""
"null","../img/tt/010tt.jpg","null","mooney1","image-keyboard-response","441","1386933","0.0-6.0-1.62","2739073","co37840","norming","","","","","","",""
"4886.304999999935","","","post_mooney1_questions","survey-likert","442","1391822","0.0-6.0-2.62","2739073","co37840","norming","","","{""curiosity"":4,""confidence"":0}","[0,1]","../img/tt/010tt.jpg","",""
"2541.984999999637","","","recognition","survey-text","443","1394366","0.0-6.0-3.62","2739073","co37840","norming","","","{""guess"":""kikker""}","","../img/tt/010tt.jpg","",""
"null","../img/gs/010gs.jpg","null","reveal","image-keyboard-response","444","1396368","0.0-6.0-4.62","2739073","co37840","norming","","","","","","",""
"null","../img/tt/010tt.jpg","null","mooney2","image-keyboard-response","445","1398370","0.0-6.0-5.62","2739073","co37840","norming","","","","","","",""
"3049.614999999758","","","post_reveal_questions","survey-likert","446","1401422","0.0-6.0-6.62","2739073","co37840","norming","","","{""aha"":3}","[0]","../img/tt/010tt.jpg","",""
"null","<div style=""font-size:60px;""> </div>","null","fixation","html-keyboard-response","447","1401625","0.0-6.0-0.63","2739073","co37840","norming","","","","","","",""
"null","../img/tt/358tt.jpg","null","mooney1","image-keyboard-response","448","1404633","0.0-6.0-1.63","2739073","co37840","norming","","","","","","",""
"3954.0200000000186","","","post_mooney1_questions","survey-likert","449","1408590","0.0-6.0-2.63","2739073","co37840","norming","","","{""curiosity"":2,""confidence"":2}","[0,1]","../img/tt/358tt.jpg","",""
"1230.1899999999441","","","recognition","survey-text","450","1409822","0.0-6.0-3.63","2739073","co37840","norming","","","{""guess"":""koe""}","","../img/tt/358tt.jpg","",""
"null","../img/gs/358gs.jpg","null","reveal","image-keyboard-response","451","1411827","0.0-6.0-4.63","2739073","co37840","norming","","","","","","",""
"null","../img/tt/358tt.jpg","null","mooney2","image-keyboard-response","452","1413839","0.0-6.0-5.63","2739073","co37840","norming","","","","","","",""
"2404.005000000121","","","post_reveal_questions","survey-likert","453","1416246","0.0-6.0-6.63","2739073","co37840","norming","","","{""aha"":2}","[0]","../img/tt/358tt.jpg","",""
"null","<div style=""font-size:60px;""> </div>","null","fixation","html-keyboard-response","454","1416453","0.0-6.0-0.64","2739073","co37840","norming","","","","","","",""
"null","../img/tt/032tt.jpg","null","mooney1","image-keyboard-response","455","1419465","0.0-6.0-1.64","2739073","co37840","norming","","","","","","",""
"4548.149999999907","","","post_mooney1_questions","survey-likert","456","1424014","0.0-6.0-2.64","2739073","co37840","norming","","","{""curiosity"":2,""confidence"":1}","[0,1]","../img/tt/032tt.jpg","",""
"1758.0500000000466","","","recognition","survey-text","457","1425774","0.0-6.0-3.64","2739073","co37840","norming","","","{""guess"":""panda""}","","../img/tt/032tt.jpg","",""
"null","../img/gs/032gs.jpg","null","reveal","image-keyboard-response","458","1427782","0.0-6.0-4.64","2739073","co37840","norming","","","","","","",""
"null","../img/tt/032tt.jpg","null","mooney2","image-keyboard-response","459","1429784","0.0-6.0-5.64","2739073","co37840","norming","","","","","","",""
"1715.410000000149","","","post_reveal_questions","survey-likert","460","1431502","0.0-6.0-6.64","2739073","co37840","norming","","","{""aha"":6}","[0]","../img/tt/032tt.jpg","",""
"null","<div style=""font-size:60px;""> </div>","null","fixation","html-keyboard-response","461","1431703","0.0-6.0-0.65","2739073","co37840","norming","","","","","","",""
"null","../img/tt/534tt.jpg","null","mooney1","image-keyboard-response","462","1434714","0.0-6.0-1.65","2739073","co37840","norming","","","","","","",""
"4426.965000000084","","","post_mooney1_questions","survey-likert","463","1439145","0.0-6.0-2.65","2739073","co37840","norming","","","{""curiosity"":3,""confidence"":0}","[0,1]","../img/tt/534tt.jpg","",""
"1798.125","","","recognition","survey-text","464","1440945","0.0-6.0-3.65","2739073","co37840","norming","","","{""guess"":""boom""}","","../img/tt/534tt.jpg","",""
"null","../img/gs/534gs.jpg","null","reveal","image-keyboard-response","465","1442953","0.0-6.0-4.65","2739073","co37840","norming","","","","","","",""
"null","../img/tt/534tt.jpg","null","mooney2","image-keyboard-response","466","1444958","0.0-6.0-5.65","2739073","co37840","norming","","","","","","",""
"3775.5799999998417","","","post_reveal_questions","survey-likert","467","1448737","0.0-6.0-6.65","2739073","co37840","norming","","","{""aha"":2}","[0]","../img/tt/534tt.jpg","",""
"null","<div style=""font-size:60px;""> </div>","null","fixation","html-keyboard-response","468","1448941","0.0-6.0-0.66","2739073","co37840","norming","","","","","","",""
"null","../img/tt/1027tt.jpg","null","mooney1","image-keyboard-response","469","1451946","0.0-6.0-1.66","2739073","co37840","norming","","","","","","",""
"4899.90000000014","","","post_mooney1_questions","survey-likert","470","1456849","0.0-6.0-2.66","2739073","co37840","norming","","","{""curiosity"":2,""confidence"":4}","[0,1]","../img/tt/1027tt.jpg","",""
"1229.845000000205","","","recognition","survey-text","471","1458080","0.0-6.0-3.66","2739073","co37840","norming","","","{""guess"":""koe""}","","../img/tt/1027tt.jpg","",""
"null","../img/gs/1027gs.jpg","null","reveal","image-keyboard-response","472","1460083","0.0-6.0-4.66","2739073","co37840","norming","","","","","","",""
"null","../img/tt/1027tt.jpg","null","mooney2","image-keyboard-response","473","1462085","0.0-6.0-5.66","2739073","co37840","norming","","","","","","",""
"1592.5600000000559","","","post_reveal_questions","survey-likert","474","1463681","0.0-6.0-6.66","2739073","co37840","norming","","","{""aha"":0}","[0]","../img/tt/1027tt.jpg","",""
"null","<div style=""font-size:60px;""> </div>","null","fixation","html-keyboard-response","475","1463887","0.0-6.0-0.67","2739073","co37840","norming","","","","","","",""
"null","../img/tt/078tt.jpg","null","mooney1","image-keyboard-response","476","1466898","0.0-6.0-1.67","2739073","co37840","norming","","","","","","",""
"4091.2650000001304","","","post_mooney1_questions","survey-likert","477","1470993","0.0-6.0-2.67","2739073","co37840","norming","","","{""curiosity"":1,""confidence"":3}","[0,1]","../img/tt/078tt.jpg","",""
"3277.9850000001024","","","recognition","survey-text","478","1474273","0.0-6.0-3.67","2739073","co37840","norming","","","{""guess"":""ananas""}","","../img/tt/078tt.jpg","",""
"null","../img/gs/078gs.jpg","null","reveal","image-keyboard-response","479","1476283","0.0-6.0-4.67","2739073","co37840","norming","","","","","","",""
"null","../img/tt/078tt.jpg","null","mooney2","image-keyboard-response","480","1478287","0.0-6.0-5.67","2739073","co37840","norming","","","","","","",""
"1639.2299999999814","","","post_reveal_questions","survey-likert","481","1479929","0.0-6.0-6.67","2739073","co37840","norming","","","{""aha"":3}","[0]","../img/tt/078tt.jpg","",""
"null","<div style=""font-size:60px;""> </div>","null","fixation","html-keyboard-response","482","1480134","0.0-6.0-0.68","2739073","co37840","norming","","","","","","",""
"null","../img/tt/1243tt.jpg","null","mooney1","image-keyboard-response","483","1483142","0.0-6.0-1.68","2739073","co37840","norming","","","","","","",""
"5447.504999999888","","","post_mooney1_questions","survey-likert","484","1488593","0.0-6.0-2.68","2739073","co37840","norming","","","{""curiosity"":2,""confidence"":3}","[0,1]","../img/tt/1243tt.jpg","",""
"1677.9499999999534","","","recognition","survey-text","485","1490272","0.0-6.0-3.68","2739073","co37840","norming","","","{""guess"":""beren""}","","../img/tt/1243tt.jpg","",""
"null","../img/gs/1243gs.jpg","null","reveal","image-keyboard-response","486","1492281","0.0-6.0-4.68","2739073","co37840","norming","","","","","","",""
"null","../img/tt/1243tt.jpg","null","mooney2","image-keyboard-response","487","1494284","0.0-6.0-5.68","2739073","co37840","norming","","","","","","",""
"1329.8899999998976","","","post_reveal_questions","survey-likert","488","1495608","0.0-6.0-6.68","2739073","co37840","norming","","","{""aha"":4}","[0]","../img/tt/1243tt.jpg","",""
"null","<div style=""font-size:60px;""> </div>","null","fixation","html-keyboard-response","489","1495809","0.0-6.0-0.69","2739073","co37840","norming","","","","","","",""
"null","../img/tt/031tt.jpg","null","mooney1","image-keyboard-response","490","1498813","0.0-6.0-1.69","2739073","co37840","norming","","","","","","",""
"4016.2949999999255","","","post_mooney1_questions","survey-likert","491","1502832","0.0-6.0-2.69","2739073","co37840","norming","","","{""curiosity"":3,""confidence"":3}","[0,1]","../img/tt/031tt.jpg","",""
"1462.0700000000652","","","recognition","survey-text","492","1504296","0.0-6.0-3.69","2739073","co37840","norming","","","{""guess"":""beer""}","","../img/tt/031tt.jpg","",""
"null","../img/gs/031gs.jpg","null","reveal","image-keyboard-response","493","1506303","0.0-6.0-4.69","2739073","co37840","norming","","","","","","",""
"null","../img/tt/031tt.jpg","null","mooney2","image-keyboard-response","494","1508306","0.0-6.0-5.69","2739073","co37840","norming","","","","","","",""
"1892.0800000000745","","","post_reveal_questions","survey-likert","495","1510200","0.0-6.0-6.69","2739073","co37840","norming","","","{""aha"":0}","[0]","../img/tt/031tt.jpg","",""
"null","<div style=""font-size:60px;""> </div>","null","fixation","html-keyboard-response","496","1510402","0.0-6.0-0.70","2739073","co37840","norming","","","","","","",""
"null","../img/tt/1107tt.jpg","null","mooney1","image-keyboard-response","497","1513414","0.0-6.0-1.70","2739073","co37840","norming","","","","","","",""
"9728.73999999999","","","post_mooney1_questions","survey-likert","498","1523144","0.0-6.0-2.70","2739073","co37840","norming","","","{""curiosity"":4,""confidence"":0}","[0,1]","../img/tt/1107tt.jpg","",""
"2317.9850000003353","","","recognition","survey-text","499","1525464","0.0-6.0-3.70","2739073","co37840","norming","","","{""guess"":""echo""}","","../img/tt/1107tt.jpg","",""
"null","../img/gs/1107gs.jpg","null","reveal","image-keyboard-response","500","1527466","0.0-6.0-4.70","2739073","co37840","norming","","","","","","",""
"null","../img/tt/1107tt.jpg","null","mooney2","image-keyboard-response","501","1529470","0.0-6.0-5.70","2739073","co37840","norming","","","","","","",""
"5609.284999999916","","","post_reveal_questions","survey-likert","502","1535080","0.0-6.0-6.70","2739073","co37840","norming","","","{""aha"":4}","[0]","../img/tt/1107tt.jpg","",""
"null","<div style=""font-size:60px;""> </div>","null","fixation","html-keyboard-response","503","1535284","0.0-6.0-0.71","2739073","co37840","norming","","","","","","",""
"null","../img/tt/184tt.jpg","null","mooney1","image-keyboard-response","504","1538288","0.0-6.0-1.71","2739073","co37840","norming","","","","","","",""
"5580.550000000047","","","post_mooney1_questions","survey-likert","505","1543872","0.0-6.0-2.71","2739073","co37840","norming","","","{""curiosity"":2,""confidence"":1}","[0,1]","../img/tt/184tt.jpg","",""
"3109.929999999935","","","recognition","survey-text","506","1546984","0.0-6.0-3.71","2739073","co37840","norming","","","{""guess"":""liggend dier""}","","../img/tt/184tt.jpg","",""
"null","../img/gs/184gs.jpg","null","reveal","image-keyboard-response","507","1548986","0.0-6.0-4.71","2739073","co37840","norming","","","","","","",""
"null","../img/tt/184tt.jpg","null","mooney2","image-keyboard-response","508","1550988","0.0-6.0-5.71","2739073","co37840","norming","","","","","","",""
"1577.2250000000931","","","post_reveal_questions","survey-likert","509","1552568","0.0-6.0-6.71","2739073","co37840","norming","","","{""aha"":6}","[0]","../img/tt/184tt.jpg","",""
"null","<div style=""font-size:60px;""> </div>","null","fixation","html-keyboard-response","510","1552774","0.0-6.0-0.72","2739073","co37840","norming","","","","","","",""
"null","../img/tt/517tt.jpg","null","mooney1","image-keyboard-response","511","1555787","0.0-6.0-1.72","2739073","co37840","norming","","","","","","",""
"4266.409999999916","","","post_mooney1_questions","survey-likert","512","1560057","0.0-6.0-2.72","2739073","co37840","norming","","","{""curiosity"":2,""confidence"":1}","[0,1]","../img/tt/517tt.jpg","",""
"1366.029999999795","","","recognition","survey-text","513","1561425","0.0-6.0-3.72","2739073","co37840","norming","","","{""guess"":""mol""}","","../img/tt/517tt.jpg","",""
"null","../img/gs/517gs.jpg","null","reveal","image-keyboard-response","514","1563434","0.0-6.0-4.72","2739073","co37840","norming","","","","","","",""
"null","../img/tt/517tt.jpg","null","mooney2","image-keyboard-response","515","1565435","0.0-6.0-5.72","2739073","co37840","norming","","","","","","",""
"2028.2099999999627","","","post_reveal_questions","survey-likert","516","1567465","0.0-6.0-6.72","2739073","co37840","norming","","","{""aha"":4}","[0]","../img/tt/517tt.jpg","",""
"null","<div style=""font-size:60px;""> </div>","null","fixation","html-keyboard-response","517","1567674","0.0-6.0-0.73","2739073","co37840","norming","","","","","","",""
"null","../img/tt/436tt.jpg","null","mooney1","image-keyboard-response","518","1570678","0.0-6.0-1.73","2739073","co37840","norming","","","","","","",""
"3863.344999999972","","","post_mooney1_questions","survey-likert","519","1574545","0.0-6.0-2.73","2739073","co37840","norming","","","{""curiosity"":2,""confidence"":1}","[0,1]","../img/tt/436tt.jpg","",""
"3038.0749999999534","","","recognition","survey-text","520","1577585","0.0-6.0-3.73","2739073","co37840","norming","","","{""guess"":""krokodil""}","","../img/tt/436tt.jpg","",""
"null","../img/gs/436gs.jpg","null","reveal","image-keyboard-response","521","1579586","0.0-6.0-4.73","2739073","co37840","norming","","","","","","",""
"null","../img/tt/436tt.jpg","null","mooney2","image-keyboard-response","522","1581589","0.0-6.0-5.73","2739073","co37840","norming","","","","","","",""
"2049.154999999795","","","post_reveal_questions","survey-likert","523","1583641","0.0-6.0-6.73","2739073","co37840","norming","","","{""aha"":3}","[0]","../img/tt/436tt.jpg","",""
"null","<div style=""font-size:60px;""> </div>","null","fixation","html-keyboard-response","524","1583842","0.0-6.0-0.74","2739073","co37840","norming","","","","","","",""
"null","../img/tt/559tt.jpg","null","mooney1","image-keyboard-response","525","1586851","0.0-6.0-1.74","2739073","co37840","norming","","","","","","",""
"8058.324999999953","","","post_mooney1_questions","survey-likert","526","1594913","0.0-6.0-2.74","2739073","co37840","norming","","","{""curiosity"":3,""confidence"":1}","[0,1]","../img/tt/559tt.jpg","",""
"3278.1650000000373","","","recognition","survey-text","527","1598193","0.0-6.0-3.74","2739073","co37840","norming","","","{""guess"":""tafel met stoelen""}","","../img/tt/559tt.jpg","",""
"null","../img/gs/559gs.jpg","null","reveal","image-keyboard-response","528","1600199","0.0-6.0-4.74","2739073","co37840","norming","","","","","","",""
"null","../img/tt/559tt.jpg","null","mooney2","image-keyboard-response","529","1602202","0.0-6.0-5.74","2739073","co37840","norming","","","","","","",""
"2155.9850000001024","","","post_reveal_questions","survey-likert","530","1604361","0.0-6.0-6.74","2739073","co37840","norming","","","{""aha"":5}","[0]","../img/tt/559tt.jpg","",""
"null","<div style=""font-size:60px;""> </div>","null","fixation","html-keyboard-response","531","1604570","0.0-6.0-0.75","2739073","co37840","norming","","","","","","",""
"null","../img/tt/1066tt.jpg","null","mooney1","image-keyboard-response","532","1607573","0.0-6.0-1.75","2739073","co37840","norming","","","","","","",""
"3561.815000000177","","","post_mooney1_questions","survey-likert","533","1611137","0.0-6.0-2.75","2739073","co37840","norming","","","{""curiosity"":2,""confidence"":6}","[0,1]","../img/tt/1066tt.jpg","",""
"1501.8999999999069","","","recognition","survey-text","534","1612641","0.0-6.0-3.75","2739073","co37840","norming","","","{""guess"":""bus""}","","../img/tt/1066tt.jpg","",""
"null","../img/gs/1066gs.jpg","null","reveal","image-keyboard-response","535","1614652","0.0-6.0-4.75","2739073","co37840","norming","","","","","","",""
"null","../img/tt/1066tt.jpg","null","mooney2","image-keyboard-response","536","1616662","0.0-6.0-5.75","2739073","co37840","norming","","","","","","",""
"4191.604999999981","","","post_reveal_questions","survey-likert","537","1620857","0.0-6.0-6.75","2739073","co37840","norming","","","{""aha"":0}","[0]","../img/tt/1066tt.jpg","",""
"null","<div style=""font-size:60px;""> </div>","null","fixation","html-keyboard-response","538","1621058","0.0-6.0-0.76","2739073","co37840","norming","","","","","","",""
"null","../img/tt/098tt.jpg","null","mooney1","image-keyboard-response","539","1624062","0.0-6.0-1.76","2739073","co37840","norming","","","","","","",""
"2831.215000000084","","","post_mooney1_questions","survey-likert","540","1626897","0.0-6.0-2.76","2739073","co37840","norming","","","{""curiosity"":2,""confidence"":0}","[0,1]","../img/tt/098tt.jpg","",""
"1742.5250000001397","","","recognition","survey-text","541","1628641","0.0-6.0-3.76","2739073","co37840","norming","","","{""guess"":""vlinder""}","","../img/tt/098tt.jpg","",""
"null","../img/gs/098gs.jpg","null","reveal","image-keyboard-response","542","1630651","0.0-6.0-4.76","2739073","co37840","norming","","","","","","",""
"null","../img/tt/098tt.jpg","null","mooney2","image-keyboard-response","543","1632653","0.0-6.0-5.76","2739073","co37840","norming","","","","","","",""
"1121.3849999997765","","","post_reveal_questions","survey-likert","544","1633777","0.0-6.0-6.76","2739073","co37840","norming","","","{""aha"":4}","[0]","../img/tt/098tt.jpg","",""
"null","<div style=""font-size:60px;""> </div>","null","fixation","html-keyboard-response","545","1633979","0.0-6.0-0.77","2739073","co37840","norming","","","","","","",""
"null","../img/tt/111tt.jpg","null","mooney1","image-keyboard-response","546","1636989","0.0-6.0-1.77","2739073","co37840","norming","","","","","","",""
"5504.824999999953","","","post_mooney1_questions","survey-likert","547","1642497","0.0-6.0-2.77","2739073","co37840","norming","","","{""curiosity"":2,""confidence"":1}","[0,1]","../img/tt/111tt.jpg","",""
"3102.100000000093","","","recognition","survey-text","548","1645601","0.0-6.0-3.77","2739073","co37840","norming","","","{""guess"":""iets met een rits""}","","../img/tt/111tt.jpg","",""
"null","../img/gs/111gs.jpg","null","reveal","image-keyboard-response","549","1647607","0.0-6.0-4.77","2739073","co37840","norming","","","","","","",""
"null","../img/tt/111tt.jpg","null","mooney2","image-keyboard-response","550","1649608","0.0-6.0-5.77","2739073","co37840","norming","","","","","","",""
"1942.1000000000931","","","post_reveal_questions","survey-likert","551","1651553","0.0-6.0-6.77","2739073","co37840","norming","","","{""aha"":5}","[0]","../img/tt/111tt.jpg","",""
