"rt","stimulus","key_press","test_part","trial_type","trial_index","time_elapsed","internal_node_id","totalTime","subject","experiment_name","button_pressed","success","responses","question_order","currentStim","old","correct"
"7451.985000000007","Welcome to the experiment. This is an online experiment so please don't close the tab/window until we say goodbye.  Press any key to begin.","72","instructions","html-keyboard-response","0","7467","0.0-0.0","3024238","co37567","norming","","","","","","",""
"11063.939999999988","<div style='word-wrap: break-word; width: 900px'><h3>Please consider this information carefully before deciding whether to participate in this research</h3><ul style='text-align: left; font-size: .8em;'><li><b>Purpose of the research</b>: To examine how people process images.</li><li><b>What you will do in this research</b>:  Stimuli (images) will be presented on the computer and you will be asked different questions about them.</li><li><b>Time required</b>: Participation will take between 45 and 60 minutes to complete.</li><li><b>Risks</b>:  There are no anticipated risks associated with participating in this study. The effects of participating should be comparable to those you would experience from viewing a computer monitor for 30 minutes and using a mouse or keyboard.</li><li><b>Benefits</b>:  This study provides no benefits to you individually except for the credit. The study provides important information about the nature of perception and learning.</li><li><b>Confidentiality</b>:  Your participation in this study will remain confidential. No personally identifiable information will be associated with your data. Your de-identified data may be shared with other researchers and used in future projects.</li><li><b>Participation and withdrawal</b>:  Your participation in this study is completely voluntary and you may refuse to participate or you may choose to withdraw at any time without penalty.</li><li><b>How to contact the researchers</b>: If you have questions or concerns about your participation or payment, or want to request a summary of research findings, please contact Sander Van de Cruys (KU Leuven), at sander.vandecruys@kuleuven.be.</li></ul><p>The nature and purpose of this research have been sufficiently explained and I agree to participate in this study.  I understand that I am free to withdraw at any time without incurring any penalty.</p><p>Please consent by clicking the button below to continue. Otherwise, please exit the study at this time.</p></div>","","instructions","html-button-response","1","18535","0.0-1.0","3024238","co37567","norming","0","","","","","",""
"","","","instructions","fullscreen","2","25614","0.0-2.0","3024238","co37567","norming","","true","","","","",""
"31838.574999999993","","","sona","survey-html-form","3","57458","0.0-3.0","3024238","co37567","norming","","","[{""name"":""sonaid"",""value"":""37567""},{""name"":""debrief"",""value"":""yes""},{""name"":""datajoin"",""value"":""yes""}]","","","",""
"51714.86000000002","<div style='word-wrap: break-word; width: 900px'><h3>Instructions</h3><p>This experiment will have 3 parts. In the first part you will see a series of distorted images like the one below on the left. As you can see in the righthand image, the distorted images are derived from actual photographs. In what follows, you will <strong>briefly</strong> be presented with <strong>only</strong> the distorted image.</p> <div style='float: left; margin-right: 20px;'><img src='../img/018tt.jpg' height='250' width='250'></img></div><div style='float: right; margin-left: 20px;'><img src='../img/018gs.jpg' height='250' width='250'></img></div><p>Subsequently you will be asked a few questions about the image: One question on how <strong>curious</strong> you are about the solution and one on how <strong>confident</strong> you are that you know the solution.</p>Next, we ask you to make a guess on what is in the image. Note that it is OK to name just the <strong>basic level category</strong>. For example when you see a parrot in the image, 'parrot' will obviously be a correct answer but also correct is 'bird'. However, 'animal' will <strong>not</strong> be counted as a correct response. For the example above, 'rose' would be correct or 'flower', but not 'plant'. When soccer players are depicted, 'soccer', 'football', 'soccer players' will be correct, but not 'humans', 'outdoors', or 'sports'. You do not need to describe the image in full, just name the main object in it <strong>in one or two words</strong>. All images depict objects from one of the following broad level categories: animals, inanimate objects, plants, sports, vehicles, and food. Recognizing means knowing <strong>more</strong> than these broad labels for a given image. But we always encourage you to <strong>make a guess</strong> if you can. Note that you are allowed to use <strong>Dutch and English</strong> in your answers, whatever comes easiest for you.</p><p>Press any key to continue.</p></div>","13","instructions","html-keyboard-response","4","109170","0.0-4.0","3024238","co37567","norming","","","","","","",""
"195023.29500000004","<div style='word-wrap: break-word; width: 900px'><h3>Instructions</h3> <p>Next, the solution image will be revealed to you and you'll be asked to indicate how strong your <strong>aha-experience</strong> was after seeing the solution. This describes the positive feeling of the 'click' you sometimes experience, when the pieces of the 'puzzle' fall together and you suddenly have 'insight' in the image.</p><img src='aha.jpg' height='188' width='250'></img><p>Note that there are no right or wrong answers. We are interested in what <strong>you</strong> see in the image and how <strong>you</strong> feel about it.</p><p>Press any key to start the experiment.</p></div>","13","instructions","html-keyboard-response","5","304188","0.0-5.0","3024238","co37567","norming","","","","","","",""
"null","<div style=""font-size:60px;""> </div>","null","fixation","html-keyboard-response","6","304393","0.0-6.0-0.0","3024238","co37567","norming","","","","","","",""
"null","../img/tt/1048tt.jpg","null","mooney1","image-keyboard-response","7","307402","0.0-6.0-1.0","3024238","co37567","norming","","","","","","",""
"13305","","","post_mooney1_questions","survey-likert","8","320709","0.0-6.0-2.0","3024238","co37567","norming","","","{""curiosity"":2,""confidence"":3}","[0,1]","../img/tt/1048tt.jpg","",""
"5205.415000000037","","","recognition","survey-text","9","325916","0.0-6.0-3.0","3024238","co37567","norming","","","{""guess"":""boom""}","","../img/tt/1048tt.jpg","",""
"null","../img/gs/1048gs.jpg","null","reveal","image-keyboard-response","10","327918","0.0-6.0-4.0","3024238","co37567","norming","","","","","","",""
"null","../img/tt/1048tt.jpg","null","mooney2","image-keyboard-response","11","329927","0.0-6.0-5.0","3024238","co37567","norming","","","","","","",""
"4227.090000000026","","","post_reveal_questions","survey-likert","12","334156","0.0-6.0-6.0","3024238","co37567","norming","","","{""aha"":4}","[0]","../img/tt/1048tt.jpg","",""
"null","<div style=""font-size:60px;""> </div>","null","fixation","html-keyboard-response","13","334365","0.0-6.0-0.1","3024238","co37567","norming","","","","","","",""
"null","../img/tt/1122tt.jpg","null","mooney1","image-keyboard-response","14","337375","0.0-6.0-1.1","3024238","co37567","norming","","","","","","",""
"5940.139999999956","","","post_mooney1_questions","survey-likert","15","343316","0.0-6.0-2.1","3024238","co37567","norming","","","{""curiosity"":4,""confidence"":1}","[0,1]","../img/tt/1122tt.jpg","",""
"3046.0149999999558","","","recognition","survey-text","16","346364","0.0-6.0-3.1","3024238","co37567","norming","","","{""guess"":""parking""}","","../img/tt/1122tt.jpg","",""
"null","../img/gs/1122gs.jpg","null","reveal","image-keyboard-response","17","348366","0.0-6.0-4.1","3024238","co37567","norming","","","","","","",""
"null","../img/tt/1122tt.jpg","null","mooney2","image-keyboard-response","18","350368","0.0-6.0-5.1","3024238","co37567","norming","","","","","","",""
"4817.85500000004","","","post_reveal_questions","survey-likert","19","355188","0.0-6.0-6.1","3024238","co37567","norming","","","{""aha"":2}","[0]","../img/tt/1122tt.jpg","",""
"null","<div style=""font-size:60px;""> </div>","null","fixation","html-keyboard-response","20","355393","0.0-6.0-0.2","3024238","co37567","norming","","","","","","",""
"null","../img/tt/357tt.jpg","null","mooney1","image-keyboard-response","21","358400","0.0-6.0-1.2","3024238","co37567","norming","","","","","","",""
"6002.655000000028","","","post_mooney1_questions","survey-likert","22","364401","0.0-6.0-2.2","3024238","co37567","norming","","","{""curiosity"":5,""confidence"":1}","[0,1]","../img/tt/357tt.jpg","",""
"5478.10500000004","","","recognition","survey-text","23","369881","0.0-6.0-3.2","3024238","co37567","norming","","","{""guess"":""""}","","../img/tt/357tt.jpg","",""
"null","../img/gs/357gs.jpg","null","reveal","image-keyboard-response","24","371890","0.0-6.0-4.2","3024238","co37567","norming","","","","","","",""
"null","../img/tt/357tt.jpg","null","mooney2","image-keyboard-response","25","373892","0.0-6.0-5.2","3024238","co37567","norming","","","","","","",""
"2170.094999999972","","","post_reveal_questions","survey-likert","26","376065","0.0-6.0-6.2","3024238","co37567","norming","","","{""aha"":6}","[0]","../img/tt/357tt.jpg","",""
"null","<div style=""font-size:60px;""> </div>","null","fixation","html-keyboard-response","27","376270","0.0-6.0-0.3","3024238","co37567","norming","","","","","","",""
"null","../img/tt/001tt.jpg","null","mooney1","image-keyboard-response","28","379278","0.0-6.0-1.3","3024238","co37567","norming","","","","","","",""
"13824.859999999986","","","post_mooney1_questions","survey-likert","29","393105","0.0-6.0-2.3","3024238","co37567","norming","","","{""curiosity"":4,""confidence"":0}","[0,1]","../img/tt/001tt.jpg","",""
"733.9599999999627","","","recognition","survey-text","30","393841","0.0-6.0-3.3","3024238","co37567","norming","","","{""guess"":""""}","","../img/tt/001tt.jpg","",""
"null","../img/gs/001gs.jpg","null","reveal","image-keyboard-response","31","395851","0.0-6.0-4.3","3024238","co37567","norming","","","","","","",""
"null","../img/tt/001tt.jpg","null","mooney2","image-keyboard-response","32","397855","0.0-6.0-5.3","3024238","co37567","norming","","","","","","",""
"2063.4899999999907","","","post_reveal_questions","survey-likert","33","399921","0.0-6.0-6.3","3024238","co37567","norming","","","{""aha"":5}","[0]","../img/tt/001tt.jpg","",""
"null","<div style=""font-size:60px;""> </div>","null","fixation","html-keyboard-response","34","400125","0.0-6.0-0.4","3024238","co37567","norming","","","","","","",""
"null","../img/tt/1196tt.jpg","null","mooney1","image-keyboard-response","35","403130","0.0-6.0-1.4","3024238","co37567","norming","","","","","","",""
"4901.839999999967","","","post_mooney1_questions","survey-likert","36","408033","0.0-6.0-2.4","3024238","co37567","norming","","","{""curiosity"":3,""confidence"":1}","[0,1]","../img/tt/1196tt.jpg","",""
"2742.134999999951","","","recognition","survey-text","37","410777","0.0-6.0-3.4","3024238","co37567","norming","","","{""guess"":""kraan""}","","../img/tt/1196tt.jpg","",""
"null","../img/gs/1196gs.jpg","null","reveal","image-keyboard-response","38","412787","0.0-6.0-4.4","3024238","co37567","norming","","","","","","",""
"null","../img/tt/1196tt.jpg","null","mooney2","image-keyboard-response","39","414800","0.0-6.0-5.4","3024238","co37567","norming","","","","","","",""
"3358.875","","","post_reveal_questions","survey-likert","40","418161","0.0-6.0-6.4","3024238","co37567","norming","","","{""aha"":5}","[0]","../img/tt/1196tt.jpg","",""
"null","<div style=""font-size:60px;""> </div>","null","fixation","html-keyboard-response","41","418367","0.0-6.0-0.5","3024238","co37567","norming","","","","","","",""
"null","../img/tt/1189tt.jpg","null","mooney1","image-keyboard-response","42","421371","0.0-6.0-1.5","3024238","co37567","norming","","","","","","",""
"8154.915000000037","","","post_mooney1_questions","survey-likert","43","429529","0.0-6.0-2.5","3024238","co37567","norming","","","{""curiosity"":4,""confidence"":2}","[0,1]","../img/tt/1189tt.jpg","",""
"3310.195000000007","","","recognition","survey-text","44","432841","0.0-6.0-3.5","3024238","co37567","norming","","","{""guess"":""vogel""}","","../img/tt/1189tt.jpg","",""
"null","../img/gs/1189gs.jpg","null","reveal","image-keyboard-response","45","434851","0.0-6.0-4.5","3024238","co37567","norming","","","","","","",""
"null","../img/tt/1189tt.jpg","null","mooney2","image-keyboard-response","46","436860","0.0-6.0-5.5","3024238","co37567","norming","","","","","","",""
"2690.5700000001234","","","post_reveal_questions","survey-likert","47","439553","0.0-6.0-6.5","3024238","co37567","norming","","","{""aha"":5}","[0]","../img/tt/1189tt.jpg","",""
"null","<div style=""font-size:60px;""> </div>","null","fixation","html-keyboard-response","48","439756","0.0-6.0-0.6","3024238","co37567","norming","","","","","","",""
"null","../img/tt/273tt.jpg","null","mooney1","image-keyboard-response","49","442764","0.0-6.0-1.6","3024238","co37567","norming","","","","","","",""
"8826.930000000051","","","post_mooney1_questions","survey-likert","50","451593","0.0-6.0-2.6","3024238","co37567","norming","","","{""curiosity"":3,""confidence"":1}","[0,1]","../img/tt/273tt.jpg","",""
"2573.9949999999953","","","recognition","survey-text","51","454169","0.0-6.0-3.6","3024238","co37567","norming","","","{""guess"":""mens""}","","../img/tt/273tt.jpg","",""
"null","../img/gs/273gs.jpg","null","reveal","image-keyboard-response","52","456175","0.0-6.0-4.6","3024238","co37567","norming","","","","","","",""
"null","../img/tt/273tt.jpg","null","mooney2","image-keyboard-response","53","458180","0.0-6.0-5.6","3024238","co37567","norming","","","","","","",""
"3506.9199999998673","","","post_reveal_questions","survey-likert","54","461689","0.0-6.0-6.6","3024238","co37567","norming","","","{""aha"":3}","[0]","../img/tt/273tt.jpg","",""
"null","<div style=""font-size:60px;""> </div>","null","fixation","html-keyboard-response","55","461898","0.0-6.0-0.7","3024238","co37567","norming","","","","","","",""
"null","../img/tt/1143tt.jpg","null","mooney1","image-keyboard-response","56","464904","0.0-6.0-1.7","3024238","co37567","norming","","","","","","",""
"4109.994999999995","","","post_mooney1_questions","survey-likert","57","469017","0.0-6.0-2.7","3024238","co37567","norming","","","{""curiosity"":2,""confidence"":2}","[0,1]","../img/tt/1143tt.jpg","",""
"3054.195000000007","","","recognition","survey-text","58","472073","0.0-6.0-3.7","3024238","co37567","norming","","","{""guess"":""fitness""}","","../img/tt/1143tt.jpg","",""
"null","../img/gs/1143gs.jpg","null","reveal","image-keyboard-response","59","474075","0.0-6.0-4.7","3024238","co37567","norming","","","","","","",""
"null","../img/tt/1143tt.jpg","null","mooney2","image-keyboard-response","60","476082","0.0-6.0-5.7","3024238","co37567","norming","","","","","","",""
"5804.260000000009","","","post_reveal_questions","survey-likert","61","481889","0.0-6.0-6.7","3024238","co37567","norming","","","{""aha"":2}","[0]","../img/tt/1143tt.jpg","",""
"null","<div style=""font-size:60px;""> </div>","null","fixation","html-keyboard-response","62","482097","0.0-6.0-0.8","3024238","co37567","norming","","","","","","",""
"null","../img/tt/1241tt.jpg","null","mooney1","image-keyboard-response","63","485102","0.0-6.0-1.8","3024238","co37567","norming","","","","","","",""
"4176.524999999965","","","post_mooney1_questions","survey-likert","64","489272","0.0-6.0-2.8","3024238","co37567","norming","","","{""curiosity"":4,""confidence"":2}","[0,1]","../img/tt/1241tt.jpg","",""
"2326.024999999965","","","recognition","survey-text","65","491600","0.0-6.0-3.8","3024238","co37567","norming","","","{""guess"":""hond""}","","../img/tt/1241tt.jpg","",""
"null","../img/gs/1241gs.jpg","null","reveal","image-keyboard-response","66","493608","0.0-6.0-4.8","3024238","co37567","norming","","","","","","",""
"null","../img/tt/1241tt.jpg","null","mooney2","image-keyboard-response","67","495618","0.0-6.0-5.8","3024238","co37567","norming","","","","","","",""
"2467.730000000098","","","post_reveal_questions","survey-likert","68","498088","0.0-6.0-6.8","3024238","co37567","norming","","","{""aha"":3}","[0]","../img/tt/1241tt.jpg","",""
"null","<div style=""font-size:60px;""> </div>","null","fixation","html-keyboard-response","69","498297","0.0-6.0-0.9","3024238","co37567","norming","","","","","","",""
"null","../img/tt/121tt.jpg","null","mooney1","image-keyboard-response","70","501307","0.0-6.0-1.9","3024238","co37567","norming","","","","","","",""
"9178.815000000002","","","post_mooney1_questions","survey-likert","71","510488","0.0-6.0-2.9","3024238","co37567","norming","","","{""curiosity"":4,""confidence"":1}","[0,1]","../img/tt/121tt.jpg","",""
"7046.005000000063","","","recognition","survey-text","72","517536","0.0-6.0-3.9","3024238","co37567","norming","","","{""guess"":""vis""}","","../img/tt/121tt.jpg","",""
"null","../img/gs/121gs.jpg","null","reveal","image-keyboard-response","73","519537","0.0-6.0-4.9","3024238","co37567","norming","","","","","","",""
"null","../img/tt/121tt.jpg","null","mooney2","image-keyboard-response","74","521539","0.0-6.0-5.9","3024238","co37567","norming","","","","","","",""
"2738.280000000028","","","post_reveal_questions","survey-likert","75","524280","0.0-6.0-6.9","3024238","co37567","norming","","","{""aha"":5}","[0]","../img/tt/121tt.jpg","",""
"null","<div style=""font-size:60px;""> </div>","null","fixation","html-keyboard-response","76","524489","0.0-6.0-0.10","3024238","co37567","norming","","","","","","",""
"null","../img/tt/442tt.jpg","null","mooney1","image-keyboard-response","77","527500","0.0-6.0-1.10","3024238","co37567","norming","","","","","","",""
"5753.599999999977","","","post_mooney1_questions","survey-likert","78","533256","0.0-6.0-2.10","3024238","co37567","norming","","","{""curiosity"":6,""confidence"":0}","[0,1]","../img/tt/442tt.jpg","",""
"766.0099999998929","","","recognition","survey-text","79","534024","0.0-6.0-3.10","3024238","co37567","norming","","","{""guess"":""""}","","../img/tt/442tt.jpg","",""
"null","../img/gs/442gs.jpg","null","reveal","image-keyboard-response","80","536028","0.0-6.0-4.10","3024238","co37567","norming","","","","","","",""
"null","../img/tt/442tt.jpg","null","mooney2","image-keyboard-response","81","538030","0.0-6.0-5.10","3024238","co37567","norming","","","","","","",""
"3719.7799999999115","","","post_reveal_questions","survey-likert","82","541752","0.0-6.0-6.10","3024238","co37567","norming","","","{""aha"":6}","[0]","../img/tt/442tt.jpg","",""
"null","<div style=""font-size:60px;""> </div>","null","fixation","html-keyboard-response","83","541956","0.0-6.0-0.11","3024238","co37567","norming","","","","","","",""
"null","../img/tt/406tt.jpg","null","mooney1","image-keyboard-response","84","544967","0.0-6.0-1.11","3024238","co37567","norming","","","","","","",""
"12926.285000000033","","","post_mooney1_questions","survey-likert","85","557894","0.0-6.0-2.11","3024238","co37567","norming","","","{""curiosity"":4,""confidence"":1}","[0,1]","../img/tt/406tt.jpg","",""
"8502.090000000084","","","recognition","survey-text","86","566397","0.0-6.0-3.11","3024238","co37567","norming","","","{""guess"":""gezicht""}","","../img/tt/406tt.jpg","",""
"null","../img/gs/406gs.jpg","null","reveal","image-keyboard-response","87","568399","0.0-6.0-4.11","3024238","co37567","norming","","","","","","",""
"null","../img/tt/406tt.jpg","null","mooney2","image-keyboard-response","88","570401","0.0-6.0-5.11","3024238","co37567","norming","","","","","","",""
"2122.155000000028","","","post_reveal_questions","survey-likert","89","572525","0.0-6.0-6.11","3024238","co37567","norming","","","{""aha"":5}","[0]","../img/tt/406tt.jpg","",""
"null","<div style=""font-size:60px;""> </div>","null","fixation","html-keyboard-response","90","572734","0.0-6.0-0.12","3024238","co37567","norming","","","","","","",""
"null","../img/tt/378tt.jpg","null","mooney1","image-keyboard-response","91","575742","0.0-6.0-1.12","3024238","co37567","norming","","","","","","",""
"6300.394999999902","","","post_mooney1_questions","survey-likert","92","582045","0.0-6.0-2.12","3024238","co37567","norming","","","{""curiosity"":5,""confidence"":1}","[0,1]","../img/tt/378tt.jpg","",""
"3262.085000000079","","","recognition","survey-text","93","585309","0.0-6.0-3.12","3024238","co37567","norming","","","{""guess"":""vrouw""}","","../img/tt/378tt.jpg","",""
"null","../img/gs/378gs.jpg","null","reveal","image-keyboard-response","94","587312","0.0-6.0-4.12","3024238","co37567","norming","","","","","","",""
"null","../img/tt/378tt.jpg","null","mooney2","image-keyboard-response","95","589315","0.0-6.0-5.12","3024238","co37567","norming","","","","","","",""
"1849.125","","","post_reveal_questions","survey-likert","96","591165","0.0-6.0-6.12","3024238","co37567","norming","","","{""aha"":5}","[0]","../img/tt/378tt.jpg","",""
"null","<div style=""font-size:60px;""> </div>","null","fixation","html-keyboard-response","97","591369","0.0-6.0-0.13","3024238","co37567","norming","","","","","","",""
"null","../img/tt/1043tt.jpg","null","mooney1","image-keyboard-response","98","594375","0.0-6.0-1.13","3024238","co37567","norming","","","","","","",""
"14140.32500000007","","","post_mooney1_questions","survey-likert","99","608517","0.0-6.0-2.13","3024238","co37567","norming","","","{""curiosity"":5,""confidence"":0}","[0,1]","../img/tt/1043tt.jpg","",""
"830.1350000001257","","","recognition","survey-text","100","609349","0.0-6.0-3.13","3024238","co37567","norming","","","{""guess"":""""}","","../img/tt/1043tt.jpg","",""
"null","../img/gs/1043gs.jpg","null","reveal","image-keyboard-response","101","611358","0.0-6.0-4.13","3024238","co37567","norming","","","","","","",""
"null","../img/tt/1043tt.jpg","null","mooney2","image-keyboard-response","102","613369","0.0-6.0-5.13","3024238","co37567","norming","","","","","","",""
"4894.179999999935","","","post_reveal_questions","survey-likert","103","618266","0.0-6.0-6.13","3024238","co37567","norming","","","{""aha"":6}","[0]","../img/tt/1043tt.jpg","",""
"null","<div style=""font-size:60px;""> </div>","null","fixation","html-keyboard-response","104","618472","0.0-6.0-0.14","3024238","co37567","norming","","","","","","",""
"null","../img/tt/522tt.jpg","null","mooney1","image-keyboard-response","105","621484","0.0-6.0-1.14","3024238","co37567","norming","","","","","","",""
"11923.250000000116","","","post_mooney1_questions","survey-likert","106","633410","0.0-6.0-2.14","3024238","co37567","norming","","","{""curiosity"":5,""confidence"":1}","[0,1]","../img/tt/522tt.jpg","",""
"9565.979999999981","","","recognition","survey-text","107","642978","0.0-6.0-3.14","3024238","co37567","norming","","","{""guess"":""eten""}","","../img/tt/522tt.jpg","",""
"null","../img/gs/522gs.jpg","null","reveal","image-keyboard-response","108","644988","0.0-6.0-4.14","3024238","co37567","norming","","","","","","",""
"null","../img/tt/522tt.jpg","null","mooney2","image-keyboard-response","109","646999","0.0-6.0-5.14","3024238","co37567","norming","","","","","","",""
"2288.844999999972","","","post_reveal_questions","survey-likert","110","649290","0.0-6.0-6.14","3024238","co37567","norming","","","{""aha"":5}","[0]","../img/tt/522tt.jpg","",""
"null","<div style=""font-size:60px;""> </div>","null","fixation","html-keyboard-response","111","649497","0.0-6.0-0.15","3024238","co37567","norming","","","","","","",""
"null","../img/tt/1069tt.jpg","null","mooney1","image-keyboard-response","112","652502","0.0-6.0-1.15","3024238","co37567","norming","","","","","","",""
"4896.854999999865","","","post_mooney1_questions","survey-likert","113","657402","0.0-6.0-2.15","3024238","co37567","norming","","","{""curiosity"":3,""confidence"":1}","[0,1]","../img/tt/1069tt.jpg","",""
"3517.9949999999953","","","recognition","survey-text","114","660922","0.0-6.0-3.15","3024238","co37567","norming","","","{""guess"":""bos""}","","../img/tt/1069tt.jpg","",""
"null","../img/gs/1069gs.jpg","null","reveal","image-keyboard-response","115","662926","0.0-6.0-4.15","3024238","co37567","norming","","","","","","",""
"null","../img/tt/1069tt.jpg","null","mooney2","image-keyboard-response","116","664928","0.0-6.0-5.15","3024238","co37567","norming","","","","","","",""
"4199.759999999893","","","post_reveal_questions","survey-likert","117","669130","0.0-6.0-6.15","3024238","co37567","norming","","","{""aha"":5}","[0]","../img/tt/1069tt.jpg","",""
"null","<div style=""font-size:60px;""> </div>","null","fixation","html-keyboard-response","118","669333","0.0-6.0-0.16","3024238","co37567","norming","","","","","","",""
"null","../img/tt/534tt.jpg","null","mooney1","image-keyboard-response","119","672344","0.0-6.0-1.16","3024238","co37567","norming","","","","","","",""
"6823.290000000037","","","post_mooney1_questions","survey-likert","120","679170","0.0-6.0-2.16","3024238","co37567","norming","","","{""curiosity"":4,""confidence"":2}","[0,1]","../img/tt/534tt.jpg","",""
"3117.8749999998836","","","recognition","survey-text","121","682290","0.0-6.0-3.16","3024238","co37567","norming","","","{""guess"":""plant""}","","../img/tt/534tt.jpg","",""
"null","../img/gs/534gs.jpg","null","reveal","image-keyboard-response","122","684300","0.0-6.0-4.16","3024238","co37567","norming","","","","","","",""
"null","../img/tt/534tt.jpg","null","mooney2","image-keyboard-response","123","686303","0.0-6.0-5.16","3024238","co37567","norming","","","","","","",""
"3696.6450000000186","","","post_reveal_questions","survey-likert","124","690001","0.0-6.0-6.16","3024238","co37567","norming","","","{""aha"":4}","[0]","../img/tt/534tt.jpg","",""
"null","<div style=""font-size:60px;""> </div>","null","fixation","html-keyboard-response","125","690202","0.0-6.0-0.17","3024238","co37567","norming","","","","","","",""
"null","../img/tt/1173tt.jpg","null","mooney1","image-keyboard-response","126","693207","0.0-6.0-1.17","3024238","co37567","norming","","","","","","",""
"6559.989999999991","","","post_mooney1_questions","survey-likert","127","699770","0.0-6.0-2.17","3024238","co37567","norming","","","{""curiosity"":4,""confidence"":2}","[0,1]","../img/tt/1173tt.jpg","",""
"4550.339999999967","","","recognition","survey-text","128","704322","0.0-6.0-3.17","3024238","co37567","norming","","","{""guess"":""twee mensen""}","","../img/tt/1173tt.jpg","",""
"null","../img/gs/1173gs.jpg","null","reveal","image-keyboard-response","129","706323","0.0-6.0-4.17","3024238","co37567","norming","","","","","","",""
"null","../img/tt/1173tt.jpg","null","mooney2","image-keyboard-response","130","708325","0.0-6.0-5.17","3024238","co37567","norming","","","","","","",""
"4154.944999999949","","","post_reveal_questions","survey-likert","131","712482","0.0-6.0-6.17","3024238","co37567","norming","","","{""aha"":4}","[0]","../img/tt/1173tt.jpg","",""
"null","<div style=""font-size:60px;""> </div>","null","fixation","html-keyboard-response","132","712692","0.0-6.0-0.18","3024238","co37567","norming","","","","","","",""
"null","../img/tt/1118tt.jpg","null","mooney1","image-keyboard-response","133","715700","0.0-6.0-1.18","3024238","co37567","norming","","","","","","",""
"5146.400000000023","","","post_mooney1_questions","survey-likert","134","720850","0.0-6.0-2.18","3024238","co37567","norming","","","{""curiosity"":4,""confidence"":1}","[0,1]","../img/tt/1118tt.jpg","",""
"1614.2550000000047","","","recognition","survey-text","135","722466","0.0-6.0-3.18","3024238","co37567","norming","","","{""guess"":""boot""}","","../img/tt/1118tt.jpg","",""
"null","../img/gs/1118gs.jpg","null","reveal","image-keyboard-response","136","724469","0.0-6.0-4.18","3024238","co37567","norming","","","","","","",""
"null","../img/tt/1118tt.jpg","null","mooney2","image-keyboard-response","137","726472","0.0-6.0-5.18","3024238","co37567","norming","","","","","","",""
"2647.194999999949","","","post_reveal_questions","survey-likert","138","729122","0.0-6.0-6.18","3024238","co37567","norming","","","{""aha"":5}","[0]","../img/tt/1118tt.jpg","",""
"null","<div style=""font-size:60px;""> </div>","null","fixation","html-keyboard-response","139","729325","0.0-6.0-0.19","3024238","co37567","norming","","","","","","",""
"null","../img/tt/1260tt.jpg","null","mooney1","image-keyboard-response","140","732332","0.0-6.0-1.19","3024238","co37567","norming","","","","","","",""
"4146.590000000084","","","post_mooney1_questions","survey-likert","141","736478","0.0-6.0-2.19","3024238","co37567","norming","","","{""curiosity"":5,""confidence"":2}","[0,1]","../img/tt/1260tt.jpg","",""
"2750.0899999999674","","","recognition","survey-text","142","739229","0.0-6.0-3.19","3024238","co37567","norming","","","{""guess"":""camping""}","","../img/tt/1260tt.jpg","",""
"null","../img/gs/1260gs.jpg","null","reveal","image-keyboard-response","143","741237","0.0-6.0-4.19","3024238","co37567","norming","","","","","","",""
"null","../img/tt/1260tt.jpg","null","mooney2","image-keyboard-response","144","743239","0.0-6.0-5.19","3024238","co37567","norming","","","","","","",""
"2284.444999999949","","","post_reveal_questions","survey-likert","145","745526","0.0-6.0-6.19","3024238","co37567","norming","","","{""aha"":5}","[0]","../img/tt/1260tt.jpg","",""
"null","<div style=""font-size:60px;""> </div>","null","fixation","html-keyboard-response","146","745729","0.0-6.0-0.20","3024238","co37567","norming","","","","","","",""
"null","../img/tt/222tt.jpg","null","mooney1","image-keyboard-response","147","748740","0.0-6.0-1.20","3024238","co37567","norming","","","","","","",""
"6512.040000000037","","","post_mooney1_questions","survey-likert","148","755253","0.0-6.0-2.20","3024238","co37567","norming","","","{""curiosity"":3,""confidence"":1}","[0,1]","../img/tt/222tt.jpg","",""
"1782.1149999998743","","","recognition","survey-text","149","757037","0.0-6.0-3.20","3024238","co37567","norming","","","{""guess"":""tank""}","","../img/tt/222tt.jpg","",""
"null","../img/gs/222gs.jpg","null","reveal","image-keyboard-response","150","759039","0.0-6.0-4.20","3024238","co37567","norming","","","","","","",""
"null","../img/tt/222tt.jpg","null","mooney2","image-keyboard-response","151","761047","0.0-6.0-5.20","3024238","co37567","norming","","","","","","",""
"3483.8899999998976","","","post_reveal_questions","survey-likert","152","764533","0.0-6.0-6.20","3024238","co37567","norming","","","{""aha"":5}","[0]","../img/tt/222tt.jpg","",""
"null","<div style=""font-size:60px;""> </div>","null","fixation","html-keyboard-response","153","764739","0.0-6.0-0.21","3024238","co37567","norming","","","","","","",""
"null","../img/tt/1226tt.jpg","null","mooney1","image-keyboard-response","154","767744","0.0-6.0-1.21","3024238","co37567","norming","","","","","","",""
"3682.8649999999907","","","post_mooney1_questions","survey-likert","155","771430","0.0-6.0-2.21","3024238","co37567","norming","","","{""curiosity"":6,""confidence"":0}","[0,1]","../img/tt/1226tt.jpg","",""
"757.8850000000093","","","recognition","survey-text","156","772189","0.0-6.0-3.21","3024238","co37567","norming","","","{""guess"":""""}","","../img/tt/1226tt.jpg","",""
"null","../img/gs/1226gs.jpg","null","reveal","image-keyboard-response","157","774194","0.0-6.0-4.21","3024238","co37567","norming","","","","","","",""
"null","../img/tt/1226tt.jpg","null","mooney2","image-keyboard-response","158","776204","0.0-6.0-5.21","3024238","co37567","norming","","","","","","",""
"2887.3699999999953","","","post_reveal_questions","survey-likert","159","779093","0.0-6.0-6.21","3024238","co37567","norming","","","{""aha"":6}","[0]","../img/tt/1226tt.jpg","",""
"null","<div style=""font-size:60px;""> </div>","null","fixation","html-keyboard-response","160","779303","0.0-6.0-0.22","3024238","co37567","norming","","","","","","",""
"null","../img/tt/435tt.jpg","null","mooney1","image-keyboard-response","161","782309","0.0-6.0-1.22","3024238","co37567","norming","","","","","","",""
"5109.184999999823","","","post_mooney1_questions","survey-likert","162","787421","0.0-6.0-2.22","3024238","co37567","norming","","","{""curiosity"":4,""confidence"":1}","[0,1]","../img/tt/435tt.jpg","",""
"2798.0049999998882","","","recognition","survey-text","163","790221","0.0-6.0-3.22","3024238","co37567","norming","","","{""guess"":""woonkamer""}","","../img/tt/435tt.jpg","",""
"null","../img/gs/435gs.jpg","null","reveal","image-keyboard-response","164","792223","0.0-6.0-4.22","3024238","co37567","norming","","","","","","",""
"null","../img/tt/435tt.jpg","null","mooney2","image-keyboard-response","165","794227","0.0-6.0-5.22","3024238","co37567","norming","","","","","","",""
"2999.855000000098","","","post_reveal_questions","survey-likert","166","797229","0.0-6.0-6.22","3024238","co37567","norming","","","{""aha"":4}","[0]","../img/tt/435tt.jpg","",""
"null","<div style=""font-size:60px;""> </div>","null","fixation","html-keyboard-response","167","797437","0.0-6.0-0.23","3024238","co37567","norming","","","","","","",""
"null","../img/tt/1123tt.jpg","null","mooney1","image-keyboard-response","168","800443","0.0-6.0-1.23","3024238","co37567","norming","","","","","","",""
"3775.8950000000186","","","post_mooney1_questions","survey-likert","169","804222","0.0-6.0-2.23","3024238","co37567","norming","","","{""curiosity"":3,""confidence"":2}","[0,1]","../img/tt/1123tt.jpg","",""
"2718.105000000098","","","recognition","survey-text","170","806941","0.0-6.0-3.23","3024238","co37567","norming","","","{""guess"":""basketbal""}","","../img/tt/1123tt.jpg","",""
"null","../img/gs/1123gs.jpg","null","reveal","image-keyboard-response","171","808945","0.0-6.0-4.23","3024238","co37567","norming","","","","","","",""
"null","../img/tt/1123tt.jpg","null","mooney2","image-keyboard-response","172","810948","0.0-6.0-5.23","3024238","co37567","norming","","","","","","",""
"2790.609999999986","","","post_reveal_questions","survey-likert","173","813741","0.0-6.0-6.23","3024238","co37567","norming","","","{""aha"":4}","[0]","../img/tt/1123tt.jpg","",""
"null","<div style=""font-size:60px;""> </div>","null","fixation","html-keyboard-response","174","813952","0.0-6.0-0.24","3024238","co37567","norming","","","","","","",""
"null","../img/tt/552tt.jpg","null","mooney1","image-keyboard-response","175","816955","0.0-6.0-1.24","3024238","co37567","norming","","","","","","",""
"9135.494999999995","","","post_mooney1_questions","survey-likert","176","826094","0.0-6.0-2.24","3024238","co37567","norming","","","{""curiosity"":4,""confidence"":1}","[0,1]","../img/tt/552tt.jpg","",""
"2622.0050000000047","","","recognition","survey-text","177","828717","0.0-6.0-3.24","3024238","co37567","norming","","","{""guess"":""dier""}","","../img/tt/552tt.jpg","",""
"null","../img/gs/552gs.jpg","null","reveal","image-keyboard-response","178","830726","0.0-6.0-4.24","3024238","co37567","norming","","","","","","",""
"null","../img/tt/552tt.jpg","null","mooney2","image-keyboard-response","179","832732","0.0-6.0-5.24","3024238","co37567","norming","","","","","","",""
"3896.1350000000093","","","post_reveal_questions","survey-likert","180","836629","0.0-6.0-6.24","3024238","co37567","norming","","","{""aha"":3}","[0]","../img/tt/552tt.jpg","",""
"null","<div style=""font-size:60px;""> </div>","null","fixation","html-keyboard-response","181","836832","0.0-6.0-0.25","3024238","co37567","norming","","","","","","",""
"null","../img/tt/032tt.jpg","null","mooney1","image-keyboard-response","182","839844","0.0-6.0-1.25","3024238","co37567","norming","","","","","","",""
"6998.849999999977","","","post_mooney1_questions","survey-likert","183","846846","0.0-6.0-2.25","3024238","co37567","norming","","","{""curiosity"":4,""confidence"":1}","[0,1]","../img/tt/032tt.jpg","",""
"4654.20000000007","","","recognition","survey-text","184","851502","0.0-6.0-3.25","3024238","co37567","norming","","","{""guess"":""slang""}","","../img/tt/032tt.jpg","",""
"null","../img/gs/032gs.jpg","null","reveal","image-keyboard-response","185","853504","0.0-6.0-4.25","3024238","co37567","norming","","","","","","",""
"null","../img/tt/032tt.jpg","null","mooney2","image-keyboard-response","186","855510","0.0-6.0-5.25","3024238","co37567","norming","","","","","","",""
"3252.95000000007","","","post_reveal_questions","survey-likert","187","858762","0.0-6.0-6.25","3024238","co37567","norming","","","{""aha"":4}","[0]","../img/tt/032tt.jpg","",""
"null","<div style=""font-size:60px;""> </div>","null","fixation","html-keyboard-response","188","858967","0.0-6.0-0.26","3024238","co37567","norming","","","","","","",""
"null","../img/tt/307tt.jpg","null","mooney1","image-keyboard-response","189","861970","0.0-6.0-1.26","3024238","co37567","norming","","","","","","",""
"3948.460000000079","","","post_mooney1_questions","survey-likert","190","865922","0.0-6.0-2.26","3024238","co37567","norming","","","{""curiosity"":3,""confidence"":3}","[0,1]","../img/tt/307tt.jpg","",""
"3910.109999999986","","","recognition","survey-text","191","869834","0.0-6.0-3.26","3024238","co37567","norming","","","{""guess"":""schildpad""}","","../img/tt/307tt.jpg","",""
"null","../img/gs/307gs.jpg","null","reveal","image-keyboard-response","192","871836","0.0-6.0-4.26","3024238","co37567","norming","","","","","","",""
"null","../img/tt/307tt.jpg","null","mooney2","image-keyboard-response","193","873838","0.0-6.0-5.26","3024238","co37567","norming","","","","","","",""
"2889.350000000093","","","post_reveal_questions","survey-likert","194","876729","0.0-6.0-6.26","3024238","co37567","norming","","","{""aha"":1}","[0]","../img/tt/307tt.jpg","",""
"null","<div style=""font-size:60px;""> </div>","null","fixation","html-keyboard-response","195","876934","0.0-6.0-0.27","3024238","co37567","norming","","","","","","",""
"null","../img/tt/468tt.jpg","null","mooney1","image-keyboard-response","196","879945","0.0-6.0-1.27","3024238","co37567","norming","","","","","","",""
"7742.305000000168","","","post_mooney1_questions","survey-likert","197","887690","0.0-6.0-2.27","3024238","co37567","norming","","","{""curiosity"":4,""confidence"":1}","[0,1]","../img/tt/468tt.jpg","",""
"4909.890000000014","","","recognition","survey-text","198","892601","0.0-6.0-3.27","3024238","co37567","norming","","","{""guess"":""hoed""}","","../img/tt/468tt.jpg","",""
"null","../img/gs/468gs.jpg","null","reveal","image-keyboard-response","199","894607","0.0-6.0-4.27","3024238","co37567","norming","","","","","","",""
"null","../img/tt/468tt.jpg","null","mooney2","image-keyboard-response","200","896610","0.0-6.0-5.27","3024238","co37567","norming","","","","","","",""
"3086.8450000000885","","","post_reveal_questions","survey-likert","201","899698","0.0-6.0-6.27","3024238","co37567","norming","","","{""aha"":5}","[0]","../img/tt/468tt.jpg","",""
"null","<div style=""font-size:60px;""> </div>","null","fixation","html-keyboard-response","202","899900","0.0-6.0-0.28","3024238","co37567","norming","","","","","","",""
"null","../img/tt/111tt.jpg","null","mooney1","image-keyboard-response","203","902906","0.0-6.0-1.28","3024238","co37567","norming","","","","","","",""
"6156.260000000009","","","post_mooney1_questions","survey-likert","204","909066","0.0-6.0-2.28","3024238","co37567","norming","","","{""curiosity"":3,""confidence"":1}","[0,1]","../img/tt/111tt.jpg","",""
"2110.0450000001583","","","recognition","survey-text","205","911178","0.0-6.0-3.28","3024238","co37567","norming","","","{""guess"":""taart""}","","../img/tt/111tt.jpg","",""
"null","../img/gs/111gs.jpg","null","reveal","image-keyboard-response","206","913182","0.0-6.0-4.28","3024238","co37567","norming","","","","","","",""
"null","../img/tt/111tt.jpg","null","mooney2","image-keyboard-response","207","915185","0.0-6.0-5.28","3024238","co37567","norming","","","","","","",""
"4879.425000000047","","","post_reveal_questions","survey-likert","208","920064","0.0-6.0-6.28","3024238","co37567","norming","","","{""aha"":5}","[0]","../img/tt/111tt.jpg","",""
"null","<div style=""font-size:60px;""> </div>","null","fixation","html-keyboard-response","209","920268","0.0-6.0-0.29","3024238","co37567","norming","","","","","","",""
"null","../img/tt/1186tt.jpg","null","mooney1","image-keyboard-response","210","923278","0.0-6.0-1.29","3024238","co37567","norming","","","","","","",""
"6169.114999999991","","","post_mooney1_questions","survey-likert","211","929448","0.0-6.0-2.29","3024238","co37567","norming","","","{""curiosity"":3,""confidence"":1}","[0,1]","../img/tt/1186tt.jpg","",""
"3357.6450000000186","","","recognition","survey-text","212","932808","0.0-6.0-3.29","3024238","co37567","norming","","","{""guess"":""wandelaar""}","","../img/tt/1186tt.jpg","",""
"null","../img/gs/1186gs.jpg","null","reveal","image-keyboard-response","213","934814","0.0-6.0-4.29","3024238","co37567","norming","","","","","","",""
"null","../img/tt/1186tt.jpg","null","mooney2","image-keyboard-response","214","936825","0.0-6.0-5.29","3024238","co37567","norming","","","","","","",""
"4310.719999999972","","","post_reveal_questions","survey-likert","215","941136","0.0-6.0-6.29","3024238","co37567","norming","","","{""aha"":3}","[0]","../img/tt/1186tt.jpg","",""
"null","<div style=""font-size:60px;""> </div>","null","fixation","html-keyboard-response","216","941340","0.0-6.0-0.30","3024238","co37567","norming","","","","","","",""
"null","../img/tt/440tt.jpg","null","mooney1","image-keyboard-response","217","944341","0.0-6.0-1.30","3024238","co37567","norming","","","","","","",""
"3505.695000000065","","","post_mooney1_questions","survey-likert","218","947848","0.0-6.0-2.30","3024238","co37567","norming","","","{""curiosity"":4,""confidence"":1}","[0,1]","../img/tt/440tt.jpg","",""
"2925.964999999851","","","recognition","survey-text","219","950776","0.0-6.0-3.30","3024238","co37567","norming","","","{""guess"":""speeltuin""}","","../img/tt/440tt.jpg","",""
"null","../img/gs/440gs.jpg","null","reveal","image-keyboard-response","220","952779","0.0-6.0-4.30","3024238","co37567","norming","","","","","","",""
"null","../img/tt/440tt.jpg","null","mooney2","image-keyboard-response","221","954788","0.0-6.0-5.30","3024238","co37567","norming","","","","","","",""
"2739.430000000051","","","post_reveal_questions","survey-likert","222","957528","0.0-6.0-6.30","3024238","co37567","norming","","","{""aha"":6}","[0]","../img/tt/440tt.jpg","",""
"null","<div style=""font-size:60px;""> </div>","null","fixation","html-keyboard-response","223","957738","0.0-6.0-0.31","3024238","co37567","norming","","","","","","",""
"null","../img/tt/1012tt.jpg","null","mooney1","image-keyboard-response","224","960742","0.0-6.0-1.31","3024238","co37567","norming","","","","","","",""
"7368.854999999981","","","post_mooney1_questions","survey-likert","225","968112","0.0-6.0-2.31","3024238","co37567","norming","","","{""curiosity"":1,""confidence"":1}","[0,1]","../img/tt/1012tt.jpg","",""
"2757.984999999986","","","recognition","survey-text","226","970872","0.0-6.0-3.31","3024238","co37567","norming","","","{""guess"":""struik""}","","../img/tt/1012tt.jpg","",""
"null","../img/gs/1012gs.jpg","null","reveal","image-keyboard-response","227","972874","0.0-6.0-4.31","3024238","co37567","norming","","","","","","",""
"null","../img/tt/1012tt.jpg","null","mooney2","image-keyboard-response","228","974877","0.0-6.0-5.31","3024238","co37567","norming","","","","","","",""
"1961.759999999893","","","post_reveal_questions","survey-likert","229","976840","0.0-6.0-6.31","3024238","co37567","norming","","","{""aha"":6}","[0]","../img/tt/1012tt.jpg","",""
"null","<div style=""font-size:60px;""> </div>","null","fixation","html-keyboard-response","230","977048","0.0-6.0-0.32","3024238","co37567","norming","","","","","","",""
"null","../img/tt/1091tt.jpg","null","mooney1","image-keyboard-response","231","980063","0.0-6.0-1.32","3024238","co37567","norming","","","","","","",""
"6786.630000000005","","","post_mooney1_questions","survey-likert","232","986850","0.0-6.0-2.32","3024238","co37567","norming","","","{""curiosity"":4,""confidence"":2}","[0,1]","../img/tt/1091tt.jpg","",""
"3357.670000000042","","","recognition","survey-text","233","990210","0.0-6.0-3.32","3024238","co37567","norming","","","{""guess"":""paard""}","","../img/tt/1091tt.jpg","",""
"null","../img/gs/1091gs.jpg","null","reveal","image-keyboard-response","234","992219","0.0-6.0-4.32","3024238","co37567","norming","","","","","","",""
"null","../img/tt/1091tt.jpg","null","mooney2","image-keyboard-response","235","994222","0.0-6.0-5.32","3024238","co37567","norming","","","","","","",""
"3274.9949999999953","","","post_reveal_questions","survey-likert","236","997498","0.0-6.0-6.32","3024238","co37567","norming","","","{""aha"":2}","[0]","../img/tt/1091tt.jpg","",""
"null","<div style=""font-size:60px;""> </div>","null","fixation","html-keyboard-response","237","997703","0.0-6.0-0.33","3024238","co37567","norming","","","","","","",""
"null","../img/tt/1224tt.jpg","null","mooney1","image-keyboard-response","238","1000710","0.0-6.0-1.33","3024238","co37567","norming","","","","","","",""
"11339.590000000084","","","post_mooney1_questions","survey-likert","239","1012051","0.0-6.0-2.33","3024238","co37567","norming","","","{""curiosity"":5,""confidence"":1}","[0,1]","../img/tt/1224tt.jpg","",""
"2093.8450000000885","","","recognition","survey-text","240","1014146","0.0-6.0-3.33","3024238","co37567","norming","","","{""guess"":""mens""}","","../img/tt/1224tt.jpg","",""
"null","../img/gs/1224gs.jpg","null","reveal","image-keyboard-response","241","1016153","0.0-6.0-4.33","3024238","co37567","norming","","","","","","",""
"null","../img/tt/1224tt.jpg","null","mooney2","image-keyboard-response","242","1018162","0.0-6.0-5.33","3024238","co37567","norming","","","","","","",""
"3165.6300000000047","","","post_reveal_questions","survey-likert","243","1021331","0.0-6.0-6.33","3024238","co37567","norming","","","{""aha"":4}","[0]","../img/tt/1224tt.jpg","",""
"null","<div style=""font-size:60px;""> </div>","null","fixation","html-keyboard-response","244","1021534","0.0-6.0-0.34","3024238","co37567","norming","","","","","","",""
"null","../img/tt/1156tt.jpg","null","mooney1","image-keyboard-response","245","1024542","0.0-6.0-1.34","3024238","co37567","norming","","","","","","",""
"9177.375","","","post_mooney1_questions","survey-likert","246","1033723","0.0-6.0-2.34","3024238","co37567","norming","","","{""curiosity"":3,""confidence"":1}","[0,1]","../img/tt/1156tt.jpg","",""
"4949.775000000023","","","recognition","survey-text","247","1038674","0.0-6.0-3.34","3024238","co37567","norming","","","{""guess"":""slapend dier""}","","../img/tt/1156tt.jpg","",""
"null","../img/gs/1156gs.jpg","null","reveal","image-keyboard-response","248","1040685","0.0-6.0-4.34","3024238","co37567","norming","","","","","","",""
"null","../img/tt/1156tt.jpg","null","mooney2","image-keyboard-response","249","1042692","0.0-6.0-5.34","3024238","co37567","norming","","","","","","",""
"2511.289999999921","","","post_reveal_questions","survey-likert","250","1045204","0.0-6.0-6.34","3024238","co37567","norming","","","{""aha"":5}","[0]","../img/tt/1156tt.jpg","",""
"null","<div style=""font-size:60px;""> </div>","null","fixation","html-keyboard-response","251","1045413","0.0-6.0-0.35","3024238","co37567","norming","","","","","","",""
"null","../img/tt/1276tt.jpg","null","mooney1","image-keyboard-response","252","1048416","0.0-6.0-1.35","3024238","co37567","norming","","","","","","",""
"7265.110000000102","","","post_mooney1_questions","survey-likert","253","1055685","0.0-6.0-2.35","3024238","co37567","norming","","","{""curiosity"":5,""confidence"":0}","[0,1]","../img/tt/1276tt.jpg","",""
"725.6999999999534","","","recognition","survey-text","254","1056412","0.0-6.0-3.35","3024238","co37567","norming","","","{""guess"":""""}","","../img/tt/1276tt.jpg","",""
"null","../img/gs/1276gs.jpg","null","reveal","image-keyboard-response","255","1058418","0.0-6.0-4.35","3024238","co37567","norming","","","","","","",""
"null","../img/tt/1276tt.jpg","null","mooney2","image-keyboard-response","256","1060421","0.0-6.0-5.35","3024238","co37567","norming","","","","","","",""
"2052.6699999999255","","","post_reveal_questions","survey-likert","257","1062476","0.0-6.0-6.35","3024238","co37567","norming","","","{""aha"":6}","[0]","../img/tt/1276tt.jpg","",""
"null","<div style=""font-size:60px;""> </div>","null","fixation","html-keyboard-response","258","1062685","0.0-6.0-0.36","3024238","co37567","norming","","","","","","",""
"null","../img/tt/108tt.jpg","null","mooney1","image-keyboard-response","259","1065690","0.0-6.0-1.36","3024238","co37567","norming","","","","","","",""
"5967.344999999972","","","post_mooney1_questions","survey-likert","260","1071661","0.0-6.0-2.36","3024238","co37567","norming","","","{""curiosity"":4,""confidence"":1}","[0,1]","../img/tt/108tt.jpg","",""
"2742.189999999944","","","recognition","survey-text","261","1074404","0.0-6.0-3.36","3024238","co37567","norming","","","{""guess"":""struik""}","","../img/tt/108tt.jpg","",""
"null","../img/gs/108gs.jpg","null","reveal","image-keyboard-response","262","1076414","0.0-6.0-4.36","3024238","co37567","norming","","","","","","",""
"null","../img/tt/108tt.jpg","null","mooney2","image-keyboard-response","263","1078417","0.0-6.0-5.36","3024238","co37567","norming","","","","","","",""
"1848.839999999851","","","post_reveal_questions","survey-likert","264","1080268","0.0-6.0-6.36","3024238","co37567","norming","","","{""aha"":2}","[0]","../img/tt/108tt.jpg","",""
"null","<div style=""font-size:60px;""> </div>","null","fixation","html-keyboard-response","265","1080478","0.0-6.0-0.37","3024238","co37567","norming","","","","","","",""
"null","../img/tt/1254tt.jpg","null","mooney1","image-keyboard-response","266","1083486","0.0-6.0-1.37","3024238","co37567","norming","","","","","","",""
"5123.305000000168","","","post_mooney1_questions","survey-likert","267","1088612","0.0-6.0-2.37","3024238","co37567","norming","","","{""curiosity"":5,""confidence"":1}","[0,1]","../img/tt/1254tt.jpg","",""
"3006.285000000149","","","recognition","survey-text","268","1091620","0.0-6.0-3.37","3024238","co37567","norming","","","{""guess"":""konijn""}","","../img/tt/1254tt.jpg","",""
"null","../img/gs/1254gs.jpg","null","reveal","image-keyboard-response","269","1093631","0.0-6.0-4.37","3024238","co37567","norming","","","","","","",""
"null","../img/tt/1254tt.jpg","null","mooney2","image-keyboard-response","270","1095641","0.0-6.0-5.37","3024238","co37567","norming","","","","","","",""
"3136.804999999935","","","post_reveal_questions","survey-likert","271","1098781","0.0-6.0-6.37","3024238","co37567","norming","","","{""aha"":4}","[0]","../img/tt/1254tt.jpg","",""
"null","<div style=""font-size:60px;""> </div>","null","fixation","html-keyboard-response","272","1098988","0.0-6.0-0.38","3024238","co37567","norming","","","","","","",""
"null","../img/tt/497tt.jpg","null","mooney1","image-keyboard-response","273","1101998","0.0-6.0-1.38","3024238","co37567","norming","","","","","","",""
"8628.940000000177","","","post_mooney1_questions","survey-likert","274","1110630","0.0-6.0-2.38","3024238","co37567","norming","","","{""curiosity"":5,""confidence"":2}","[0,1]","../img/tt/497tt.jpg","",""
"1582.285000000149","","","recognition","survey-text","275","1112214","0.0-6.0-3.38","3024238","co37567","norming","","","{""guess"":""boot""}","","../img/tt/497tt.jpg","",""
"null","../img/gs/497gs.jpg","null","reveal","image-keyboard-response","276","1114219","0.0-6.0-4.38","3024238","co37567","norming","","","","","","",""
"null","../img/tt/497tt.jpg","null","mooney2","image-keyboard-response","277","1116222","0.0-6.0-5.38","3024238","co37567","norming","","","","","","",""
"1669.755000000121","","","post_reveal_questions","survey-likert","278","1117894","0.0-6.0-6.38","3024238","co37567","norming","","","{""aha"":5}","[0]","../img/tt/497tt.jpg","",""
"null","<div style=""font-size:60px;""> </div>","null","fixation","html-keyboard-response","279","1118098","0.0-6.0-0.39","3024238","co37567","norming","","","","","","",""
"null","../img/tt/055tt.jpg","null","mooney1","image-keyboard-response","280","1121107","0.0-6.0-1.39","3024238","co37567","norming","","","","","","",""
"7329.910000000149","","","post_mooney1_questions","survey-likert","281","1128438","0.0-6.0-2.39","3024238","co37567","norming","","","{""curiosity"":4,""confidence"":1}","[0,1]","../img/tt/055tt.jpg","",""
"2782.1150000002235","","","recognition","survey-text","282","1131222","0.0-6.0-3.39","3024238","co37567","norming","","","{""guess"":""trommel""}","","../img/tt/055tt.jpg","",""
"null","../img/gs/055gs.jpg","null","reveal","image-keyboard-response","283","1133225","0.0-6.0-4.39","3024238","co37567","norming","","","","","","",""
"null","../img/tt/055tt.jpg","null","mooney2","image-keyboard-response","284","1135228","0.0-6.0-5.39","3024238","co37567","norming","","","","","","",""
"2127.535000000149","","","post_reveal_questions","survey-likert","285","1137358","0.0-6.0-6.39","3024238","co37567","norming","","","{""aha"":5}","[0]","../img/tt/055tt.jpg","",""
"null","<div style=""font-size:60px;""> </div>","null","fixation","html-keyboard-response","286","1137561","0.0-6.0-0.40","3024238","co37567","norming","","","","","","",""
"null","../img/tt/1235tt.jpg","null","mooney1","image-keyboard-response","287","1140570","0.0-6.0-1.40","3024238","co37567","norming","","","","","","",""
"5328.674999999814","","","post_mooney1_questions","survey-likert","288","1145902","0.0-6.0-2.40","3024238","co37567","norming","","","{""curiosity"":3,""confidence"":1}","[0,1]","../img/tt/1235tt.jpg","",""
"4390.054999999935","","","recognition","survey-text","289","1150294","0.0-6.0-3.40","3024238","co37567","norming","","","{""guess"":""stoel""}","","../img/tt/1235tt.jpg","",""
"null","../img/gs/1235gs.jpg","null","reveal","image-keyboard-response","290","1152297","0.0-6.0-4.40","3024238","co37567","norming","","","","","","",""
"null","../img/tt/1235tt.jpg","null","mooney2","image-keyboard-response","291","1154299","0.0-6.0-5.40","3024238","co37567","norming","","","","","","",""
"2120.5200000000186","","","post_reveal_questions","survey-likert","292","1156422","0.0-6.0-6.40","3024238","co37567","norming","","","{""aha"":4}","[0]","../img/tt/1235tt.jpg","",""
"null","<div style=""font-size:60px;""> </div>","null","fixation","html-keyboard-response","293","1156624","0.0-6.0-0.41","3024238","co37567","norming","","","","","","",""
"null","../img/tt/135tt.jpg","null","mooney1","image-keyboard-response","294","1159634","0.0-6.0-1.41","3024238","co37567","norming","","","","","","",""
"3825.2900000000373","","","post_mooney1_questions","survey-likert","295","1163464","0.0-6.0-2.41","3024238","co37567","norming","","","{""curiosity"":2,""confidence"":3}","[0,1]","../img/tt/135tt.jpg","",""
"5213.760000000009","","","recognition","survey-text","296","1168680","0.0-6.0-3.41","3024238","co37567","norming","","","{""guess"":""toilet""}","","../img/tt/135tt.jpg","",""
"null","../img/gs/135gs.jpg","null","reveal","image-keyboard-response","297","1170684","0.0-6.0-4.41","3024238","co37567","norming","","","","","","",""
"null","../img/tt/135tt.jpg","null","mooney2","image-keyboard-response","298","1172694","0.0-6.0-5.41","3024238","co37567","norming","","","","","","",""
"1913.5000000002328","","","post_reveal_questions","survey-likert","299","1174608","0.0-6.0-6.41","3024238","co37567","norming","","","{""aha"":2}","[0]","../img/tt/135tt.jpg","",""
"null","<div style=""font-size:60px;""> </div>","null","fixation","html-keyboard-response","300","1174816","0.0-6.0-0.42","3024238","co37567","norming","","","","","","",""
"null","../img/tt/517tt.jpg","null","mooney1","image-keyboard-response","301","1177820","0.0-6.0-1.42","3024238","co37567","norming","","","","","","",""
"5488.659999999916","","","post_mooney1_questions","survey-likert","302","1183312","0.0-6.0-2.42","3024238","co37567","norming","","","{""curiosity"":3,""confidence"":2}","[0,1]","../img/tt/517tt.jpg","",""
"5686.084999999963","","","recognition","survey-text","303","1189000","0.0-6.0-3.42","3024238","co37567","norming","","","{""guess"":""beer""}","","../img/tt/517tt.jpg","",""
"null","../img/gs/517gs.jpg","null","reveal","image-keyboard-response","304","1191001","0.0-6.0-4.42","3024238","co37567","norming","","","","","","",""
"null","../img/tt/517tt.jpg","null","mooney2","image-keyboard-response","305","1193005","0.0-6.0-5.42","3024238","co37567","norming","","","","","","",""
"3053.875","","","post_reveal_questions","survey-likert","306","1196064","0.0-6.0-6.42","3024238","co37567","norming","","","{""aha"":2}","[0]","../img/tt/517tt.jpg","",""
"null","<div style=""font-size:60px;""> </div>","null","fixation","html-keyboard-response","307","1196271","0.0-6.0-0.43","3024238","co37567","norming","","","","","","",""
"null","../img/tt/140tt.jpg","null","mooney1","image-keyboard-response","308","1199280","0.0-6.0-1.43","3024238","co37567","norming","","","","","","",""
"3477.0800000000745","","","post_mooney1_questions","survey-likert","309","1202760","0.0-6.0-2.43","3024238","co37567","norming","","","{""curiosity"":3,""confidence"":2}","[0,1]","../img/tt/140tt.jpg","",""
"2734.25","","","recognition","survey-text","310","1205496","0.0-6.0-3.43","3024238","co37567","norming","","","{""guess"":""bestek""}","","../img/tt/140tt.jpg","",""
"null","../img/gs/140gs.jpg","null","reveal","image-keyboard-response","311","1207501","0.0-6.0-4.43","3024238","co37567","norming","","","","","","",""
"null","../img/tt/140tt.jpg","null","mooney2","image-keyboard-response","312","1209503","0.0-6.0-5.43","3024238","co37567","norming","","","","","","",""
"4348.755000000121","","","post_reveal_questions","survey-likert","313","1213856","0.0-6.0-6.43","3024238","co37567","norming","","","{""aha"":2}","[0]","../img/tt/140tt.jpg","",""
"null","<div style=""font-size:60px;""> </div>","null","fixation","html-keyboard-response","314","1214057","0.0-6.0-0.44","3024238","co37567","norming","","","","","","",""
"null","../img/tt/1061tt.jpg","null","mooney1","image-keyboard-response","315","1217070","0.0-6.0-1.44","3024238","co37567","norming","","","","","","",""
"8399.250000000233","","","post_mooney1_questions","survey-likert","316","1225473","0.0-6.0-2.44","3024238","co37567","norming","","","{""curiosity"":4,""confidence"":2}","[0,1]","../img/tt/1061tt.jpg","",""
"6854.145000000019","","","recognition","survey-text","317","1232329","0.0-6.0-3.44","3024238","co37567","norming","","","{""guess"":""picknick weide""}","","../img/tt/1061tt.jpg","",""
"null","../img/gs/1061gs.jpg","null","reveal","image-keyboard-response","318","1234340","0.0-6.0-4.44","3024238","co37567","norming","","","","","","",""
"null","../img/tt/1061tt.jpg","null","mooney2","image-keyboard-response","319","1236349","0.0-6.0-5.44","3024238","co37567","norming","","","","","","",""
"3217.0200000000186","","","post_reveal_questions","survey-likert","320","1239569","0.0-6.0-6.44","3024238","co37567","norming","","","{""aha"":2}","[0]","../img/tt/1061tt.jpg","",""
"null","<div style=""font-size:60px;""> </div>","null","fixation","html-keyboard-response","321","1239777","0.0-6.0-0.45","3024238","co37567","norming","","","","","","",""
"null","../img/tt/300tt.jpg","null","mooney1","image-keyboard-response","322","1242784","0.0-6.0-1.45","3024238","co37567","norming","","","","","","",""
"6311.209999999963","","","post_mooney1_questions","survey-likert","323","1249097","0.0-6.0-2.45","3024238","co37567","norming","","","{""curiosity"":3,""confidence"":1}","[0,1]","../img/tt/300tt.jpg","",""
"2110.1550000002608","","","recognition","survey-text","324","1251209","0.0-6.0-3.45","3024238","co37567","norming","","","{""guess"":""giraf""}","","../img/tt/300tt.jpg","",""
"null","../img/gs/300gs.jpg","null","reveal","image-keyboard-response","325","1253215","0.0-6.0-4.45","3024238","co37567","norming","","","","","","",""
"null","../img/tt/300tt.jpg","null","mooney2","image-keyboard-response","326","1255217","0.0-6.0-5.45","3024238","co37567","norming","","","","","","",""
"3125.0200000002515","","","post_reveal_questions","survey-likert","327","1258345","0.0-6.0-6.45","3024238","co37567","norming","","","{""aha"":6}","[0]","../img/tt/300tt.jpg","",""
"null","<div style=""font-size:60px;""> </div>","null","fixation","html-keyboard-response","328","1258549","0.0-6.0-0.46","3024238","co37567","norming","","","","","","",""
"null","../img/tt/1161tt.jpg","null","mooney1","image-keyboard-response","329","1261555","0.0-6.0-1.46","3024238","co37567","norming","","","","","","",""
"7194.375000000233","","","post_mooney1_questions","survey-likert","330","1268753","0.0-6.0-2.46","3024238","co37567","norming","","","{""curiosity"":5,""confidence"":1}","[0,1]","../img/tt/1161tt.jpg","",""
"3109.9850000001024","","","recognition","survey-text","331","1271865","0.0-6.0-3.46","3024238","co37567","norming","","","{""guess"":""wandelaar""}","","../img/tt/1161tt.jpg","",""
"null","../img/gs/1161gs.jpg","null","reveal","image-keyboard-response","332","1273867","0.0-6.0-4.46","3024238","co37567","norming","","","","","","",""
"null","../img/tt/1161tt.jpg","null","mooney2","image-keyboard-response","333","1275871","0.0-6.0-5.46","3024238","co37567","norming","","","","","","",""
"2223.739999999758","","","post_reveal_questions","survey-likert","334","1278097","0.0-6.0-6.46","3024238","co37567","norming","","","{""aha"":3}","[0]","../img/tt/1161tt.jpg","",""
"null","<div style=""font-size:60px;""> </div>","null","fixation","html-keyboard-response","335","1278302","0.0-6.0-0.47","3024238","co37567","norming","","","","","","",""
"null","../img/tt/096tt.jpg","null","mooney1","image-keyboard-response","336","1281314","0.0-6.0-1.47","3024238","co37567","norming","","","","","","",""
"4420.195000000065","","","post_mooney1_questions","survey-likert","337","1285739","0.0-6.0-2.47","3024238","co37567","norming","","","{""curiosity"":3,""confidence"":3}","[0,1]","../img/tt/096tt.jpg","",""
"2509.7900000000373","","","recognition","survey-text","338","1288251","0.0-6.0-3.47","3024238","co37567","norming","","","{""guess"":""piano""}","","../img/tt/096tt.jpg","",""
"null","../img/gs/096gs.jpg","null","reveal","image-keyboard-response","339","1290253","0.0-6.0-4.47","3024238","co37567","norming","","","","","","",""
"null","../img/tt/096tt.jpg","null","mooney2","image-keyboard-response","340","1292264","0.0-6.0-5.47","3024238","co37567","norming","","","","","","",""
"2648.5450000001583","","","post_reveal_questions","survey-likert","341","1294915","0.0-6.0-6.47","3024238","co37567","norming","","","{""aha"":1}","[0]","../img/tt/096tt.jpg","",""
"null","<div style=""font-size:60px;""> </div>","null","fixation","html-keyboard-response","342","1295120","0.0-6.0-0.48","3024238","co37567","norming","","","","","","",""
"null","../img/tt/1006tt.jpg","null","mooney1","image-keyboard-response","343","1298126","0.0-6.0-1.48","3024238","co37567","norming","","","","","","",""
"6729.244999999879","","","post_mooney1_questions","survey-likert","344","1304859","0.0-6.0-2.48","3024238","co37567","norming","","","{""curiosity"":2,""confidence"":1}","[0,1]","../img/tt/1006tt.jpg","",""
"2382.029999999795","","","recognition","survey-text","345","1307243","0.0-6.0-3.48","3024238","co37567","norming","","","{""guess"":""huis""}","","../img/tt/1006tt.jpg","",""
"null","../img/gs/1006gs.jpg","null","reveal","image-keyboard-response","346","1309251","0.0-6.0-4.48","3024238","co37567","norming","","","","","","",""
"null","../img/tt/1006tt.jpg","null","mooney2","image-keyboard-response","347","1311257","0.0-6.0-5.48","3024238","co37567","norming","","","","","","",""
"2303.7350000001024","","","post_reveal_questions","survey-likert","348","1313563","0.0-6.0-6.48","3024238","co37567","norming","","","{""aha"":5}","[0]","../img/tt/1006tt.jpg","",""
"null","<div style=""font-size:60px;""> </div>","null","fixation","html-keyboard-response","349","1313773","0.0-6.0-0.49","3024238","co37567","norming","","","","","","",""
"null","../img/tt/1269tt.jpg","null","mooney1","image-keyboard-response","350","1316776","0.0-6.0-1.49","3024238","co37567","norming","","","","","","",""
"4177.735000000102","","","post_mooney1_questions","survey-likert","351","1320955","0.0-6.0-2.49","3024238","co37567","norming","","","{""curiosity"":3,""confidence"":1}","[0,1]","../img/tt/1269tt.jpg","",""
"3997.5949999997392","","","recognition","survey-text","352","1324955","0.0-6.0-3.49","3024238","co37567","norming","","","{""guess"":""bloem""}","","../img/tt/1269tt.jpg","",""
"null","../img/gs/1269gs.jpg","null","reveal","image-keyboard-response","353","1326965","0.0-6.0-4.49","3024238","co37567","norming","","","","","","",""
"null","../img/tt/1269tt.jpg","null","mooney2","image-keyboard-response","354","1328973","0.0-6.0-5.49","3024238","co37567","norming","","","","","","",""
"3260.464999999851","","","post_reveal_questions","survey-likert","355","1332235","0.0-6.0-6.49","3024238","co37567","norming","","","{""aha"":5}","[0]","../img/tt/1269tt.jpg","",""
"null","<div style=""font-size:60px;""> </div>","null","fixation","html-keyboard-response","356","1332441","0.0-6.0-0.50","3024238","co37567","norming","","","","","","",""
"null","../img/tt/1146tt.jpg","null","mooney1","image-keyboard-response","357","1335445","0.0-6.0-1.50","3024238","co37567","norming","","","","","","",""
"4578.969999999972","","","post_mooney1_questions","survey-likert","358","1340027","0.0-6.0-2.50","3024238","co37567","norming","","","{""curiosity"":4,""confidence"":1}","[0,1]","../img/tt/1146tt.jpg","",""
"3310.184999999823","","","recognition","survey-text","359","1343339","0.0-6.0-3.50","3024238","co37567","norming","","","{""guess"":""boogschieter""}","","../img/tt/1146tt.jpg","",""
"null","../img/gs/1146gs.jpg","null","reveal","image-keyboard-response","360","1345341","0.0-6.0-4.50","3024238","co37567","norming","","","","","","",""
"null","../img/tt/1146tt.jpg","null","mooney2","image-keyboard-response","361","1347346","0.0-6.0-5.50","3024238","co37567","norming","","","","","","",""
"3158.3499999998603","","","post_reveal_questions","survey-likert","362","1350507","0.0-6.0-6.50","3024238","co37567","norming","","","{""aha"":1}","[0]","../img/tt/1146tt.jpg","",""
"null","<div style=""font-size:60px;""> </div>","null","fixation","html-keyboard-response","363","1350708","0.0-6.0-0.51","3024238","co37567","norming","","","","","","",""
"null","../img/tt/1205tt.jpg","null","mooney1","image-keyboard-response","364","1353715","0.0-6.0-1.51","3024238","co37567","norming","","","","","","",""
"10885.13500000001","","","post_mooney1_questions","survey-likert","365","1364603","0.0-6.0-2.51","3024238","co37567","norming","","","{""curiosity"":5,""confidence"":1}","[0,1]","../img/tt/1205tt.jpg","",""
"6461.985000000102","","","recognition","survey-text","366","1371067","0.0-6.0-3.51","3024238","co37567","norming","","","{""guess"":""optreden""}","","../img/tt/1205tt.jpg","",""
"null","../img/gs/1205gs.jpg","null","reveal","image-keyboard-response","367","1373068","0.0-6.0-4.51","3024238","co37567","norming","","","","","","",""
"null","../img/tt/1205tt.jpg","null","mooney2","image-keyboard-response","368","1375069","0.0-6.0-5.51","3024238","co37567","norming","","","","","","",""
"2316.79000000027","","","post_reveal_questions","survey-likert","369","1377387","0.0-6.0-6.51","3024238","co37567","norming","","","{""aha"":1}","[0]","../img/tt/1205tt.jpg","",""
"null","<div style=""font-size:60px;""> </div>","null","fixation","html-keyboard-response","370","1377598","0.0-6.0-0.52","3024238","co37567","norming","","","","","","",""
"null","../img/tt/436tt.jpg","null","mooney1","image-keyboard-response","371","1380605","0.0-6.0-1.52","3024238","co37567","norming","","","","","","",""
"4347.469999999972","","","post_mooney1_questions","survey-likert","372","1384955","0.0-6.0-2.52","3024238","co37567","norming","","","{""curiosity"":6,""confidence"":0}","[0,1]","../img/tt/436tt.jpg","",""
"678.0300000000279","","","recognition","survey-text","373","1385635","0.0-6.0-3.52","3024238","co37567","norming","","","{""guess"":""""}","","../img/tt/436tt.jpg","",""
"null","../img/gs/436gs.jpg","null","reveal","image-keyboard-response","374","1387637","0.0-6.0-4.52","3024238","co37567","norming","","","","","","",""
"null","../img/tt/436tt.jpg","null","mooney2","image-keyboard-response","375","1389647","0.0-6.0-5.52","3024238","co37567","norming","","","","","","",""
"3401.570000000065","","","post_reveal_questions","survey-likert","376","1393051","0.0-6.0-6.52","3024238","co37567","norming","","","{""aha"":5}","[0]","../img/tt/436tt.jpg","",""
"null","<div style=""font-size:60px;""> </div>","null","fixation","html-keyboard-response","377","1393256","0.0-6.0-0.53","3024238","co37567","norming","","","","","","",""
"null","../img/tt/1268tt.jpg","null","mooney1","image-keyboard-response","378","1396259","0.0-6.0-1.53","3024238","co37567","norming","","","","","","",""
"4324.754999999888","","","post_mooney1_questions","survey-likert","379","1400587","0.0-6.0-2.53","3024238","co37567","norming","","","{""curiosity"":4,""confidence"":1}","[0,1]","../img/tt/1268tt.jpg","",""
"1966.2050000000745","","","recognition","survey-text","380","1402555","0.0-6.0-3.53","3024238","co37567","norming","","","{""guess"":""dier""}","","../img/tt/1268tt.jpg","",""
"null","../img/gs/1268gs.jpg","null","reveal","image-keyboard-response","381","1404558","0.0-6.0-4.53","3024238","co37567","norming","","","","","","",""
"null","../img/tt/1268tt.jpg","null","mooney2","image-keyboard-response","382","1406567","0.0-6.0-5.53","3024238","co37567","norming","","","","","","",""
"2361.0499999998137","","","post_reveal_questions","survey-likert","383","1408931","0.0-6.0-6.53","3024238","co37567","norming","","","{""aha"":6}","[0]","../img/tt/1268tt.jpg","",""
"null","<div style=""font-size:60px;""> </div>","null","fixation","html-keyboard-response","384","1409132","0.0-6.0-0.54","3024238","co37567","norming","","","","","","",""
"null","../img/tt/1307tt.jpg","null","mooney1","image-keyboard-response","385","1412136","0.0-6.0-1.54","3024238","co37567","norming","","","","","","",""
"4487.60999999987","","","post_mooney1_questions","survey-likert","386","1416627","0.0-6.0-2.54","3024238","co37567","norming","","","{""curiosity"":4,""confidence"":1}","[0,1]","../img/tt/1307tt.jpg","",""
"16773.62999999989","","","recognition","survey-text","387","1433403","0.0-6.0-3.54","3024238","co37567","norming","","","{""guess"":""reuzenrad""}","","../img/tt/1307tt.jpg","",""
"null","../img/gs/1307gs.jpg","null","reveal","image-keyboard-response","388","1435405","0.0-6.0-4.54","3024238","co37567","norming","","","","","","",""
"null","../img/tt/1307tt.jpg","null","mooney2","image-keyboard-response","389","1437407","0.0-6.0-5.54","3024238","co37567","norming","","","","","","",""
"2305.285000000149","","","post_reveal_questions","survey-likert","390","1439715","0.0-6.0-6.54","3024238","co37567","norming","","","{""aha"":5}","[0]","../img/tt/1307tt.jpg","",""
"null","<div style=""font-size:60px;""> </div>","null","fixation","html-keyboard-response","391","1439916","0.0-6.0-0.55","3024238","co37567","norming","","","","","","",""
"null","../img/tt/1232tt.jpg","null","mooney1","image-keyboard-response","392","1442928","0.0-6.0-1.55","3024238","co37567","norming","","","","","","",""
"5920.189999999944","","","post_mooney1_questions","survey-likert","393","1448851","0.0-6.0-2.55","3024238","co37567","norming","","","{""curiosity"":3,""confidence"":1}","[0,1]","../img/tt/1232tt.jpg","",""
"1638.1200000001118","","","recognition","survey-text","394","1450491","0.0-6.0-3.55","3024238","co37567","norming","","","{""guess"":""vis""}","","../img/tt/1232tt.jpg","",""
"null","../img/gs/1232gs.jpg","null","reveal","image-keyboard-response","395","1452493","0.0-6.0-4.55","3024238","co37567","norming","","","","","","",""
"null","../img/tt/1232tt.jpg","null","mooney2","image-keyboard-response","396","1454501","0.0-6.0-5.55","3024238","co37567","norming","","","","","","",""
"4763.190000000177","","","post_reveal_questions","survey-likert","397","1459267","0.0-6.0-6.55","3024238","co37567","norming","","","{""aha"":4}","[0]","../img/tt/1232tt.jpg","",""
"null","<div style=""font-size:60px;""> </div>","null","fixation","html-keyboard-response","398","1459474","0.0-6.0-0.56","3024238","co37567","norming","","","","","","",""
"null","../img/tt/1242tt.jpg","null","mooney1","image-keyboard-response","399","1462484","0.0-6.0-1.56","3024238","co37567","norming","","","","","","",""
"6347.655000000028","","","post_mooney1_questions","survey-likert","400","1468831","0.0-6.0-2.56","3024238","co37567","norming","","","{""curiosity"":2,""confidence"":1}","[0,1]","../img/tt/1242tt.jpg","",""
"2118.2549999998882","","","recognition","survey-text","401","1470951","0.0-6.0-3.56","3024238","co37567","norming","","","{""guess"":""vogel""}","","../img/tt/1242tt.jpg","",""
"null","../img/gs/1242gs.jpg","null","reveal","image-keyboard-response","402","1472954","0.0-6.0-4.56","3024238","co37567","norming","","","","","","",""
"null","../img/tt/1242tt.jpg","null","mooney2","image-keyboard-response","403","1474962","0.0-6.0-5.56","3024238","co37567","norming","","","","","","",""
"2242.5349999996834","","","post_reveal_questions","survey-likert","404","1477207","0.0-6.0-6.56","3024238","co37567","norming","","","{""aha"":2}","[0]","../img/tt/1242tt.jpg","",""
"null","<div style=""font-size:60px;""> </div>","null","fixation","html-keyboard-response","405","1477412","0.0-6.0-0.57","3024238","co37567","norming","","","","","","",""
"null","../img/tt/279tt.jpg","null","mooney1","image-keyboard-response","406","1480413","0.0-6.0-1.57","3024238","co37567","norming","","","","","","",""
"3760.8600000001024","","","post_mooney1_questions","survey-likert","407","1484176","0.0-6.0-2.57","3024238","co37567","norming","","","{""curiosity"":2,""confidence"":3}","[0,1]","../img/tt/279tt.jpg","",""
"2597.9599999999627","","","recognition","survey-text","408","1486775","0.0-6.0-3.57","3024238","co37567","norming","","","{""guess"":""koala""}","","../img/tt/279tt.jpg","",""
"null","../img/gs/279gs.jpg","null","reveal","image-keyboard-response","409","1488777","0.0-6.0-4.57","3024238","co37567","norming","","","","","","",""
"null","../img/tt/279tt.jpg","null","mooney2","image-keyboard-response","410","1490778","0.0-6.0-5.57","3024238","co37567","norming","","","","","","",""
"2771.804999999702","","","post_reveal_questions","survey-likert","411","1493551","0.0-6.0-6.57","3024238","co37567","norming","","","{""aha"":2}","[0]","../img/tt/279tt.jpg","",""
"null","<div style=""font-size:60px;""> </div>","null","fixation","html-keyboard-response","412","1493760","0.0-6.0-0.58","3024238","co37567","norming","","","","","","",""
"null","../img/tt/085tt.jpg","null","mooney1","image-keyboard-response","413","1496764","0.0-6.0-1.58","3024238","co37567","norming","","","","","","",""
"4170.529999999795","","","post_mooney1_questions","survey-likert","414","1500935","0.0-6.0-2.58","3024238","co37567","norming","","","{""curiosity"":4,""confidence"":1}","[0,1]","../img/tt/085tt.jpg","",""
"3005.8350000001956","","","recognition","survey-text","415","1503943","0.0-6.0-3.58","3024238","co37567","norming","","","{""guess"":""vleermuis""}","","../img/tt/085tt.jpg","",""
"null","../img/gs/085gs.jpg","null","reveal","image-keyboard-response","416","1505953","0.0-6.0-4.58","3024238","co37567","norming","","","","","","",""
"null","../img/tt/085tt.jpg","null","mooney2","image-keyboard-response","417","1507964","0.0-6.0-5.58","3024238","co37567","norming","","","","","","",""
"3400.304999999935","","","post_reveal_questions","survey-likert","418","1511367","0.0-6.0-6.58","3024238","co37567","norming","","","{""aha"":4}","[0]","../img/tt/085tt.jpg","",""
"null","<div style=""font-size:60px;""> </div>","null","fixation","html-keyboard-response","419","1511578","0.0-6.0-0.59","3024238","co37567","norming","","","","","","",""
"null","../img/tt/040tt.jpg","null","mooney1","image-keyboard-response","420","1514581","0.0-6.0-1.59","3024238","co37567","norming","","","","","","",""
"5213.685000000289","","","post_mooney1_questions","survey-likert","421","1519800","0.0-6.0-2.59","3024238","co37567","norming","","","{""curiosity"":3,""confidence"":1}","[0,1]","../img/tt/040tt.jpg","",""
"2206.094999999972","","","recognition","survey-text","422","1522007","0.0-6.0-3.59","3024238","co37567","norming","","","{""guess"":""dier""}","","../img/tt/040tt.jpg","",""
"null","../img/gs/040gs.jpg","null","reveal","image-keyboard-response","423","1524010","0.0-6.0-4.59","3024238","co37567","norming","","","","","","",""
"null","../img/tt/040tt.jpg","null","mooney2","image-keyboard-response","424","1526011","0.0-6.0-5.59","3024238","co37567","norming","","","","","","",""
"2345.0550000001676","","","post_reveal_questions","survey-likert","425","1528356","0.0-6.0-6.59","3024238","co37567","norming","","","{""aha"":6}","[0]","../img/tt/040tt.jpg","",""
"null","<div style=""font-size:60px;""> </div>","null","fixation","html-keyboard-response","426","1528557","0.0-6.0-0.60","3024238","co37567","norming","","","","","","",""
"null","../img/tt/1200tt.jpg","null","mooney1","image-keyboard-response","427","1531561","0.0-6.0-1.60","3024238","co37567","norming","","","","","","",""
"11231.960000000196","","","post_mooney1_questions","survey-likert","428","1542796","0.0-6.0-2.60","3024238","co37567","norming","","","{""curiosity"":3,""confidence"":1}","[0,1]","../img/tt/1200tt.jpg","",""
"3845.8950000000186","","","recognition","survey-text","429","1546644","0.0-6.0-3.60","3024238","co37567","norming","","","{""guess"":""auto""}","","../img/tt/1200tt.jpg","",""
"null","../img/gs/1200gs.jpg","null","reveal","image-keyboard-response","430","1548649","0.0-6.0-4.60","3024238","co37567","norming","","","","","","",""
"null","../img/tt/1200tt.jpg","null","mooney2","image-keyboard-response","431","1550659","0.0-6.0-5.60","3024238","co37567","norming","","","","","","",""
"2895.6100000001024","","","post_reveal_questions","survey-likert","432","1553556","0.0-6.0-6.60","3024238","co37567","norming","","","{""aha"":6}","[0]","../img/tt/1200tt.jpg","",""
"null","<div style=""font-size:60px;""> </div>","null","fixation","html-keyboard-response","433","1553765","0.0-6.0-0.61","3024238","co37567","norming","","","","","","",""
"null","../img/tt/031tt.jpg","null","mooney1","image-keyboard-response","434","1556773","0.0-6.0-1.61","3024238","co37567","norming","","","","","","",""
"10910.26000000001","","","post_mooney1_questions","survey-likert","435","1567684","0.0-6.0-2.61","3024238","co37567","norming","","","{""curiosity"":5,""confidence"":1}","[0,1]","../img/tt/031tt.jpg","",""
"13805.680000000168","","","recognition","survey-text","436","1581492","0.0-6.0-3.61","3024238","co37567","norming","","","{""guess"":""pater""}","","../img/tt/031tt.jpg","",""
"null","../img/gs/031gs.jpg","null","reveal","image-keyboard-response","437","1583502","0.0-6.0-4.61","3024238","co37567","norming","","","","","","",""
"null","../img/tt/031tt.jpg","null","mooney2","image-keyboard-response","438","1585511","0.0-6.0-5.61","3024238","co37567","norming","","","","","","",""
"2092.2650000001304","","","post_reveal_questions","survey-likert","439","1587607","0.0-6.0-6.61","3024238","co37567","norming","","","{""aha"":6}","[0]","../img/tt/031tt.jpg","",""
"null","<div style=""font-size:60px;""> </div>","null","fixation","html-keyboard-response","440","1587809","0.0-6.0-0.62","3024238","co37567","norming","","","","","","",""
"null","../img/tt/418tt.jpg","null","mooney1","image-keyboard-response","441","1590819","0.0-6.0-1.62","3024238","co37567","norming","","","","","","",""
"3041.8349999999627","","","post_mooney1_questions","survey-likert","442","1593863","0.0-6.0-2.62","3024238","co37567","norming","","","{""curiosity"":5,""confidence"":1}","[0,1]","../img/tt/418tt.jpg","",""
"1709.8850000000093","","","recognition","survey-text","443","1595575","0.0-6.0-3.62","3024238","co37567","norming","","","{""guess"":""tak""}","","../img/tt/418tt.jpg","",""
"null","../img/gs/418gs.jpg","null","reveal","image-keyboard-response","444","1597577","0.0-6.0-4.62","3024238","co37567","norming","","","","","","",""
"null","../img/tt/418tt.jpg","null","mooney2","image-keyboard-response","445","1599588","0.0-6.0-5.62","3024238","co37567","norming","","","","","","",""
"2504.559999999823","","","post_reveal_questions","survey-likert","446","1602095","0.0-6.0-6.62","3024238","co37567","norming","","","{""aha"":5}","[0]","../img/tt/418tt.jpg","",""
"null","<div style=""font-size:60px;""> </div>","null","fixation","html-keyboard-response","447","1602300","0.0-6.0-0.63","3024238","co37567","norming","","","","","","",""
"null","../img/tt/010tt.jpg","null","mooney1","image-keyboard-response","448","1605303","0.0-6.0-1.63","3024238","co37567","norming","","","","","","",""
"4140.170000000158","","","post_mooney1_questions","survey-likert","449","1609447","0.0-6.0-2.63","3024238","co37567","norming","","","{""curiosity"":5,""confidence"":0}","[0,1]","../img/tt/010tt.jpg","",""
"798.0399999998044","","","recognition","survey-text","450","1610247","0.0-6.0-3.63","3024238","co37567","norming","","","{""guess"":""""}","","../img/tt/010tt.jpg","",""
"null","../img/gs/010gs.jpg","null","reveal","image-keyboard-response","451","1612256","0.0-6.0-4.63","3024238","co37567","norming","","","","","","",""
"null","../img/tt/010tt.jpg","null","mooney2","image-keyboard-response","452","1614265","0.0-6.0-5.63","3024238","co37567","norming","","","","","","",""
"2363.304999999935","","","post_reveal_questions","survey-likert","453","1616631","0.0-6.0-6.63","3024238","co37567","norming","","","{""aha"":6}","[0]","../img/tt/010tt.jpg","",""
"null","<div style=""font-size:60px;""> </div>","null","fixation","html-keyboard-response","454","1616832","0.0-6.0-0.64","3024238","co37567","norming","","","","","","",""
"null","../img/tt/046tt.jpg","null","mooney1","image-keyboard-response","455","1619836","0.0-6.0-1.64","3024238","co37567","norming","","","","","","",""
"8503.985000000102","","","post_mooney1_questions","survey-likert","456","1628343","0.0-6.0-2.64","3024238","co37567","norming","","","{""curiosity"":1,""confidence"":1}","[0,1]","../img/tt/046tt.jpg","",""
"5438.064999999944","","","recognition","survey-text","457","1633783","0.0-6.0-3.64","3024238","co37567","norming","","","{""guess"":""mens""}","","../img/tt/046tt.jpg","",""
"null","../img/gs/046gs.jpg","null","reveal","image-keyboard-response","458","1635787","0.0-6.0-4.64","3024238","co37567","norming","","","","","","",""
"null","../img/tt/046tt.jpg","null","mooney2","image-keyboard-response","459","1637789","0.0-6.0-5.64","3024238","co37567","norming","","","","","","",""
"3423.4399999997113","","","post_reveal_questions","survey-likert","460","1641215","0.0-6.0-6.64","3024238","co37567","norming","","","{""aha"":5}","[0]","../img/tt/046tt.jpg","",""
"null","<div style=""font-size:60px;""> </div>","null","fixation","html-keyboard-response","461","1641422","0.0-6.0-0.65","3024238","co37567","norming","","","","","","",""
"null","../img/tt/496tt.jpg","null","mooney1","image-keyboard-response","462","1644432","0.0-6.0-1.65","3024238","co37567","norming","","","","","","",""
"10060.110000000102","","","post_mooney1_questions","survey-likert","463","1654498","0.0-6.0-2.65","3024238","co37567","norming","","","{""curiosity"":4,""confidence"":1}","[0,1]","../img/tt/496tt.jpg","",""
"4517.985000000102","","","recognition","survey-text","464","1659018","0.0-6.0-3.65","3024238","co37567","norming","","","{""guess"":""hond""}","","../img/tt/496tt.jpg","",""
"null","../img/gs/496gs.jpg","null","reveal","image-keyboard-response","465","1661024","0.0-6.0-4.65","3024238","co37567","norming","","","","","","",""
"null","../img/tt/496tt.jpg","null","mooney2","image-keyboard-response","466","1663026","0.0-6.0-5.65","3024238","co37567","norming","","","","","","",""
"2341.4749999998603","","","post_reveal_questions","survey-likert","467","1665370","0.0-6.0-6.65","3024238","co37567","norming","","","{""aha"":5}","[0]","../img/tt/496tt.jpg","",""
"null","<div style=""font-size:60px;""> </div>","null","fixation","html-keyboard-response","468","1665581","0.0-6.0-0.66","3024238","co37567","norming","","","","","","",""
"null","../img/tt/1070tt.jpg","null","mooney1","image-keyboard-response","469","1668584","0.0-6.0-1.66","3024238","co37567","norming","","","","","","",""
"3766.6149999999907","","","post_mooney1_questions","survey-likert","470","1672354","0.0-6.0-2.66","3024238","co37567","norming","","","{""curiosity"":2,""confidence"":2}","[0,1]","../img/tt/1070tt.jpg","",""
"1974.3050000001676","","","recognition","survey-text","471","1674330","0.0-6.0-3.66","3024238","co37567","norming","","","{""guess"":""eten""}","","../img/tt/1070tt.jpg","",""
"null","../img/gs/1070gs.jpg","null","reveal","image-keyboard-response","472","1676340","0.0-6.0-4.66","3024238","co37567","norming","","","","","","",""
"null","../img/tt/1070tt.jpg","null","mooney2","image-keyboard-response","473","1678343","0.0-6.0-5.66","3024238","co37567","norming","","","","","","",""
"3608.439999999944","","","post_reveal_questions","survey-likert","474","1681954","0.0-6.0-6.66","3024238","co37567","norming","","","{""aha"":4}","[0]","../img/tt/1070tt.jpg","",""
"null","<div style=""font-size:60px;""> </div>","null","fixation","html-keyboard-response","475","1682164","0.0-6.0-0.67","3024238","co37567","norming","","","","","","",""
"null","../img/tt/1353tt.jpg","null","mooney1","image-keyboard-response","476","1685172","0.0-6.0-1.67","3024238","co37567","norming","","","","","","",""
"5907.0449999999255","","","post_mooney1_questions","survey-likert","477","1691082","0.0-6.0-2.67","3024238","co37567","norming","","","{""curiosity"":4,""confidence"":2}","[0,1]","../img/tt/1353tt.jpg","",""
"7789.935000000056","","","recognition","survey-text","478","1698874","0.0-6.0-3.67","3024238","co37567","norming","","","{""guess"":""ring""}","","../img/tt/1353tt.jpg","",""
"null","../img/gs/1353gs.jpg","null","reveal","image-keyboard-response","479","1700880","0.0-6.0-4.67","3024238","co37567","norming","","","","","","",""
"null","../img/tt/1353tt.jpg","null","mooney2","image-keyboard-response","480","1702892","0.0-6.0-5.67","3024238","co37567","norming","","","","","","",""
"4139.910000000149","","","post_reveal_questions","survey-likert","481","1707034","0.0-6.0-6.67","3024238","co37567","norming","","","{""aha"":6}","[0]","../img/tt/1353tt.jpg","",""
"null","<div style=""font-size:60px;""> </div>","null","fixation","html-keyboard-response","482","1707236","0.0-6.0-0.68","3024238","co37567","norming","","","","","","",""
"null","../img/tt/1040tt.jpg","null","mooney1","image-keyboard-response","483","1710247","0.0-6.0-1.68","3024238","co37567","norming","","","","","","",""
"4351.344999999972","","","post_mooney1_questions","survey-likert","484","1714599","0.0-6.0-2.68","3024238","co37567","norming","","","{""curiosity"":3,""confidence"":1}","[0,1]","../img/tt/1040tt.jpg","",""
"1630.1400000001304","","","recognition","survey-text","485","1716230","0.0-6.0-3.68","3024238","co37567","norming","","","{""guess"":""dier""}","","../img/tt/1040tt.jpg","",""
"null","../img/gs/1040gs.jpg","null","reveal","image-keyboard-response","486","1718232","0.0-6.0-4.68","3024238","co37567","norming","","","","","","",""
"null","../img/tt/1040tt.jpg","null","mooney2","image-keyboard-response","487","1720235","0.0-6.0-5.68","3024238","co37567","norming","","","","","","",""
"3288.2849999996834","","","post_reveal_questions","survey-likert","488","1723526","0.0-6.0-6.68","3024238","co37567","norming","","","{""aha"":6}","[0]","../img/tt/1040tt.jpg","",""
"null","<div style=""font-size:60px;""> </div>","null","fixation","html-keyboard-response","489","1723735","0.0-6.0-0.69","3024238","co37567","norming","","","","","","",""
"null","../img/tt/123tt.jpg","null","mooney1","image-keyboard-response","490","1726746","0.0-6.0-1.69","3024238","co37567","norming","","","","","","",""
"6475.290000000037","","","post_mooney1_questions","survey-likert","491","1733223","0.0-6.0-2.69","3024238","co37567","norming","","","{""curiosity"":3,""confidence"":1}","[0,1]","../img/tt/123tt.jpg","",""
"4430.085000000196","","","recognition","survey-text","492","1737654","0.0-6.0-3.69","3024238","co37567","norming","","","{""guess"":""bureautafel""}","","../img/tt/123tt.jpg","",""
"null","../img/gs/123gs.jpg","null","reveal","image-keyboard-response","493","1739664","0.0-6.0-4.69","3024238","co37567","norming","","","","","","",""
"null","../img/tt/123tt.jpg","null","mooney2","image-keyboard-response","494","1741674","0.0-6.0-5.69","3024238","co37567","norming","","","","","","",""
"2577.7399999999907","","","post_reveal_questions","survey-likert","495","1744255","0.0-6.0-6.69","3024238","co37567","norming","","","{""aha"":4}","[0]","../img/tt/123tt.jpg","",""
"null","<div style=""font-size:60px;""> </div>","null","fixation","html-keyboard-response","496","1744457","0.0-6.0-0.70","3024238","co37567","norming","","","","","","",""
"null","../img/tt/1243tt.jpg","null","mooney1","image-keyboard-response","497","1747468","0.0-6.0-1.70","3024238","co37567","norming","","","","","","",""
"14511.324999999953","","","post_mooney1_questions","survey-likert","498","1761983","0.0-6.0-2.70","3024238","co37567","norming","","","{""curiosity"":2,""confidence"":1}","[0,1]","../img/tt/1243tt.jpg","",""
"3846.090000000084","","","recognition","survey-text","499","1765830","0.0-6.0-3.70","3024238","co37567","norming","","","{""guess"":""dierentuin""}","","../img/tt/1243tt.jpg","",""
"null","../img/gs/1243gs.jpg","null","reveal","image-keyboard-response","500","1767832","0.0-6.0-4.70","3024238","co37567","norming","","","","","","",""
"null","../img/tt/1243tt.jpg","null","mooney2","image-keyboard-response","501","1769838","0.0-6.0-5.70","3024238","co37567","norming","","","","","","",""
"2013.4850000001024","","","post_reveal_questions","survey-likert","502","1771854","0.0-6.0-6.70","3024238","co37567","norming","","","{""aha"":4}","[0]","../img/tt/1243tt.jpg","",""
"null","<div style=""font-size:60px;""> </div>","null","fixation","html-keyboard-response","503","1772055","0.0-6.0-0.71","3024238","co37567","norming","","","","","","",""
"null","../img/tt/1202tt.jpg","null","mooney1","image-keyboard-response","504","1775072","0.0-6.0-1.71","3024238","co37567","norming","","","","","","",""
"5271.25","","","post_mooney1_questions","survey-likert","505","1780347","0.0-6.0-2.71","3024238","co37567","norming","","","{""curiosity"":4,""confidence"":1}","[0,1]","../img/tt/1202tt.jpg","",""
"3438.060000000056","","","recognition","survey-text","506","1783787","0.0-6.0-3.71","3024238","co37567","norming","","","{""guess"":""gymnastiek""}","","../img/tt/1202tt.jpg","",""
"null","../img/gs/1202gs.jpg","null","reveal","image-keyboard-response","507","1785796","0.0-6.0-4.71","3024238","co37567","norming","","","","","","",""
"null","../img/tt/1202tt.jpg","null","mooney2","image-keyboard-response","508","1787799","0.0-6.0-5.71","3024238","co37567","norming","","","","","","",""
"3201.0400000000373","","","post_reveal_questions","survey-likert","509","1791003","0.0-6.0-6.71","3024238","co37567","norming","","","{""aha"":3}","[0]","../img/tt/1202tt.jpg","",""
"null","<div style=""font-size:60px;""> </div>","null","fixation","html-keyboard-response","510","1791206","0.0-6.0-0.72","3024238","co37567","norming","","","","","","",""
"null","../img/tt/1024tt.jpg","null","mooney1","image-keyboard-response","511","1794215","0.0-6.0-1.72","3024238","co37567","norming","","","","","","",""
"5551.764999999898","","","post_mooney1_questions","survey-likert","512","1799771","0.0-6.0-2.72","3024238","co37567","norming","","","{""curiosity"":4,""confidence"":1}","[0,1]","../img/tt/1024tt.jpg","",""
"2046.1149999997579","","","recognition","survey-text","513","1801819","0.0-6.0-3.72","3024238","co37567","norming","","","{""guess"":""mens""}","","../img/tt/1024tt.jpg","",""
"null","../img/gs/1024gs.jpg","null","reveal","image-keyboard-response","514","1803824","0.0-6.0-4.72","3024238","co37567","norming","","","","","","",""
"null","../img/tt/1024tt.jpg","null","mooney2","image-keyboard-response","515","1805835","0.0-6.0-5.72","3024238","co37567","norming","","","","","","",""
"1644.380000000121","","","post_reveal_questions","survey-likert","516","1807482","0.0-6.0-6.72","3024238","co37567","norming","","","{""aha"":4}","[0]","../img/tt/1024tt.jpg","",""
"null","<div style=""font-size:60px;""> </div>","null","fixation","html-keyboard-response","517","1807688","0.0-6.0-0.73","3024238","co37567","norming","","","","","","",""
"null","../img/tt/078tt.jpg","null","mooney1","image-keyboard-response","518","1810694","0.0-6.0-1.73","3024238","co37567","norming","","","","","","",""
"6428.055000000168","","","post_mooney1_questions","survey-likert","519","1817123","0.0-6.0-2.73","3024238","co37567","norming","","","{""curiosity"":3,""confidence"":2}","[0,1]","../img/tt/078tt.jpg","",""
"3190.0499999998137","","","recognition","survey-text","520","1820315","0.0-6.0-3.73","3024238","co37567","norming","","","{""guess"":""tros druiven""}","","../img/tt/078tt.jpg","",""
"null","../img/gs/078gs.jpg","null","reveal","image-keyboard-response","521","1822317","0.0-6.0-4.73","3024238","co37567","norming","","","","","","",""
"null","../img/tt/078tt.jpg","null","mooney2","image-keyboard-response","522","1824321","0.0-6.0-5.73","3024238","co37567","norming","","","","","","",""
"4789","","","post_reveal_questions","survey-likert","523","1829115","0.0-6.0-6.73","3024238","co37567","norming","","","{""aha"":1}","[0]","../img/tt/078tt.jpg","",""
"null","<div style=""font-size:60px;""> </div>","null","fixation","html-keyboard-response","524","1829319","0.0-6.0-0.74","3024238","co37567","norming","","","","","","",""
"null","../img/tt/412tt.jpg","null","mooney1","image-keyboard-response","525","1832329","0.0-6.0-1.74","3024238","co37567","norming","","","","","","",""
"3623.8900000001304","","","post_mooney1_questions","survey-likert","526","1835957","0.0-6.0-2.74","3024238","co37567","norming","","","{""curiosity"":4,""confidence"":1}","[0,1]","../img/tt/412tt.jpg","",""
"1668.464999999851","","","recognition","survey-text","527","1837627","0.0-6.0-3.74","3024238","co37567","norming","","","{""guess"":""fles""}","","../img/tt/412tt.jpg","",""
"null","../img/gs/412gs.jpg","null","reveal","image-keyboard-response","528","1839634","0.0-6.0-4.74","3024238","co37567","norming","","","","","","",""
"null","../img/tt/412tt.jpg","null","mooney2","image-keyboard-response","529","1841636","0.0-6.0-5.74","3024238","co37567","norming","","","","","","",""
"2356.5800000000745","","","post_reveal_questions","survey-likert","530","1843995","0.0-6.0-6.74","3024238","co37567","norming","","","{""aha"":2}","[0]","../img/tt/412tt.jpg","",""
"null","<div style=""font-size:60px;""> </div>","null","fixation","html-keyboard-response","531","1844197","0.0-6.0-0.75","3024238","co37567","norming","","","","","","",""
"null","../img/tt/318tt.jpg","null","mooney1","image-keyboard-response","532","1847208","0.0-6.0-1.75","3024238","co37567","norming","","","","","","",""
"5600.010000000009","","","post_mooney1_questions","survey-likert","533","1852812","0.0-6.0-2.75","3024238","co37567","norming","","","{""curiosity"":4,""confidence"":1}","[0,1]","../img/tt/318tt.jpg","",""
"2109.6949999998324","","","recognition","survey-text","534","1854923","0.0-6.0-3.75","3024238","co37567","norming","","","{""guess"":""stuur""}","","../img/tt/318tt.jpg","",""
"null","../img/gs/318gs.jpg","null","reveal","image-keyboard-response","535","1856934","0.0-6.0-4.75","3024238","co37567","norming","","","","","","",""
"null","../img/tt/318tt.jpg","null","mooney2","image-keyboard-response","536","1858936","0.0-6.0-5.75","3024238","co37567","norming","","","","","","",""
"4408.719999999972","","","post_reveal_questions","survey-likert","537","1863347","0.0-6.0-6.75","3024238","co37567","norming","","","{""aha"":3}","[0]","../img/tt/318tt.jpg","",""
"null","<div style=""font-size:60px;""> </div>","null","fixation","html-keyboard-response","538","1863549","0.0-6.0-0.76","3024238","co37567","norming","","","","","","",""
"null","../img/tt/306tt.jpg","null","mooney1","image-keyboard-response","539","1866557","0.0-6.0-1.76","3024238","co37567","norming","","","","","","",""
"4002.5799999998417","","","post_mooney1_questions","survey-likert","540","1870563","0.0-6.0-2.76","3024238","co37567","norming","","","{""curiosity"":3,""confidence"":1}","[0,1]","../img/tt/306tt.jpg","",""
"1734.655000000028","","","recognition","survey-text","541","1872300","0.0-6.0-3.76","3024238","co37567","norming","","","{""guess"":""vlag""}","","../img/tt/306tt.jpg","",""
"null","../img/gs/306gs.jpg","null","reveal","image-keyboard-response","542","1874308","0.0-6.0-4.76","3024238","co37567","norming","","","","","","",""
"null","../img/tt/306tt.jpg","null","mooney2","image-keyboard-response","543","1876319","0.0-6.0-5.76","3024238","co37567","norming","","","","","","",""
"3137.7450000001118","","","post_reveal_questions","survey-likert","544","1879459","0.0-6.0-6.76","3024238","co37567","norming","","","{""aha"":6}","[0]","../img/tt/306tt.jpg","",""
"null","<div style=""font-size:60px;""> </div>","null","fixation","html-keyboard-response","545","1879665","0.0-6.0-0.77","3024238","co37567","norming","","","","","","",""
"null","../img/tt/081tt.jpg","null","mooney1","image-keyboard-response","546","1882672","0.0-6.0-1.77","3024238","co37567","norming","","","","","","",""
"4985.790000000037","","","post_mooney1_questions","survey-likert","547","1887660","0.0-6.0-2.77","3024238","co37567","norming","","","{""curiosity"":2,""confidence"":1}","[0,1]","../img/tt/081tt.jpg","",""
"2350.000000000233","","","recognition","survey-text","548","1890011","0.0-6.0-3.77","3024238","co37567","norming","","","{""guess"":""kikker""}","","../img/tt/081tt.jpg","",""
"null","../img/gs/081gs.jpg","null","reveal","image-keyboard-response","549","1892019","0.0-6.0-4.77","3024238","co37567","norming","","","","","","",""
"null","../img/tt/081tt.jpg","null","mooney2","image-keyboard-response","550","1894029","0.0-6.0-5.77","3024238","co37567","norming","","","","","","",""
"2570.9599999999627","","","post_reveal_questions","survey-likert","551","1896597","0.0-6.0-6.77","3024238","co37567","norming","","","{""aha"":2}","[0]","../img/tt/081tt.jpg","",""
"null","<div style=""font-size:60px;""> </div>","null","fixation","html-keyboard-response","552","1896798","0.0-6.0-0.78","3024238","co37567","norming","","","","","","",""
