"rt","stimulus","key_press","test_part","trial_type","trial_index","time_elapsed","internal_node_id","totalTime","subject","experiment_name","button_pressed","success","responses","question_order","currentStim","old","correct"
"6223.610000000008","Welcome to the experiment. This is an online experiment so please don't close the tab/window until we say goodbye.  Press any key to begin.","32","instructions","html-keyboard-response","0","6241","0.0-0.0","3382860","co37684","norming","","","","","","",""
"44438.965","<div style='word-wrap: break-word; width: 900px'><h3>Please consider this information carefully before deciding whether to participate in this research</h3><ul style='text-align: left; font-size: .8em;'><li><b>Purpose of the research</b>: To examine how people process images.</li><li><b>What you will do in this research</b>:  Stimuli (images) will be presented on the computer and you will be asked different questions about them.</li><li><b>Time required</b>: Participation will take between 45 and 60 minutes to complete.</li><li><b>Risks</b>:  There are no anticipated risks associated with participating in this study. The effects of participating should be comparable to those you would experience from viewing a computer monitor for 30 minutes and using a mouse or keyboard.</li><li><b>Benefits</b>:  This study provides no benefits to you individually except for the credit. The study provides important information about the nature of perception and learning.</li><li><b>Confidentiality</b>:  Your participation in this study will remain confidential. No personally identifiable information will be associated with your data. Your de-identified data may be shared with other researchers and used in future projects.</li><li><b>Participation and withdrawal</b>:  Your participation in this study is completely voluntary and you may refuse to participate or you may choose to withdraw at any time without penalty.</li><li><b>How to contact the researchers</b>: If you have questions or concerns about your participation or payment, or want to request a summary of research findings, please contact Sander Van de Cruys (KU Leuven), at sander.vandecruys@kuleuven.be.</li></ul><p>The nature and purpose of this research have been sufficiently explained and I agree to participate in this study.  I understand that I am free to withdraw at any time without incurring any penalty.</p><p>Please consent by clicking the button below to continue. Otherwise, please exit the study at this time.</p></div>","","instructions","html-button-response","1","50681","0.0-1.0","3382860","co37684","norming","0","","","","","",""
"","","","instructions","fullscreen","2","63793","0.0-2.0","3382860","co37684","norming","","true","","","","",""
"46157.55999999999","","","sona","survey-html-form","3","109974","0.0-3.0","3382860","co37684","norming","","","[{""name"":""sonaid"",""value"":""37684""},{""name"":""debrief"",""value"":""yes""},{""name"":""datajoin"",""value"":""yes""}]","","","",""
"79995.905","<div style='word-wrap: break-word; width: 900px'><h3>Instructions</h3><p>This experiment will have 3 parts. In the first part you will see a series of distorted images like the one below on the left. As you can see in the righthand image, the distorted images are derived from actual photographs. In what follows, you will <strong>briefly</strong> be presented with <strong>only</strong> the distorted image.</p> <div style='float: left; margin-right: 20px;'><img src='../img/018tt.jpg' height='250' width='250'></img></div><div style='float: right; margin-left: 20px;'><img src='../img/018gs.jpg' height='250' width='250'></img></div><p>Subsequently you will be asked a few questions about the image: One question on how <strong>curious</strong> you are about the solution and one on how <strong>confident</strong> you are that you know the solution.</p>Next, we ask you to make a guess on what is in the image. Note that it is OK to name just the <strong>basic level category</strong>. For example when you see a parrot in the image, 'parrot' will obviously be a correct answer but also correct is 'bird'. However, 'animal' will <strong>not</strong> be counted as a correct response. For the example above, 'rose' would be correct or 'flower', but not 'plant'. When soccer players are depicted, 'soccer', 'football', 'soccer players' will be correct, but not 'humans', 'outdoors', or 'sports'. You do not need to describe the image in full, just name the main object in it <strong>in one or two words</strong>. All images depict objects from one of the following broad level categories: animals, inanimate objects, plants, sports, vehicles, and food. Recognizing means knowing <strong>more</strong> than these broad labels for a given image. But we always encourage you to <strong>make a guess</strong> if you can. Note that you are allowed to use <strong>Dutch and English</strong> in your answers, whatever comes easiest for you.</p><p>Press any key to continue.</p></div>","32","instructions","html-keyboard-response","4","189987","0.0-4.0","3382860","co37684","norming","","","","","","",""
"27806.209999999963","<div style='word-wrap: break-word; width: 900px'><h3>Instructions</h3> <p>Next, the solution image will be revealed to you and you'll be asked to indicate how strong your <strong>aha-experience</strong> was after seeing the solution. This describes the positive feeling of the 'click' you sometimes experience, when the pieces of the 'puzzle' fall together and you suddenly have 'insight' in the image.</p><img src='aha.jpg' height='188' width='250'></img><p>Note that there are no right or wrong answers. We are interested in what <strong>you</strong> see in the image and how <strong>you</strong> feel about it.</p><p>Press any key to start the experiment.</p></div>","32","instructions","html-keyboard-response","5","217796","0.0-5.0","3382860","co37684","norming","","","","","","",""
"null","<div style=""font-size:60px;""> </div>","null","fixation","html-keyboard-response","6","218004","0.0-6.0-0.0","3382860","co37684","norming","","","","","","",""
"null","../img/tt/279tt.jpg","null","mooney1","image-keyboard-response","7","221010","0.0-6.0-1.0","3382860","co37684","norming","","","","","","",""
"12188.025000000052","","","post_mooney1_questions","survey-likert","8","233202","0.0-6.0-2.0","3382860","co37684","norming","","","{""curiosity"":2,""confidence"":5}","[0,1]","../img/tt/279tt.jpg","",""
"3861.6450000000477","","","recognition","survey-text","9","237066","0.0-6.0-3.0","3382860","co37684","norming","","","{""guess"":""koala""}","","../img/tt/279tt.jpg","",""
"null","../img/gs/279gs.jpg","null","reveal","image-keyboard-response","10","239072","0.0-6.0-4.0","3382860","co37684","norming","","","","","","",""
"null","../img/tt/279tt.jpg","null","mooney2","image-keyboard-response","11","241074","0.0-6.0-5.0","3382860","co37684","norming","","","","","","",""
"5021.25","","","post_reveal_questions","survey-likert","12","246098","0.0-6.0-6.0","3382860","co37684","norming","","","{""aha"":1}","[0]","../img/tt/279tt.jpg","",""
"null","<div style=""font-size:60px;""> </div>","null","fixation","html-keyboard-response","13","246307","0.0-6.0-0.1","3382860","co37684","norming","","","","","","",""
"null","../img/tt/163tt.jpg","null","mooney1","image-keyboard-response","14","249309","0.0-6.0-1.1","3382860","co37684","norming","","","","","","",""
"5731.620000000024","","","post_mooney1_questions","survey-likert","15","255056","0.0-6.0-2.1","3382860","co37684","norming","","","{""curiosity"":4,""confidence"":2}","[0,1]","../img/tt/163tt.jpg","",""
"5502.26999999996","","","recognition","survey-text","16","260560","0.0-6.0-3.1","3382860","co37684","norming","","","{""guess"":""flower""}","","../img/tt/163tt.jpg","",""
"null","../img/gs/163gs.jpg","null","reveal","image-keyboard-response","17","262570","0.0-6.0-4.1","3382860","co37684","norming","","","","","","",""
"null","../img/tt/163tt.jpg","null","mooney2","image-keyboard-response","18","264574","0.0-6.0-5.1","3382860","co37684","norming","","","","","","",""
"2096.1549999999697","","","post_reveal_questions","survey-likert","19","266672","0.0-6.0-6.1","3382860","co37684","norming","","","{""aha"":6}","[0]","../img/tt/163tt.jpg","",""
"null","<div style=""font-size:60px;""> </div>","null","fixation","html-keyboard-response","20","266877","0.0-6.0-0.2","3382860","co37684","norming","","","","","","",""
"null","../img/tt/080tt.jpg","null","mooney1","image-keyboard-response","21","269881","0.0-6.0-1.2","3382860","co37684","norming","","","","","","",""
"8877.235000000044","","","post_mooney1_questions","survey-likert","22","278760","0.0-6.0-2.2","3382860","co37684","norming","","","{""curiosity"":5,""confidence"":1}","[0,1]","../img/tt/080tt.jpg","",""
"5453.824999999895","","","recognition","survey-text","23","284216","0.0-6.0-3.2","3382860","co37684","norming","","","{""guess"":""mushroom""}","","../img/tt/080tt.jpg","",""
"null","../img/gs/080gs.jpg","null","reveal","image-keyboard-response","24","286217","0.0-6.0-4.2","3382860","co37684","norming","","","","","","",""
"null","../img/tt/080tt.jpg","null","mooney2","image-keyboard-response","25","288219","0.0-6.0-5.2","3382860","co37684","norming","","","","","","",""
"2883.929999999935","","","post_reveal_questions","survey-likert","26","291104","0.0-6.0-6.2","3382860","co37684","norming","","","{""aha"":4}","[0]","../img/tt/080tt.jpg","",""
"null","<div style=""font-size:60px;""> </div>","null","fixation","html-keyboard-response","27","291306","0.0-6.0-0.3","3382860","co37684","norming","","","","","","",""
"null","../img/tt/405tt.jpg","null","mooney1","image-keyboard-response","28","294314","0.0-6.0-1.3","3382860","co37684","norming","","","","","","",""
"7236.85500000004","","","post_mooney1_questions","survey-likert","29","301552","0.0-6.0-2.3","3382860","co37684","norming","","","{""curiosity"":2,""confidence"":5}","[0,1]","../img/tt/405tt.jpg","",""
"3670.185000000056","","","recognition","survey-text","30","305224","0.0-6.0-3.3","3382860","co37684","norming","","","{""guess"":""koala""}","","../img/tt/405tt.jpg","",""
"null","../img/gs/405gs.jpg","null","reveal","image-keyboard-response","31","307233","0.0-6.0-4.3","3382860","co37684","norming","","","","","","",""
"null","../img/tt/405tt.jpg","null","mooney2","image-keyboard-response","32","309235","0.0-6.0-5.3","3382860","co37684","norming","","","","","","",""
"1619.7549999999464","","","post_reveal_questions","survey-likert","33","310856","0.0-6.0-6.3","3382860","co37684","norming","","","{""aha"":1}","[0]","../img/tt/405tt.jpg","",""
"null","<div style=""font-size:60px;""> </div>","null","fixation","html-keyboard-response","34","311058","0.0-6.0-0.4","3382860","co37684","norming","","","","","","",""
"null","../img/tt/1200tt.jpg","null","mooney1","image-keyboard-response","35","314064","0.0-6.0-1.4","3382860","co37684","norming","","","","","","",""
"7686.835000000079","","","post_mooney1_questions","survey-likert","36","321752","0.0-6.0-2.4","3382860","co37684","norming","","","{""curiosity"":6,""confidence"":1}","[0,1]","../img/tt/1200tt.jpg","",""
"6766.110000000044","","","recognition","survey-text","37","328520","0.0-6.0-3.4","3382860","co37684","norming","","","{""guess"":""Crocodile""}","","../img/tt/1200tt.jpg","",""
"null","../img/gs/1200gs.jpg","null","reveal","image-keyboard-response","38","330522","0.0-6.0-4.4","3382860","co37684","norming","","","","","","",""
"null","../img/tt/1200tt.jpg","null","mooney2","image-keyboard-response","39","332528","0.0-6.0-5.4","3382860","co37684","norming","","","","","","",""
"1806.5299999999115","","","post_reveal_questions","survey-likert","40","334336","0.0-6.0-6.4","3382860","co37684","norming","","","{""aha"":6}","[0]","../img/tt/1200tt.jpg","",""
"null","<div style=""font-size:60px;""> </div>","null","fixation","html-keyboard-response","41","334542","0.0-6.0-0.5","3382860","co37684","norming","","","","","","",""
"null","../img/tt/307tt.jpg","null","mooney1","image-keyboard-response","42","337544","0.0-6.0-1.5","3382860","co37684","norming","","","","","","",""
"9463.510000000068","","","post_mooney1_questions","survey-likert","43","347008","0.0-6.0-2.5","3382860","co37684","norming","","","{""curiosity"":5,""confidence"":0}","[0,1]","../img/tt/307tt.jpg","",""
"4757.924999999988","","","recognition","survey-text","44","351768","0.0-6.0-3.5","3382860","co37684","norming","","","{""guess"":""Tree""}","","../img/tt/307tt.jpg","",""
"null","../img/gs/307gs.jpg","null","reveal","image-keyboard-response","45","353775","0.0-6.0-4.5","3382860","co37684","norming","","","","","","",""
"null","../img/tt/307tt.jpg","null","mooney2","image-keyboard-response","46","355777","0.0-6.0-5.5","3382860","co37684","norming","","","","","","",""
"3654.0650000000605","","","post_reveal_questions","survey-likert","47","359432","0.0-6.0-6.5","3382860","co37684","norming","","","{""aha"":5}","[0]","../img/tt/307tt.jpg","",""
"null","<div style=""font-size:60px;""> </div>","null","fixation","html-keyboard-response","48","359638","0.0-6.0-0.6","3382860","co37684","norming","","","","","","",""
"null","../img/tt/060tt.jpg","null","mooney1","image-keyboard-response","49","362649","0.0-6.0-1.6","3382860","co37684","norming","","","","","","",""
"5462.27999999997","","","post_mooney1_questions","survey-likert","50","368112","0.0-6.0-2.6","3382860","co37684","norming","","","{""curiosity"":4,""confidence"":1}","[0,1]","../img/tt/060tt.jpg","",""
"7957.975000000035","","","recognition","survey-text","51","376065","0.0-6.0-3.6","3382860","co37684","norming","","","{""guess"":""Animal""}","","../img/tt/060tt.jpg","",""
"null","../img/gs/060gs.jpg","null","reveal","image-keyboard-response","52","378075","0.0-6.0-4.6","3382860","co37684","norming","","","","","","",""
"null","../img/tt/060tt.jpg","null","mooney2","image-keyboard-response","53","380080","0.0-6.0-5.6","3382860","co37684","norming","","","","","","",""
"4472.215000000026","","","post_reveal_questions","survey-likert","54","384553","0.0-6.0-6.6","3382860","co37684","norming","","","{""aha"":6}","[0]","../img/tt/060tt.jpg","",""
"null","<div style=""font-size:60px;""> </div>","null","fixation","html-keyboard-response","55","384758","0.0-6.0-0.7","3382860","co37684","norming","","","","","","",""
"null","../img/tt/1070tt.jpg","null","mooney1","image-keyboard-response","56","387767","0.0-6.0-1.7","3382860","co37684","norming","","","","","","",""
"5937.044999999984","","","post_mooney1_questions","survey-likert","57","393705","0.0-6.0-2.7","3382860","co37684","norming","","","{""curiosity"":5,""confidence"":1}","[0,1]","../img/tt/1070tt.jpg","",""
"6653.900000000023","","","recognition","survey-text","58","400361","0.0-6.0-3.7","3382860","co37684","norming","","","{""guess"":""Burito""}","","../img/tt/1070tt.jpg","",""
"null","../img/gs/1070gs.jpg","null","reveal","image-keyboard-response","59","402364","0.0-6.0-4.7","3382860","co37684","norming","","","","","","",""
"null","../img/tt/1070tt.jpg","null","mooney2","image-keyboard-response","60","404366","0.0-6.0-5.7","3382860","co37684","norming","","","","","","",""
"5650.375000000058","","","post_reveal_questions","survey-likert","61","410017","0.0-6.0-6.7","3382860","co37684","norming","","","{""aha"":4}","[0]","../img/tt/1070tt.jpg","",""
"null","<div style=""font-size:60px;""> </div>","null","fixation","html-keyboard-response","62","410225","0.0-6.0-0.8","3382860","co37684","norming","","","","","","",""
"null","../img/tt/084tt.jpg","null","mooney1","image-keyboard-response","63","413235","0.0-6.0-1.8","3382860","co37684","norming","","","","","","",""
"7404.270000000019","","","post_mooney1_questions","survey-likert","64","420642","0.0-6.0-2.8","3382860","co37684","norming","","","{""curiosity"":3,""confidence"":5}","[0,1]","../img/tt/084tt.jpg","",""
"2517.909999999916","","","recognition","survey-text","65","423161","0.0-6.0-3.8","3382860","co37684","norming","","","{""guess"":""Duck""}","","../img/tt/084tt.jpg","",""
"null","../img/gs/084gs.jpg","null","reveal","image-keyboard-response","66","425163","0.0-6.0-4.8","3382860","co37684","norming","","","","","","",""
"null","../img/tt/084tt.jpg","null","mooney2","image-keyboard-response","67","427167","0.0-6.0-5.8","3382860","co37684","norming","","","","","","",""
"2216.225000000035","","","post_reveal_questions","survey-likert","68","429385","0.0-6.0-6.8","3382860","co37684","norming","","","{""aha"":4}","[0]","../img/tt/084tt.jpg","",""
"null","<div style=""font-size:60px;""> </div>","null","fixation","html-keyboard-response","69","429587","0.0-6.0-0.9","3382860","co37684","norming","","","","","","",""
"null","../img/tt/076tt.jpg","null","mooney1","image-keyboard-response","70","432589","0.0-6.0-1.9","3382860","co37684","norming","","","","","","",""
"6082.350000000035","","","post_mooney1_questions","survey-likert","71","438672","0.0-6.0-2.9","3382860","co37684","norming","","","{""curiosity"":4,""confidence"":5}","[0,1]","../img/tt/076tt.jpg","",""
"4861.660000000033","","","recognition","survey-text","72","443536","0.0-6.0-3.9","3382860","co37684","norming","","","{""guess"":""Rollerskates""}","","../img/tt/076tt.jpg","",""
"null","../img/gs/076gs.jpg","null","reveal","image-keyboard-response","73","445537","0.0-6.0-4.9","3382860","co37684","norming","","","","","","",""
"null","../img/tt/076tt.jpg","null","mooney2","image-keyboard-response","74","447547","0.0-6.0-5.9","3382860","co37684","norming","","","","","","",""
"3660.4949999999953","","","post_reveal_questions","survey-likert","75","451208","0.0-6.0-6.9","3382860","co37684","norming","","","{""aha"":1}","[0]","../img/tt/076tt.jpg","",""
"null","<div style=""font-size:60px;""> </div>","null","fixation","html-keyboard-response","76","451410","0.0-6.0-0.10","3382860","co37684","norming","","","","","","",""
"null","../img/tt/1190tt.jpg","null","mooney1","image-keyboard-response","77","454414","0.0-6.0-1.10","3382860","co37684","norming","","","","","","",""
"3688.1399999999558","","","post_mooney1_questions","survey-likert","78","458104","0.0-6.0-2.10","3382860","co37684","norming","","","{""curiosity"":5,""confidence"":2}","[0,1]","../img/tt/1190tt.jpg","",""
"3140.954999999958","","","recognition","survey-text","79","461248","0.0-6.0-3.10","3382860","co37684","norming","","","{""guess"":""Lion""}","","../img/tt/1190tt.jpg","",""
"null","../img/gs/1190gs.jpg","null","reveal","image-keyboard-response","80","463258","0.0-6.0-4.10","3382860","co37684","norming","","","","","","",""
"null","../img/tt/1190tt.jpg","null","mooney2","image-keyboard-response","81","465259","0.0-6.0-5.10","3382860","co37684","norming","","","","","","",""
"1690.6749999999302","","","post_reveal_questions","survey-likert","82","466952","0.0-6.0-6.10","3382860","co37684","norming","","","{""aha"":6}","[0]","../img/tt/1190tt.jpg","",""
"null","<div style=""font-size:60px;""> </div>","null","fixation","html-keyboard-response","83","467163","0.0-6.0-0.11","3382860","co37684","norming","","","","","","",""
"null","../img/tt/270tt.jpg","null","mooney1","image-keyboard-response","84","470166","0.0-6.0-1.11","3382860","co37684","norming","","","","","","",""
"14535.215000000026","","","post_mooney1_questions","survey-likert","85","484704","0.0-6.0-2.11","3382860","co37684","norming","","","{""curiosity"":5,""confidence"":4}","[0,1]","../img/tt/270tt.jpg","",""
"11582.244999999937","","","recognition","survey-text","86","496289","0.0-6.0-3.11","3382860","co37684","norming","","","{""guess"":""Hirsch""}","","../img/tt/270tt.jpg","",""
"null","../img/gs/270gs.jpg","null","reveal","image-keyboard-response","87","498297","0.0-6.0-4.11","3382860","co37684","norming","","","","","","",""
"null","../img/tt/270tt.jpg","null","mooney2","image-keyboard-response","88","500308","0.0-6.0-5.11","3382860","co37684","norming","","","","","","",""
"1539.1100000000442","","","post_reveal_questions","survey-likert","89","501849","0.0-6.0-6.11","3382860","co37684","norming","","","{""aha"":5}","[0]","../img/tt/270tt.jpg","",""
"null","<div style=""font-size:60px;""> </div>","null","fixation","html-keyboard-response","90","502055","0.0-6.0-0.12","3382860","co37684","norming","","","","","","",""
"null","../img/tt/416tt.jpg","null","mooney1","image-keyboard-response","91","505057","0.0-6.0-1.12","3382860","co37684","norming","","","","","","",""
"16500.695000000007","","","post_mooney1_questions","survey-likert","92","521561","0.0-6.0-2.12","3382860","co37684","norming","","","{""curiosity"":2,""confidence"":5}","[0,1]","../img/tt/416tt.jpg","",""
"10510.510000000068","","","recognition","survey-text","93","532073","0.0-6.0-3.12","3382860","co37684","norming","","","{""guess"":""Austrich / Struisvogel""}","","../img/tt/416tt.jpg","",""
"null","../img/gs/416gs.jpg","null","reveal","image-keyboard-response","94","534079","0.0-6.0-4.12","3382860","co37684","norming","","","","","","",""
"null","../img/tt/416tt.jpg","null","mooney2","image-keyboard-response","95","536085","0.0-6.0-5.12","3382860","co37684","norming","","","","","","",""
"3009.1499999997905","","","post_reveal_questions","survey-likert","96","539097","0.0-6.0-6.12","3382860","co37684","norming","","","{""aha"":1}","[0]","../img/tt/416tt.jpg","",""
"null","<div style=""font-size:60px;""> </div>","null","fixation","html-keyboard-response","97","539307","0.0-6.0-0.13","3382860","co37684","norming","","","","","","",""
"null","../img/tt/1049tt.jpg","null","mooney1","image-keyboard-response","98","542311","0.0-6.0-1.13","3382860","co37684","norming","","","","","","",""
"4191.02500000014","","","post_mooney1_questions","survey-likert","99","546505","0.0-6.0-2.13","3382860","co37684","norming","","","{""curiosity"":5,""confidence"":1}","[0,1]","../img/tt/1049tt.jpg","",""
"8358.104999999981","","","recognition","survey-text","100","554864","0.0-6.0-3.13","3382860","co37684","norming","","","{""guess"":""Astronaut""}","","../img/tt/1049tt.jpg","",""
"null","../img/gs/1049gs.jpg","null","reveal","image-keyboard-response","101","556873","0.0-6.0-4.13","3382860","co37684","norming","","","","","","",""
"null","../img/tt/1049tt.jpg","null","mooney2","image-keyboard-response","102","558880","0.0-6.0-5.13","3382860","co37684","norming","","","","","","",""
"1885.7700000000186","","","post_reveal_questions","survey-likert","103","560768","0.0-6.0-6.13","3382860","co37684","norming","","","{""aha"":6}","[0]","../img/tt/1049tt.jpg","",""
"null","<div style=""font-size:60px;""> </div>","null","fixation","html-keyboard-response","104","560971","0.0-6.0-0.14","3382860","co37684","norming","","","","","","",""
"null","../img/tt/1171tt.jpg","null","mooney1","image-keyboard-response","105","563978","0.0-6.0-1.14","3382860","co37684","norming","","","","","","",""
"5018.915000000154","","","post_mooney1_questions","survey-likert","106","569000","0.0-6.0-2.14","3382860","co37684","norming","","","{""curiosity"":5,""confidence"":0}","[0,1]","../img/tt/1171tt.jpg","",""
"8006.019999999786","","","recognition","survey-text","107","577007","0.0-6.0-3.14","3382860","co37684","norming","","","{""guess"":""Animals""}","","../img/tt/1171tt.jpg","",""
"null","../img/gs/1171gs.jpg","null","reveal","image-keyboard-response","108","579009","0.0-6.0-4.14","3382860","co37684","norming","","","","","","",""
"null","../img/tt/1171tt.jpg","null","mooney2","image-keyboard-response","109","581011","0.0-6.0-5.14","3382860","co37684","norming","","","","","","",""
"2090.8300000000745","","","post_reveal_questions","survey-likert","110","583104","0.0-6.0-6.14","3382860","co37684","norming","","","{""aha"":6}","[0]","../img/tt/1171tt.jpg","",""
"null","<div style=""font-size:60px;""> </div>","null","fixation","html-keyboard-response","111","583307","0.0-6.0-0.15","3382860","co37684","norming","","","","","","",""
"null","../img/tt/1004tt.jpg","null","mooney1","image-keyboard-response","112","586311","0.0-6.0-1.15","3382860","co37684","norming","","","","","","",""
"3702.340000000084","","","post_mooney1_questions","survey-likert","113","590016","0.0-6.0-2.15","3382860","co37684","norming","","","{""curiosity"":5,""confidence"":1}","[0,1]","../img/tt/1004tt.jpg","",""
"6501.9700000000885","","","recognition","survey-text","114","596519","0.0-6.0-3.15","3382860","co37684","norming","","","{""guess"":""Elephant""}","","../img/tt/1004tt.jpg","",""
"null","../img/gs/1004gs.jpg","null","reveal","image-keyboard-response","115","598529","0.0-6.0-4.15","3382860","co37684","norming","","","","","","",""
"null","../img/tt/1004tt.jpg","null","mooney2","image-keyboard-response","116","600530","0.0-6.0-5.15","3382860","co37684","norming","","","","","","",""
"2363.4150000000373","","","post_reveal_questions","survey-likert","117","602896","0.0-6.0-6.15","3382860","co37684","norming","","","{""aha"":5}","[0]","../img/tt/1004tt.jpg","",""
"null","<div style=""font-size:60px;""> </div>","null","fixation","html-keyboard-response","118","603106","0.0-6.0-0.16","3382860","co37684","norming","","","","","","",""
"null","../img/tt/1097tt.jpg","null","mooney1","image-keyboard-response","119","606115","0.0-6.0-1.16","3382860","co37684","norming","","","","","","",""
"8739.770000000019","","","post_mooney1_questions","survey-likert","120","614856","0.0-6.0-2.16","3382860","co37684","norming","","","{""curiosity"":4,""confidence"":2}","[0,1]","../img/tt/1097tt.jpg","",""
"7157.975000000093","","","recognition","survey-text","121","622016","0.0-6.0-3.16","3382860","co37684","norming","","","{""guess"":""Person on boat""}","","../img/tt/1097tt.jpg","",""
"null","../img/gs/1097gs.jpg","null","reveal","image-keyboard-response","122","624018","0.0-6.0-4.16","3382860","co37684","norming","","","","","","",""
"null","../img/tt/1097tt.jpg","null","mooney2","image-keyboard-response","123","626019","0.0-6.0-5.16","3382860","co37684","norming","","","","","","",""
"1378.3300000000745","","","post_reveal_questions","survey-likert","124","627400","0.0-6.0-6.16","3382860","co37684","norming","","","{""aha"":4}","[0]","../img/tt/1097tt.jpg","",""
"null","<div style=""font-size:60px;""> </div>","null","fixation","html-keyboard-response","125","627603","0.0-6.0-0.17","3382860","co37684","norming","","","","","","",""
"null","../img/tt/1084tt.jpg","null","mooney1","image-keyboard-response","126","630604","0.0-6.0-1.17","3382860","co37684","norming","","","","","","",""
"6873.320000000182","","","post_mooney1_questions","survey-likert","127","637480","0.0-6.0-2.17","3382860","co37684","norming","","","{""curiosity"":4,""confidence"":2}","[0,1]","../img/tt/1084tt.jpg","",""
"6390.030000000028","","","recognition","survey-text","128","643872","0.0-6.0-3.17","3382860","co37684","norming","","","{""guess"":""Food on plate""}","","../img/tt/1084tt.jpg","",""
"null","../img/gs/1084gs.jpg","null","reveal","image-keyboard-response","129","645874","0.0-6.0-4.17","3382860","co37684","norming","","","","","","",""
"null","../img/tt/1084tt.jpg","null","mooney2","image-keyboard-response","130","647875","0.0-6.0-5.17","3382860","co37684","norming","","","","","","",""
"1658.204999999958","","","post_reveal_questions","survey-likert","131","649536","0.0-6.0-6.17","3382860","co37684","norming","","","{""aha"":3}","[0]","../img/tt/1084tt.jpg","",""
"null","<div style=""font-size:60px;""> </div>","null","fixation","html-keyboard-response","132","649742","0.0-6.0-0.18","3382860","co37684","norming","","","","","","",""
"null","../img/tt/1205tt.jpg","null","mooney1","image-keyboard-response","133","652744","0.0-6.0-1.18","3382860","co37684","norming","","","","","","",""
"2964.805000000051","","","post_mooney1_questions","survey-likert","134","655712","0.0-6.0-2.18","3382860","co37684","norming","","","{""curiosity"":5,""confidence"":1}","[0,1]","../img/tt/1205tt.jpg","",""
"9310.135000000126","","","recognition","survey-text","135","665024","0.0-6.0-3.18","3382860","co37684","norming","","","{""guess"":""Cheering crowd""}","","../img/tt/1205tt.jpg","",""
"null","../img/gs/1205gs.jpg","null","reveal","image-keyboard-response","136","667026","0.0-6.0-4.18","3382860","co37684","norming","","","","","","",""
"null","../img/tt/1205tt.jpg","null","mooney2","image-keyboard-response","137","669028","0.0-6.0-5.18","3382860","co37684","norming","","","","","","",""
"3946.0549999998184","","","post_reveal_questions","survey-likert","138","672976","0.0-6.0-6.18","3382860","co37684","norming","","","{""aha"":5}","[0]","../img/tt/1205tt.jpg","",""
"null","<div style=""font-size:60px;""> </div>","null","fixation","html-keyboard-response","139","673182","0.0-6.0-0.19","3382860","co37684","norming","","","","","","",""
"null","../img/tt/357tt.jpg","null","mooney1","image-keyboard-response","140","676193","0.0-6.0-1.19","3382860","co37684","norming","","","","","","",""
"3292.605000000098","","","post_mooney1_questions","survey-likert","141","679488","0.0-6.0-2.19","3382860","co37684","norming","","","{""curiosity"":6,""confidence"":0}","[0,1]","../img/tt/357tt.jpg","",""
"4510.244999999995","","","recognition","survey-text","142","684000","0.0-6.0-3.19","3382860","co37684","norming","","","{""guess"":""No idea""}","","../img/tt/357tt.jpg","",""
"null","../img/gs/357gs.jpg","null","reveal","image-keyboard-response","143","686008","0.0-6.0-4.19","3382860","co37684","norming","","","","","","",""
"null","../img/tt/357tt.jpg","null","mooney2","image-keyboard-response","144","688011","0.0-6.0-5.19","3382860","co37684","norming","","","","","","",""
"1922.9849999998696","","","post_reveal_questions","survey-likert","145","689936","0.0-6.0-6.19","3382860","co37684","norming","","","{""aha"":5}","[0]","../img/tt/357tt.jpg","",""
"null","<div style=""font-size:60px;""> </div>","null","fixation","html-keyboard-response","146","690142","0.0-6.0-0.20","3382860","co37684","norming","","","","","","",""
"null","../img/tt/319tt.jpg","null","mooney1","image-keyboard-response","147","693145","0.0-6.0-1.20","3382860","co37684","norming","","","","","","",""
"4635.97499999986","","","post_mooney1_questions","survey-likert","148","697784","0.0-6.0-2.20","3382860","co37684","norming","","","{""curiosity"":4,""confidence"":4}","[0,1]","../img/tt/319tt.jpg","",""
"4438.175000000047","","","recognition","survey-text","149","702224","0.0-6.0-3.20","3382860","co37684","norming","","","{""guess"":""Donkeys""}","","../img/tt/319tt.jpg","",""
"null","../img/gs/319gs.jpg","null","reveal","image-keyboard-response","150","704225","0.0-6.0-4.20","3382860","co37684","norming","","","","","","",""
"null","../img/tt/319tt.jpg","null","mooney2","image-keyboard-response","151","706227","0.0-6.0-5.20","3382860","co37684","norming","","","","","","",""
"1090.7849999999162","","","post_reveal_questions","survey-likert","152","707320","0.0-6.0-6.20","3382860","co37684","norming","","","{""aha"":3}","[0]","../img/tt/319tt.jpg","",""
"null","<div style=""font-size:60px;""> </div>","null","fixation","html-keyboard-response","153","707524","0.0-6.0-0.21","3382860","co37684","norming","","","","","","",""
"null","../img/tt/078tt.jpg","null","mooney1","image-keyboard-response","154","710529","0.0-6.0-1.21","3382860","co37684","norming","","","","","","",""
"3068.875","","","post_mooney1_questions","survey-likert","155","713600","0.0-6.0-2.21","3382860","co37684","norming","","","{""curiosity"":5,""confidence"":2}","[0,1]","../img/tt/078tt.jpg","",""
"3437.6299999998882","","","recognition","survey-text","156","717040","0.0-6.0-3.21","3382860","co37684","norming","","","{""guess"":""Leaf""}","","../img/tt/078tt.jpg","",""
"null","../img/gs/078gs.jpg","null","reveal","image-keyboard-response","157","719041","0.0-6.0-4.21","3382860","co37684","norming","","","","","","",""
"null","../img/tt/078tt.jpg","null","mooney2","image-keyboard-response","158","721044","0.0-6.0-5.21","3382860","co37684","norming","","","","","","",""
"1825.3250000000698","","","post_reveal_questions","survey-likert","159","722872","0.0-6.0-6.21","3382860","co37684","norming","","","{""aha"":2}","[0]","../img/tt/078tt.jpg","",""
"null","<div style=""font-size:60px;""> </div>","null","fixation","html-keyboard-response","160","723078","0.0-6.0-0.22","3382860","co37684","norming","","","","","","",""
"null","../img/tt/1123tt.jpg","null","mooney1","image-keyboard-response","161","726087","0.0-6.0-1.22","3382860","co37684","norming","","","","","","",""
"5734.400000000023","","","post_mooney1_questions","survey-likert","162","731824","0.0-6.0-2.22","3382860","co37684","norming","","","{""curiosity"":3,""confidence"":2}","[0,1]","../img/tt/1123tt.jpg","",""
"10174.15000000014","","","recognition","survey-text","163","741999","0.0-6.0-3.22","3382860","co37684","norming","","","{""guess"":""Baseball player""}","","../img/tt/1123tt.jpg","",""
"null","../img/gs/1123gs.jpg","null","reveal","image-keyboard-response","164","744003","0.0-6.0-4.22","3382860","co37684","norming","","","","","","",""
"null","../img/tt/1123tt.jpg","null","mooney2","image-keyboard-response","165","746005","0.0-6.0-5.22","3382860","co37684","norming","","","","","","",""
"2784.07500000007","","","post_reveal_questions","survey-likert","166","748791","0.0-6.0-6.22","3382860","co37684","norming","","","{""aha"":2}","[0]","../img/tt/1123tt.jpg","",""
"null","<div style=""font-size:60px;""> </div>","null","fixation","html-keyboard-response","167","748996","0.0-6.0-0.23","3382860","co37684","norming","","","","","","",""
"null","../img/tt/1226tt.jpg","null","mooney1","image-keyboard-response","168","751999","0.0-6.0-1.23","3382860","co37684","norming","","","","","","",""
"8974.135000000242","","","post_mooney1_questions","survey-likert","169","760976","0.0-6.0-2.23","3382860","co37684","norming","","","{""curiosity"":2,""confidence"":5}","[0,1]","../img/tt/1226tt.jpg","",""
"5997.989999999991","","","recognition","survey-text","170","766975","0.0-6.0-3.23","3382860","co37684","norming","","","{""guess"":""Two chicken""}","","../img/tt/1226tt.jpg","",""
"null","../img/gs/1226gs.jpg","null","reveal","image-keyboard-response","171","768977","0.0-6.0-4.23","3382860","co37684","norming","","","","","","",""
"null","../img/tt/1226tt.jpg","null","mooney2","image-keyboard-response","172","770981","0.0-6.0-5.23","3382860","co37684","norming","","","","","","",""
"1384.0900000000838","","","post_reveal_questions","survey-likert","173","772367","0.0-6.0-6.23","3382860","co37684","norming","","","{""aha"":1}","[0]","../img/tt/1226tt.jpg","",""
"null","<div style=""font-size:60px;""> </div>","null","fixation","html-keyboard-response","174","772572","0.0-6.0-0.24","3382860","co37684","norming","","","","","","",""
"null","../img/tt/194tt.jpg","null","mooney1","image-keyboard-response","175","775579","0.0-6.0-1.24","3382860","co37684","norming","","","","","","",""
"4827.385000000009","","","post_mooney1_questions","survey-likert","176","780407","0.0-6.0-2.24","3382860","co37684","norming","","","{""curiosity"":2,""confidence"":5}","[0,1]","../img/tt/194tt.jpg","",""
"8437.80999999994","","","recognition","survey-text","177","788847","0.0-6.0-3.24","3382860","co37684","norming","","","{""guess"":""Sitting person""}","","../img/tt/194tt.jpg","",""
"null","../img/gs/194gs.jpg","null","reveal","image-keyboard-response","178","790850","0.0-6.0-4.24","3382860","co37684","norming","","","","","","",""
"null","../img/tt/194tt.jpg","null","mooney2","image-keyboard-response","179","792852","0.0-6.0-5.24","3382860","co37684","norming","","","","","","",""
"2217.0000000001164","","","post_reveal_questions","survey-likert","180","795071","0.0-6.0-6.24","3382860","co37684","norming","","","{""aha"":2}","[0]","../img/tt/194tt.jpg","",""
"null","<div style=""font-size:60px;""> </div>","null","fixation","html-keyboard-response","181","795273","0.0-6.0-0.25","3382860","co37684","norming","","","","","","",""
"null","../img/tt/1006tt.jpg","null","mooney1","image-keyboard-response","182","798287","0.0-6.0-1.25","3382860","co37684","norming","","","","","","",""
"6594.144999999786","","","post_mooney1_questions","survey-likert","183","804885","0.0-6.0-2.25","3382860","co37684","norming","","","{""curiosity"":4,""confidence"":1}","[0,1]","../img/tt/1006tt.jpg","",""
"5405.944999999949","","","recognition","survey-text","184","810292","0.0-6.0-3.25","3382860","co37684","norming","","","{""guess"":""Landscape""}","","../img/tt/1006tt.jpg","",""
"null","../img/gs/1006gs.jpg","null","reveal","image-keyboard-response","185","812293","0.0-6.0-4.25","3382860","co37684","norming","","","","","","",""
"null","../img/tt/1006tt.jpg","null","mooney2","image-keyboard-response","186","814296","0.0-6.0-5.25","3382860","co37684","norming","","","","","","",""
"3314.814999999944","","","post_reveal_questions","survey-likert","187","817612","0.0-6.0-6.25","3382860","co37684","norming","","","{""aha"":4}","[0]","../img/tt/1006tt.jpg","",""
"null","<div style=""font-size:60px;""> </div>","null","fixation","html-keyboard-response","188","817815","0.0-6.0-0.26","3382860","co37684","norming","","","","","","",""
"null","../img/tt/1211tt.jpg","null","mooney1","image-keyboard-response","189","820823","0.0-6.0-1.26","3382860","co37684","norming","","","","","","",""
"4306.540000000037","","","post_mooney1_questions","survey-likert","190","825133","0.0-6.0-2.26","3382860","co37684","norming","","","{""curiosity"":5,""confidence"":0}","[0,1]","../img/tt/1211tt.jpg","",""
"6806.164999999921","","","recognition","survey-text","191","831940","0.0-6.0-3.26","3382860","co37684","norming","","","{""guess"":""Boat""}","","../img/tt/1211tt.jpg","",""
"null","../img/gs/1211gs.jpg","null","reveal","image-keyboard-response","192","833950","0.0-6.0-4.26","3382860","co37684","norming","","","","","","",""
"null","../img/tt/1211tt.jpg","null","mooney2","image-keyboard-response","193","835958","0.0-6.0-5.26","3382860","co37684","norming","","","","","","",""
"3508.045000000042","","","post_reveal_questions","survey-likert","194","839469","0.0-6.0-6.26","3382860","co37684","norming","","","{""aha"":6}","[0]","../img/tt/1211tt.jpg","",""
"null","<div style=""font-size:60px;""> </div>","null","fixation","html-keyboard-response","195","839669","0.0-6.0-0.27","3382860","co37684","norming","","","","","","",""
"null","../img/tt/1255tt.jpg","null","mooney1","image-keyboard-response","196","842679","0.0-6.0-1.27","3382860","co37684","norming","","","","","","",""
"5395.105000000098","","","post_mooney1_questions","survey-likert","197","848077","0.0-6.0-2.27","3382860","co37684","norming","","","{""curiosity"":5,""confidence"":1}","[0,1]","../img/tt/1255tt.jpg","",""
"8046.045000000042","","","recognition","survey-text","198","856124","0.0-6.0-3.27","3382860","co37684","norming","","","{""guess"":""Three people""}","","../img/tt/1255tt.jpg","",""
"null","../img/gs/1255gs.jpg","null","reveal","image-keyboard-response","199","858129","0.0-6.0-4.27","3382860","co37684","norming","","","","","","",""
"null","../img/tt/1255tt.jpg","null","mooney2","image-keyboard-response","200","860138","0.0-6.0-5.27","3382860","co37684","norming","","","","","","",""
"2482.1200000001118","","","post_reveal_questions","survey-likert","201","862623","0.0-6.0-6.27","3382860","co37684","norming","","","{""aha"":5}","[0]","../img/tt/1255tt.jpg","",""
"null","<div style=""font-size:60px;""> </div>","null","fixation","html-keyboard-response","202","862825","0.0-6.0-0.28","3382860","co37684","norming","","","","","","",""
"null","../img/tt/1309tt.jpg","null","mooney1","image-keyboard-response","203","865834","0.0-6.0-1.28","3382860","co37684","norming","","","","","","",""
"3986.094999999972","","","post_mooney1_questions","survey-likert","204","869823","0.0-6.0-2.28","3382860","co37684","norming","","","{""curiosity"":2,""confidence"":4}","[0,1]","../img/tt/1309tt.jpg","",""
"12141.9099999998","","","recognition","survey-text","205","881967","0.0-6.0-3.28","3382860","co37684","norming","","","{""guess"":""car woods""}","","../img/tt/1309tt.jpg","",""
"null","../img/gs/1309gs.jpg","null","reveal","image-keyboard-response","206","883975","0.0-6.0-4.28","3382860","co37684","norming","","","","","","",""
"null","../img/tt/1309tt.jpg","null","mooney2","image-keyboard-response","207","885983","0.0-6.0-5.28","3382860","co37684","norming","","","","","","",""
"4341.024999999907","","","post_reveal_questions","survey-likert","208","890327","0.0-6.0-6.28","3382860","co37684","norming","","","{""aha"":1}","[0]","../img/tt/1309tt.jpg","",""
"null","<div style=""font-size:60px;""> </div>","null","fixation","html-keyboard-response","209","890529","0.0-6.0-0.29","3382860","co37684","norming","","","","","","",""
"null","../img/tt/1362tt.jpg","null","mooney1","image-keyboard-response","210","893536","0.0-6.0-1.29","3382860","co37684","norming","","","","","","",""
"7429.6549999999115","","","post_mooney1_questions","survey-likert","211","900967","0.0-6.0-2.29","3382860","co37684","norming","","","{""curiosity"":2,""confidence"":5}","[0,1]","../img/tt/1362tt.jpg","",""
"9910.175000000047","","","recognition","survey-text","212","910879","0.0-6.0-3.29","3382860","co37684","norming","","","{""guess"":""Stove pans""}","","../img/tt/1362tt.jpg","",""
"null","../img/gs/1362gs.jpg","null","reveal","image-keyboard-response","213","912881","0.0-6.0-4.29","3382860","co37684","norming","","","","","","",""
"null","../img/tt/1362tt.jpg","null","mooney2","image-keyboard-response","214","914882","0.0-6.0-5.29","3382860","co37684","norming","","","","","","",""
"4313.539999999804","","","post_reveal_questions","survey-likert","215","919198","0.0-6.0-6.29","3382860","co37684","norming","","","{""aha"":0}","[0]","../img/tt/1362tt.jpg","",""
"null","<div style=""font-size:60px;""> </div>","null","fixation","html-keyboard-response","216","919406","0.0-6.0-0.30","3382860","co37684","norming","","","","","","",""
"null","../img/tt/300tt.jpg","null","mooney1","image-keyboard-response","217","922418","0.0-6.0-1.30","3382860","co37684","norming","","","","","","",""
"5252.214999999967","","","post_mooney1_questions","survey-likert","218","927673","0.0-6.0-2.30","3382860","co37684","norming","","","{""curiosity"":2,""confidence"":4}","[0,1]","../img/tt/300tt.jpg","",""
"9701.845000000088","","","recognition","survey-text","219","937377","0.0-6.0-3.30","3382860","co37684","norming","","","{""guess"":""sitting women""}","","../img/tt/300tt.jpg","",""
"null","../img/gs/300gs.jpg","null","reveal","image-keyboard-response","220","939380","0.0-6.0-4.30","3382860","co37684","norming","","","","","","",""
"null","../img/tt/300tt.jpg","null","mooney2","image-keyboard-response","221","941382","0.0-6.0-5.30","3382860","co37684","norming","","","","","","",""
"1544.0849999999627","","","post_reveal_questions","survey-likert","222","942929","0.0-6.0-6.30","3382860","co37684","norming","","","{""aha"":0}","[0]","../img/tt/300tt.jpg","",""
"null","<div style=""font-size:60px;""> </div>","null","fixation","html-keyboard-response","223","943135","0.0-6.0-0.31","3382860","co37684","norming","","","","","","",""
"null","../img/tt/515tt.jpg","null","mooney1","image-keyboard-response","224","946138","0.0-6.0-1.31","3382860","co37684","norming","","","","","","",""
"4492.479999999865","","","post_mooney1_questions","survey-likert","225","950633","0.0-6.0-2.31","3382860","co37684","norming","","","{""curiosity"":5,""confidence"":0}","[0,1]","../img/tt/515tt.jpg","",""
"5174.0800000000745","","","recognition","survey-text","226","955809","0.0-6.0-3.31","3382860","co37684","norming","","","{""guess"":""animal""}","","../img/tt/515tt.jpg","",""
"null","../img/gs/515gs.jpg","null","reveal","image-keyboard-response","227","957816","0.0-6.0-4.31","3382860","co37684","norming","","","","","","",""
"null","../img/tt/515tt.jpg","null","mooney2","image-keyboard-response","228","959819","0.0-6.0-5.31","3382860","co37684","norming","","","","","","",""
"5299.909999999916","","","post_reveal_questions","survey-likert","229","965121","0.0-6.0-6.31","3382860","co37684","norming","","","{""aha"":4}","[0]","../img/tt/515tt.jpg","",""
"null","<div style=""font-size:60px;""> </div>","null","fixation","html-keyboard-response","230","965324","0.0-6.0-0.32","3382860","co37684","norming","","","","","","",""
"null","../img/tt/1283tt.jpg","null","mooney1","image-keyboard-response","231","968334","0.0-6.0-1.32","3382860","co37684","norming","","","","","","",""
"4695.670000000042","","","post_mooney1_questions","survey-likert","232","973033","0.0-6.0-2.32","3382860","co37684","norming","","","{""curiosity"":4,""confidence"":1}","[0,1]","../img/tt/1283tt.jpg","",""
"11165.444999999832","","","recognition","survey-text","233","984194","0.0-6.0-3.32","3382860","co37684","norming","","","{""guess"":""Lemur ""}","","../img/tt/1283tt.jpg","",""
"null","../img/gs/1283gs.jpg","null","reveal","image-keyboard-response","234","986204","0.0-6.0-4.32","3382860","co37684","norming","","","","","","",""
"null","../img/tt/1283tt.jpg","null","mooney2","image-keyboard-response","235","988214","0.0-6.0-5.32","3382860","co37684","norming","","","","","","",""
"4737.540000000037","","","post_reveal_questions","survey-likert","236","992954","0.0-6.0-6.32","3382860","co37684","norming","","","{""aha"":4}","[0]","../img/tt/1283tt.jpg","",""
"null","<div style=""font-size:60px;""> </div>","null","fixation","html-keyboard-response","237","993161","0.0-6.0-0.33","3382860","co37684","norming","","","","","","",""
"null","../img/tt/1173tt.jpg","null","mooney1","image-keyboard-response","238","996167","0.0-6.0-1.33","3382860","co37684","norming","","","","","","",""
"3720.699999999837","","","post_mooney1_questions","survey-likert","239","999891","0.0-6.0-2.33","3382860","co37684","norming","","","{""curiosity"":5,""confidence"":2}","[0,1]","../img/tt/1173tt.jpg","",""
"2782.090000000084","","","recognition","survey-text","240","1002674","0.0-6.0-3.33","3382860","co37684","norming","","","{""guess"":""elephant""}","","../img/tt/1173tt.jpg","",""
"null","../img/gs/1173gs.jpg","null","reveal","image-keyboard-response","241","1004677","0.0-6.0-4.33","3382860","co37684","norming","","","","","","",""
"null","../img/tt/1173tt.jpg","null","mooney2","image-keyboard-response","242","1006680","0.0-6.0-5.33","3382860","co37684","norming","","","","","","",""
"2880.159999999916","","","post_reveal_questions","survey-likert","243","1009562","0.0-6.0-6.33","3382860","co37684","norming","","","{""aha"":6}","[0]","../img/tt/1173tt.jpg","",""
"null","<div style=""font-size:60px;""> </div>","null","fixation","html-keyboard-response","244","1009764","0.0-6.0-0.34","3382860","co37684","norming","","","","","","",""
"null","../img/tt/1243tt.jpg","null","mooney1","image-keyboard-response","245","1012774","0.0-6.0-1.34","3382860","co37684","norming","","","","","","",""
"5081.8450000000885","","","post_mooney1_questions","survey-likert","246","1017859","0.0-6.0-2.34","3382860","co37684","norming","","","{""curiosity"":5,""confidence"":1}","[0,1]","../img/tt/1243tt.jpg","",""
"9614.079999999842","","","recognition","survey-text","247","1027474","0.0-6.0-3.34","3382860","co37684","norming","","","{""guess"":""Man ""}","","../img/tt/1243tt.jpg","",""
"null","../img/gs/1243gs.jpg","null","reveal","image-keyboard-response","248","1029476","0.0-6.0-4.34","3382860","co37684","norming","","","","","","",""
"null","../img/tt/1243tt.jpg","null","mooney2","image-keyboard-response","249","1031478","0.0-6.0-5.34","3382860","co37684","norming","","","","","","",""
"3322.304999999935","","","post_reveal_questions","survey-likert","250","1034802","0.0-6.0-6.34","3382860","co37684","norming","","","{""aha"":5}","[0]","../img/tt/1243tt.jpg","",""
"null","<div style=""font-size:60px;""> </div>","null","fixation","html-keyboard-response","251","1035009","0.0-6.0-0.35","3382860","co37684","norming","","","","","","",""
"null","../img/tt/353tt.jpg","null","mooney1","image-keyboard-response","252","1038012","0.0-6.0-1.35","3382860","co37684","norming","","","","","","",""
"5458.925000000163","","","post_mooney1_questions","survey-likert","253","1043474","0.0-6.0-2.35","3382860","co37684","norming","","","{""curiosity"":4,""confidence"":5}","[0,1]","../img/tt/353tt.jpg","",""
"3173.8649999999907","","","recognition","survey-text","254","1046651","0.0-6.0-3.35","3382860","co37684","norming","","","{""guess"":""Penguin""}","","../img/tt/353tt.jpg","",""
"null","../img/gs/353gs.jpg","null","reveal","image-keyboard-response","255","1048652","0.0-6.0-4.35","3382860","co37684","norming","","","","","","",""
"null","../img/tt/353tt.jpg","null","mooney2","image-keyboard-response","256","1050660","0.0-6.0-5.35","3382860","co37684","norming","","","","","","",""
"1957.3949999997858","","","post_reveal_questions","survey-likert","257","1052619","0.0-6.0-6.35","3382860","co37684","norming","","","{""aha"":4}","[0]","../img/tt/353tt.jpg","",""
"null","<div style=""font-size:60px;""> </div>","null","fixation","html-keyboard-response","258","1052822","0.0-6.0-0.36","3382860","co37684","norming","","","","","","",""
"null","../img/tt/1063tt.jpg","null","mooney1","image-keyboard-response","259","1055831","0.0-6.0-1.36","3382860","co37684","norming","","","","","","",""
"10105.470000000205","","","post_mooney1_questions","survey-likert","260","1065939","0.0-6.0-2.36","3382860","co37684","norming","","","{""curiosity"":4,""confidence"":2}","[0,1]","../img/tt/1063tt.jpg","",""
"9181.854999999981","","","recognition","survey-text","261","1075123","0.0-6.0-3.36","3382860","co37684","norming","","","{""guess"":""Horses""}","","../img/tt/1063tt.jpg","",""
"null","../img/gs/1063gs.jpg","null","reveal","image-keyboard-response","262","1077125","0.0-6.0-4.36","3382860","co37684","norming","","","","","","",""
"null","../img/tt/1063tt.jpg","null","mooney2","image-keyboard-response","263","1079128","0.0-6.0-5.36","3382860","co37684","norming","","","","","","",""
"2848.554999999935","","","post_reveal_questions","survey-likert","264","1081979","0.0-6.0-6.36","3382860","co37684","norming","","","{""aha"":4}","[0]","../img/tt/1063tt.jpg","",""
"null","<div style=""font-size:60px;""> </div>","null","fixation","html-keyboard-response","265","1082180","0.0-6.0-0.37","3382860","co37684","norming","","","","","","",""
"null","../img/tt/524tt.jpg","null","mooney1","image-keyboard-response","266","1085183","0.0-6.0-1.37","3382860","co37684","norming","","","","","","",""
"5472.510000000009","","","post_mooney1_questions","survey-likert","267","1090659","0.0-6.0-2.37","3382860","co37684","norming","","","{""curiosity"":5,""confidence"":3}","[0,1]","../img/tt/524tt.jpg","",""
"3861.905000000028","","","recognition","survey-text","268","1094523","0.0-6.0-3.37","3382860","co37684","norming","","","{""guess"":""Sloth""}","","../img/tt/524tt.jpg","",""
"null","../img/gs/524gs.jpg","null","reveal","image-keyboard-response","269","1096525","0.0-6.0-4.37","3382860","co37684","norming","","","","","","",""
"null","../img/tt/524tt.jpg","null","mooney2","image-keyboard-response","270","1098537","0.0-6.0-5.37","3382860","co37684","norming","","","","","","",""
"4503.040000000037","","","post_reveal_questions","survey-likert","271","1103043","0.0-6.0-6.37","3382860","co37684","norming","","","{""aha"":5}","[0]","../img/tt/524tt.jpg","",""
"null","<div style=""font-size:60px;""> </div>","null","fixation","html-keyboard-response","272","1103244","0.0-6.0-0.38","3382860","co37684","norming","","","","","","",""
"null","../img/tt/380tt.jpg","null","mooney1","image-keyboard-response","273","1106259","0.0-6.0-1.38","3382860","co37684","norming","","","","","","",""
"3268.505000000121","","","post_mooney1_questions","survey-likert","274","1109531","0.0-6.0-2.38","3382860","co37684","norming","","","{""curiosity"":4,""confidence"":1}","[0,1]","../img/tt/380tt.jpg","",""
"3470.089999999851","","","recognition","survey-text","275","1113003","0.0-6.0-3.38","3382860","co37684","norming","","","{""guess"":""Cat""}","","../img/tt/380tt.jpg","",""
"null","../img/gs/380gs.jpg","null","reveal","image-keyboard-response","276","1115004","0.0-6.0-4.38","3382860","co37684","norming","","","","","","",""
"null","../img/tt/380tt.jpg","null","mooney2","image-keyboard-response","277","1117013","0.0-6.0-5.38","3382860","co37684","norming","","","","","","",""
"2564.470000000205","","","post_reveal_questions","survey-likert","278","1119579","0.0-6.0-6.38","3382860","co37684","norming","","","{""aha"":6}","[0]","../img/tt/380tt.jpg","",""
"null","<div style=""font-size:60px;""> </div>","null","fixation","html-keyboard-response","279","1119780","0.0-6.0-0.39","3382860","co37684","norming","","","","","","",""
"null","../img/tt/438tt.jpg","null","mooney1","image-keyboard-response","280","1122783","0.0-6.0-1.39","3382860","co37684","norming","","","","","","",""
"6288.965000000317","","","post_mooney1_questions","survey-likert","281","1129075","0.0-6.0-2.39","3382860","co37684","norming","","","{""curiosity"":4,""confidence"":5}","[0,1]","../img/tt/438tt.jpg","",""
"6830.214999999851","","","recognition","survey-text","282","1135907","0.0-6.0-3.39","3382860","co37684","norming","","","{""guess"":""Snake""}","","../img/tt/438tt.jpg","",""
"null","../img/gs/438gs.jpg","null","reveal","image-keyboard-response","283","1137909","0.0-6.0-4.39","3382860","co37684","norming","","","","","","",""
"null","../img/tt/438tt.jpg","null","mooney2","image-keyboard-response","284","1139919","0.0-6.0-5.39","3382860","co37684","norming","","","","","","",""
"3153.8950000000186","","","post_reveal_questions","survey-likert","285","1143075","0.0-6.0-6.39","3382860","co37684","norming","","","{""aha"":1}","[0]","../img/tt/438tt.jpg","",""
"null","<div style=""font-size:60px;""> </div>","null","fixation","html-keyboard-response","286","1143286","0.0-6.0-0.40","3382860","co37684","norming","","","","","","",""
"null","../img/tt/477tt.jpg","null","mooney1","image-keyboard-response","287","1146296","0.0-6.0-1.40","3382860","co37684","norming","","","","","","",""
"4559.614999999991","","","post_mooney1_questions","survey-likert","288","1150859","0.0-6.0-2.40","3382860","co37684","norming","","","{""curiosity"":4,""confidence"":2}","[0,1]","../img/tt/477tt.jpg","",""
"2765.7949999999255","","","recognition","survey-text","289","1153627","0.0-6.0-3.40","3382860","co37684","norming","","","{""guess"":""Otter""}","","../img/tt/477tt.jpg","",""
"null","../img/gs/477gs.jpg","null","reveal","image-keyboard-response","290","1155631","0.0-6.0-4.40","3382860","co37684","norming","","","","","","",""
"null","../img/tt/477tt.jpg","null","mooney2","image-keyboard-response","291","1157632","0.0-6.0-5.40","3382860","co37684","norming","","","","","","",""
"2810.570000000065","","","post_reveal_questions","survey-likert","292","1160443","0.0-6.0-6.40","3382860","co37684","norming","","","{""aha"":5}","[0]","../img/tt/477tt.jpg","",""
"null","<div style=""font-size:60px;""> </div>","null","fixation","html-keyboard-response","293","1160646","0.0-6.0-0.41","3382860","co37684","norming","","","","","","",""
"null","../img/tt/1189tt.jpg","null","mooney1","image-keyboard-response","294","1163650","0.0-6.0-1.41","3382860","co37684","norming","","","","","","",""
"6968.51500000013","","","post_mooney1_questions","survey-likert","295","1170618","0.0-6.0-2.41","3382860","co37684","norming","","","{""curiosity"":4,""confidence"":1}","[0,1]","../img/tt/1189tt.jpg","",""
"3877.7549999998882","","","recognition","survey-text","296","1174498","0.0-6.0-3.41","3382860","co37684","norming","","","{""guess"":""Crocodile""}","","../img/tt/1189tt.jpg","",""
"null","../img/gs/1189gs.jpg","null","reveal","image-keyboard-response","297","1176500","0.0-6.0-4.41","3382860","co37684","norming","","","","","","",""
"null","../img/tt/1189tt.jpg","null","mooney2","image-keyboard-response","298","1178507","0.0-6.0-5.41","3382860","co37684","norming","","","","","","",""
"3220.9199999999255","","","post_reveal_questions","survey-likert","299","1181730","0.0-6.0-6.41","3382860","co37684","norming","","","{""aha"":6}","[0]","../img/tt/1189tt.jpg","",""
"null","<div style=""font-size:60px;""> </div>","null","fixation","html-keyboard-response","300","1181937","0.0-6.0-0.42","3382860","co37684","norming","","","","","","",""
"null","../img/tt/064tt.jpg","null","mooney1","image-keyboard-response","301","1184941","0.0-6.0-1.42","3382860","co37684","norming","","","","","","",""
"5243.949999999953","","","post_mooney1_questions","survey-likert","302","1190186","0.0-6.0-2.42","3382860","co37684","norming","","","{""curiosity"":3,""confidence"":5}","[0,1]","../img/tt/064tt.jpg","",""
"6950.160000000149","","","recognition","survey-text","303","1197138","0.0-6.0-3.42","3382860","co37684","norming","","","{""guess"":""Turtle Turtoise""}","","../img/tt/064tt.jpg","",""
"null","../img/gs/064gs.jpg","null","reveal","image-keyboard-response","304","1199145","0.0-6.0-4.42","3382860","co37684","norming","","","","","","",""
"null","../img/tt/064tt.jpg","null","mooney2","image-keyboard-response","305","1201149","0.0-6.0-5.42","3382860","co37684","norming","","","","","","",""
"3835.3549999997485","","","post_reveal_questions","survey-likert","306","1204986","0.0-6.0-6.42","3382860","co37684","norming","","","{""aha"":4}","[0]","../img/tt/064tt.jpg","",""
"null","<div style=""font-size:60px;""> </div>","null","fixation","html-keyboard-response","307","1205192","0.0-6.0-0.43","3382860","co37684","norming","","","","","","",""
"null","../img/tt/036tt.jpg","null","mooney1","image-keyboard-response","308","1208195","0.0-6.0-1.43","3382860","co37684","norming","","","","","","",""
"2971.625","","","post_mooney1_questions","survey-likert","309","1211170","0.0-6.0-2.43","3382860","co37684","norming","","","{""curiosity"":6,""confidence"":0}","[0,1]","../img/tt/036tt.jpg","",""
"3493.9900000002235","","","recognition","survey-text","310","1214666","0.0-6.0-3.43","3382860","co37684","norming","","","{""guess"":""Frog""}","","../img/tt/036tt.jpg","",""
"null","../img/gs/036gs.jpg","null","reveal","image-keyboard-response","311","1216671","0.0-6.0-4.43","3382860","co37684","norming","","","","","","",""
"null","../img/tt/036tt.jpg","null","mooney2","image-keyboard-response","312","1218679","0.0-6.0-5.43","3382860","co37684","norming","","","","","","",""
"1848.04000000027","","","post_reveal_questions","survey-likert","313","1220530","0.0-6.0-6.43","3382860","co37684","norming","","","{""aha"":6}","[0]","../img/tt/036tt.jpg","",""
"null","<div style=""font-size:60px;""> </div>","null","fixation","html-keyboard-response","314","1220739","0.0-6.0-0.44","3382860","co37684","norming","","","","","","",""
"null","../img/tt/1107tt.jpg","null","mooney1","image-keyboard-response","315","1223747","0.0-6.0-1.44","3382860","co37684","norming","","","","","","",""
"5301.120000000112","","","post_mooney1_questions","survey-likert","316","1229043","0.0-6.0-2.44","3382860","co37684","norming","","","{""curiosity"":5,""confidence"":1}","[0,1]","../img/tt/1107tt.jpg","",""
"2862.2900000000373","","","recognition","survey-text","317","1231907","0.0-6.0-3.44","3382860","co37684","norming","","","{""guess"":""Cow""}","","../img/tt/1107tt.jpg","",""
"null","../img/gs/1107gs.jpg","null","reveal","image-keyboard-response","318","1233908","0.0-6.0-4.44","3382860","co37684","norming","","","","","","",""
"null","../img/tt/1107tt.jpg","null","mooney2","image-keyboard-response","319","1235914","0.0-6.0-5.44","3382860","co37684","norming","","","","","","",""
"3629.0400000000373","","","post_reveal_questions","survey-likert","320","1239547","0.0-6.0-6.44","3382860","co37684","norming","","","{""aha"":6}","[0]","../img/tt/1107tt.jpg","",""
"null","<div style=""font-size:60px;""> </div>","null","fixation","html-keyboard-response","321","1239753","0.0-6.0-0.45","3382860","co37684","norming","","","","","","",""
"null","../img/tt/1024tt.jpg","null","mooney1","image-keyboard-response","322","1242759","0.0-6.0-1.45","3382860","co37684","norming","","","","","","",""
"3801.125","","","post_mooney1_questions","survey-likert","323","1246563","0.0-6.0-2.45","3382860","co37684","norming","","","{""curiosity"":4,""confidence"":1}","[0,1]","../img/tt/1024tt.jpg","",""
"11741.85999999987","","","recognition","survey-text","324","1258307","0.0-6.0-3.45","3382860","co37684","norming","","","{""guess"":""Sitting person""}","","../img/tt/1024tt.jpg","",""
"null","../img/gs/1024gs.jpg","null","reveal","image-keyboard-response","325","1260308","0.0-6.0-4.45","3382860","co37684","norming","","","","","","",""
"null","../img/tt/1024tt.jpg","null","mooney2","image-keyboard-response","326","1262316","0.0-6.0-5.45","3382860","co37684","norming","","","","","","",""
"2348.7349999998696","","","post_reveal_questions","survey-likert","327","1264667","0.0-6.0-6.45","3382860","co37684","norming","","","{""aha"":5}","[0]","../img/tt/1024tt.jpg","",""
"null","<div style=""font-size:60px;""> </div>","null","fixation","html-keyboard-response","328","1264870","0.0-6.0-0.46","3382860","co37684","norming","","","","","","",""
"null","../img/tt/044tt.jpg","null","mooney1","image-keyboard-response","329","1267874","0.0-6.0-1.46","3382860","co37684","norming","","","","","","",""
"4382.2949999999255","","","post_mooney1_questions","survey-likert","330","1272259","0.0-6.0-2.46","3382860","co37684","norming","","","{""curiosity"":4,""confidence"":2}","[0,1]","../img/tt/044tt.jpg","",""
"6117.764999999898","","","recognition","survey-text","331","1278379","0.0-6.0-3.46","3382860","co37684","norming","","","{""guess"":""Opened laptop""}","","../img/tt/044tt.jpg","",""
"null","../img/gs/044gs.jpg","null","reveal","image-keyboard-response","332","1280380","0.0-6.0-4.46","3382860","co37684","norming","","","","","","",""
"null","../img/tt/044tt.jpg","null","mooney2","image-keyboard-response","333","1282383","0.0-6.0-5.46","3382860","co37684","norming","","","","","","",""
"2025.4099999999162","","","post_reveal_questions","survey-likert","334","1284411","0.0-6.0-6.46","3382860","co37684","norming","","","{""aha"":5}","[0]","../img/tt/044tt.jpg","",""
"null","<div style=""font-size:60px;""> </div>","null","fixation","html-keyboard-response","335","1284620","0.0-6.0-0.47","3382860","co37684","norming","","","","","","",""
"null","../img/tt/1027tt.jpg","null","mooney1","image-keyboard-response","336","1287626","0.0-6.0-1.47","3382860","co37684","norming","","","","","","",""
"6575.834999999963","","","post_mooney1_questions","survey-likert","337","1294211","0.0-6.0-2.47","3382860","co37684","norming","","","{""curiosity"":4,""confidence"":4}","[0,1]","../img/tt/1027tt.jpg","",""
"4301.26500000013","","","recognition","survey-text","338","1298514","0.0-6.0-3.47","3382860","co37684","norming","","","{""guess"":""Cow fence""}","","../img/tt/1027tt.jpg","",""
"null","../img/gs/1027gs.jpg","null","reveal","image-keyboard-response","339","1300518","0.0-6.0-4.47","3382860","co37684","norming","","","","","","",""
"null","../img/tt/1027tt.jpg","null","mooney2","image-keyboard-response","340","1302519","0.0-6.0-5.47","3382860","co37684","norming","","","","","","",""
"3936.619999999879","","","post_reveal_questions","survey-likert","341","1306459","0.0-6.0-6.47","3382860","co37684","norming","","","{""aha"":0}","[0]","../img/tt/1027tt.jpg","",""
"null","<div style=""font-size:60px;""> </div>","null","fixation","html-keyboard-response","342","1306669","0.0-6.0-0.48","3382860","co37684","norming","","","","","","",""
"null","../img/tt/1122tt.jpg","null","mooney1","image-keyboard-response","343","1309676","0.0-6.0-1.48","3382860","co37684","norming","","","","","","",""
"3309.935000000056","","","post_mooney1_questions","survey-likert","344","1312987","0.0-6.0-2.48","3382860","co37684","norming","","","{""curiosity"":5,""confidence"":1}","[0,1]","../img/tt/1122tt.jpg","",""
"3085.8799999998882","","","recognition","survey-text","345","1316074","0.0-6.0-3.48","3382860","co37684","norming","","","{""guess"":""Office""}","","../img/tt/1122tt.jpg","",""
"null","../img/gs/1122gs.jpg","null","reveal","image-keyboard-response","346","1318077","0.0-6.0-4.48","3382860","co37684","norming","","","","","","",""
"null","../img/tt/1122tt.jpg","null","mooney2","image-keyboard-response","347","1320085","0.0-6.0-5.48","3382860","co37684","norming","","","","","","",""
"2089.9900000002235","","","post_reveal_questions","survey-likert","348","1322178","0.0-6.0-6.48","3382860","co37684","norming","","","{""aha"":5}","[0]","../img/tt/1122tt.jpg","",""
"null","<div style=""font-size:60px;""> </div>","null","fixation","html-keyboard-response","349","1322385","0.0-6.0-0.49","3382860","co37684","norming","","","","","","",""
"null","../img/tt/123tt.jpg","null","mooney1","image-keyboard-response","350","1325387","0.0-6.0-1.49","3382860","co37684","norming","","","","","","",""
"7308.594999999972","","","post_mooney1_questions","survey-likert","351","1332698","0.0-6.0-2.49","3382860","co37684","norming","","","{""curiosity"":3,""confidence"":4}","[0,1]","../img/tt/123tt.jpg","",""
"5189.8650000002235","","","recognition","survey-text","352","1337890","0.0-6.0-3.49","3382860","co37684","norming","","","{""guess"":""Koffer""}","","../img/tt/123tt.jpg","",""
"null","../img/gs/123gs.jpg","null","reveal","image-keyboard-response","353","1339892","0.0-6.0-4.49","3382860","co37684","norming","","","","","","",""
"null","../img/tt/123tt.jpg","null","mooney2","image-keyboard-response","354","1341902","0.0-6.0-5.49","3382860","co37684","norming","","","","","","",""
"3793.725000000093","","","post_reveal_questions","survey-likert","355","1345698","0.0-6.0-6.49","3382860","co37684","norming","","","{""aha"":0}","[0]","../img/tt/123tt.jpg","",""
"null","<div style=""font-size:60px;""> </div>","null","fixation","html-keyboard-response","356","1345900","0.0-6.0-0.50","3382860","co37684","norming","","","","","","",""
"null","../img/tt/1196tt.jpg","null","mooney1","image-keyboard-response","357","1348903","0.0-6.0-1.50","3382860","co37684","norming","","","","","","",""
"3254.534999999916","","","post_mooney1_questions","survey-likert","358","1352157","0.0-6.0-2.50","3382860","co37684","norming","","","{""curiosity"":5,""confidence"":1}","[0,1]","../img/tt/1196tt.jpg","",""
"2406.2700000000186","","","recognition","survey-text","359","1354565","0.0-6.0-3.50","3382860","co37684","norming","","","{""guess"":""Singer""}","","../img/tt/1196tt.jpg","",""
"null","../img/gs/1196gs.jpg","null","reveal","image-keyboard-response","360","1356574","0.0-6.0-4.50","3382860","co37684","norming","","","","","","",""
"null","../img/tt/1196tt.jpg","null","mooney2","image-keyboard-response","361","1358576","0.0-6.0-5.50","3382860","co37684","norming","","","","","","",""
"4307.380000000121","","","post_reveal_questions","survey-likert","362","1362886","0.0-6.0-6.50","3382860","co37684","norming","","","{""aha"":5}","[0]","../img/tt/1196tt.jpg","",""
"null","<div style=""font-size:60px;""> </div>","null","fixation","html-keyboard-response","363","1363093","0.0-6.0-0.51","3382860","co37684","norming","","","","","","",""
"null","../img/tt/189tt.jpg","null","mooney1","image-keyboard-response","364","1366099","0.0-6.0-1.51","3382860","co37684","norming","","","","","","",""
"4033.0250000001397","","","post_mooney1_questions","survey-likert","365","1370133","0.0-6.0-2.51","3382860","co37684","norming","","","{""curiosity"":5,""confidence"":0}","[0,1]","../img/tt/189tt.jpg","",""
"3638.5699999998324","","","recognition","survey-text","366","1373774","0.0-6.0-3.51","3382860","co37684","norming","","","{""guess"":""Sheep""}","","../img/tt/189tt.jpg","",""
"null","../img/gs/189gs.jpg","null","reveal","image-keyboard-response","367","1375779","0.0-6.0-4.51","3382860","co37684","norming","","","","","","",""
"null","../img/tt/189tt.jpg","null","mooney2","image-keyboard-response","368","1377782","0.0-6.0-5.51","3382860","co37684","norming","","","","","","",""
"3812.4199999999255","","","post_reveal_questions","survey-likert","369","1381597","0.0-6.0-6.51","3382860","co37684","norming","","","{""aha"":6}","[0]","../img/tt/189tt.jpg","",""
"null","<div style=""font-size:60px;""> </div>","null","fixation","html-keyboard-response","370","1381803","0.0-6.0-0.52","3382860","co37684","norming","","","","","","",""
"null","../img/tt/1366tt.jpg","null","mooney1","image-keyboard-response","371","1384806","0.0-6.0-1.52","3382860","co37684","norming","","","","","","",""
"4062.4899999999907","","","post_mooney1_questions","survey-likert","372","1388870","0.0-6.0-2.52","3382860","co37684","norming","","","{""curiosity"":4,""confidence"":1}","[0,1]","../img/tt/1366tt.jpg","",""
"3541.869999999879","","","recognition","survey-text","373","1392413","0.0-6.0-3.52","3382860","co37684","norming","","","{""guess"":""Frog""}","","../img/tt/1366tt.jpg","",""
"null","../img/gs/1366gs.jpg","null","reveal","image-keyboard-response","374","1394424","0.0-6.0-4.52","3382860","co37684","norming","","","","","","",""
"null","../img/tt/1366tt.jpg","null","mooney2","image-keyboard-response","375","1396427","0.0-6.0-5.52","3382860","co37684","norming","","","","","","",""
"2623.484999999637","","","post_reveal_questions","survey-likert","376","1399053","0.0-6.0-6.52","3382860","co37684","norming","","","{""aha"":5}","[0]","../img/tt/1366tt.jpg","",""
"null","<div style=""font-size:60px;""> </div>","null","fixation","html-keyboard-response","377","1399261","0.0-6.0-0.53","3382860","co37684","norming","","","","","","",""
"null","../img/tt/1012tt.jpg","null","mooney1","image-keyboard-response","378","1402271","0.0-6.0-1.53","3382860","co37684","norming","","","","","","",""
"6867.854999999981","","","post_mooney1_questions","survey-likert","379","1409142","0.0-6.0-2.53","3382860","co37684","norming","","","{""curiosity"":5,""confidence"":0}","[0,1]","../img/tt/1012tt.jpg","",""
"6413.825000000186","","","recognition","survey-text","380","1415563","0.0-6.0-3.53","3382860","co37684","norming","","","{""guess"":""Snake""}","","../img/tt/1012tt.jpg","",""
"null","../img/gs/1012gs.jpg","null","reveal","image-keyboard-response","381","1417565","0.0-6.0-4.53","3382860","co37684","norming","","","","","","",""
"null","../img/tt/1012tt.jpg","null","mooney2","image-keyboard-response","382","1419575","0.0-6.0-5.53","3382860","co37684","norming","","","","","","",""
"2328.814999999944","","","post_reveal_questions","survey-likert","383","1421907","0.0-6.0-6.53","3382860","co37684","norming","","","{""aha"":6}","[0]","../img/tt/1012tt.jpg","",""
"null","<div style=""font-size:60px;""> </div>","null","fixation","html-keyboard-response","384","1422108","0.0-6.0-0.54","3382860","co37684","norming","","","","","","",""
"null","../img/tt/1236tt.jpg","null","mooney1","image-keyboard-response","385","1425115","0.0-6.0-1.54","3382860","co37684","norming","","","","","","",""
"4563.879999999888","","","post_mooney1_questions","survey-likert","386","1429683","0.0-6.0-2.54","3382860","co37684","norming","","","{""curiosity"":3,""confidence"":5}","[0,1]","../img/tt/1236tt.jpg","",""
"3542.4550000000745","","","recognition","survey-text","387","1433227","0.0-6.0-3.54","3382860","co37684","norming","","","{""guess"":""Duck""}","","../img/tt/1236tt.jpg","",""
"null","../img/gs/1236gs.jpg","null","reveal","image-keyboard-response","388","1435230","0.0-6.0-4.54","3382860","co37684","norming","","","","","","",""
"null","../img/tt/1236tt.jpg","null","mooney2","image-keyboard-response","389","1437234","0.0-6.0-5.54","3382860","co37684","norming","","","","","","",""
"3709.9899999999907","","","post_reveal_questions","survey-likert","390","1440946","0.0-6.0-6.54","3382860","co37684","norming","","","{""aha"":2}","[0]","../img/tt/1236tt.jpg","",""
"null","<div style=""font-size:60px;""> </div>","null","fixation","html-keyboard-response","391","1441149","0.0-6.0-0.55","3382860","co37684","norming","","","","","","",""
"null","../img/tt/040tt.jpg","null","mooney1","image-keyboard-response","392","1444156","0.0-6.0-1.55","3382860","co37684","norming","","","","","","",""
"6913.969999999739","","","post_mooney1_questions","survey-likert","393","1451075","0.0-6.0-2.55","3382860","co37684","norming","","","{""curiosity"":4,""confidence"":3}","[0,1]","../img/tt/040tt.jpg","",""
"3189.9449999998324","","","recognition","survey-text","394","1454267","0.0-6.0-3.55","3382860","co37684","norming","","","{""guess"":""Bunny""}","","../img/tt/040tt.jpg","",""
"null","../img/gs/040gs.jpg","null","reveal","image-keyboard-response","395","1456271","0.0-6.0-4.55","3382860","co37684","norming","","","","","","",""
"null","../img/tt/040tt.jpg","null","mooney2","image-keyboard-response","396","1458277","0.0-6.0-5.55","3382860","co37684","norming","","","","","","",""
"4443.1699999999255","","","post_reveal_questions","survey-likert","397","1462723","0.0-6.0-6.55","3382860","co37684","norming","","","{""aha"":5}","[0]","../img/tt/040tt.jpg","",""
"null","<div style=""font-size:60px;""> </div>","null","fixation","html-keyboard-response","398","1462929","0.0-6.0-0.56","3382860","co37684","norming","","","","","","",""
"null","../img/tt/1055tt.jpg","null","mooney1","image-keyboard-response","399","1465938","0.0-6.0-1.56","3382860","co37684","norming","","","","","","",""
"3998.0749999999534","","","post_mooney1_questions","survey-likert","400","1469939","0.0-6.0-2.56","3382860","co37684","norming","","","{""curiosity"":4,""confidence"":1}","[0,1]","../img/tt/1055tt.jpg","",""
"5117.844999999972","","","recognition","survey-text","401","1475056","0.0-6.0-3.56","3382860","co37684","norming","","","{""guess"":""Water surface""}","","../img/tt/1055tt.jpg","",""
"null","../img/gs/1055gs.jpg","null","reveal","image-keyboard-response","402","1477065","0.0-6.0-4.56","3382860","co37684","norming","","","","","","",""
"null","../img/tt/1055tt.jpg","null","mooney2","image-keyboard-response","403","1479071","0.0-6.0-5.56","3382860","co37684","norming","","","","","","",""
"4237.254999999888","","","post_reveal_questions","survey-likert","404","1483312","0.0-6.0-6.56","3382860","co37684","norming","","","{""aha"":1}","[0]","../img/tt/1055tt.jpg","",""
"null","<div style=""font-size:60px;""> </div>","null","fixation","html-keyboard-response","405","1483522","0.0-6.0-0.57","3382860","co37684","norming","","","","","","",""
"null","../img/tt/418tt.jpg","null","mooney1","image-keyboard-response","406","1486526","0.0-6.0-1.57","3382860","co37684","norming","","","","","","",""
"4334.504999999888","","","post_mooney1_questions","survey-likert","407","1490864","0.0-6.0-2.57","3382860","co37684","norming","","","{""curiosity"":5,""confidence"":1}","[0,1]","../img/tt/418tt.jpg","",""
"3557.755000000121","","","recognition","survey-text","408","1494424","0.0-6.0-3.57","3382860","co37684","norming","","","{""guess"":""Sloth""}","","../img/tt/418tt.jpg","",""
"null","../img/gs/418gs.jpg","null","reveal","image-keyboard-response","409","1496433","0.0-6.0-4.57","3382860","co37684","norming","","","","","","",""
"null","../img/tt/418tt.jpg","null","mooney2","image-keyboard-response","410","1498434","0.0-6.0-5.57","3382860","co37684","norming","","","","","","",""
"2147.1149999999907","","","post_reveal_questions","survey-likert","411","1500584","0.0-6.0-6.57","3382860","co37684","norming","","","{""aha"":6}","[0]","../img/tt/418tt.jpg","",""
"null","<div style=""font-size:60px;""> </div>","null","fixation","html-keyboard-response","412","1500789","0.0-6.0-0.58","3382860","co37684","norming","","","","","","",""
"null","../img/tt/1262tt.jpg","null","mooney1","image-keyboard-response","413","1503793","0.0-6.0-1.58","3382860","co37684","norming","","","","","","",""
"4044.0149999998976","","","post_mooney1_questions","survey-likert","414","1507840","0.0-6.0-2.58","3382860","co37684","norming","","","{""curiosity"":5,""confidence"":1}","[0,1]","../img/tt/1262tt.jpg","",""
"3333.9799999997485","","","recognition","survey-text","415","1511176","0.0-6.0-3.58","3382860","co37684","norming","","","{""guess"":""Sealion""}","","../img/tt/1262tt.jpg","",""
"null","../img/gs/1262gs.jpg","null","reveal","image-keyboard-response","416","1513181","0.0-6.0-4.58","3382860","co37684","norming","","","","","","",""
"null","../img/tt/1262tt.jpg","null","mooney2","image-keyboard-response","417","1515186","0.0-6.0-5.58","3382860","co37684","norming","","","","","","",""
"1379.1850000000559","","","post_reveal_questions","survey-likert","418","1516568","0.0-6.0-6.58","3382860","co37684","norming","","","{""aha"":5}","[0]","../img/tt/1262tt.jpg","",""
"null","<div style=""font-size:60px;""> </div>","null","fixation","html-keyboard-response","419","1516772","0.0-6.0-0.59","3382860","co37684","norming","","","","","","",""
"null","../img/tt/1046tt.jpg","null","mooney1","image-keyboard-response","420","1519777","0.0-6.0-1.59","3382860","co37684","norming","","","","","","",""
"3060.8700000001118","","","post_mooney1_questions","survey-likert","421","1522840","0.0-6.0-2.59","3382860","co37684","norming","","","{""curiosity"":6,""confidence"":0}","[0,1]","../img/tt/1046tt.jpg","",""
"12917.955000000075","","","recognition","survey-text","422","1535761","0.0-6.0-3.59","3382860","co37684","norming","","","{""guess"":""Hamster""}","","../img/tt/1046tt.jpg","",""
"null","../img/gs/1046gs.jpg","null","reveal","image-keyboard-response","423","1537766","0.0-6.0-4.59","3382860","co37684","norming","","","","","","",""
"null","../img/tt/1046tt.jpg","null","mooney2","image-keyboard-response","424","1539768","0.0-6.0-5.59","3382860","co37684","norming","","","","","","",""
"3223.644999999786","","","post_reveal_questions","survey-likert","425","1542994","0.0-6.0-6.59","3382860","co37684","norming","","","{""aha"":6}","[0]","../img/tt/1046tt.jpg","",""
"null","<div style=""font-size:60px;""> </div>","null","fixation","html-keyboard-response","426","1543199","0.0-6.0-0.60","3382860","co37684","norming","","","","","","",""
"null","../img/tt/436tt.jpg","null","mooney1","image-keyboard-response","427","1546205","0.0-6.0-1.60","3382860","co37684","norming","","","","","","",""
"6497.550000000047","","","post_mooney1_questions","survey-likert","428","1552706","0.0-6.0-2.60","3382860","co37684","norming","","","{""curiosity"":5,""confidence"":0}","[0,1]","../img/tt/436tt.jpg","",""
"10133.86499999999","","","recognition","survey-text","429","1562841","0.0-6.0-3.60","3382860","co37684","norming","","","{""guess"":""Reptile""}","","../img/tt/436tt.jpg","",""
"null","../img/gs/436gs.jpg","null","reveal","image-keyboard-response","430","1564849","0.0-6.0-4.60","3382860","co37684","norming","","","","","","",""
"null","../img/tt/436tt.jpg","null","mooney2","image-keyboard-response","431","1566851","0.0-6.0-5.60","3382860","co37684","norming","","","","","","",""
"4011.6999999999534","","","post_reveal_questions","survey-likert","432","1570866","0.0-6.0-6.60","3382860","co37684","norming","","","{""aha"":4}","[0]","../img/tt/436tt.jpg","",""
"null","<div style=""font-size:60px;""> </div>","null","fixation","html-keyboard-response","433","1571070","0.0-6.0-0.61","3382860","co37684","norming","","","","","","",""
"null","../img/tt/1156tt.jpg","null","mooney1","image-keyboard-response","434","1574076","0.0-6.0-1.61","3382860","co37684","norming","","","","","","",""
"5338.554999999935","","","post_mooney1_questions","survey-likert","435","1579418","0.0-6.0-2.61","3382860","co37684","norming","","","{""curiosity"":4,""confidence"":4}","[0,1]","../img/tt/1156tt.jpg","",""
"5317.869999999879","","","recognition","survey-text","436","1584737","0.0-6.0-3.61","3382860","co37684","norming","","","{""guess"":""Flying bird""}","","../img/tt/1156tt.jpg","",""
"null","../img/gs/1156gs.jpg","null","reveal","image-keyboard-response","437","1586745","0.0-6.0-4.61","3382860","co37684","norming","","","","","","",""
"null","../img/tt/1156tt.jpg","null","mooney2","image-keyboard-response","438","1588751","0.0-6.0-5.61","3382860","co37684","norming","","","","","","",""
"2496.2700000000186","","","post_reveal_questions","survey-likert","439","1591250","0.0-6.0-6.61","3382860","co37684","norming","","","{""aha"":5}","[0]","../img/tt/1156tt.jpg","",""
"null","<div style=""font-size:60px;""> </div>","null","fixation","html-keyboard-response","440","1591453","0.0-6.0-0.62","3382860","co37684","norming","","","","","","",""
"null","../img/tt/442tt.jpg","null","mooney1","image-keyboard-response","441","1594461","0.0-6.0-1.62","3382860","co37684","norming","","","","","","",""
"4946.334999999963","","","post_mooney1_questions","survey-likert","442","1599411","0.0-6.0-2.62","3382860","co37684","norming","","","{""curiosity"":5,""confidence"":0}","[0,1]","../img/tt/442tt.jpg","",""
"5141.98499999987","","","recognition","survey-text","443","1604555","0.0-6.0-3.62","3382860","co37684","norming","","","{""guess"":""Animal head""}","","../img/tt/442tt.jpg","",""
"null","../img/gs/442gs.jpg","null","reveal","image-keyboard-response","444","1606565","0.0-6.0-4.62","3382860","co37684","norming","","","","","","",""
"null","../img/tt/442tt.jpg","null","mooney2","image-keyboard-response","445","1608569","0.0-6.0-5.62","3382860","co37684","norming","","","","","","",""
"4078.505000000121","","","post_reveal_questions","survey-likert","446","1612651","0.0-6.0-6.62","3382860","co37684","norming","","","{""aha"":5}","[0]","../img/tt/442tt.jpg","",""
"null","<div style=""font-size:60px;""> </div>","null","fixation","html-keyboard-response","447","1612852","0.0-6.0-0.63","3382860","co37684","norming","","","","","","",""
"null","../img/tt/082tt.jpg","null","mooney1","image-keyboard-response","448","1615857","0.0-6.0-1.63","3382860","co37684","norming","","","","","","",""
"9000.439999999711","","","post_mooney1_questions","survey-likert","449","1624859","0.0-6.0-2.63","3382860","co37684","norming","","","{""curiosity"":4,""confidence"":4}","[0,1]","../img/tt/082tt.jpg","",""
"3797.8950000000186","","","recognition","survey-text","450","1628658","0.0-6.0-3.63","3382860","co37684","norming","","","{""guess"":""Parrot""}","","../img/tt/082tt.jpg","",""
"null","../img/gs/082gs.jpg","null","reveal","image-keyboard-response","451","1630663","0.0-6.0-4.63","3382860","co37684","norming","","","","","","",""
"null","../img/tt/082tt.jpg","null","mooney2","image-keyboard-response","452","1632674","0.0-6.0-5.63","3382860","co37684","norming","","","","","","",""
"1598.1899999999441","","","post_reveal_questions","survey-likert","453","1634275","0.0-6.0-6.63","3382860","co37684","norming","","","{""aha"":3}","[0]","../img/tt/082tt.jpg","",""
"null","<div style=""font-size:60px;""> </div>","null","fixation","html-keyboard-response","454","1634480","0.0-6.0-0.64","3382860","co37684","norming","","","","","","",""
"null","../img/tt/318tt.jpg","null","mooney1","image-keyboard-response","455","1637483","0.0-6.0-1.64","3382860","co37684","norming","","","","","","",""
"9188.395000000019","","","post_mooney1_questions","survey-likert","456","1646675","0.0-6.0-2.64","3382860","co37684","norming","","","{""curiosity"":2,""confidence"":5}","[0,1]","../img/tt/318tt.jpg","",""
"5701.819999999832","","","recognition","survey-text","457","1652379","0.0-6.0-3.64","3382860","co37684","norming","","","{""guess"":""Frontseat car""}","","../img/tt/318tt.jpg","",""
"null","../img/gs/318gs.jpg","null","reveal","image-keyboard-response","458","1654389","0.0-6.0-4.64","3382860","co37684","norming","","","","","","",""
"null","../img/tt/318tt.jpg","null","mooney2","image-keyboard-response","459","1656392","0.0-6.0-5.64","3382860","co37684","norming","","","","","","",""
"2616.2050000000745","","","post_reveal_questions","survey-likert","460","1659011","0.0-6.0-6.64","3382860","co37684","norming","","","{""aha"":0}","[0]","../img/tt/318tt.jpg","",""
"null","<div style=""font-size:60px;""> </div>","null","fixation","html-keyboard-response","461","1659212","0.0-6.0-0.65","3382860","co37684","norming","","","","","","",""
"null","../img/tt/406tt.jpg","null","mooney1","image-keyboard-response","462","1662222","0.0-6.0-1.65","3382860","co37684","norming","","","","","","",""
"3386.8249999999534","","","post_mooney1_questions","survey-likert","463","1665611","0.0-6.0-2.65","3382860","co37684","norming","","","{""curiosity"":4,""confidence"":0}","[0,1]","../img/tt/406tt.jpg","",""
"5142.064999999944","","","recognition","survey-text","464","1670755","0.0-6.0-3.65","3382860","co37684","norming","","","{""guess"":""Bathtub""}","","../img/tt/406tt.jpg","",""
"null","../img/gs/406gs.jpg","null","reveal","image-keyboard-response","465","1672757","0.0-6.0-4.65","3382860","co37684","norming","","","","","","",""
"null","../img/tt/406tt.jpg","null","mooney2","image-keyboard-response","466","1674759","0.0-6.0-5.65","3382860","co37684","norming","","","","","","",""
"3352.844999999972","","","post_reveal_questions","survey-likert","467","1678115","0.0-6.0-6.65","3382860","co37684","norming","","","{""aha"":5}","[0]","../img/tt/406tt.jpg","",""
"null","<div style=""font-size:60px;""> </div>","null","fixation","html-keyboard-response","468","1678322","0.0-6.0-0.66","3382860","co37684","norming","","","","","","",""
"null","../img/tt/358tt.jpg","null","mooney1","image-keyboard-response","469","1681333","0.0-6.0-1.66","3382860","co37684","norming","","","","","","",""
"3563.1299999998882","","","post_mooney1_questions","survey-likert","470","1684899","0.0-6.0-2.66","3382860","co37684","norming","","","{""curiosity"":4,""confidence"":1}","[0,1]","../img/tt/358tt.jpg","",""
"4565.8549999997485","","","recognition","survey-text","471","1689466","0.0-6.0-3.66","3382860","co37684","norming","","","{""guess"":""Monkey""}","","../img/tt/358tt.jpg","",""
"null","../img/gs/358gs.jpg","null","reveal","image-keyboard-response","472","1691482","0.0-6.0-4.66","3382860","co37684","norming","","","","","","",""
"null","../img/tt/358tt.jpg","null","mooney2","image-keyboard-response","473","1693487","0.0-6.0-5.66","3382860","co37684","norming","","","","","","",""
"2897.994999999879","","","post_reveal_questions","survey-likert","474","1696387","0.0-6.0-6.66","3382860","co37684","norming","","","{""aha"":5}","[0]","../img/tt/358tt.jpg","",""
"null","<div style=""font-size:60px;""> </div>","null","fixation","html-keyboard-response","475","1696590","0.0-6.0-0.67","3382860","co37684","norming","","","","","","",""
"null","../img/tt/412tt.jpg","null","mooney1","image-keyboard-response","476","1699602","0.0-6.0-1.67","3382860","co37684","norming","","","","","","",""
"2916.935000000056","","","post_mooney1_questions","survey-likert","477","1702523","0.0-6.0-2.67","3382860","co37684","norming","","","{""curiosity"":4,""confidence"":1}","[0,1]","../img/tt/412tt.jpg","",""
"7141.779999999795","","","recognition","survey-text","478","1709666","0.0-6.0-3.67","3382860","co37684","norming","","","{""guess"":""Coffemachine""}","","../img/tt/412tt.jpg","",""
"null","../img/gs/412gs.jpg","null","reveal","image-keyboard-response","479","1711670","0.0-6.0-4.67","3382860","co37684","norming","","","","","","",""
"null","../img/tt/412tt.jpg","null","mooney2","image-keyboard-response","480","1713673","0.0-6.0-5.67","3382860","co37684","norming","","","","","","",""
"1336.5100000000093","","","post_reveal_questions","survey-likert","481","1715011","0.0-6.0-6.67","3382860","co37684","norming","","","{""aha"":6}","[0]","../img/tt/412tt.jpg","",""
"null","<div style=""font-size:60px;""> </div>","null","fixation","html-keyboard-response","482","1715212","0.0-6.0-0.68","3382860","co37684","norming","","","","","","",""
"null","../img/tt/315tt.jpg","null","mooney1","image-keyboard-response","483","1718224","0.0-6.0-1.68","3382860","co37684","norming","","","","","","",""
"6127.799999999581","","","post_mooney1_questions","survey-likert","484","1724355","0.0-6.0-2.68","3382860","co37684","norming","","","{""curiosity"":4,""confidence"":1}","[0,1]","../img/tt/315tt.jpg","",""
"7757.739999999991","","","recognition","survey-text","485","1732115","0.0-6.0-3.68","3382860","co37684","norming","","","{""guess"":""Animal print""}","","../img/tt/315tt.jpg","",""
"null","../img/gs/315gs.jpg","null","reveal","image-keyboard-response","486","1734121","0.0-6.0-4.68","3382860","co37684","norming","","","","","","",""
"null","../img/tt/315tt.jpg","null","mooney2","image-keyboard-response","487","1736124","0.0-6.0-5.68","3382860","co37684","norming","","","","","","",""
"2924.070000000065","","","post_reveal_questions","survey-likert","488","1739051","0.0-6.0-6.68","3382860","co37684","norming","","","{""aha"":2}","[0]","../img/tt/315tt.jpg","",""
"null","<div style=""font-size:60px;""> </div>","null","fixation","html-keyboard-response","489","1739259","0.0-6.0-0.69","3382860","co37684","norming","","","","","","",""
"null","../img/tt/580tt.jpg","null","mooney1","image-keyboard-response","490","1742269","0.0-6.0-1.69","3382860","co37684","norming","","","","","","",""
"7586.584999999963","","","post_mooney1_questions","survey-likert","491","1749859","0.0-6.0-2.69","3382860","co37684","norming","","","{""curiosity"":4,""confidence"":1}","[0,1]","../img/tt/580tt.jpg","",""
"5133.769999999786","","","recognition","survey-text","492","1754995","0.0-6.0-3.69","3382860","co37684","norming","","","{""guess"":""Tiger""}","","../img/tt/580tt.jpg","",""
"null","../img/gs/580gs.jpg","null","reveal","image-keyboard-response","493","1756997","0.0-6.0-4.69","3382860","co37684","norming","","","","","","",""
"null","../img/tt/580tt.jpg","null","mooney2","image-keyboard-response","494","1759008","0.0-6.0-5.69","3382860","co37684","norming","","","","","","",""
"1928.1099999998696","","","post_reveal_questions","survey-likert","495","1760939","0.0-6.0-6.69","3382860","co37684","norming","","","{""aha"":5}","[0]","../img/tt/580tt.jpg","",""
"null","<div style=""font-size:60px;""> </div>","null","fixation","html-keyboard-response","496","1761145","0.0-6.0-0.70","3382860","co37684","norming","","","","","","",""
"null","../img/tt/1002tt.jpg","null","mooney1","image-keyboard-response","497","1764149","0.0-6.0-1.70","3382860","co37684","norming","","","","","","",""
"5003.160000000382","","","post_mooney1_questions","survey-likert","498","1769155","0.0-6.0-2.70","3382860","co37684","norming","","","{""curiosity"":3,""confidence"":2}","[0,1]","../img/tt/1002tt.jpg","",""
"2381.9900000002235","","","recognition","survey-text","499","1771539","0.0-6.0-3.70","3382860","co37684","norming","","","{""guess"":""Bear""}","","../img/tt/1002tt.jpg","",""
"null","../img/gs/1002gs.jpg","null","reveal","image-keyboard-response","500","1773548","0.0-6.0-4.70","3382860","co37684","norming","","","","","","",""
"null","../img/tt/1002tt.jpg","null","mooney2","image-keyboard-response","501","1775552","0.0-6.0-5.70","3382860","co37684","norming","","","","","","",""
"2848.3950000000186","","","post_reveal_questions","survey-likert","502","1778405","0.0-6.0-6.70","3382860","co37684","norming","","","{""aha"":1}","[0]","../img/tt/1002tt.jpg","",""
"null","<div style=""font-size:60px;""> </div>","null","fixation","html-keyboard-response","503","1778606","0.0-6.0-0.71","3382860","co37684","norming","","","","","","",""
"null","../img/tt/507tt.jpg","null","mooney1","image-keyboard-response","504","1781610","0.0-6.0-1.71","3382860","co37684","norming","","","","","","",""
"4551.704999999842","","","post_mooney1_questions","survey-likert","505","1786165","0.0-6.0-2.71","3382860","co37684","norming","","","{""curiosity"":3,""confidence"":2}","[0,1]","../img/tt/507tt.jpg","",""
"9261.910000000149","","","recognition","survey-text","506","1795429","0.0-6.0-3.71","3382860","co37684","norming","","","{""guess"":""Walking person""}","","../img/tt/507tt.jpg","",""
"null","../img/gs/507gs.jpg","null","reveal","image-keyboard-response","507","1797434","0.0-6.0-4.71","3382860","co37684","norming","","","","","","",""
"null","../img/tt/507tt.jpg","null","mooney2","image-keyboard-response","508","1799445","0.0-6.0-5.71","3382860","co37684","norming","","","","","","",""
"3900.8000000002794","","","post_reveal_questions","survey-likert","509","1803349","0.0-6.0-6.71","3382860","co37684","norming","","","{""aha"":1}","[0]","../img/tt/507tt.jpg","",""
"null","<div style=""font-size:60px;""> </div>","null","fixation","html-keyboard-response","510","1803554","0.0-6.0-0.72","3382860","co37684","norming","","","","","","",""
"null","../img/tt/1224tt.jpg","null","mooney1","image-keyboard-response","511","1806566","0.0-6.0-1.72","3382860","co37684","norming","","","","","","",""
"6435.860000000102","","","post_mooney1_questions","survey-likert","512","1813005","0.0-6.0-2.72","3382860","co37684","norming","","","{""curiosity"":4,""confidence"":2}","[0,1]","../img/tt/1224tt.jpg","",""
"7734.149999999907","","","recognition","survey-text","513","1820741","0.0-6.0-3.72","3382860","co37684","norming","","","{""guess"":""Basketball player""}","","../img/tt/1224tt.jpg","",""
"null","../img/gs/1224gs.jpg","null","reveal","image-keyboard-response","514","1822752","0.0-6.0-4.72","3382860","co37684","norming","","","","","","",""
"null","../img/tt/1224tt.jpg","null","mooney2","image-keyboard-response","515","1824762","0.0-6.0-5.72","3382860","co37684","norming","","","","","","",""
"1880.3549999997485","","","post_reveal_questions","survey-likert","516","1826645","0.0-6.0-6.72","3382860","co37684","norming","","","{""aha"":2}","[0]","../img/tt/1224tt.jpg","",""
"null","<div style=""font-size:60px;""> </div>","null","fixation","html-keyboard-response","517","1826847","0.0-6.0-0.73","3382860","co37684","norming","","","","","","",""
"null","../img/tt/1232tt.jpg","null","mooney1","image-keyboard-response","518","1829855","0.0-6.0-1.73","3382860","co37684","norming","","","","","","",""
"3666.244999999879","","","post_mooney1_questions","survey-likert","519","1833525","0.0-6.0-2.73","3382860","co37684","norming","","","{""curiosity"":2,""confidence"":1}","[0,1]","../img/tt/1232tt.jpg","",""
"2830.0250000001397","","","recognition","survey-text","520","1836357","0.0-6.0-3.73","3382860","co37684","norming","","","{""guess"":""Fruit""}","","../img/tt/1232tt.jpg","",""
"null","../img/gs/1232gs.jpg","null","reveal","image-keyboard-response","521","1838363","0.0-6.0-4.73","3382860","co37684","norming","","","","","","",""
"null","../img/tt/1232tt.jpg","null","mooney2","image-keyboard-response","522","1840369","0.0-6.0-5.73","3382860","co37684","norming","","","","","","",""
"2091.8799999998882","","","post_reveal_questions","survey-likert","523","1842464","0.0-6.0-6.73","3382860","co37684","norming","","","{""aha"":5}","[0]","../img/tt/1232tt.jpg","",""
"null","<div style=""font-size:60px;""> </div>","null","fixation","html-keyboard-response","524","1842666","0.0-6.0-0.74","3382860","co37684","norming","","","","","","",""
"null","../img/tt/1044tt.jpg","null","mooney1","image-keyboard-response","525","1845675","0.0-6.0-1.74","3382860","co37684","norming","","","","","","",""
"3268.059999999823","","","post_mooney1_questions","survey-likert","526","1848945","0.0-6.0-2.74","3382860","co37684","norming","","","{""curiosity"":3,""confidence"":4}","[0,1]","../img/tt/1044tt.jpg","",""
"4637.959999999963","","","recognition","survey-text","527","1853584","0.0-6.0-3.74","3382860","co37684","norming","","","{""guess"":""Giraffe head""}","","../img/tt/1044tt.jpg","",""
"null","../img/gs/1044gs.jpg","null","reveal","image-keyboard-response","528","1855586","0.0-6.0-4.74","3382860","co37684","norming","","","","","","",""
"null","../img/tt/1044tt.jpg","null","mooney2","image-keyboard-response","529","1857595","0.0-6.0-5.74","3382860","co37684","norming","","","","","","",""
"1946.9749999998603","","","post_reveal_questions","survey-likert","530","1859544","0.0-6.0-6.74","3382860","co37684","norming","","","{""aha"":2}","[0]","../img/tt/1044tt.jpg","",""
"null","<div style=""font-size:60px;""> </div>","null","fixation","html-keyboard-response","531","1859749","0.0-6.0-0.75","3382860","co37684","norming","","","","","","",""
"null","../img/tt/108tt.jpg","null","mooney1","image-keyboard-response","532","1862757","0.0-6.0-1.75","3382860","co37684","norming","","","","","","",""
"3103.744999999879","","","post_mooney1_questions","survey-likert","533","1865865","0.0-6.0-2.75","3382860","co37684","norming","","","{""curiosity"":4,""confidence"":2}","[0,1]","../img/tt/108tt.jpg","",""
"4053.8650000004563","","","recognition","survey-text","534","1869920","0.0-6.0-3.75","3382860","co37684","norming","","","{""guess"":""Monkey""}","","../img/tt/108tt.jpg","",""
"null","../img/gs/108gs.jpg","null","reveal","image-keyboard-response","535","1871926","0.0-6.0-4.75","3382860","co37684","norming","","","","","","",""
"null","../img/tt/108tt.jpg","null","mooney2","image-keyboard-response","536","1873928","0.0-6.0-5.75","3382860","co37684","norming","","","","","","",""
"4127.629999999888","","","post_reveal_questions","survey-likert","537","1878056","0.0-6.0-6.75","3382860","co37684","norming","","","{""aha"":3}","[0]","../img/tt/108tt.jpg","",""
"null","<div style=""font-size:60px;""> </div>","null","fixation","html-keyboard-response","538","1878260","0.0-6.0-0.76","3382860","co37684","norming","","","","","","",""
"null","../img/tt/049tt.jpg","null","mooney1","image-keyboard-response","539","1881266","0.0-6.0-1.76","3382860","co37684","norming","","","","","","",""
"4171.165000000037","","","post_mooney1_questions","survey-likert","540","1885441","0.0-6.0-2.76","3382860","co37684","norming","","","{""curiosity"":5,""confidence"":0}","[0,1]","../img/tt/049tt.jpg","",""
"5030.004999999423","","","recognition","survey-text","541","1890472","0.0-6.0-3.76","3382860","co37684","norming","","","{""guess"":""Animal head""}","","../img/tt/049tt.jpg","",""
"null","../img/gs/049gs.jpg","null","reveal","image-keyboard-response","542","1892481","0.0-6.0-4.76","3382860","co37684","norming","","","","","","",""
"null","../img/tt/049tt.jpg","null","mooney2","image-keyboard-response","543","1894486","0.0-6.0-5.76","3382860","co37684","norming","","","","","","",""
"2207.524999999907","","","post_reveal_questions","survey-likert","544","1896696","0.0-6.0-6.76","3382860","co37684","norming","","","{""aha"":4}","[0]","../img/tt/049tt.jpg","",""
"null","<div style=""font-size:60px;""> </div>","null","fixation","html-keyboard-response","545","1896899","0.0-6.0-0.77","3382860","co37684","norming","","","","","","",""
"null","../img/tt/481tt.jpg","null","mooney1","image-keyboard-response","546","1899906","0.0-6.0-1.77","3382860","co37684","norming","","","","","","",""
"4139.284999999683","","","post_mooney1_questions","survey-likert","547","1904043","0.0-6.0-2.77","3382860","co37684","norming","","","{""curiosity"":4,""confidence"":0}","[0,1]","../img/tt/481tt.jpg","",""
"3510.1599999996834","","","recognition","survey-text","548","1907554","0.0-6.0-3.77","3382860","co37684","norming","","","{""guess"":""Mokey""}","","../img/tt/481tt.jpg","",""
"null","../img/gs/481gs.jpg","null","reveal","image-keyboard-response","549","1909556","0.0-6.0-4.77","3382860","co37684","norming","","","","","","",""
"null","../img/tt/481tt.jpg","null","mooney2","image-keyboard-response","550","1911567","0.0-6.0-5.77","3382860","co37684","norming","","","","","","",""
