"rt","stimulus","key_press","test_part","trial_type","trial_index","time_elapsed","internal_node_id","totalTime","subject","experiment_name","button_pressed","success","responses","question_order","currentStim","old","correct"
"7496.669999999994","Welcome to the experiment. This is an online experiment so please don't close the tab/window until we say goodbye.  Press any key to begin.","13","instructions","html-keyboard-response","0","7510","0.0-0.0","2572480","co37693","norming","","","","","","",""
"16078.42500000004","<div style='word-wrap: break-word; width: 900px'><h3>Please consider this information carefully before deciding whether to participate in this research</h3><ul style='text-align: left; font-size: .8em;'><li><b>Purpose of the research</b>: To examine how people process images.</li><li><b>What you will do in this research</b>:  Stimuli (images) will be presented on the computer and you will be asked different questions about them.</li><li><b>Time required</b>: Participation will take between 45 and 60 minutes to complete.</li><li><b>Risks</b>:  There are no anticipated risks associated with participating in this study. The effects of participating should be comparable to those you would experience from viewing a computer monitor for 30 minutes and using a mouse or keyboard.</li><li><b>Benefits</b>:  This study provides no benefits to you individually except for the credit. The study provides important information about the nature of perception and learning.</li><li><b>Confidentiality</b>:  Your participation in this study will remain confidential. No personally identifiable information will be associated with your data. Your de-identified data may be shared with other researchers and used in future projects.</li><li><b>Participation and withdrawal</b>:  Your participation in this study is completely voluntary and you may refuse to participate or you may choose to withdraw at any time without penalty.</li><li><b>How to contact the researchers</b>: If you have questions or concerns about your participation or payment, or want to request a summary of research findings, please contact Sander Van de Cruys (KU Leuven), at sander.vandecruys@kuleuven.be.</li></ul><p>The nature and purpose of this research have been sufficiently explained and I agree to participate in this study.  I understand that I am free to withdraw at any time without incurring any penalty.</p><p>Please consent by clicking the button below to continue. Otherwise, please exit the study at this time.</p></div>","","instructions","html-button-response","1","23590","0.0-1.0","2572480","co37693","norming","0","","","","","",""
"","","","instructions","fullscreen","2","27526","0.0-2.0","2572480","co37693","norming","","true","","","","",""
"41327.204999999936","","","sona","survey-html-form","3","69183","0.0-3.0","2572480","co37693","norming","","","[{""name"":""sonaid"",""value"":""37693""},{""name"":""debrief"",""value"":""no""},{""name"":""datajoin"",""value"":""yes""}]","","","",""
"54058.414999999964","<div style='word-wrap: break-word; width: 900px'><h3>Instructions</h3><p>This experiment will have 3 parts. In the first part you will see a series of distorted images like the one below on the left. As you can see in the righthand image, the distorted images are derived from actual photographs. In what follows, you will <strong>briefly</strong> be presented with <strong>only</strong> the distorted image.</p> <div style='float: left; margin-right: 20px;'><img src='../img/018tt.jpg' height='250' width='250'></img></div><div style='float: right; margin-left: 20px;'><img src='../img/018gs.jpg' height='250' width='250'></img></div><p>Subsequently you will be asked a few questions about the image: One question on how <strong>curious</strong> you are about the solution and one on how <strong>confident</strong> you are that you know the solution.</p>Next, we ask you to make a guess on what is in the image. Note that it is OK to name just the <strong>basic level category</strong>. For example when you see a parrot in the image, 'parrot' will obviously be a correct answer but also correct is 'bird'. However, 'animal' will <strong>not</strong> be counted as a correct response. For the example above, 'rose' would be correct or 'flower', but not 'plant'. When soccer players are depicted, 'soccer', 'football', 'soccer players' will be correct, but not 'humans', 'outdoors', or 'sports'. You do not need to describe the image in full, just name the main object in it <strong>in one or two words</strong>. All images depict objects from one of the following broad level categories: animals, inanimate objects, plants, sports, vehicles, and food. Recognizing means knowing <strong>more</strong> than these broad labels for a given image. But we always encourage you to <strong>make a guess</strong> if you can. Note that you are allowed to use <strong>Dutch and English</strong> in your answers, whatever comes easiest for you.</p><p>Press any key to continue.</p></div>","13","instructions","html-keyboard-response","4","123528","0.0-4.0","2572480","co37693","norming","","","","","","",""
"53839.05500000002","<div style='word-wrap: break-word; width: 900px'><h3>Instructions</h3> <p>Next, the solution image will be revealed to you and you'll be asked to indicate how strong your <strong>aha-experience</strong> was after seeing the solution. This describes the positive feeling of the 'click' you sometimes experience, when the pieces of the 'puzzle' fall together and you suddenly have 'insight' in the image.</p><img src='aha.jpg' height='188' width='250'></img><p>Note that there are no right or wrong answers. We are interested in what <strong>you</strong> see in the image and how <strong>you</strong> feel about it.</p><p>Press any key to start the experiment.</p></div>","13","instructions","html-keyboard-response","5","177367","0.0-5.0","2572480","co37693","norming","","","","","","",""
"null","<div style=""font-size:60px;""> </div>","null","fixation","html-keyboard-response","6","177575","0.0-6.0-0.0","2572480","co37693","norming","","","","","","",""
"null","../img/tt/497tt.jpg","null","mooney1","image-keyboard-response","7","180577","0.0-6.0-1.0","2572480","co37693","norming","","","","","","",""
"13893.970000000088","","","post_mooney1_questions","survey-likert","8","194476","0.0-6.0-2.0","2572480","co37693","norming","","","{""curiosity"":3,""confidence"":1}","[0,1]","../img/tt/497tt.jpg","",""
"11093.285000000033","","","recognition","survey-text","9","205572","0.0-6.0-3.0","2572480","co37693","norming","","","{""guess"":""a plant""}","","../img/tt/497tt.jpg","",""
"null","../img/gs/497gs.jpg","null","reveal","image-keyboard-response","10","207580","0.0-6.0-4.0","2572480","co37693","norming","","","","","","",""
"null","../img/tt/497tt.jpg","null","mooney2","image-keyboard-response","11","209590","0.0-6.0-5.0","2572480","co37693","norming","","","","","","",""
"3956.2949999999546","","","post_reveal_questions","survey-likert","12","213548","0.0-6.0-6.0","2572480","co37693","norming","","","{""aha"":5}","[0]","../img/tt/497tt.jpg","",""
"null","<div style=""font-size:60px;""> </div>","null","fixation","html-keyboard-response","13","213749","0.0-6.0-0.1","2572480","co37693","norming","","","","","","",""
"null","../img/tt/052tt.jpg","null","mooney1","image-keyboard-response","14","216758","0.0-6.0-1.1","2572480","co37693","norming","","","","","","",""
"8941.190000000002","","","post_mooney1_questions","survey-likert","15","225700","0.0-6.0-2.1","2572480","co37693","norming","","","{""curiosity"":4,""confidence"":1}","[0,1]","../img/tt/052tt.jpg","",""
"5013.304999999964","","","recognition","survey-text","16","230716","0.0-6.0-3.1","2572480","co37693","norming","","","{""guess"":""swimming pool ""}","","../img/tt/052tt.jpg","",""
"null","../img/gs/052gs.jpg","null","reveal","image-keyboard-response","17","232723","0.0-6.0-4.1","2572480","co37693","norming","","","","","","",""
"null","../img/tt/052tt.jpg","null","mooney2","image-keyboard-response","18","234724","0.0-6.0-5.1","2572480","co37693","norming","","","","","","",""
"3110.6950000000943","","","post_reveal_questions","survey-likert","19","237836","0.0-6.0-6.1","2572480","co37693","norming","","","{""aha"":4}","[0]","../img/tt/052tt.jpg","",""
"null","<div style=""font-size:60px;""> </div>","null","fixation","html-keyboard-response","20","238040","0.0-6.0-0.2","2572480","co37693","norming","","","","","","",""
"null","../img/tt/076tt.jpg","null","mooney1","image-keyboard-response","21","241050","0.0-6.0-1.2","2572480","co37693","norming","","","","","","",""
"7552.5250000000815","","","post_mooney1_questions","survey-likert","22","248606","0.0-6.0-2.2","2572480","co37693","norming","","","{""curiosity"":4,""confidence"":1}","[0,1]","../img/tt/076tt.jpg","",""
"2781.9799999999814","","","recognition","survey-text","23","251390","0.0-6.0-3.2","2572480","co37693","norming","","","{""guess"":""skates""}","","../img/tt/076tt.jpg","",""
"null","../img/gs/076gs.jpg","null","reveal","image-keyboard-response","24","253395","0.0-6.0-4.2","2572480","co37693","norming","","","","","","",""
"null","../img/tt/076tt.jpg","null","mooney2","image-keyboard-response","25","255397","0.0-6.0-5.2","2572480","co37693","norming","","","","","","",""
"8231.475000000064","","","post_reveal_questions","survey-likert","26","263629","0.0-6.0-6.2","2572480","co37693","norming","","","{""aha"":2}","[0]","../img/tt/076tt.jpg","",""
"null","<div style=""font-size:60px;""> </div>","null","fixation","html-keyboard-response","27","263833","0.0-6.0-0.3","2572480","co37693","norming","","","","","","",""
"null","../img/tt/1087tt.jpg","null","mooney1","image-keyboard-response","28","266841","0.0-6.0-1.3","2572480","co37693","norming","","","","","","",""
"9331.599999999977","","","post_mooney1_questions","survey-likert","29","276174","0.0-6.0-2.3","2572480","co37693","norming","","","{""curiosity"":3,""confidence"":0}","[0,1]","../img/tt/1087tt.jpg","",""
"2261.8850000000093","","","recognition","survey-text","30","278437","0.0-6.0-3.3","2572480","co37693","norming","","","{""guess"":""""}","","../img/tt/1087tt.jpg","",""
"null","../img/gs/1087gs.jpg","null","reveal","image-keyboard-response","31","280446","0.0-6.0-4.3","2572480","co37693","norming","","","","","","",""
"null","../img/tt/1087tt.jpg","null","mooney2","image-keyboard-response","32","282456","0.0-6.0-5.3","2572480","co37693","norming","","","","","","",""
"3468.0500000000466","","","post_reveal_questions","survey-likert","33","285925","0.0-6.0-6.3","2572480","co37693","norming","","","{""aha"":4}","[0]","../img/tt/1087tt.jpg","",""
"null","<div style=""font-size:60px;""> </div>","null","fixation","html-keyboard-response","34","286128","0.0-6.0-0.4","2572480","co37693","norming","","","","","","",""
"null","../img/tt/329tt.jpg","null","mooney1","image-keyboard-response","35","289137","0.0-6.0-1.4","2572480","co37693","norming","","","","","","",""
"3730.899999999907","","","post_mooney1_questions","survey-likert","36","292869","0.0-6.0-2.4","2572480","co37693","norming","","","{""curiosity"":2,""confidence"":1}","[0,1]","../img/tt/329tt.jpg","",""
"1038.585000000021","","","recognition","survey-text","37","293909","0.0-6.0-3.4","2572480","co37693","norming","","","{""guess"":""""}","","../img/tt/329tt.jpg","",""
"null","../img/gs/329gs.jpg","null","reveal","image-keyboard-response","38","295911","0.0-6.0-4.4","2572480","co37693","norming","","","","","","",""
"null","../img/tt/329tt.jpg","null","mooney2","image-keyboard-response","39","297918","0.0-6.0-5.4","2572480","co37693","norming","","","","","","",""
"2606.564999999886","","","post_reveal_questions","survey-likert","40","300526","0.0-6.0-6.4","2572480","co37693","norming","","","{""aha"":4}","[0]","../img/tt/329tt.jpg","",""
"null","<div style=""font-size:60px;""> </div>","null","fixation","html-keyboard-response","41","300734","0.0-6.0-0.5","2572480","co37693","norming","","","","","","",""
"null","../img/tt/522tt.jpg","null","mooney1","image-keyboard-response","42","303736","0.0-6.0-1.5","2572480","co37693","norming","","","","","","",""
"5468.785000000033","","","post_mooney1_questions","survey-likert","43","309208","0.0-6.0-2.5","2572480","co37693","norming","","","{""curiosity"":2,""confidence"":0}","[0,1]","../img/tt/522tt.jpg","",""
"3206.1300000000047","","","recognition","survey-text","44","312416","0.0-6.0-3.5","2572480","co37693","norming","","","{""guess"":""animal""}","","../img/tt/522tt.jpg","",""
"null","../img/gs/522gs.jpg","null","reveal","image-keyboard-response","45","314418","0.0-6.0-4.5","2572480","co37693","norming","","","","","","",""
"null","../img/tt/522tt.jpg","null","mooney2","image-keyboard-response","46","316423","0.0-6.0-5.5","2572480","co37693","norming","","","","","","",""
"4296.29999999993","","","post_reveal_questions","survey-likert","47","320720","0.0-6.0-6.5","2572480","co37693","norming","","","{""aha"":3}","[0]","../img/tt/522tt.jpg","",""
"null","<div style=""font-size:60px;""> </div>","null","fixation","html-keyboard-response","48","320924","0.0-6.0-0.6","2572480","co37693","norming","","","","","","",""
"null","../img/tt/442tt.jpg","null","mooney1","image-keyboard-response","49","323931","0.0-6.0-1.6","2572480","co37693","norming","","","","","","",""
"4323.935000000056","","","post_mooney1_questions","survey-likert","50","328256","0.0-6.0-2.6","2572480","co37693","norming","","","{""curiosity"":2,""confidence"":0}","[0,1]","../img/tt/442tt.jpg","",""
"966.0499999999884","","","recognition","survey-text","51","329224","0.0-6.0-3.6","2572480","co37693","norming","","","{""guess"":""""}","","../img/tt/442tt.jpg","",""
"null","../img/gs/442gs.jpg","null","reveal","image-keyboard-response","52","331232","0.0-6.0-4.6","2572480","co37693","norming","","","","","","",""
"null","../img/tt/442tt.jpg","null","mooney2","image-keyboard-response","53","333238","0.0-6.0-5.6","2572480","co37693","norming","","","","","","",""
"2240.570000000065","","","post_reveal_questions","survey-likert","54","335480","0.0-6.0-6.6","2572480","co37693","norming","","","{""aha"":4}","[0]","../img/tt/442tt.jpg","",""
"null","<div style=""font-size:60px;""> </div>","null","fixation","html-keyboard-response","55","335683","0.0-6.0-0.7","2572480","co37693","norming","","","","","","",""
"null","../img/tt/222tt.jpg","null","mooney1","image-keyboard-response","56","338693","0.0-6.0-1.7","2572480","co37693","norming","","","","","","",""
"10090.73000000004","","","post_mooney1_questions","survey-likert","57","348784","0.0-6.0-2.7","2572480","co37693","norming","","","{""curiosity"":2,""confidence"":0}","[0,1]","../img/tt/222tt.jpg","",""
"2525.7900000000373","","","recognition","survey-text","58","351312","0.0-6.0-3.7","2572480","co37693","norming","","","{""guess"":""city""}","","../img/tt/222tt.jpg","",""
"null","../img/gs/222gs.jpg","null","reveal","image-keyboard-response","59","353315","0.0-6.0-4.7","2572480","co37693","norming","","","","","","",""
"null","../img/tt/222tt.jpg","null","mooney2","image-keyboard-response","60","355324","0.0-6.0-5.7","2572480","co37693","norming","","","","","","",""
"2443.329999999958","","","post_reveal_questions","survey-likert","61","357768","0.0-6.0-6.7","2572480","co37693","norming","","","{""aha"":4}","[0]","../img/tt/222tt.jpg","",""
"null","<div style=""font-size:60px;""> </div>","null","fixation","html-keyboard-response","62","357978","0.0-6.0-0.8","2572480","co37693","norming","","","","","","",""
"null","../img/tt/1188tt.jpg","null","mooney1","image-keyboard-response","63","360989","0.0-6.0-1.8","2572480","co37693","norming","","","","","","",""
"4554.570000000007","","","post_mooney1_questions","survey-likert","64","365545","0.0-6.0-2.8","2572480","co37693","norming","","","{""curiosity"":2,""confidence"":4}","[0,1]","../img/tt/1188tt.jpg","",""
"2102.219999999972","","","recognition","survey-text","65","367649","0.0-6.0-3.8","2572480","co37693","norming","","","{""guess"":""biker""}","","../img/tt/1188tt.jpg","",""
"null","../img/gs/1188gs.jpg","null","reveal","image-keyboard-response","66","369650","0.0-6.0-4.8","2572480","co37693","norming","","","","","","",""
"null","../img/tt/1188tt.jpg","null","mooney2","image-keyboard-response","67","371656","0.0-6.0-5.8","2572480","co37693","norming","","","","","","",""
"3679.179999999935","","","post_reveal_questions","survey-likert","68","375337","0.0-6.0-6.8","2572480","co37693","norming","","","{""aha"":1}","[0]","../img/tt/1188tt.jpg","",""
"null","<div style=""font-size:60px;""> </div>","null","fixation","html-keyboard-response","69","375542","0.0-6.0-0.9","2572480","co37693","norming","","","","","","",""
"null","../img/tt/436tt.jpg","null","mooney1","image-keyboard-response","70","378545","0.0-6.0-1.9","2572480","co37693","norming","","","","","","",""
"4926.759999999951","","","post_mooney1_questions","survey-likert","71","383473","0.0-6.0-2.9","2572480","co37693","norming","","","{""curiosity"":1,""confidence"":2}","[0,1]","../img/tt/436tt.jpg","",""
"3166.000000000058","","","recognition","survey-text","72","386641","0.0-6.0-3.9","2572480","co37693","norming","","","{""guess"":""crocodile""}","","../img/tt/436tt.jpg","",""
"null","../img/gs/436gs.jpg","null","reveal","image-keyboard-response","73","388642","0.0-6.0-4.9","2572480","co37693","norming","","","","","","",""
"null","../img/tt/436tt.jpg","null","mooney2","image-keyboard-response","74","390650","0.0-6.0-5.9","2572480","co37693","norming","","","","","","",""
"2701.2750000000233","","","post_reveal_questions","survey-likert","75","393353","0.0-6.0-6.9","2572480","co37693","norming","","","{""aha"":3}","[0]","../img/tt/436tt.jpg","",""
"null","<div style=""font-size:60px;""> </div>","null","fixation","html-keyboard-response","76","393563","0.0-6.0-0.10","2572480","co37693","norming","","","","","","",""
"null","../img/tt/1048tt.jpg","null","mooney1","image-keyboard-response","77","396570","0.0-6.0-1.10","2572480","co37693","norming","","","","","","",""
"5005.7399999999325","","","post_mooney1_questions","survey-likert","78","401577","0.0-6.0-2.10","2572480","co37693","norming","","","{""curiosity"":3,""confidence"":0}","[0,1]","../img/tt/1048tt.jpg","",""
"932.8749999999418","","","recognition","survey-text","79","402513","0.0-6.0-3.10","2572480","co37693","norming","","","{""guess"":""""}","","../img/tt/1048tt.jpg","",""
"null","../img/gs/1048gs.jpg","null","reveal","image-keyboard-response","80","404524","0.0-6.0-4.10","2572480","co37693","norming","","","","","","",""
"null","../img/tt/1048tt.jpg","null","mooney2","image-keyboard-response","81","406533","0.0-6.0-5.10","2572480","co37693","norming","","","","","","",""
"3058.350000000035","","","post_reveal_questions","survey-likert","82","409593","0.0-6.0-6.10","2572480","co37693","norming","","","{""aha"":3}","[0]","../img/tt/1048tt.jpg","",""
"null","<div style=""font-size:60px;""> </div>","null","fixation","html-keyboard-response","83","409794","0.0-6.0-0.11","2572480","co37693","norming","","","","","","",""
"null","../img/tt/599tt.jpg","null","mooney1","image-keyboard-response","84","412795","0.0-6.0-1.11","2572480","co37693","norming","","","","","","",""
"4363.215000000084","","","post_mooney1_questions","survey-likert","85","417161","0.0-6.0-2.11","2572480","co37693","norming","","","{""curiosity"":1,""confidence"":0}","[0,1]","../img/tt/599tt.jpg","",""
"1685.5749999999534","","","recognition","survey-text","86","418848","0.0-6.0-3.11","2572480","co37693","norming","","","{""guess"":""bird""}","","../img/tt/599tt.jpg","",""
"null","../img/gs/599gs.jpg","null","reveal","image-keyboard-response","87","420851","0.0-6.0-4.11","2572480","co37693","norming","","","","","","",""
"null","../img/tt/599tt.jpg","null","mooney2","image-keyboard-response","88","422853","0.0-6.0-5.11","2572480","co37693","norming","","","","","","",""
"3618.905000000028","","","post_reveal_questions","survey-likert","89","426471","0.0-6.0-6.11","2572480","co37693","norming","","","{""aha"":1}","[0]","../img/tt/599tt.jpg","",""
"null","<div style=""font-size:60px;""> </div>","null","fixation","html-keyboard-response","90","426673","0.0-6.0-0.12","2572480","co37693","norming","","","","","","",""
"null","../img/tt/049tt.jpg","null","mooney1","image-keyboard-response","91","429677","0.0-6.0-1.12","2572480","co37693","norming","","","","","","",""
"5632.445000000065","","","post_mooney1_questions","survey-likert","92","435311","0.0-6.0-2.12","2572480","co37693","norming","","","{""curiosity"":0,""confidence"":1}","[0,1]","../img/tt/049tt.jpg","",""
"3278.125000000058","","","recognition","survey-text","93","438591","0.0-6.0-3.12","2572480","co37693","norming","","","{""guess"":""animal""}","","../img/tt/049tt.jpg","",""
"null","../img/gs/049gs.jpg","null","reveal","image-keyboard-response","94","440593","0.0-6.0-4.12","2572480","co37693","norming","","","","","","",""
"null","../img/tt/049tt.jpg","null","mooney2","image-keyboard-response","95","442599","0.0-6.0-5.12","2572480","co37693","norming","","","","","","",""
"4415.145000000019","","","post_reveal_questions","survey-likert","96","447015","0.0-6.0-6.12","2572480","co37693","norming","","","{""aha"":2}","[0]","../img/tt/049tt.jpg","",""
"null","<div style=""font-size:60px;""> </div>","null","fixation","html-keyboard-response","97","447217","0.0-6.0-0.13","2572480","co37693","norming","","","","","","",""
"null","../img/tt/515tt.jpg","null","mooney1","image-keyboard-response","98","450226","0.0-6.0-1.13","2572480","co37693","norming","","","","","","",""
"6003.895000000019","","","post_mooney1_questions","survey-likert","99","456231","0.0-6.0-2.13","2572480","co37693","norming","","","{""curiosity"":1,""confidence"":0}","[0,1]","../img/tt/515tt.jpg","",""
"3333.8399999999674","","","recognition","survey-text","100","459567","0.0-6.0-3.13","2572480","co37693","norming","","","{""guess"":""book""}","","../img/tt/515tt.jpg","",""
"null","../img/gs/515gs.jpg","null","reveal","image-keyboard-response","101","461576","0.0-6.0-4.13","2572480","co37693","norming","","","","","","",""
"null","../img/tt/515tt.jpg","null","mooney2","image-keyboard-response","102","463578","0.0-6.0-5.13","2572480","co37693","norming","","","","","","",""
"5468.340000000026","","","post_reveal_questions","survey-likert","103","469047","0.0-6.0-6.13","2572480","co37693","norming","","","{""aha"":4}","[0]","../img/tt/515tt.jpg","",""
"null","<div style=""font-size:60px;""> </div>","null","fixation","html-keyboard-response","104","469254","0.0-6.0-0.14","2572480","co37693","norming","","","","","","",""
"null","../img/tt/1078tt.jpg","null","mooney1","image-keyboard-response","105","472264","0.0-6.0-1.14","2572480","co37693","norming","","","","","","",""
"4789.659999999916","","","post_mooney1_questions","survey-likert","106","477056","0.0-6.0-2.14","2572480","co37693","norming","","","{""curiosity"":0,""confidence"":1}","[0,1]","../img/tt/1078tt.jpg","",""
"9037.619999999879","","","recognition","survey-text","107","486095","0.0-6.0-3.14","2572480","co37693","norming","","","{""guess"":""people sitting""}","","../img/tt/1078tt.jpg","",""
"null","../img/gs/1078gs.jpg","null","reveal","image-keyboard-response","108","488105","0.0-6.0-4.14","2572480","co37693","norming","","","","","","",""
"null","../img/tt/1078tt.jpg","null","mooney2","image-keyboard-response","109","490106","0.0-6.0-5.14","2572480","co37693","norming","","","","","","",""
"4236.8349999999045","","","post_reveal_questions","survey-likert","110","494345","0.0-6.0-6.14","2572480","co37693","norming","","","{""aha"":3}","[0]","../img/tt/1078tt.jpg","",""
"null","<div style=""font-size:60px;""> </div>","null","fixation","html-keyboard-response","111","494547","0.0-6.0-0.15","2572480","co37693","norming","","","","","","",""
"null","../img/tt/1199tt.jpg","null","mooney1","image-keyboard-response","112","497548","0.0-6.0-1.15","2572480","co37693","norming","","","","","","",""
"4770.250000000058","","","post_mooney1_questions","survey-likert","113","502321","0.0-6.0-2.15","2572480","co37693","norming","","","{""curiosity"":0,""confidence"":1}","[0,1]","../img/tt/1199tt.jpg","",""
"8621.914999999979","","","recognition","survey-text","114","510945","0.0-6.0-3.15","2572480","co37693","norming","","","{""guess"":""man lying""}","","../img/tt/1199tt.jpg","",""
"null","../img/gs/1199gs.jpg","null","reveal","image-keyboard-response","115","512949","0.0-6.0-4.15","2572480","co37693","norming","","","","","","",""
"null","../img/tt/1199tt.jpg","null","mooney2","image-keyboard-response","116","514952","0.0-6.0-5.15","2572480","co37693","norming","","","","","","",""
"8999.934999999823","","","post_reveal_questions","survey-likert","117","523953","0.0-6.0-6.15","2572480","co37693","norming","","","{""aha"":4}","[0]","../img/tt/1199tt.jpg","",""
"null","<div style=""font-size:60px;""> </div>","null","fixation","html-keyboard-response","118","524154","0.0-6.0-0.16","2572480","co37693","norming","","","","","","",""
"null","../img/tt/084tt.jpg","null","mooney1","image-keyboard-response","119","527165","0.0-6.0-1.16","2572480","co37693","norming","","","","","","",""
"5226.409999999916","","","post_mooney1_questions","survey-likert","120","532393","0.0-6.0-2.16","2572480","co37693","norming","","","{""curiosity"":1,""confidence"":1}","[0,1]","../img/tt/084tt.jpg","",""
"3878.0100000001257","","","recognition","survey-text","121","536273","0.0-6.0-3.16","2572480","co37693","norming","","","{""guess"":""bird""}","","../img/tt/084tt.jpg","",""
"null","../img/gs/084gs.jpg","null","reveal","image-keyboard-response","122","538276","0.0-6.0-4.16","2572480","co37693","norming","","","","","","",""
"null","../img/tt/084tt.jpg","null","mooney2","image-keyboard-response","123","540278","0.0-6.0-5.16","2572480","co37693","norming","","","","","","",""
"3873.9000000001397","","","post_reveal_questions","survey-likert","124","544153","0.0-6.0-6.16","2572480","co37693","norming","","","{""aha"":3}","[0]","../img/tt/084tt.jpg","",""
"null","<div style=""font-size:60px;""> </div>","null","fixation","html-keyboard-response","125","544361","0.0-6.0-0.17","2572480","co37693","norming","","","","","","",""
"null","../img/tt/031tt.jpg","null","mooney1","image-keyboard-response","126","547367","0.0-6.0-1.17","2572480","co37693","norming","","","","","","",""
"3847.6249999998836","","","post_mooney1_questions","survey-likert","127","551217","0.0-6.0-2.17","2572480","co37693","norming","","","{""curiosity"":1,""confidence"":5}","[0,1]","../img/tt/031tt.jpg","",""
"6382.014999999898","","","recognition","survey-text","128","557601","0.0-6.0-3.17","2572480","co37693","norming","","","{""guess"":""bear""}","","../img/tt/031tt.jpg","",""
"null","../img/gs/031gs.jpg","null","reveal","image-keyboard-response","129","559606","0.0-6.0-4.17","2572480","co37693","norming","","","","","","",""
"null","../img/tt/031tt.jpg","null","mooney2","image-keyboard-response","130","561610","0.0-6.0-5.17","2572480","co37693","norming","","","","","","",""
"4764.699999999953","","","post_reveal_questions","survey-likert","131","566377","0.0-6.0-6.17","2572480","co37693","norming","","","{""aha"":0}","[0]","../img/tt/031tt.jpg","",""
"null","<div style=""font-size:60px;""> </div>","null","fixation","html-keyboard-response","132","566581","0.0-6.0-0.18","2572480","co37693","norming","","","","","","",""
"null","../img/tt/1096tt.jpg","null","mooney1","image-keyboard-response","133","569588","0.0-6.0-1.18","2572480","co37693","norming","","","","","","",""
"8058.829999999958","","","post_mooney1_questions","survey-likert","134","577649","0.0-6.0-2.18","2572480","co37693","norming","","","{""curiosity"":1,""confidence"":1}","[0,1]","../img/tt/1096tt.jpg","",""
"2254.0400000000373","","","recognition","survey-text","135","579905","0.0-6.0-3.18","2572480","co37693","norming","","","{""guess"":""bar""}","","../img/tt/1096tt.jpg","",""
"null","../img/gs/1096gs.jpg","null","reveal","image-keyboard-response","136","581912","0.0-6.0-4.18","2572480","co37693","norming","","","","","","",""
"null","../img/tt/1096tt.jpg","null","mooney2","image-keyboard-response","137","583923","0.0-6.0-5.18","2572480","co37693","norming","","","","","","",""
"3418.9499999999534","","","post_reveal_questions","survey-likert","138","587345","0.0-6.0-6.18","2572480","co37693","norming","","","{""aha"":4}","[0]","../img/tt/1096tt.jpg","",""
"null","<div style=""font-size:60px;""> </div>","null","fixation","html-keyboard-response","139","587552","0.0-6.0-0.19","2572480","co37693","norming","","","","","","",""
"null","../img/tt/567tt.jpg","null","mooney1","image-keyboard-response","140","590563","0.0-6.0-1.19","2572480","co37693","norming","","","","","","",""
"5931.964999999967","","","post_mooney1_questions","survey-likert","141","596497","0.0-6.0-2.19","2572480","co37693","norming","","","{""curiosity"":1,""confidence"":6}","[0,1]","../img/tt/567tt.jpg","",""
"4286.109999999986","","","recognition","survey-text","142","600785","0.0-6.0-3.19","2572480","co37693","norming","","","{""guess"":""toaster""}","","../img/tt/567tt.jpg","",""
"null","../img/gs/567gs.jpg","null","reveal","image-keyboard-response","143","602789","0.0-6.0-4.19","2572480","co37693","norming","","","","","","",""
"null","../img/tt/567tt.jpg","null","mooney2","image-keyboard-response","144","604800","0.0-6.0-5.19","2572480","co37693","norming","","","","","","",""
"3990.194999999949","","","post_reveal_questions","survey-likert","145","608793","0.0-6.0-6.19","2572480","co37693","norming","","","{""aha"":0}","[0]","../img/tt/567tt.jpg","",""
"null","<div style=""font-size:60px;""> </div>","null","fixation","html-keyboard-response","146","608998","0.0-6.0-0.20","2572480","co37693","norming","","","","","","",""
"null","../img/tt/1255tt.jpg","null","mooney1","image-keyboard-response","147","612003","0.0-6.0-1.20","2572480","co37693","norming","","","","","","",""
"3893.295000000042","","","post_mooney1_questions","survey-likert","148","615899","0.0-6.0-2.20","2572480","co37693","norming","","","{""curiosity"":1,""confidence"":3}","[0,1]","../img/tt/1255tt.jpg","",""
"3206.1150000002235","","","recognition","survey-text","149","619107","0.0-6.0-3.20","2572480","co37693","norming","","","{""guess"":""rabbit""}","","../img/tt/1255tt.jpg","",""
"null","../img/gs/1255gs.jpg","null","reveal","image-keyboard-response","150","621110","0.0-6.0-4.20","2572480","co37693","norming","","","","","","",""
"null","../img/tt/1255tt.jpg","null","mooney2","image-keyboard-response","151","623119","0.0-6.0-5.20","2572480","co37693","norming","","","","","","",""
"4993.194999999949","","","post_reveal_questions","survey-likert","152","628115","0.0-6.0-6.20","2572480","co37693","norming","","","{""aha"":4}","[0]","../img/tt/1255tt.jpg","",""
"null","<div style=""font-size:60px;""> </div>","null","fixation","html-keyboard-response","153","628318","0.0-6.0-0.21","2572480","co37693","norming","","","","","","",""
"null","../img/tt/438tt.jpg","null","mooney1","image-keyboard-response","154","631324","0.0-6.0-1.21","2572480","co37693","norming","","","","","","",""
"4540.524999999907","","","post_mooney1_questions","survey-likert","155","635867","0.0-6.0-2.21","2572480","co37693","norming","","","{""curiosity"":1,""confidence"":1}","[0,1]","../img/tt/438tt.jpg","",""
"1974.3149999999441","","","recognition","survey-text","156","637843","0.0-6.0-3.21","2572480","co37693","norming","","","{""guess"":""snake""}","","../img/tt/438tt.jpg","",""
"null","../img/gs/438gs.jpg","null","reveal","image-keyboard-response","157","639846","0.0-6.0-4.21","2572480","co37693","norming","","","","","","",""
"null","../img/tt/438tt.jpg","null","mooney2","image-keyboard-response","158","641851","0.0-6.0-5.21","2572480","co37693","norming","","","","","","",""
"2213.6300000000047","","","post_reveal_questions","survey-likert","159","644067","0.0-6.0-6.21","2572480","co37693","norming","","","{""aha"":0}","[0]","../img/tt/438tt.jpg","",""
"null","<div style=""font-size:60px;""> </div>","null","fixation","html-keyboard-response","160","644276","0.0-6.0-0.22","2572480","co37693","norming","","","","","","",""
"null","../img/tt/1243tt.jpg","null","mooney1","image-keyboard-response","161","647283","0.0-6.0-1.22","2572480","co37693","norming","","","","","","",""
"3413.005000000121","","","post_mooney1_questions","survey-likert","162","650699","0.0-6.0-2.22","2572480","co37693","norming","","","{""curiosity"":1,""confidence"":1}","[0,1]","../img/tt/1243tt.jpg","",""
"2006.4700000000885","","","recognition","survey-text","163","652707","0.0-6.0-3.22","2572480","co37693","norming","","","{""guess"":""fox""}","","../img/tt/1243tt.jpg","",""
"null","../img/gs/1243gs.jpg","null","reveal","image-keyboard-response","164","654710","0.0-6.0-4.22","2572480","co37693","norming","","","","","","",""
"null","../img/tt/1243tt.jpg","null","mooney2","image-keyboard-response","165","656721","0.0-6.0-5.22","2572480","co37693","norming","","","","","","",""
"2959.3499999998603","","","post_reveal_questions","survey-likert","166","659683","0.0-6.0-6.22","2572480","co37693","norming","","","{""aha"":0}","[0]","../img/tt/1243tt.jpg","",""
"null","<div style=""font-size:60px;""> </div>","null","fixation","html-keyboard-response","167","659886","0.0-6.0-0.23","2572480","co37693","norming","","","","","","",""
"null","../img/tt/096tt.jpg","null","mooney1","image-keyboard-response","168","662889","0.0-6.0-1.23","2572480","co37693","norming","","","","","","",""
"4824.225000000093","","","post_mooney1_questions","survey-likert","169","667715","0.0-6.0-2.23","2572480","co37693","norming","","","{""curiosity"":0,""confidence"":0}","[0,1]","../img/tt/096tt.jpg","",""
"1606.190000000177","","","recognition","survey-text","170","669319","0.0-6.0-3.23","2572480","co37693","norming","","","{""guess"":""""}","","../img/tt/096tt.jpg","",""
"null","../img/gs/096gs.jpg","null","reveal","image-keyboard-response","171","671323","0.0-6.0-4.23","2572480","co37693","norming","","","","","","",""
"null","../img/tt/096tt.jpg","null","mooney2","image-keyboard-response","172","673325","0.0-6.0-5.23","2572480","co37693","norming","","","","","","",""
"2624.795000000042","","","post_reveal_questions","survey-likert","173","675951","0.0-6.0-6.23","2572480","co37693","norming","","","{""aha"":4}","[0]","../img/tt/096tt.jpg","",""
"null","<div style=""font-size:60px;""> </div>","null","fixation","html-keyboard-response","174","676153","0.0-6.0-0.24","2572480","co37693","norming","","","","","","",""
"null","../img/tt/468tt.jpg","null","mooney1","image-keyboard-response","175","679160","0.0-6.0-1.24","2572480","co37693","norming","","","","","","",""
"2941.9100000000326","","","post_mooney1_questions","survey-likert","176","682103","0.0-6.0-2.24","2572480","co37693","norming","","","{""curiosity"":1,""confidence"":2}","[0,1]","../img/tt/468tt.jpg","",""
"8534.100000000093","","","recognition","survey-text","177","690639","0.0-6.0-3.24","2572480","co37693","norming","","","{""guess"":""instrument ""}","","../img/tt/468tt.jpg","",""
"null","../img/gs/468gs.jpg","null","reveal","image-keyboard-response","178","692642","0.0-6.0-4.24","2572480","co37693","norming","","","","","","",""
"null","../img/tt/468tt.jpg","null","mooney2","image-keyboard-response","179","694643","0.0-6.0-5.24","2572480","co37693","norming","","","","","","",""
"3850.1600000000326","","","post_reveal_questions","survey-likert","180","698495","0.0-6.0-6.24","2572480","co37693","norming","","","{""aha"":3}","[0]","../img/tt/468tt.jpg","",""
"null","<div style=""font-size:60px;""> </div>","null","fixation","html-keyboard-response","181","698698","0.0-6.0-0.25","2572480","co37693","norming","","","","","","",""
"null","../img/tt/1084tt.jpg","null","mooney1","image-keyboard-response","182","701708","0.0-6.0-1.25","2572480","co37693","norming","","","","","","",""
"5833.984999999986","","","post_mooney1_questions","survey-likert","183","707543","0.0-6.0-2.25","2572480","co37693","norming","","","{""curiosity"":2,""confidence"":1}","[0,1]","../img/tt/1084tt.jpg","",""
"4133.770000000135","","","recognition","survey-text","184","711678","0.0-6.0-3.25","2572480","co37693","norming","","","{""guess"":""piece of pie ""}","","../img/tt/1084tt.jpg","",""
"null","../img/gs/1084gs.jpg","null","reveal","image-keyboard-response","185","713679","0.0-6.0-4.25","2572480","co37693","norming","","","","","","",""
"null","../img/tt/1084tt.jpg","null","mooney2","image-keyboard-response","186","715689","0.0-6.0-5.25","2572480","co37693","norming","","","","","","",""
"11372.444999999949","","","post_reveal_questions","survey-likert","187","727063","0.0-6.0-6.25","2572480","co37693","norming","","","{""aha"":3}","[0]","../img/tt/1084tt.jpg","",""
"null","<div style=""font-size:60px;""> </div>","null","fixation","html-keyboard-response","188","727264","0.0-6.0-0.26","2572480","co37693","norming","","","","","","",""
"null","../img/tt/1279tt.jpg","null","mooney1","image-keyboard-response","189","730275","0.0-6.0-1.26","2572480","co37693","norming","","","","","","",""
"5367.444999999832","","","post_mooney1_questions","survey-likert","190","735645","0.0-6.0-2.26","2572480","co37693","norming","","","{""curiosity"":1,""confidence"":1}","[0,1]","../img/tt/1279tt.jpg","",""
"2934.1600000000326","","","recognition","survey-text","191","738581","0.0-6.0-3.26","2572480","co37693","norming","","","{""guess"":""children""}","","../img/tt/1279tt.jpg","",""
"null","../img/gs/1279gs.jpg","null","reveal","image-keyboard-response","192","740587","0.0-6.0-4.26","2572480","co37693","norming","","","","","","",""
"null","../img/tt/1279tt.jpg","null","mooney2","image-keyboard-response","193","742589","0.0-6.0-5.26","2572480","co37693","norming","","","","","","",""
"1533.6950000000652","","","post_reveal_questions","survey-likert","194","744125","0.0-6.0-6.26","2572480","co37693","norming","","","{""aha"":4}","[0]","../img/tt/1279tt.jpg","",""
"null","<div style=""font-size:60px;""> </div>","null","fixation","html-keyboard-response","195","744326","0.0-6.0-0.27","2572480","co37693","norming","","","","","","",""
"null","../img/tt/1269tt.jpg","null","mooney1","image-keyboard-response","196","747329","0.0-6.0-1.27","2572480","co37693","norming","","","","","","",""
"3761.495000000228","","","post_mooney1_questions","survey-likert","197","751093","0.0-6.0-2.27","2572480","co37693","norming","","","{""curiosity"":1,""confidence"":1}","[0,1]","../img/tt/1269tt.jpg","",""
"2142.164999999921","","","recognition","survey-text","198","753237","0.0-6.0-3.27","2572480","co37693","norming","","","{""guess"":""animal""}","","../img/tt/1269tt.jpg","",""
"null","../img/gs/1269gs.jpg","null","reveal","image-keyboard-response","199","755243","0.0-6.0-4.27","2572480","co37693","norming","","","","","","",""
"null","../img/tt/1269tt.jpg","null","mooney2","image-keyboard-response","200","757245","0.0-6.0-5.27","2572480","co37693","norming","","","","","","",""
"2461.170000000042","","","post_reveal_questions","survey-likert","201","759709","0.0-6.0-6.27","2572480","co37693","norming","","","{""aha"":3}","[0]","../img/tt/1269tt.jpg","",""
"null","<div style=""font-size:60px;""> </div>","null","fixation","html-keyboard-response","202","759910","0.0-6.0-0.28","2572480","co37693","norming","","","","","","",""
"null","../img/tt/1217tt.jpg","null","mooney1","image-keyboard-response","203","762913","0.0-6.0-1.28","2572480","co37693","norming","","","","","","",""
"6186.820000000065","","","post_mooney1_questions","survey-likert","204","769101","0.0-6.0-2.28","2572480","co37693","norming","","","{""curiosity"":1,""confidence"":2}","[0,1]","../img/tt/1217tt.jpg","",""
"4422.3150000000605","","","recognition","survey-text","205","773525","0.0-6.0-3.28","2572480","co37693","norming","","","{""guess"":""animals""}","","../img/tt/1217tt.jpg","",""
"null","../img/gs/1217gs.jpg","null","reveal","image-keyboard-response","206","775527","0.0-6.0-4.28","2572480","co37693","norming","","","","","","",""
"null","../img/tt/1217tt.jpg","null","mooney2","image-keyboard-response","207","777531","0.0-6.0-5.28","2572480","co37693","norming","","","","","","",""
"7296.2550000002375","","","post_reveal_questions","survey-likert","208","784829","0.0-6.0-6.28","2572480","co37693","norming","","","{""aha"":2}","[0]","../img/tt/1217tt.jpg","",""
"null","<div style=""font-size:60px;""> </div>","null","fixation","html-keyboard-response","209","785032","0.0-6.0-0.29","2572480","co37693","norming","","","","","","",""
"null","../img/tt/477tt.jpg","null","mooney1","image-keyboard-response","210","788042","0.0-6.0-1.29","2572480","co37693","norming","","","","","","",""
"2440.289999999921","","","post_mooney1_questions","survey-likert","211","790486","0.0-6.0-2.29","2572480","co37693","norming","","","{""curiosity"":1,""confidence"":2}","[0,1]","../img/tt/477tt.jpg","",""
"1374.2050000000745","","","recognition","survey-text","212","791862","0.0-6.0-3.29","2572480","co37693","norming","","","{""guess"":""panda""}","","../img/tt/477tt.jpg","",""
"null","../img/gs/477gs.jpg","null","reveal","image-keyboard-response","213","793863","0.0-6.0-4.29","2572480","co37693","norming","","","","","","",""
"null","../img/tt/477tt.jpg","null","mooney2","image-keyboard-response","214","795866","0.0-6.0-5.29","2572480","co37693","norming","","","","","","",""
"1401.640000000014","","","post_reveal_questions","survey-likert","215","797270","0.0-6.0-6.29","2572480","co37693","norming","","","{""aha"":5}","[0]","../img/tt/477tt.jpg","",""
"null","<div style=""font-size:60px;""> </div>","null","fixation","html-keyboard-response","216","797473","0.0-6.0-0.30","2572480","co37693","norming","","","","","","",""
"null","../img/tt/1196tt.jpg","null","mooney1","image-keyboard-response","217","800484","0.0-6.0-1.30","2572480","co37693","norming","","","","","","",""
"4431.035000000033","","","post_mooney1_questions","survey-likert","218","804918","0.0-6.0-2.30","2572480","co37693","norming","","","{""curiosity"":2,""confidence"":0}","[0,1]","../img/tt/1196tt.jpg","",""
"894.229999999865","","","recognition","survey-text","219","805814","0.0-6.0-3.30","2572480","co37693","norming","","","{""guess"":""""}","","../img/tt/1196tt.jpg","",""
"null","../img/gs/1196gs.jpg","null","reveal","image-keyboard-response","220","807824","0.0-6.0-4.30","2572480","co37693","norming","","","","","","",""
"null","../img/tt/1196tt.jpg","null","mooney2","image-keyboard-response","221","809826","0.0-6.0-5.30","2572480","co37693","norming","","","","","","",""
"1649.954999999958","","","post_reveal_questions","survey-likert","222","811478","0.0-6.0-6.30","2572480","co37693","norming","","","{""aha"":4}","[0]","../img/tt/1196tt.jpg","",""
"null","<div style=""font-size:60px;""> </div>","null","fixation","html-keyboard-response","223","811684","0.0-6.0-0.31","2572480","co37693","norming","","","","","","",""
"null","../img/tt/007tt.jpg","null","mooney1","image-keyboard-response","224","814686","0.0-6.0-1.31","2572480","co37693","norming","","","","","","",""
"2964.8749999998836","","","post_mooney1_questions","survey-likert","225","817654","0.0-6.0-2.31","2572480","co37693","norming","","","{""curiosity"":0,""confidence"":0}","[0,1]","../img/tt/007tt.jpg","",""
"877.9349999999395","","","recognition","survey-text","226","818534","0.0-6.0-3.31","2572480","co37693","norming","","","{""guess"":""""}","","../img/tt/007tt.jpg","",""
"null","../img/gs/007gs.jpg","null","reveal","image-keyboard-response","227","820542","0.0-6.0-4.31","2572480","co37693","norming","","","","","","",""
"null","../img/tt/007tt.jpg","null","mooney2","image-keyboard-response","228","822553","0.0-6.0-5.31","2572480","co37693","norming","","","","","","",""
"2322.5350000000326","","","post_reveal_questions","survey-likert","229","824878","0.0-6.0-6.31","2572480","co37693","norming","","","{""aha"":4}","[0]","../img/tt/007tt.jpg","",""
"null","<div style=""font-size:60px;""> </div>","null","fixation","html-keyboard-response","230","825080","0.0-6.0-0.32","2572480","co37693","norming","","","","","","",""
"null","../img/tt/1362tt.jpg","null","mooney1","image-keyboard-response","231","828082","0.0-6.0-1.32","2572480","co37693","norming","","","","","","",""
"4625.270000000019","","","post_mooney1_questions","survey-likert","232","832710","0.0-6.0-2.32","2572480","co37693","norming","","","{""curiosity"":1,""confidence"":2}","[0,1]","../img/tt/1362tt.jpg","",""
"2205.839999999851","","","recognition","survey-text","233","834918","0.0-6.0-3.32","2572480","co37693","norming","","","{""guess"":""bureau""}","","../img/tt/1362tt.jpg","",""
"null","../img/gs/1362gs.jpg","null","reveal","image-keyboard-response","234","836928","0.0-6.0-4.32","2572480","co37693","norming","","","","","","",""
"null","../img/tt/1362tt.jpg","null","mooney2","image-keyboard-response","235","838933","0.0-6.0-5.32","2572480","co37693","norming","","","","","","",""
"1807.954999999958","","","post_reveal_questions","survey-likert","236","840742","0.0-6.0-6.32","2572480","co37693","norming","","","{""aha"":4}","[0]","../img/tt/1362tt.jpg","",""
"null","<div style=""font-size:60px;""> </div>","null","fixation","html-keyboard-response","237","840947","0.0-6.0-0.33","2572480","co37693","norming","","","","","","",""
"null","../img/tt/053tt.jpg","null","mooney1","image-keyboard-response","238","843954","0.0-6.0-1.33","2572480","co37693","norming","","","","","","",""
"3368.969999999972","","","post_mooney1_questions","survey-likert","239","847326","0.0-6.0-2.33","2572480","co37693","norming","","","{""curiosity"":1,""confidence"":2}","[0,1]","../img/tt/053tt.jpg","",""
"5398.175000000047","","","recognition","survey-text","240","852721","0.0-6.0-3.33","2572480","co37693","norming","","","{""guess"":""waterfall""}","","../img/tt/053tt.jpg","",""
"null","../img/gs/053gs.jpg","null","reveal","image-keyboard-response","241","854729","0.0-6.0-4.33","2572480","co37693","norming","","","","","","",""
"null","../img/tt/053tt.jpg","null","mooney2","image-keyboard-response","242","856737","0.0-6.0-5.33","2572480","co37693","norming","","","","","","",""
"2398.850000000093","","","post_reveal_questions","survey-likert","243","859137","0.0-6.0-6.33","2572480","co37693","norming","","","{""aha"":3}","[0]","../img/tt/053tt.jpg","",""
"null","<div style=""font-size:60px;""> </div>","null","fixation","html-keyboard-response","244","859340","0.0-6.0-0.34","2572480","co37693","norming","","","","","","",""
"null","../img/tt/056tt.jpg","null","mooney1","image-keyboard-response","245","862342","0.0-6.0-1.34","2572480","co37693","norming","","","","","","",""
"4793.5299999999115","","","post_mooney1_questions","survey-likert","246","867137","0.0-6.0-2.34","2572480","co37693","norming","","","{""curiosity"":1,""confidence"":0}","[0,1]","../img/tt/056tt.jpg","",""
"718.0999999997439","","","recognition","survey-text","247","867857","0.0-6.0-3.34","2572480","co37693","norming","","","{""guess"":""""}","","../img/tt/056tt.jpg","",""
"null","../img/gs/056gs.jpg","null","reveal","image-keyboard-response","248","869863","0.0-6.0-4.34","2572480","co37693","norming","","","","","","",""
"null","../img/tt/056tt.jpg","null","mooney2","image-keyboard-response","249","871872","0.0-6.0-5.34","2572480","co37693","norming","","","","","","",""
"2143.3800000000047","","","post_reveal_questions","survey-likert","250","874017","0.0-6.0-6.34","2572480","co37693","norming","","","{""aha"":4}","[0]","../img/tt/056tt.jpg","",""
"null","<div style=""font-size:60px;""> </div>","null","fixation","html-keyboard-response","251","874218","0.0-6.0-0.35","2572480","co37693","norming","","","","","","",""
"null","../img/tt/1033tt.jpg","null","mooney1","image-keyboard-response","252","877220","0.0-6.0-1.35","2572480","co37693","norming","","","","","","",""
"3395.780000000028","","","post_mooney1_questions","survey-likert","253","880617","0.0-6.0-2.35","2572480","co37693","norming","","","{""curiosity"":1,""confidence"":3}","[0,1]","../img/tt/1033tt.jpg","",""
"2582.0650000000605","","","recognition","survey-text","254","883201","0.0-6.0-3.35","2572480","co37693","norming","","","{""guess"":""sporters""}","","../img/tt/1033tt.jpg","",""
"null","../img/gs/1033gs.jpg","null","reveal","image-keyboard-response","255","885203","0.0-6.0-4.35","2572480","co37693","norming","","","","","","",""
"null","../img/tt/1033tt.jpg","null","mooney2","image-keyboard-response","256","887210","0.0-6.0-5.35","2572480","co37693","norming","","","","","","",""
"5156.880000000005","","","post_reveal_questions","survey-likert","257","892369","0.0-6.0-6.35","2572480","co37693","norming","","","{""aha"":3}","[0]","../img/tt/1033tt.jpg","",""
"null","<div style=""font-size:60px;""> </div>","null","fixation","html-keyboard-response","258","892575","0.0-6.0-0.36","2572480","co37693","norming","","","","","","",""
"null","../img/tt/1272tt.jpg","null","mooney1","image-keyboard-response","259","895586","0.0-6.0-1.36","2572480","co37693","norming","","","","","","",""
"2499.9500000001863","","","post_mooney1_questions","survey-likert","260","898089","0.0-6.0-2.36","2572480","co37693","norming","","","{""curiosity"":1,""confidence"":2}","[0,1]","../img/tt/1272tt.jpg","",""
"3766.4599999998463","","","recognition","survey-text","261","901857","0.0-6.0-3.36","2572480","co37693","norming","","","{""guess"":""animal""}","","../img/tt/1272tt.jpg","",""
"null","../img/gs/1272gs.jpg","null","reveal","image-keyboard-response","262","903858","0.0-6.0-4.36","2572480","co37693","norming","","","","","","",""
"null","../img/tt/1272tt.jpg","null","mooney2","image-keyboard-response","263","905868","0.0-6.0-5.36","2572480","co37693","norming","","","","","","",""
"1178.6149999999907","","","post_reveal_questions","survey-likert","264","907049","0.0-6.0-6.36","2572480","co37693","norming","","","{""aha"":3}","[0]","../img/tt/1272tt.jpg","",""
"null","<div style=""font-size:60px;""> </div>","null","fixation","html-keyboard-response","265","907255","0.0-6.0-0.37","2572480","co37693","norming","","","","","","",""
"null","../img/tt/1101tt.jpg","null","mooney1","image-keyboard-response","266","910263","0.0-6.0-1.37","2572480","co37693","norming","","","","","","",""
"3319.3399999999674","","","post_mooney1_questions","survey-likert","267","913582","0.0-6.0-2.37","2572480","co37693","norming","","","{""curiosity"":1,""confidence"":3}","[0,1]","../img/tt/1101tt.jpg","",""
"2638.205000000191","","","recognition","survey-text","268","916222","0.0-6.0-3.37","2572480","co37693","norming","","","{""guess"":""schaatser""}","","../img/tt/1101tt.jpg","",""
"null","../img/gs/1101gs.jpg","null","reveal","image-keyboard-response","269","918232","0.0-6.0-4.37","2572480","co37693","norming","","","","","","",""
"null","../img/tt/1101tt.jpg","null","mooney2","image-keyboard-response","270","920234","0.0-6.0-5.37","2572480","co37693","norming","","","","","","",""
"1633.5650000000605","","","post_reveal_questions","survey-likert","271","921870","0.0-6.0-6.37","2572480","co37693","norming","","","{""aha"":4}","[0]","../img/tt/1101tt.jpg","",""
"null","<div style=""font-size:60px;""> </div>","null","fixation","html-keyboard-response","272","922077","0.0-6.0-0.38","2572480","co37693","norming","","","","","","",""
"null","../img/tt/1142tt.jpg","null","mooney1","image-keyboard-response","273","925089","0.0-6.0-1.38","2572480","co37693","norming","","","","","","",""
"3641.2299999999814","","","post_mooney1_questions","survey-likert","274","928734","0.0-6.0-2.38","2572480","co37693","norming","","","{""curiosity"":1,""confidence"":2}","[0,1]","../img/tt/1142tt.jpg","",""
"1742.1600000000326","","","recognition","survey-text","275","930478","0.0-6.0-3.38","2572480","co37693","norming","","","{""guess"":""woman""}","","../img/tt/1142tt.jpg","",""
"null","../img/gs/1142gs.jpg","null","reveal","image-keyboard-response","276","932479","0.0-6.0-4.38","2572480","co37693","norming","","","","","","",""
"null","../img/tt/1142tt.jpg","null","mooney2","image-keyboard-response","277","934485","0.0-6.0-5.38","2572480","co37693","norming","","","","","","",""
"1686.9500000000698","","","post_reveal_questions","survey-likert","278","936174","0.0-6.0-6.38","2572480","co37693","norming","","","{""aha"":4}","[0]","../img/tt/1142tt.jpg","",""
"null","<div style=""font-size:60px;""> </div>","null","fixation","html-keyboard-response","279","936380","0.0-6.0-0.39","2572480","co37693","norming","","","","","","",""
"null","../img/tt/080tt.jpg","null","mooney1","image-keyboard-response","280","939392","0.0-6.0-1.39","2572480","co37693","norming","","","","","","",""
"3771.2050000000745","","","post_mooney1_questions","survey-likert","281","943166","0.0-6.0-2.39","2572480","co37693","norming","","","{""curiosity"":1,""confidence"":0}","[0,1]","../img/tt/080tt.jpg","",""
"678.0749999999534","","","recognition","survey-text","282","943846","0.0-6.0-3.39","2572480","co37693","norming","","","{""guess"":""""}","","../img/tt/080tt.jpg","",""
"null","../img/gs/080gs.jpg","null","reveal","image-keyboard-response","283","945853","0.0-6.0-4.39","2572480","co37693","norming","","","","","","",""
"null","../img/tt/080tt.jpg","null","mooney2","image-keyboard-response","284","947856","0.0-6.0-5.39","2572480","co37693","norming","","","","","","",""
"2731.2249999999767","","","post_reveal_questions","survey-likert","285","950590","0.0-6.0-6.39","2572480","co37693","norming","","","{""aha"":4}","[0]","../img/tt/080tt.jpg","",""
"null","<div style=""font-size:60px;""> </div>","null","fixation","html-keyboard-response","286","950791","0.0-6.0-0.40","2572480","co37693","norming","","","","","","",""
"null","../img/tt/507tt.jpg","null","mooney1","image-keyboard-response","287","953798","0.0-6.0-1.40","2572480","co37693","norming","","","","","","",""
"5181.529999999795","","","post_mooney1_questions","survey-likert","288","958982","0.0-6.0-2.40","2572480","co37693","norming","","","{""curiosity"":2,""confidence"":1}","[0,1]","../img/tt/507tt.jpg","",""
"2405.909999999916","","","recognition","survey-text","289","961390","0.0-6.0-3.40","2572480","co37693","norming","","","{""guess"":""people""}","","../img/tt/507tt.jpg","",""
"null","../img/gs/507gs.jpg","null","reveal","image-keyboard-response","290","963393","0.0-6.0-4.40","2572480","co37693","norming","","","","","","",""
"null","../img/tt/507tt.jpg","null","mooney2","image-keyboard-response","291","965401","0.0-6.0-5.40","2572480","co37693","norming","","","","","","",""
"2138.205000000191","","","post_reveal_questions","survey-likert","292","967542","0.0-6.0-6.40","2572480","co37693","norming","","","{""aha"":3}","[0]","../img/tt/507tt.jpg","",""
"null","<div style=""font-size:60px;""> </div>","null","fixation","html-keyboard-response","293","967744","0.0-6.0-0.41","2572480","co37693","norming","","","","","","",""
"null","../img/tt/126tt.jpg","null","mooney1","image-keyboard-response","294","970747","0.0-6.0-1.41","2572480","co37693","norming","","","","","","",""
"3089.0100000000093","","","post_mooney1_questions","survey-likert","295","973838","0.0-6.0-2.41","2572480","co37693","norming","","","{""curiosity"":1,""confidence"":1}","[0,1]","../img/tt/126tt.jpg","",""
"3422.060000000056","","","recognition","survey-text","296","977262","0.0-6.0-3.41","2572480","co37693","norming","","","{""guess"":""cow""}","","../img/tt/126tt.jpg","",""
"null","../img/gs/126gs.jpg","null","reveal","image-keyboard-response","297","979268","0.0-6.0-4.41","2572480","co37693","norming","","","","","","",""
"null","../img/tt/126tt.jpg","null","mooney2","image-keyboard-response","298","981276","0.0-6.0-5.41","2572480","co37693","norming","","","","","","",""
"1655.0549999999348","","","post_reveal_questions","survey-likert","299","982934","0.0-6.0-6.41","2572480","co37693","norming","","","{""aha"":3}","[0]","../img/tt/126tt.jpg","",""
"null","<div style=""font-size:60px;""> </div>","null","fixation","html-keyboard-response","300","983140","0.0-6.0-0.42","2572480","co37693","norming","","","","","","",""
"null","../img/tt/559tt.jpg","null","mooney1","image-keyboard-response","301","986143","0.0-6.0-1.42","2572480","co37693","norming","","","","","","",""
"3148.394999999902","","","post_mooney1_questions","survey-likert","302","989294","0.0-6.0-2.42","2572480","co37693","norming","","","{""curiosity"":1,""confidence"":0}","[0,1]","../img/tt/559tt.jpg","",""
"614.2299999999814","","","recognition","survey-text","303","989910","0.0-6.0-3.42","2572480","co37693","norming","","","{""guess"":""""}","","../img/tt/559tt.jpg","",""
"null","../img/gs/559gs.jpg","null","reveal","image-keyboard-response","304","991911","0.0-6.0-4.42","2572480","co37693","norming","","","","","","",""
"null","../img/tt/559tt.jpg","null","mooney2","image-keyboard-response","305","993912","0.0-6.0-5.42","2572480","co37693","norming","","","","","","",""
"2864.640000000014","","","post_reveal_questions","survey-likert","306","996782","0.0-6.0-6.42","2572480","co37693","norming","","","{""aha"":4}","[0]","../img/tt/559tt.jpg","",""
"null","<div style=""font-size:60px;""> </div>","null","fixation","html-keyboard-response","307","996990","0.0-6.0-0.43","2572480","co37693","norming","","","","","","",""
"null","../img/tt/1061tt.jpg","null","mooney1","image-keyboard-response","308","999993","0.0-6.0-1.43","2572480","co37693","norming","","","","","","",""
"5425.609999999986","","","post_mooney1_questions","survey-likert","309","1005422","0.0-6.0-2.43","2572480","co37693","norming","","","{""curiosity"":1,""confidence"":1}","[0,1]","../img/tt/1061tt.jpg","",""
"4062.0000000001164","","","recognition","survey-text","310","1009486","0.0-6.0-3.43","2572480","co37693","norming","","","{""guess"":""people""}","","../img/tt/1061tt.jpg","",""
"null","../img/gs/1061gs.jpg","null","reveal","image-keyboard-response","311","1011490","0.0-6.0-4.43","2572480","co37693","norming","","","","","","",""
"null","../img/tt/1061tt.jpg","null","mooney2","image-keyboard-response","312","1013500","0.0-6.0-5.43","2572480","co37693","norming","","","","","","",""
"1367.3899999997811","","","post_reveal_questions","survey-likert","313","1014870","0.0-6.0-6.43","2572480","co37693","norming","","","{""aha"":4}","[0]","../img/tt/1061tt.jpg","",""
"null","<div style=""font-size:60px;""> </div>","null","fixation","html-keyboard-response","314","1015071","0.0-6.0-0.44","2572480","co37693","norming","","","","","","",""
"null","../img/tt/1043tt.jpg","null","mooney1","image-keyboard-response","315","1018078","0.0-6.0-1.44","2572480","co37693","norming","","","","","","",""
"2853.0100000000093","","","post_mooney1_questions","survey-likert","316","1020934","0.0-6.0-2.44","2572480","co37693","norming","","","{""curiosity"":1,""confidence"":0}","[0,1]","../img/tt/1043tt.jpg","",""
"885.9449999999488","","","recognition","survey-text","317","1021821","0.0-6.0-3.44","2572480","co37693","norming","","","{""guess"":""""}","","../img/tt/1043tt.jpg","",""
"null","../img/gs/1043gs.jpg","null","reveal","image-keyboard-response","318","1023823","0.0-6.0-4.44","2572480","co37693","norming","","","","","","",""
"null","../img/tt/1043tt.jpg","null","mooney2","image-keyboard-response","319","1025833","0.0-6.0-5.44","2572480","co37693","norming","","","","","","",""
"2946.5500000000466","","","post_reveal_questions","survey-likert","320","1028782","0.0-6.0-6.44","2572480","co37693","norming","","","{""aha"":4}","[0]","../img/tt/1043tt.jpg","",""
"null","<div style=""font-size:60px;""> </div>","null","fixation","html-keyboard-response","321","1028991","0.0-6.0-0.45","2572480","co37693","norming","","","","","","",""
"null","../img/tt/085tt.jpg","null","mooney1","image-keyboard-response","322","1032002","0.0-6.0-1.45","2572480","co37693","norming","","","","","","",""
"3865.5100000001257","","","post_mooney1_questions","survey-likert","323","1035871","0.0-6.0-2.45","2572480","co37693","norming","","","{""curiosity"":1,""confidence"":0}","[0,1]","../img/tt/085tt.jpg","",""
"550.2049999999581","","","recognition","survey-text","324","1036423","0.0-6.0-3.45","2572480","co37693","norming","","","{""guess"":""""}","","../img/tt/085tt.jpg","",""
"null","../img/gs/085gs.jpg","null","reveal","image-keyboard-response","325","1038425","0.0-6.0-4.45","2572480","co37693","norming","","","","","","",""
"null","../img/tt/085tt.jpg","null","mooney2","image-keyboard-response","326","1040430","0.0-6.0-5.45","2572480","co37693","norming","","","","","","",""
"1565.9950000002282","","","post_reveal_questions","survey-likert","327","1041999","0.0-6.0-6.45","2572480","co37693","norming","","","{""aha"":3}","[0]","../img/tt/085tt.jpg","",""
"null","<div style=""font-size:60px;""> </div>","null","fixation","html-keyboard-response","328","1042203","0.0-6.0-0.46","2572480","co37693","norming","","","","","","",""
"null","../img/tt/082tt.jpg","null","mooney1","image-keyboard-response","329","1045205","0.0-6.0-1.46","2572480","co37693","norming","","","","","","",""
"2814.8099999997066","","","post_mooney1_questions","survey-likert","330","1048023","0.0-6.0-2.46","2572480","co37693","norming","","","{""curiosity"":1,""confidence"":0}","[0,1]","../img/tt/082tt.jpg","",""
"1470.2249999998603","","","recognition","survey-text","331","1049495","0.0-6.0-3.46","2572480","co37693","norming","","","{""guess"":""bird""}","","../img/tt/082tt.jpg","",""
"null","../img/gs/082gs.jpg","null","reveal","image-keyboard-response","332","1051496","0.0-6.0-4.46","2572480","co37693","norming","","","","","","",""
"null","../img/tt/082tt.jpg","null","mooney2","image-keyboard-response","333","1053507","0.0-6.0-5.46","2572480","co37693","norming","","","","","","",""
"3593.375","","","post_reveal_questions","survey-likert","334","1057103","0.0-6.0-6.46","2572480","co37693","norming","","","{""aha"":2}","[0]","../img/tt/082tt.jpg","",""
"null","<div style=""font-size:60px;""> </div>","null","fixation","html-keyboard-response","335","1057304","0.0-6.0-0.47","2572480","co37693","norming","","","","","","",""
"null","../img/tt/1307tt.jpg","null","mooney1","image-keyboard-response","336","1060307","0.0-6.0-1.47","2572480","co37693","norming","","","","","","",""
"4272.4199999999255","","","post_mooney1_questions","survey-likert","337","1064583","0.0-6.0-2.47","2572480","co37693","norming","","","{""curiosity"":1,""confidence"":0}","[0,1]","../img/tt/1307tt.jpg","",""
"589.7600000002421","","","recognition","survey-text","338","1065175","0.0-6.0-3.47","2572480","co37693","norming","","","{""guess"":""""}","","../img/tt/1307tt.jpg","",""
"null","../img/gs/1307gs.jpg","null","reveal","image-keyboard-response","339","1067183","0.0-6.0-4.47","2572480","co37693","norming","","","","","","",""
"null","../img/tt/1307tt.jpg","null","mooney2","image-keyboard-response","340","1069191","0.0-6.0-5.47","2572480","co37693","norming","","","","","","",""
"2221.155000000028","","","post_reveal_questions","survey-likert","341","1071415","0.0-6.0-6.47","2572480","co37693","norming","","","{""aha"":5}","[0]","../img/tt/1307tt.jpg","",""
"null","<div style=""font-size:60px;""> </div>","null","fixation","html-keyboard-response","342","1071616","0.0-6.0-0.48","2572480","co37693","norming","","","","","","",""
"null","../img/tt/036tt.jpg","null","mooney1","image-keyboard-response","343","1074619","0.0-6.0-1.48","2572480","co37693","norming","","","","","","",""
"4633.195000000065","","","post_mooney1_questions","survey-likert","344","1079255","0.0-6.0-2.48","2572480","co37693","norming","","","{""curiosity"":2,""confidence"":0}","[0,1]","../img/tt/036tt.jpg","",""
"646.0999999998603","","","recognition","survey-text","345","1079903","0.0-6.0-3.48","2572480","co37693","norming","","","{""guess"":""""}","","../img/tt/036tt.jpg","",""
"null","../img/gs/036gs.jpg","null","reveal","image-keyboard-response","346","1081914","0.0-6.0-4.48","2572480","co37693","norming","","","","","","",""
"null","../img/tt/036tt.jpg","null","mooney2","image-keyboard-response","347","1083925","0.0-6.0-5.48","2572480","co37693","norming","","","","","","",""
"1623.094999999972","","","post_reveal_questions","survey-likert","348","1085551","0.0-6.0-6.48","2572480","co37693","norming","","","{""aha"":3}","[0]","../img/tt/036tt.jpg","",""
"null","<div style=""font-size:60px;""> </div>","null","fixation","html-keyboard-response","349","1085761","0.0-6.0-0.49","2572480","co37693","norming","","","","","","",""
"null","../img/tt/306tt.jpg","null","mooney1","image-keyboard-response","350","1088769","0.0-6.0-1.49","2572480","co37693","norming","","","","","","",""
"2507.225000000093","","","post_mooney1_questions","survey-likert","351","1091279","0.0-6.0-2.49","2572480","co37693","norming","","","{""curiosity"":1,""confidence"":0}","[0,1]","../img/tt/306tt.jpg","",""
"430.00000000023283","","","recognition","survey-text","352","1091711","0.0-6.0-3.49","2572480","co37693","norming","","","{""guess"":""""}","","../img/tt/306tt.jpg","",""
"null","../img/gs/306gs.jpg","null","reveal","image-keyboard-response","353","1093714","0.0-6.0-4.49","2572480","co37693","norming","","","","","","",""
"null","../img/tt/306tt.jpg","null","mooney2","image-keyboard-response","354","1095726","0.0-6.0-5.49","2572480","co37693","norming","","","","","","",""
"1351.0250000001397","","","post_reveal_questions","survey-likert","355","1097079","0.0-6.0-6.49","2572480","co37693","norming","","","{""aha"":5}","[0]","../img/tt/306tt.jpg","",""
"null","<div style=""font-size:60px;""> </div>","null","fixation","html-keyboard-response","356","1097280","0.0-6.0-0.50","2572480","co37693","norming","","","","","","",""
"null","../img/tt/1228tt.jpg","null","mooney1","image-keyboard-response","357","1100282","0.0-6.0-1.50","2572480","co37693","norming","","","","","","",""
"3338.5500000000466","","","post_mooney1_questions","survey-likert","358","1103623","0.0-6.0-2.50","2572480","co37693","norming","","","{""curiosity"":1,""confidence"":0}","[0,1]","../img/tt/1228tt.jpg","",""
"1998.2949999999255","","","recognition","survey-text","359","1105623","0.0-6.0-3.50","2572480","co37693","norming","","","{""guess"":""bird""}","","../img/tt/1228tt.jpg","",""
"null","../img/gs/1228gs.jpg","null","reveal","image-keyboard-response","360","1107631","0.0-6.0-4.50","2572480","co37693","norming","","","","","","",""
"null","../img/tt/1228tt.jpg","null","mooney2","image-keyboard-response","361","1109641","0.0-6.0-5.50","2572480","co37693","norming","","","","","","",""
"3731.7750000001397","","","post_reveal_questions","survey-likert","362","1113375","0.0-6.0-6.50","2572480","co37693","norming","","","{""aha"":3}","[0]","../img/tt/1228tt.jpg","",""
"null","<div style=""font-size:60px;""> </div>","null","fixation","html-keyboard-response","363","1113577","0.0-6.0-0.51","2572480","co37693","norming","","","","","","",""
"null","../img/tt/008tt.jpg","null","mooney1","image-keyboard-response","364","1116580","0.0-6.0-1.51","2572480","co37693","norming","","","","","","",""
"3607.769999999786","","","post_mooney1_questions","survey-likert","365","1120191","0.0-6.0-2.51","2572480","co37693","norming","","","{""curiosity"":1,""confidence"":1}","[0,1]","../img/tt/008tt.jpg","",""
"2918.4050000002608","","","recognition","survey-text","366","1123111","0.0-6.0-3.51","2572480","co37693","norming","","","{""guess"":""gun""}","","../img/tt/008tt.jpg","",""
"null","../img/gs/008gs.jpg","null","reveal","image-keyboard-response","367","1125121","0.0-6.0-4.51","2572480","co37693","norming","","","","","","",""
"null","../img/tt/008tt.jpg","null","mooney2","image-keyboard-response","368","1127131","0.0-6.0-5.51","2572480","co37693","norming","","","","","","",""
"2097.090000000084","","","post_reveal_questions","survey-likert","369","1129231","0.0-6.0-6.51","2572480","co37693","norming","","","{""aha"":2}","[0]","../img/tt/008tt.jpg","",""
"null","<div style=""font-size:60px;""> </div>","null","fixation","html-keyboard-response","370","1129439","0.0-6.0-0.52","2572480","co37693","norming","","","","","","",""
"null","../img/tt/1250tt.jpg","null","mooney1","image-keyboard-response","371","1132447","0.0-6.0-1.52","2572480","co37693","norming","","","","","","",""
"5197.189999999944","","","post_mooney1_questions","survey-likert","372","1137647","0.0-6.0-2.52","2572480","co37693","norming","","","{""curiosity"":1,""confidence"":0}","[0,1]","../img/tt/1250tt.jpg","",""
"581.9799999997485","","","recognition","survey-text","373","1138231","0.0-6.0-3.52","2572480","co37693","norming","","","{""guess"":""""}","","../img/tt/1250tt.jpg","",""
"null","../img/gs/1250gs.jpg","null","reveal","image-keyboard-response","374","1140236","0.0-6.0-4.52","2572480","co37693","norming","","","","","","",""
"null","../img/tt/1250tt.jpg","null","mooney2","image-keyboard-response","375","1142247","0.0-6.0-5.52","2572480","co37693","norming","","","","","","",""
"3053.8349999999627","","","post_reveal_questions","survey-likert","376","1145303","0.0-6.0-6.52","2572480","co37693","norming","","","{""aha"":3}","[0]","../img/tt/1250tt.jpg","",""
"null","<div style=""font-size:60px;""> </div>","null","fixation","html-keyboard-response","377","1145514","0.0-6.0-0.53","2572480","co37693","norming","","","","","","",""
"null","../img/tt/140tt.jpg","null","mooney1","image-keyboard-response","378","1148519","0.0-6.0-1.53","2572480","co37693","norming","","","","","","",""
"3285.2450000001118","","","post_mooney1_questions","survey-likert","379","1151807","0.0-6.0-2.53","2572480","co37693","norming","","","{""curiosity"":1,""confidence"":1}","[0,1]","../img/tt/140tt.jpg","",""
"3254.4150000000373","","","recognition","survey-text","380","1155055","0.0-6.0-3.53","2572480","co37693","norming","","","{""guess"":""forks""}","","../img/tt/140tt.jpg","",""
"null","../img/gs/140gs.jpg","null","reveal","image-keyboard-response","381","1157057","0.0-6.0-4.53","2572480","co37693","norming","","","","","","",""
"null","../img/tt/140tt.jpg","null","mooney2","image-keyboard-response","382","1159068","0.0-6.0-5.53","2572480","co37693","norming","","","","","","",""
"5520.495000000112","","","post_reveal_questions","survey-likert","383","1164591","0.0-6.0-6.53","2572480","co37693","norming","","","{""aha"":3}","[0]","../img/tt/140tt.jpg","",""
"null","<div style=""font-size:60px;""> </div>","null","fixation","html-keyboard-response","384","1164798","0.0-6.0-0.54","2572480","co37693","norming","","","","","","",""
"null","../img/tt/1226tt.jpg","null","mooney1","image-keyboard-response","385","1167801","0.0-6.0-1.54","2572480","co37693","norming","","","","","","",""
"3514.75","","","post_mooney1_questions","survey-likert","386","1171319","0.0-6.0-2.54","2572480","co37693","norming","","","{""curiosity"":0,""confidence"":1}","[0,1]","../img/tt/1226tt.jpg","",""
"606.214999999851","","","recognition","survey-text","387","1171927","0.0-6.0-3.54","2572480","co37693","norming","","","{""guess"":""""}","","../img/tt/1226tt.jpg","",""
"null","../img/gs/1226gs.jpg","null","reveal","image-keyboard-response","388","1173929","0.0-6.0-4.54","2572480","co37693","norming","","","","","","",""
"null","../img/tt/1226tt.jpg","null","mooney2","image-keyboard-response","389","1175942","0.0-6.0-5.54","2572480","co37693","norming","","","","","","",""
"1493.969999999972","","","post_reveal_questions","survey-likert","390","1177439","0.0-6.0-6.54","2572480","co37693","norming","","","{""aha"":3}","[0]","../img/tt/1226tt.jpg","",""
"null","<div style=""font-size:60px;""> </div>","null","fixation","html-keyboard-response","391","1177643","0.0-6.0-0.55","2572480","co37693","norming","","","","","","",""
"null","../img/tt/010tt.jpg","null","mooney1","image-keyboard-response","392","1180654","0.0-6.0-1.55","2572480","co37693","norming","","","","","","",""
"2597.8249999997206","","","post_mooney1_questions","survey-likert","393","1183255","0.0-6.0-2.55","2572480","co37693","norming","","","{""curiosity"":0,""confidence"":0}","[0,1]","../img/tt/010tt.jpg","",""
"437.75499999988824","","","recognition","survey-text","394","1183694","0.0-6.0-3.55","2572480","co37693","norming","","","{""guess"":""""}","","../img/tt/010tt.jpg","",""
"null","../img/gs/010gs.jpg","null","reveal","image-keyboard-response","395","1185701","0.0-6.0-4.55","2572480","co37693","norming","","","","","","",""
"null","../img/tt/010tt.jpg","null","mooney2","image-keyboard-response","396","1187702","0.0-6.0-5.55","2572480","co37693","norming","","","","","","",""
"2206.7950000001583","","","post_reveal_questions","survey-likert","397","1189911","0.0-6.0-6.55","2572480","co37693","norming","","","{""aha"":3}","[0]","../img/tt/010tt.jpg","",""
"null","<div style=""font-size:60px;""> </div>","null","fixation","html-keyboard-response","398","1190113","0.0-6.0-0.56","2572480","co37693","norming","","","","","","",""
"null","../img/tt/060tt.jpg","null","mooney1","image-keyboard-response","399","1193123","0.0-6.0-1.56","2572480","co37693","norming","","","","","","",""
"5057.034999999916","","","post_mooney1_questions","survey-likert","400","1198183","0.0-6.0-2.56","2572480","co37693","norming","","","{""curiosity"":2,""confidence"":1}","[0,1]","../img/tt/060tt.jpg","",""
"1750.1350000000093","","","recognition","survey-text","401","1199935","0.0-6.0-3.56","2572480","co37693","norming","","","{""guess"":""burger""}","","../img/tt/060tt.jpg","",""
"null","../img/gs/060gs.jpg","null","reveal","image-keyboard-response","402","1201937","0.0-6.0-4.56","2572480","co37693","norming","","","","","","",""
"null","../img/tt/060tt.jpg","null","mooney2","image-keyboard-response","403","1203938","0.0-6.0-5.56","2572480","co37693","norming","","","","","","",""
"4162.215000000084","","","post_reveal_questions","survey-likert","404","1208103","0.0-6.0-6.56","2572480","co37693","norming","","","{""aha"":0}","[0]","../img/tt/060tt.jpg","",""
"null","<div style=""font-size:60px;""> </div>","null","fixation","html-keyboard-response","405","1208314","0.0-6.0-0.57","2572480","co37693","norming","","","","","","",""
"null","../img/tt/1040tt.jpg","null","mooney1","image-keyboard-response","406","1211318","0.0-6.0-1.57","2572480","co37693","norming","","","","","","",""
"2501.8499999998603","","","post_mooney1_questions","survey-likert","407","1213823","0.0-6.0-2.57","2572480","co37693","norming","","","{""curiosity"":0,""confidence"":1}","[0,1]","../img/tt/1040tt.jpg","",""
"781.9699999999721","","","recognition","survey-text","408","1214615","0.0-6.0-3.57","2572480","co37693","norming","","","{""guess"":""""}","","../img/tt/1040tt.jpg","",""
"null","../img/gs/1040gs.jpg","null","reveal","image-keyboard-response","409","1216616","0.0-6.0-4.57","2572480","co37693","norming","","","","","","",""
"null","../img/tt/1040tt.jpg","null","mooney2","image-keyboard-response","410","1218627","0.0-6.0-5.57","2572480","co37693","norming","","","","","","",""
"3401.9149999998044","","","post_reveal_questions","survey-likert","411","1222031","0.0-6.0-6.57","2572480","co37693","norming","","","{""aha"":2}","[0]","../img/tt/1040tt.jpg","",""
"null","<div style=""font-size:60px;""> </div>","null","fixation","html-keyboard-response","412","1222237","0.0-6.0-0.58","2572480","co37693","norming","","","","","","",""
"null","../img/tt/1159tt.jpg","null","mooney1","image-keyboard-response","413","1225245","0.0-6.0-1.58","2572480","co37693","norming","","","","","","",""
"5718.835000000196","","","post_mooney1_questions","survey-likert","414","1230967","0.0-6.0-2.58","2572480","co37693","norming","","","{""curiosity"":1,""confidence"":1}","[0,1]","../img/tt/1159tt.jpg","",""
"854.4350000000559","","","recognition","survey-text","415","1231823","0.0-6.0-3.58","2572480","co37693","norming","","","{""guess"":""""}","","../img/tt/1159tt.jpg","",""
"null","../img/gs/1159gs.jpg","null","reveal","image-keyboard-response","416","1233832","0.0-6.0-4.58","2572480","co37693","norming","","","","","","",""
"null","../img/tt/1159tt.jpg","null","mooney2","image-keyboard-response","417","1235841","0.0-6.0-5.58","2572480","co37693","norming","","","","","","",""
"3779.9200000001583","","","post_reveal_questions","survey-likert","418","1239623","0.0-6.0-6.58","2572480","co37693","norming","","","{""aha"":3}","[0]","../img/tt/1159tt.jpg","",""
"null","<div style=""font-size:60px;""> </div>","null","fixation","html-keyboard-response","419","1239825","0.0-6.0-0.59","2572480","co37693","norming","","","","","","",""
"null","../img/tt/1242tt.jpg","null","mooney1","image-keyboard-response","420","1242827","0.0-6.0-1.59","2572480","co37693","norming","","","","","","",""
"3682.820000000065","","","post_mooney1_questions","survey-likert","421","1246511","0.0-6.0-2.59","2572480","co37693","norming","","","{""curiosity"":0,""confidence"":1}","[0,1]","../img/tt/1242tt.jpg","",""
"566.0449999999255","","","recognition","survey-text","422","1247079","0.0-6.0-3.59","2572480","co37693","norming","","","{""guess"":""""}","","../img/tt/1242tt.jpg","",""
"null","../img/gs/1242gs.jpg","null","reveal","image-keyboard-response","423","1249085","0.0-6.0-4.59","2572480","co37693","norming","","","","","","",""
"null","../img/tt/1242tt.jpg","null","mooney2","image-keyboard-response","424","1251096","0.0-6.0-5.59","2572480","co37693","norming","","","","","","",""
"5908.815000000177","","","post_reveal_questions","survey-likert","425","1257007","0.0-6.0-6.59","2572480","co37693","norming","","","{""aha"":4}","[0]","../img/tt/1242tt.jpg","",""
"null","<div style=""font-size:60px;""> </div>","null","fixation","html-keyboard-response","426","1257208","0.0-6.0-0.60","2572480","co37693","norming","","","","","","",""
"null","../img/tt/1309tt.jpg","null","mooney1","image-keyboard-response","427","1260216","0.0-6.0-1.60","2572480","co37693","norming","","","","","","",""
"2956.2599999997765","","","post_mooney1_questions","survey-likert","428","1263175","0.0-6.0-2.60","2572480","co37693","norming","","","{""curiosity"":1,""confidence"":2}","[0,1]","../img/tt/1309tt.jpg","",""
"3278.2450000001118","","","recognition","survey-text","429","1266455","0.0-6.0-3.60","2572480","co37693","norming","","","{""guess"":""car in woods ""}","","../img/tt/1309tt.jpg","",""
"null","../img/gs/1309gs.jpg","null","reveal","image-keyboard-response","430","1268460","0.0-6.0-4.60","2572480","co37693","norming","","","","","","",""
"null","../img/tt/1309tt.jpg","null","mooney2","image-keyboard-response","431","1270470","0.0-6.0-5.60","2572480","co37693","norming","","","","","","",""
"2612.685000000056","","","post_reveal_questions","survey-likert","432","1273087","0.0-6.0-6.60","2572480","co37693","norming","","","{""aha"":1}","[0]","../img/tt/1309tt.jpg","",""
"null","<div style=""font-size:60px;""> </div>","null","fixation","html-keyboard-response","433","1273288","0.0-6.0-0.61","2572480","co37693","norming","","","","","","",""
"null","../img/tt/1130tt.jpg","null","mooney1","image-keyboard-response","434","1276292","0.0-6.0-1.61","2572480","co37693","norming","","","","","","",""
"3928.2350000001024","","","post_mooney1_questions","survey-likert","435","1280223","0.0-6.0-2.61","2572480","co37693","norming","","","{""curiosity"":1,""confidence"":2}","[0,1]","../img/tt/1130tt.jpg","",""
"2102.010000000242","","","recognition","survey-text","436","1282327","0.0-6.0-3.61","2572480","co37693","norming","","","{""guess"":""biker""}","","../img/tt/1130tt.jpg","",""
"null","../img/gs/1130gs.jpg","null","reveal","image-keyboard-response","437","1284330","0.0-6.0-4.61","2572480","co37693","norming","","","","","","",""
"null","../img/tt/1130tt.jpg","null","mooney2","image-keyboard-response","438","1286332","0.0-6.0-5.61","2572480","co37693","norming","","","","","","",""
"1209.0900000000838","","","post_reveal_questions","survey-likert","439","1287543","0.0-6.0-6.61","2572480","co37693","norming","","","{""aha"":1}","[0]","../img/tt/1130tt.jpg","",""
"null","<div style=""font-size:60px;""> </div>","null","fixation","html-keyboard-response","440","1287745","0.0-6.0-0.62","2572480","co37693","norming","","","","","","",""
"null","../img/tt/1161tt.jpg","null","mooney1","image-keyboard-response","441","1290747","0.0-6.0-1.62","2572480","co37693","norming","","","","","","",""
"2625.375","","","post_mooney1_questions","survey-likert","442","1293375","0.0-6.0-2.62","2572480","co37693","norming","","","{""curiosity"":1,""confidence"":1}","[0,1]","../img/tt/1161tt.jpg","",""
"1286.2300000002142","","","recognition","survey-text","443","1294663","0.0-6.0-3.62","2572480","co37693","norming","","","{""guess"":""hiker""}","","../img/tt/1161tt.jpg","",""
"null","../img/gs/1161gs.jpg","null","reveal","image-keyboard-response","444","1296665","0.0-6.0-4.62","2572480","co37693","norming","","","","","","",""
"null","../img/tt/1161tt.jpg","null","mooney2","image-keyboard-response","445","1298673","0.0-6.0-5.62","2572480","co37693","norming","","","","","","",""
"1628.1749999998137","","","post_reveal_questions","survey-likert","446","1300303","0.0-6.0-6.62","2572480","co37693","norming","","","{""aha"":2}","[0]","../img/tt/1161tt.jpg","",""
"null","<div style=""font-size:60px;""> </div>","null","fixation","html-keyboard-response","447","1300506","0.0-6.0-0.63","2572480","co37693","norming","","","","","","",""
"null","../img/tt/418tt.jpg","null","mooney1","image-keyboard-response","448","1303509","0.0-6.0-1.63","2572480","co37693","norming","","","","","","",""
"2679.0999999998603","","","post_mooney1_questions","survey-likert","449","1306192","0.0-6.0-2.63","2572480","co37693","norming","","","{""curiosity"":1,""confidence"":2}","[0,1]","../img/tt/418tt.jpg","",""
"2022.1899999999441","","","recognition","survey-text","450","1308215","0.0-6.0-3.63","2572480","co37693","norming","","","{""guess"":""tomatoes""}","","../img/tt/418tt.jpg","",""
"null","../img/gs/418gs.jpg","null","reveal","image-keyboard-response","451","1310217","0.0-6.0-4.63","2572480","co37693","norming","","","","","","",""
"null","../img/tt/418tt.jpg","null","mooney2","image-keyboard-response","452","1312219","0.0-6.0-5.63","2572480","co37693","norming","","","","","","",""
"1401.910000000149","","","post_reveal_questions","survey-likert","453","1313623","0.0-6.0-6.63","2572480","co37693","norming","","","{""aha"":1}","[0]","../img/tt/418tt.jpg","",""
"null","<div style=""font-size:60px;""> </div>","null","fixation","html-keyboard-response","454","1313824","0.0-6.0-0.64","2572480","co37693","norming","","","","","","",""
"null","../img/tt/1125tt.jpg","null","mooney1","image-keyboard-response","455","1316831","0.0-6.0-1.64","2572480","co37693","norming","","","","","","",""
"3781.5250000001397","","","post_mooney1_questions","survey-likert","456","1320615","0.0-6.0-2.64","2572480","co37693","norming","","","{""curiosity"":1,""confidence"":1}","[0,1]","../img/tt/1125tt.jpg","",""
"462.1350000000093","","","recognition","survey-text","457","1321079","0.0-6.0-3.64","2572480","co37693","norming","","","{""guess"":""""}","","../img/tt/1125tt.jpg","",""
"null","../img/gs/1125gs.jpg","null","reveal","image-keyboard-response","458","1323080","0.0-6.0-4.64","2572480","co37693","norming","","","","","","",""
"null","../img/tt/1125tt.jpg","null","mooney2","image-keyboard-response","459","1325082","0.0-6.0-5.64","2572480","co37693","norming","","","","","","",""
"1650.2649999998976","","","post_reveal_questions","survey-likert","460","1326735","0.0-6.0-6.64","2572480","co37693","norming","","","{""aha"":3}","[0]","../img/tt/1125tt.jpg","",""
"null","<div style=""font-size:60px;""> </div>","null","fixation","html-keyboard-response","461","1326945","0.0-6.0-0.65","2572480","co37693","norming","","","","","","",""
"null","../img/tt/405tt.jpg","null","mooney1","image-keyboard-response","462","1329952","0.0-6.0-1.65","2572480","co37693","norming","","","","","","",""
"3635.9250000000466","","","post_mooney1_questions","survey-likert","463","1333592","0.0-6.0-2.65","2572480","co37693","norming","","","{""curiosity"":1,""confidence"":0}","[0,1]","../img/tt/405tt.jpg","",""
"693.9250000000466","","","recognition","survey-text","464","1334287","0.0-6.0-3.65","2572480","co37693","norming","","","{""guess"":""""}","","../img/tt/405tt.jpg","",""
"null","../img/gs/405gs.jpg","null","reveal","image-keyboard-response","465","1336289","0.0-6.0-4.65","2572480","co37693","norming","","","","","","",""
"null","../img/tt/405tt.jpg","null","mooney2","image-keyboard-response","466","1338292","0.0-6.0-5.65","2572480","co37693","norming","","","","","","",""
"3136.7249999998603","","","post_reveal_questions","survey-likert","467","1341431","0.0-6.0-6.65","2572480","co37693","norming","","","{""aha"":3}","[0]","../img/tt/405tt.jpg","",""
"null","<div style=""font-size:60px;""> </div>","null","fixation","html-keyboard-response","468","1341636","0.0-6.0-0.66","2572480","co37693","norming","","","","","","",""
"null","../img/tt/603tt.jpg","null","mooney1","image-keyboard-response","469","1344646","0.0-6.0-1.66","2572480","co37693","norming","","","","","","",""
"4925.97499999986","","","post_mooney1_questions","survey-likert","470","1349575","0.0-6.0-2.66","2572480","co37693","norming","","","{""curiosity"":1,""confidence"":2}","[0,1]","../img/tt/603tt.jpg","",""
"3245.7299999997485","","","recognition","survey-text","471","1352823","0.0-6.0-3.66","2572480","co37693","norming","","","{""guess"":""cat""}","","../img/tt/603tt.jpg","",""
"null","../img/gs/603gs.jpg","null","reveal","image-keyboard-response","472","1354833","0.0-6.0-4.66","2572480","co37693","norming","","","","","","",""
"null","../img/tt/603tt.jpg","null","mooney2","image-keyboard-response","473","1356843","0.0-6.0-5.66","2572480","co37693","norming","","","","","","",""
"1953.089999999851","","","post_reveal_questions","survey-likert","474","1358799","0.0-6.0-6.66","2572480","co37693","norming","","","{""aha"":0}","[0]","../img/tt/603tt.jpg","",""
"null","<div style=""font-size:60px;""> </div>","null","fixation","html-keyboard-response","475","1359002","0.0-6.0-0.67","2572480","co37693","norming","","","","","","",""
"null","../img/tt/1004tt.jpg","null","mooney1","image-keyboard-response","476","1362012","0.0-6.0-1.67","2572480","co37693","norming","","","","","","",""
"2775.929999999935","","","post_mooney1_questions","survey-likert","477","1364791","0.0-6.0-2.67","2572480","co37693","norming","","","{""curiosity"":1,""confidence"":3}","[0,1]","../img/tt/1004tt.jpg","",""
"2894.070000000065","","","recognition","survey-text","478","1367687","0.0-6.0-3.67","2572480","co37693","norming","","","{""guess"":""elephant""}","","../img/tt/1004tt.jpg","",""
"null","../img/gs/1004gs.jpg","null","reveal","image-keyboard-response","479","1369697","0.0-6.0-4.67","2572480","co37693","norming","","","","","","",""
"null","../img/tt/1004tt.jpg","null","mooney2","image-keyboard-response","480","1371702","0.0-6.0-5.67","2572480","co37693","norming","","","","","","",""
"2222.9150000000373","","","post_reveal_questions","survey-likert","481","1373927","0.0-6.0-6.67","2572480","co37693","norming","","","{""aha"":0}","[0]","../img/tt/1004tt.jpg","",""
"null","<div style=""font-size:60px;""> </div>","null","fixation","html-keyboard-response","482","1374128","0.0-6.0-0.68","2572480","co37693","norming","","","","","","",""
"null","../img/tt/1283tt.jpg","null","mooney1","image-keyboard-response","483","1377140","0.0-6.0-1.68","2572480","co37693","norming","","","","","","",""
"3031.3300000000745","","","post_mooney1_questions","survey-likert","484","1380175","0.0-6.0-2.68","2572480","co37693","norming","","","{""curiosity"":1,""confidence"":1}","[0,1]","../img/tt/1283tt.jpg","",""
"5685.819999999832","","","recognition","survey-text","485","1385863","0.0-6.0-3.68","2572480","co37693","norming","","","{""guess"":""lions""}","","../img/tt/1283tt.jpg","",""
"null","../img/gs/1283gs.jpg","null","reveal","image-keyboard-response","486","1387864","0.0-6.0-4.68","2572480","co37693","norming","","","","","","",""
"null","../img/tt/1283tt.jpg","null","mooney2","image-keyboard-response","487","1389870","0.0-6.0-5.68","2572480","co37693","norming","","","","","","",""
"2854.1299999998882","","","post_reveal_questions","survey-likert","488","1392727","0.0-6.0-6.68","2572480","co37693","norming","","","{""aha"":4}","[0]","../img/tt/1283tt.jpg","",""
"null","<div style=""font-size:60px;""> </div>","null","fixation","html-keyboard-response","489","1392929","0.0-6.0-0.69","2572480","co37693","norming","","","","","","",""
"null","../img/tt/1254tt.jpg","null","mooney1","image-keyboard-response","490","1395936","0.0-6.0-1.69","2572480","co37693","norming","","","","","","",""
"2987.2400000002235","","","post_mooney1_questions","survey-likert","491","1398918","0.0-6.0-2.69","2572480","co37693","norming","","","{""curiosity"":1,""confidence"":0}","[0,1]","../img/tt/1254tt.jpg","",""
"686.690000000177","","","recognition","survey-text","492","1399607","0.0-6.0-3.69","2572480","co37693","norming","","","{""guess"":""""}","","../img/tt/1254tt.jpg","",""
"null","../img/gs/1254gs.jpg","null","reveal","image-keyboard-response","493","1401615","0.0-6.0-4.69","2572480","co37693","norming","","","","","","",""
"null","../img/tt/1254tt.jpg","null","mooney2","image-keyboard-response","494","1403624","0.0-6.0-5.69","2572480","co37693","norming","","","","","","",""
"1843.6200000001118","","","post_reveal_questions","survey-likert","495","1405470","0.0-6.0-6.69","2572480","co37693","norming","","","{""aha"":3}","[0]","../img/tt/1254tt.jpg","",""
"null","<div style=""font-size:60px;""> </div>","null","fixation","html-keyboard-response","496","1405671","0.0-6.0-0.70","2572480","co37693","norming","","","","","","",""
"null","../img/tt/1190tt.jpg","null","mooney1","image-keyboard-response","497","1408679","0.0-6.0-1.70","2572480","co37693","norming","","","","","","",""
"3814.559999999823","","","post_mooney1_questions","survey-likert","498","1412494","0.0-6.0-2.70","2572480","co37693","norming","","","{""curiosity"":1,""confidence"":1}","[0,1]","../img/tt/1190tt.jpg","",""
"2366.135000000242","","","recognition","survey-text","499","1414862","0.0-6.0-3.70","2572480","co37693","norming","","","{""guess"":""people""}","","../img/tt/1190tt.jpg","",""
"null","../img/gs/1190gs.jpg","null","reveal","image-keyboard-response","500","1416869","0.0-6.0-4.70","2572480","co37693","norming","","","","","","",""
"null","../img/tt/1190tt.jpg","null","mooney2","image-keyboard-response","501","1418877","0.0-6.0-5.70","2572480","co37693","norming","","","","","","",""
"5672.229999999981","","","post_reveal_questions","survey-likert","502","1424550","0.0-6.0-6.70","2572480","co37693","norming","","","{""aha"":4}","[0]","../img/tt/1190tt.jpg","",""
"null","<div style=""font-size:60px;""> </div>","null","fixation","html-keyboard-response","503","1424752","0.0-6.0-0.71","2572480","co37693","norming","","","","","","",""
"null","../img/tt/1171tt.jpg","null","mooney1","image-keyboard-response","504","1427759","0.0-6.0-1.71","2572480","co37693","norming","","","","","","",""
"4238.074999999953","","","post_mooney1_questions","survey-likert","505","1431998","0.0-6.0-2.71","2572480","co37693","norming","","","{""curiosity"":1,""confidence"":1}","[0,1]","../img/tt/1171tt.jpg","",""
"9310.159999999916","","","recognition","survey-text","506","1441310","0.0-6.0-3.71","2572480","co37693","norming","","","{""guess"":""someone with a mask""}","","../img/tt/1171tt.jpg","",""
"null","../img/gs/1171gs.jpg","null","reveal","image-keyboard-response","507","1443316","0.0-6.0-4.71","2572480","co37693","norming","","","","","","",""
"null","../img/tt/1171tt.jpg","null","mooney2","image-keyboard-response","508","1445318","0.0-6.0-5.71","2572480","co37693","norming","","","","","","",""
"2269.309999999823","","","post_reveal_questions","survey-likert","509","1447590","0.0-6.0-6.71","2572480","co37693","norming","","","{""aha"":3}","[0]","../img/tt/1171tt.jpg","",""
"null","<div style=""font-size:60px;""> </div>","null","fixation","html-keyboard-response","510","1447791","0.0-6.0-0.72","2572480","co37693","norming","","","","","","",""
"null","../img/tt/1200tt.jpg","null","mooney1","image-keyboard-response","511","1450798","0.0-6.0-1.72","2572480","co37693","norming","","","","","","",""
"8861.169999999925","","","post_mooney1_questions","survey-likert","512","1459671","0.0-6.0-2.72","2572480","co37693","norming","","","{""curiosity"":1,""confidence"":3}","[0,1]","../img/tt/1200tt.jpg","",""
"477.6199999998789","","","recognition","survey-text","513","1460151","0.0-6.0-3.72","2572480","co37693","norming","","","{""guess"":""""}","","../img/tt/1200tt.jpg","",""
"null","../img/gs/1200gs.jpg","null","reveal","image-keyboard-response","514","1462154","0.0-6.0-4.72","2572480","co37693","norming","","","","","","",""
"null","../img/tt/1200tt.jpg","null","mooney2","image-keyboard-response","515","1464157","0.0-6.0-5.72","2572480","co37693","norming","","","","","","",""
"1479.0150000001304","","","post_reveal_questions","survey-likert","516","1465639","0.0-6.0-6.72","2572480","co37693","norming","","","{""aha"":3}","[0]","../img/tt/1200tt.jpg","",""
"null","<div style=""font-size:60px;""> </div>","null","fixation","html-keyboard-response","517","1465844","0.0-6.0-0.73","2572480","co37693","norming","","","","","","",""
"null","../img/tt/1205tt.jpg","null","mooney1","image-keyboard-response","518","1468853","0.0-6.0-1.73","2572480","co37693","norming","","","","","","",""
"2502.945000000065","","","post_mooney1_questions","survey-likert","519","1471359","0.0-6.0-2.73","2572480","co37693","norming","","","{""curiosity"":1,""confidence"":1}","[0,1]","../img/tt/1205tt.jpg","",""
"3238.214999999851","","","recognition","survey-text","520","1474599","0.0-6.0-3.73","2572480","co37693","norming","","","{""guess"":""people""}","","../img/tt/1205tt.jpg","",""
"null","../img/gs/1205gs.jpg","null","reveal","image-keyboard-response","521","1476609","0.0-6.0-4.73","2572480","co37693","norming","","","","","","",""
"null","../img/tt/1205tt.jpg","null","mooney2","image-keyboard-response","522","1478621","0.0-6.0-5.73","2572480","co37693","norming","","","","","","",""
"3335.1150000002235","","","post_reveal_questions","survey-likert","523","1481959","0.0-6.0-6.73","2572480","co37693","norming","","","{""aha"":2}","[0]","../img/tt/1205tt.jpg","",""
"null","<div style=""font-size:60px;""> </div>","null","fixation","html-keyboard-response","524","1482167","0.0-6.0-0.74","2572480","co37693","norming","","","","","","",""
"null","../img/tt/1154tt.jpg","null","mooney1","image-keyboard-response","525","1485174","0.0-6.0-1.74","2572480","co37693","norming","","","","","","",""
"7333.9199999999255","","","post_mooney1_questions","survey-likert","526","1492511","0.0-6.0-2.74","2572480","co37693","norming","","","{""curiosity"":1,""confidence"":2}","[0,1]","../img/tt/1154tt.jpg","",""
"3381.9849999998696","","","recognition","survey-text","527","1495895","0.0-6.0-3.74","2572480","co37693","norming","","","{""guess"":""kayacking""}","","../img/tt/1154tt.jpg","",""
"null","../img/gs/1154gs.jpg","null","reveal","image-keyboard-response","528","1497904","0.0-6.0-4.74","2572480","co37693","norming","","","","","","",""
"null","../img/tt/1154tt.jpg","null","mooney2","image-keyboard-response","529","1499915","0.0-6.0-5.74","2572480","co37693","norming","","","","","","",""
"3736.380000000354","","","post_reveal_questions","survey-likert","530","1503655","0.0-6.0-6.74","2572480","co37693","norming","","","{""aha"":2}","[0]","../img/tt/1154tt.jpg","",""
"null","<div style=""font-size:60px;""> </div>","null","fixation","html-keyboard-response","531","1503857","0.0-6.0-0.75","2572480","co37693","norming","","","","","","",""
"null","../img/tt/1086tt.jpg","null","mooney1","image-keyboard-response","532","1506859","0.0-6.0-1.75","2572480","co37693","norming","","","","","","",""
"3728.5300000002608","","","post_mooney1_questions","survey-likert","533","1510591","0.0-6.0-2.75","2572480","co37693","norming","","","{""curiosity"":1,""confidence"":2}","[0,1]","../img/tt/1086tt.jpg","",""
"1558.4350000000559","","","recognition","survey-text","534","1512151","0.0-6.0-3.75","2572480","co37693","norming","","","{""guess"":""wolfd""}","","../img/tt/1086tt.jpg","",""
"null","../img/gs/1086gs.jpg","null","reveal","image-keyboard-response","535","1514158","0.0-6.0-4.75","2572480","co37693","norming","","","","","","",""
"null","../img/tt/1086tt.jpg","null","mooney2","image-keyboard-response","536","1516162","0.0-6.0-5.75","2572480","co37693","norming","","","","","","",""
"3769.715000000084","","","post_reveal_questions","survey-likert","537","1519934","0.0-6.0-6.75","2572480","co37693","norming","","","{""aha"":2}","[0]","../img/tt/1086tt.jpg","",""
"null","<div style=""font-size:60px;""> </div>","null","fixation","html-keyboard-response","538","1520135","0.0-6.0-0.76","2572480","co37693","norming","","","","","","",""
"null","../img/tt/1353tt.jpg","null","mooney1","image-keyboard-response","539","1523142","0.0-6.0-1.76","2572480","co37693","norming","","","","","","",""
"2852.089999999851","","","post_mooney1_questions","survey-likert","540","1525998","0.0-6.0-2.76","2572480","co37693","norming","","","{""curiosity"":1,""confidence"":0}","[0,1]","../img/tt/1353tt.jpg","",""
"1613.6400000001304","","","recognition","survey-text","541","1527614","0.0-6.0-3.76","2572480","co37693","norming","","","{""guess"":""""}","","../img/tt/1353tt.jpg","",""
"null","../img/gs/1353gs.jpg","null","reveal","image-keyboard-response","542","1529616","0.0-6.0-4.76","2572480","co37693","norming","","","","","","",""
"null","../img/tt/1353tt.jpg","null","mooney2","image-keyboard-response","543","1531619","0.0-6.0-5.76","2572480","co37693","norming","","","","","","",""
"3751.5550000001676","","","post_reveal_questions","survey-likert","544","1535374","0.0-6.0-6.76","2572480","co37693","norming","","","{""aha"":3}","[0]","../img/tt/1353tt.jpg","",""
"null","<div style=""font-size:60px;""> </div>","null","fixation","html-keyboard-response","545","1535581","0.0-6.0-0.77","2572480","co37693","norming","","","","","","",""
"null","../img/tt/078tt.jpg","null","mooney1","image-keyboard-response","546","1538586","0.0-6.0-1.77","2572480","co37693","norming","","","","","","",""
"2608.475000000093","","","post_mooney1_questions","survey-likert","547","1541198","0.0-6.0-2.77","2572480","co37693","norming","","","{""curiosity"":1,""confidence"":1}","[0,1]","../img/tt/078tt.jpg","",""
"1813.9250000000466","","","recognition","survey-text","548","1543014","0.0-6.0-3.77","2572480","co37693","norming","","","{""guess"":""grapes""}","","../img/tt/078tt.jpg","",""
"null","../img/gs/078gs.jpg","null","reveal","image-keyboard-response","549","1545021","0.0-6.0-4.77","2572480","co37693","norming","","","","","","",""
"null","../img/tt/078tt.jpg","null","mooney2","image-keyboard-response","550","1547022","0.0-6.0-5.77","2572480","co37693","norming","","","","","","",""
"1766.7499999997672","","","post_reveal_questions","survey-likert","551","1548790","0.0-6.0-6.77","2572480","co37693","norming","","","{""aha"":1}","[0]","../img/tt/078tt.jpg","",""
"null","<div style=""font-size:60px;""> </div>","null","fixation","html-keyboard-response","552","1548991","0.0-6.0-0.78","2572480","co37693","norming","","","","","","",""
