"rt","stimulus","key_press","test_part","trial_type","trial_index","time_elapsed","internal_node_id","totalTime","subject","experiment_name","button_pressed","success","responses","question_order","currentStim","old","correct"
"8032.789999999977","Welcome to the experiment. This is an online experiment so please don't close the tab/window until we say goodbye.  Press any key to begin.","13","instructions","html-keyboard-response","0","8038","0.0-0.0","3406773","co37546","norming","","","","","","",""
"26742.53999999996","<div style='word-wrap: break-word; width: 900px'><h3>Please consider this information carefully before deciding whether to participate in this research</h3><ul style='text-align: left; font-size: .8em;'><li><b>Purpose of the research</b>: To examine how people process images.</li><li><b>What you will do in this research</b>:  Stimuli (images) will be presented on the computer and you will be asked different questions about them.</li><li><b>Time required</b>: Participation will take between 45 and 60 minutes to complete.</li><li><b>Risks</b>:  There are no anticipated risks associated with participating in this study. The effects of participating should be comparable to those you would experience from viewing a computer monitor for 30 minutes and using a mouse or keyboard.</li><li><b>Benefits</b>:  This study provides no benefits to you individually except for the credit. The study provides important information about the nature of perception and learning.</li><li><b>Confidentiality</b>:  Your participation in this study will remain confidential. No personally identifiable information will be associated with your data. Your de-identified data may be shared with other researchers and used in future projects.</li><li><b>Participation and withdrawal</b>:  Your participation in this study is completely voluntary and you may refuse to participate or you may choose to withdraw at any time without penalty.</li><li><b>How to contact the researchers</b>: If you have questions or concerns about your participation or payment, or want to request a summary of research findings, please contact Sander Van de Cruys (KU Leuven), at sander.vandecruys@kuleuven.be.</li></ul><p>The nature and purpose of this research have been sufficiently explained and I agree to participate in this study.  I understand that I am free to withdraw at any time without incurring any penalty.</p><p>Please consent by clicking the button below to continue. Otherwise, please exit the study at this time.</p></div>","","instructions","html-button-response","1","34776","0.0-1.0","3406773","co37546","norming","0","","","","","",""
"","","","instructions","fullscreen","2","38969","0.0-2.0","3406773","co37546","norming","","true","","","","",""
"45163.04000000014","","","sona","survey-html-form","3","84137","0.0-3.0","3406773","co37546","norming","","","[{""name"":""sonaid"",""value"":""37546""},{""name"":""debrief"",""value"":""yes""},{""name"":""datajoin"",""value"":""yes""}]","","","",""
"68326.62000000005","<div style='word-wrap: break-word; width: 900px'><h3>Instructions</h3><p>This experiment will have 3 parts. In the first part you will see a series of distorted images like the one below on the left. As you can see in the righthand image, the distorted images are derived from actual photographs. In what follows, you will <strong>briefly</strong> be presented with <strong>only</strong> the distorted image.</p> <div style='float: left; margin-right: 20px;'><img src='../img/018tt.jpg' height='250' width='250'></img></div><div style='float: right; margin-left: 20px;'><img src='../img/018gs.jpg' height='250' width='250'></img></div><p>Subsequently you will be asked a few questions about the image: One question on how <strong>curious</strong> you are about the solution and one on how <strong>confident</strong> you are that you know the solution.</p>Next, we ask you to make a guess on what is in the image. Note that it is OK to name just the <strong>basic level category</strong>. For example when you see a parrot in the image, 'parrot' will obviously be a correct answer but also correct is 'bird'. However, 'animal' will <strong>not</strong> be counted as a correct response. For the example above, 'rose' would be correct or 'flower', but not 'plant'. When soccer players are depicted, 'soccer', 'football', 'soccer players' will be correct, but not 'humans', 'outdoors', or 'sports'. You do not need to describe the image in full, just name the main object in it <strong>in one or two words</strong>. All images depict objects from one of the following broad level categories: animals, inanimate objects, plants, sports, vehicles, and food. Recognizing means knowing <strong>more</strong> than these broad labels for a given image. But we always encourage you to <strong>make a guess</strong> if you can. Note that you are allowed to use <strong>Dutch and English</strong> in your answers, whatever comes easiest for you.</p><p>Press any key to continue.</p></div>","13","instructions","html-keyboard-response","4","152467","0.0-4.0","3406773","co37546","norming","","","","","","",""
"88607.35","<div style='word-wrap: break-word; width: 900px'><h3>Instructions</h3> <p>Next, the solution image will be revealed to you and you'll be asked to indicate how strong your <strong>aha-experience</strong> was after seeing the solution. This describes the positive feeling of the 'click' you sometimes experience, when the pieces of the 'puzzle' fall together and you suddenly have 'insight' in the image.</p><img src='aha.jpg' height='188' width='250'></img><p>Note that there are no right or wrong answers. We are interested in what <strong>you</strong> see in the image and how <strong>you</strong> feel about it.</p><p>Press any key to start the experiment.</p></div>","13","instructions","html-keyboard-response","5","241075","0.0-5.0","3406773","co37546","norming","","","","","","",""
"null","<div style=""font-size:60px;""> </div>","null","fixation","html-keyboard-response","6","241277","0.0-6.0-0.0","3406773","co37546","norming","","","","","","",""
"null","../img/tt/1006tt.jpg","null","mooney1","image-keyboard-response","7","244284","0.0-6.0-1.0","3406773","co37546","norming","","","","","","",""
"17516.675000000105","","","post_mooney1_questions","survey-likert","8","261804","0.0-6.0-2.0","3406773","co37546","norming","","","{""curiosity"":3,""confidence"":2}","[0,1]","../img/tt/1006tt.jpg","",""
"23237.785000000033","","","recognition","survey-text","9","285044","0.0-6.0-3.0","3406773","co37546","norming","","","{""guess"":""weide""}","","../img/tt/1006tt.jpg","",""
"null","../img/gs/1006gs.jpg","null","reveal","image-keyboard-response","10","287046","0.0-6.0-4.0","3406773","co37546","norming","","","","","","",""
"null","../img/tt/1006tt.jpg","null","mooney2","image-keyboard-response","11","289053","0.0-6.0-5.0","3406773","co37546","norming","","","","","","",""
"5044.280000000086","","","post_reveal_questions","survey-likert","12","294099","0.0-6.0-6.0","3406773","co37546","norming","","","{""aha"":3}","[0]","../img/tt/1006tt.jpg","",""
"null","<div style=""font-size:60px;""> </div>","null","fixation","html-keyboard-response","13","294301","0.0-6.0-0.1","3406773","co37546","norming","","","","","","",""
"null","../img/tt/020tt.jpg","null","mooney1","image-keyboard-response","14","297312","0.0-6.0-1.1","3406773","co37546","norming","","","","","","",""
"6241.309999999881","","","post_mooney1_questions","survey-likert","15","303558","0.0-6.0-2.1","3406773","co37546","norming","","","{""curiosity"":4,""confidence"":0}","[0,1]","../img/tt/020tt.jpg","",""
"21637.83500000002","","","recognition","survey-text","16","325197","0.0-6.0-3.1","3406773","co37546","norming","","","{""guess"":""""}","","../img/tt/020tt.jpg","",""
"null","../img/gs/020gs.jpg","null","reveal","image-keyboard-response","17","327198","0.0-6.0-4.1","3406773","co37546","norming","","","","","","",""
"null","../img/tt/020tt.jpg","null","mooney2","image-keyboard-response","18","329200","0.0-6.0-5.1","3406773","co37546","norming","","","","","","",""
"2828.5750000000116","","","post_reveal_questions","survey-likert","19","332029","0.0-6.0-6.1","3406773","co37546","norming","","","{""aha"":4}","[0]","../img/tt/020tt.jpg","",""
"null","<div style=""font-size:60px;""> </div>","null","fixation","html-keyboard-response","20","332234","0.0-6.0-0.2","3406773","co37546","norming","","","","","","",""
"null","../img/tt/1101tt.jpg","null","mooney1","image-keyboard-response","21","335242","0.0-6.0-1.2","3406773","co37546","norming","","","","","","",""
"10464.555000000051","","","post_mooney1_questions","survey-likert","22","345710","0.0-6.0-2.2","3406773","co37546","norming","","","{""curiosity"":2,""confidence"":5}","[0,1]","../img/tt/1101tt.jpg","",""
"7549.930000000109","","","recognition","survey-text","23","353261","0.0-6.0-3.2","3406773","co37546","norming","","","{""guess"":""sitting man""}","","../img/tt/1101tt.jpg","",""
"null","../img/gs/1101gs.jpg","null","reveal","image-keyboard-response","24","355263","0.0-6.0-4.2","3406773","co37546","norming","","","","","","",""
"null","../img/tt/1101tt.jpg","null","mooney2","image-keyboard-response","25","357265","0.0-6.0-5.2","3406773","co37546","norming","","","","","","",""
"3129.869999999937","","","post_reveal_questions","survey-likert","26","360397","0.0-6.0-6.2","3406773","co37546","norming","","","{""aha"":4}","[0]","../img/tt/1101tt.jpg","",""
"null","<div style=""font-size:60px;""> </div>","null","fixation","html-keyboard-response","27","360599","0.0-6.0-0.3","3406773","co37546","norming","","","","","","",""
"null","../img/tt/1156tt.jpg","null","mooney1","image-keyboard-response","28","363611","0.0-6.0-1.3","3406773","co37546","norming","","","","","","",""
"10273.309999999998","","","post_mooney1_questions","survey-likert","29","373887","0.0-6.0-2.3","3406773","co37546","norming","","","{""curiosity"":5,""confidence"":2}","[0,1]","../img/tt/1156tt.jpg","",""
"37117.85499999992","","","recognition","survey-text","30","411007","0.0-6.0-3.3","3406773","co37546","norming","","","{""guess"":""camel""}","","../img/tt/1156tt.jpg","",""
"null","../img/gs/1156gs.jpg","null","reveal","image-keyboard-response","31","413008","0.0-6.0-4.3","3406773","co37546","norming","","","","","","",""
"null","../img/tt/1156tt.jpg","null","mooney2","image-keyboard-response","32","415018","0.0-6.0-5.3","3406773","co37546","norming","","","","","","",""
"1682.1600000000908","","","post_reveal_questions","survey-likert","33","416703","0.0-6.0-6.3","3406773","co37546","norming","","","{""aha"":5}","[0]","../img/tt/1156tt.jpg","",""
"null","<div style=""font-size:60px;""> </div>","null","fixation","html-keyboard-response","34","416913","0.0-6.0-0.4","3406773","co37546","norming","","","","","","",""
"null","../img/tt/522tt.jpg","null","mooney1","image-keyboard-response","35","419916","0.0-6.0-1.4","3406773","co37546","norming","","","","","","",""
"5337.395000000019","","","post_mooney1_questions","survey-likert","36","425248","0.0-6.0-2.4","3406773","co37546","norming","","","{""curiosity"":4,""confidence"":1}","[0,1]","../img/tt/522tt.jpg","",""
"8389.850000000035","","","recognition","survey-text","37","433640","0.0-6.0-3.4","3406773","co37546","norming","","","{""guess"":""worm""}","","../img/tt/522tt.jpg","",""
"null","../img/gs/522gs.jpg","null","reveal","image-keyboard-response","38","435643","0.0-6.0-4.4","3406773","co37546","norming","","","","","","",""
"null","../img/tt/522tt.jpg","null","mooney2","image-keyboard-response","39","437654","0.0-6.0-5.4","3406773","co37546","norming","","","","","","",""
"4144.240000000107","","","post_reveal_questions","survey-likert","40","441800","0.0-6.0-6.4","3406773","co37546","norming","","","{""aha"":4}","[0]","../img/tt/522tt.jpg","",""
"null","<div style=""font-size:60px;""> </div>","null","fixation","html-keyboard-response","41","442008","0.0-6.0-0.5","3406773","co37546","norming","","","","","","",""
"null","../img/tt/040tt.jpg","null","mooney1","image-keyboard-response","42","445020","0.0-6.0-1.5","3406773","co37546","norming","","","","","","",""
"9649.32500000007","","","post_mooney1_questions","survey-likert","43","454672","0.0-6.0-2.5","3406773","co37546","norming","","","{""curiosity"":4,""confidence"":1}","[0,1]","../img/tt/040tt.jpg","",""
"3438.149999999965","","","recognition","survey-text","44","458112","0.0-6.0-3.5","3406773","co37546","norming","","","{""guess"":""dog""}","","../img/tt/040tt.jpg","",""
"null","../img/gs/040gs.jpg","null","reveal","image-keyboard-response","45","460114","0.0-6.0-4.5","3406773","co37546","norming","","","","","","",""
"null","../img/tt/040tt.jpg","null","mooney2","image-keyboard-response","46","462117","0.0-6.0-5.5","3406773","co37546","norming","","","","","","",""
"3290.314999999944","","","post_reveal_questions","survey-likert","47","465408","0.0-6.0-6.5","3406773","co37546","norming","","","{""aha"":4}","[0]","../img/tt/040tt.jpg","",""
"null","<div style=""font-size:60px;""> </div>","null","fixation","html-keyboard-response","48","465610","0.0-6.0-0.6","3406773","co37546","norming","","","","","","",""
"null","../img/tt/194tt.jpg","null","mooney1","image-keyboard-response","49","468613","0.0-6.0-1.6","3406773","co37546","norming","","","","","","",""
"6639.969999999972","","","post_mooney1_questions","survey-likert","50","475256","0.0-6.0-2.6","3406773","co37546","norming","","","{""curiosity"":3,""confidence"":4}","[0,1]","../img/tt/194tt.jpg","",""
"7990.199999999953","","","recognition","survey-text","51","483248","0.0-6.0-3.6","3406773","co37546","norming","","","{""guess"":""sitting woman""}","","../img/tt/194tt.jpg","",""
"null","../img/gs/194gs.jpg","null","reveal","image-keyboard-response","52","485257","0.0-6.0-4.6","3406773","co37546","norming","","","","","","",""
"null","../img/tt/194tt.jpg","null","mooney2","image-keyboard-response","53","487260","0.0-6.0-5.6","3406773","co37546","norming","","","","","","",""
"4689.0450000001","","","post_reveal_questions","survey-likert","54","491951","0.0-6.0-6.6","3406773","co37546","norming","","","{""aha"":2}","[0]","../img/tt/194tt.jpg","",""
"null","<div style=""font-size:60px;""> </div>","null","fixation","html-keyboard-response","55","492154","0.0-6.0-0.7","3406773","co37546","norming","","","","","","",""
"null","../img/tt/599tt.jpg","null","mooney1","image-keyboard-response","56","495160","0.0-6.0-1.7","3406773","co37546","norming","","","","","","",""
"5260.3850000000675","","","post_mooney1_questions","survey-likert","57","500423","0.0-6.0-2.7","3406773","co37546","norming","","","{""curiosity"":4,""confidence"":3}","[0,1]","../img/tt/599tt.jpg","",""
"3534.1300000000047","","","recognition","survey-text","58","503959","0.0-6.0-3.7","3406773","co37546","norming","","","{""guess"":""eagle""}","","../img/tt/599tt.jpg","",""
"null","../img/gs/599gs.jpg","null","reveal","image-keyboard-response","59","505961","0.0-6.0-4.7","3406773","co37546","norming","","","","","","",""
"null","../img/tt/599tt.jpg","null","mooney2","image-keyboard-response","60","507966","0.0-6.0-5.7","3406773","co37546","norming","","","","","","",""
"3678.554999999935","","","post_reveal_questions","survey-likert","61","511647","0.0-6.0-6.7","3406773","co37546","norming","","","{""aha"":4}","[0]","../img/tt/599tt.jpg","",""
"null","<div style=""font-size:60px;""> </div>","null","fixation","html-keyboard-response","62","511850","0.0-6.0-0.8","3406773","co37546","norming","","","","","","",""
"null","../img/tt/085tt.jpg","null","mooney1","image-keyboard-response","63","514859","0.0-6.0-1.8","3406773","co37546","norming","","","","","","",""
"8129.4049999999115","","","post_mooney1_questions","survey-likert","64","522991","0.0-6.0-2.8","3406773","co37546","norming","","","{""curiosity"":4,""confidence"":3}","[0,1]","../img/tt/085tt.jpg","",""
"4493.874999999884","","","recognition","survey-text","65","527487","0.0-6.0-3.8","3406773","co37546","norming","","","{""guess"":""krekel""}","","../img/tt/085tt.jpg","",""
"null","../img/gs/085gs.jpg","null","reveal","image-keyboard-response","66","529495","0.0-6.0-4.8","3406773","co37546","norming","","","","","","",""
"null","../img/tt/085tt.jpg","null","mooney2","image-keyboard-response","67","531499","0.0-6.0-5.8","3406773","co37546","norming","","","","","","",""
"2937.280000000028","","","post_reveal_questions","survey-likert","68","534439","0.0-6.0-6.8","3406773","co37546","norming","","","{""aha"":5}","[0]","../img/tt/085tt.jpg","",""
"null","<div style=""font-size:60px;""> </div>","null","fixation","html-keyboard-response","69","534640","0.0-6.0-0.9","3406773","co37546","norming","","","","","","",""
"null","../img/tt/032tt.jpg","null","mooney1","image-keyboard-response","70","537648","0.0-6.0-1.9","3406773","co37546","norming","","","","","","",""
"6692.079999999842","","","post_mooney1_questions","survey-likert","71","544343","0.0-6.0-2.9","3406773","co37546","norming","","","{""curiosity"":5,""confidence"":2}","[0,1]","../img/tt/032tt.jpg","",""
"3646","","","recognition","survey-text","72","547981","0.0-6.0-3.9","3406773","co37546","norming","","","{""guess"":""snake""}","","../img/tt/032tt.jpg","",""
"null","../img/gs/032gs.jpg","null","reveal","image-keyboard-response","73","549984","0.0-6.0-4.9","3406773","co37546","norming","","","","","","",""
"null","../img/tt/032tt.jpg","null","mooney2","image-keyboard-response","74","551992","0.0-6.0-5.9","3406773","co37546","norming","","","","","","",""
"2347.3499999999767","","","post_reveal_questions","survey-likert","75","554341","0.0-6.0-6.9","3406773","co37546","norming","","","{""aha"":4}","[0]","../img/tt/032tt.jpg","",""
"null","<div style=""font-size:60px;""> </div>","null","fixation","html-keyboard-response","76","554544","0.0-6.0-0.10","3406773","co37546","norming","","","","","","",""
"null","../img/tt/598tt.jpg","null","mooney1","image-keyboard-response","77","557552","0.0-6.0-1.10","3406773","co37546","norming","","","","","","",""
"4900.094999999972","","","post_mooney1_questions","survey-likert","78","562454","0.0-6.0-2.10","3406773","co37546","norming","","","{""curiosity"":4,""confidence"":2}","[0,1]","../img/tt/598tt.jpg","",""
"4502.109999999986","","","recognition","survey-text","79","566957","0.0-6.0-3.10","3406773","co37546","norming","","","{""guess"":""a hut""}","","../img/tt/598tt.jpg","",""
"null","../img/gs/598gs.jpg","null","reveal","image-keyboard-response","80","568959","0.0-6.0-4.10","3406773","co37546","norming","","","","","","",""
"null","../img/tt/598tt.jpg","null","mooney2","image-keyboard-response","81","570965","0.0-6.0-5.10","3406773","co37546","norming","","","","","","",""
"1750.5699999999488","","","post_reveal_questions","survey-likert","82","572717","0.0-6.0-6.10","3406773","co37546","norming","","","{""aha"":4}","[0]","../img/tt/598tt.jpg","",""
"null","<div style=""font-size:60px;""> </div>","null","fixation","html-keyboard-response","83","572920","0.0-6.0-0.11","3406773","co37546","norming","","","","","","",""
"null","../img/tt/515tt.jpg","null","mooney1","image-keyboard-response","84","575928","0.0-6.0-1.11","3406773","co37546","norming","","","","","","",""
"6764.300000000047","","","post_mooney1_questions","survey-likert","85","582694","0.0-6.0-2.11","3406773","co37546","norming","","","{""curiosity"":1,""confidence"":5}","[0,1]","../img/tt/515tt.jpg","",""
"5542.030000000028","","","recognition","survey-text","86","588237","0.0-6.0-3.11","3406773","co37546","norming","","","{""guess"":""a bird""}","","../img/tt/515tt.jpg","",""
"null","../img/gs/515gs.jpg","null","reveal","image-keyboard-response","87","590243","0.0-6.0-4.11","3406773","co37546","norming","","","","","","",""
"null","../img/tt/515tt.jpg","null","mooney2","image-keyboard-response","88","592256","0.0-6.0-5.11","3406773","co37546","norming","","","","","","",""
"3595.6800000001676","","","post_reveal_questions","survey-likert","89","595854","0.0-6.0-6.11","3406773","co37546","norming","","","{""aha"":1}","[0]","../img/tt/515tt.jpg","",""
"null","<div style=""font-size:60px;""> </div>","null","fixation","html-keyboard-response","90","596055","0.0-6.0-0.12","3406773","co37546","norming","","","","","","",""
"null","../img/tt/1353tt.jpg","null","mooney1","image-keyboard-response","91","599064","0.0-6.0-1.12","3406773","co37546","norming","","","","","","",""
"12723.189999999944","","","post_mooney1_questions","survey-likert","92","611794","0.0-6.0-2.12","3406773","co37546","norming","","","{""curiosity"":5,""confidence"":2}","[0,1]","../img/tt/1353tt.jpg","",""
"4965.959999999963","","","recognition","survey-text","93","616762","0.0-6.0-3.12","3406773","co37546","norming","","","{""guess"":""a dog""}","","../img/tt/1353tt.jpg","",""
"null","../img/gs/1353gs.jpg","null","reveal","image-keyboard-response","94","618770","0.0-6.0-4.12","3406773","co37546","norming","","","","","","",""
"null","../img/tt/1353tt.jpg","null","mooney2","image-keyboard-response","95","620779","0.0-6.0-5.12","3406773","co37546","norming","","","","","","",""
"4109.230000000098","","","post_reveal_questions","survey-likert","96","624890","0.0-6.0-6.12","3406773","co37546","norming","","","{""aha"":5}","[0]","../img/tt/1353tt.jpg","",""
"null","<div style=""font-size:60px;""> </div>","null","fixation","html-keyboard-response","97","625095","0.0-6.0-0.13","3406773","co37546","norming","","","","","","",""
"null","../img/tt/1283tt.jpg","null","mooney1","image-keyboard-response","98","628101","0.0-6.0-1.13","3406773","co37546","norming","","","","","","",""
"9780.714999999851","","","post_mooney1_questions","survey-likert","99","637883","0.0-6.0-2.13","3406773","co37546","norming","","","{""curiosity"":5,""confidence"":5}","[0,1]","../img/tt/1283tt.jpg","",""
"6798.0800000000745","","","recognition","survey-text","100","644682","0.0-6.0-3.13","3406773","co37546","norming","","","{""guess"":""a monkey""}","","../img/tt/1283tt.jpg","",""
"null","../img/gs/1283gs.jpg","null","reveal","image-keyboard-response","101","646693","0.0-6.0-4.13","3406773","co37546","norming","","","","","","",""
"null","../img/tt/1283tt.jpg","null","mooney2","image-keyboard-response","102","648700","0.0-6.0-5.13","3406773","co37546","norming","","","","","","",""
"2219.664999999921","","","post_reveal_questions","survey-likert","103","650922","0.0-6.0-6.13","3406773","co37546","norming","","","{""aha"":5}","[0]","../img/tt/1283tt.jpg","",""
"null","<div style=""font-size:60px;""> </div>","null","fixation","html-keyboard-response","104","651125","0.0-6.0-0.14","3406773","co37546","norming","","","","","","",""
"null","../img/tt/1126tt.jpg","null","mooney1","image-keyboard-response","105","654129","0.0-6.0-1.14","3406773","co37546","norming","","","","","","",""
"13000.694999999949","","","post_mooney1_questions","survey-likert","106","667131","0.0-6.0-2.14","3406773","co37546","norming","","","{""curiosity"":3,""confidence"":4}","[0,1]","../img/tt/1126tt.jpg","",""
"6622.160000000149","","","recognition","survey-text","107","673754","0.0-6.0-3.14","3406773","co37546","norming","","","{""guess"":""climbing man""}","","../img/tt/1126tt.jpg","",""
"null","../img/gs/1126gs.jpg","null","reveal","image-keyboard-response","108","675755","0.0-6.0-4.14","3406773","co37546","norming","","","","","","",""
"null","../img/tt/1126tt.jpg","null","mooney2","image-keyboard-response","109","677759","0.0-6.0-5.14","3406773","co37546","norming","","","","","","",""
"4377.8099999999395","","","post_reveal_questions","survey-likert","110","682138","0.0-6.0-6.14","3406773","co37546","norming","","","{""aha"":2}","[0]","../img/tt/1126tt.jpg","",""
"null","<div style=""font-size:60px;""> </div>","null","fixation","html-keyboard-response","111","682340","0.0-6.0-0.15","3406773","co37546","norming","","","","","","",""
"null","../img/tt/121tt.jpg","null","mooney1","image-keyboard-response","112","685342","0.0-6.0-1.15","3406773","co37546","norming","","","","","","",""
"5657.490000000107","","","post_mooney1_questions","survey-likert","113","691002","0.0-6.0-2.15","3406773","co37546","norming","","","{""curiosity"":4,""confidence"":5}","[0,1]","../img/tt/121tt.jpg","",""
"4653.915000000154","","","recognition","survey-text","114","695658","0.0-6.0-3.15","3406773","co37546","norming","","","{""guess"":""a kangaroo""}","","../img/tt/121tt.jpg","",""
"null","../img/gs/121gs.jpg","null","reveal","image-keyboard-response","115","697665","0.0-6.0-4.15","3406773","co37546","norming","","","","","","",""
"null","../img/tt/121tt.jpg","null","mooney2","image-keyboard-response","116","699670","0.0-6.0-5.15","3406773","co37546","norming","","","","","","",""
"3187.100000000093","","","post_reveal_questions","survey-likert","117","702858","0.0-6.0-6.15","3406773","co37546","norming","","","{""aha"":1}","[0]","../img/tt/121tt.jpg","",""
"null","<div style=""font-size:60px;""> </div>","null","fixation","html-keyboard-response","118","703061","0.0-6.0-0.16","3406773","co37546","norming","","","","","","",""
"null","../img/tt/567tt.jpg","null","mooney1","image-keyboard-response","119","706064","0.0-6.0-1.16","3406773","co37546","norming","","","","","","",""
"10897.079999999958","","","post_mooney1_questions","survey-likert","120","716962","0.0-6.0-2.16","3406773","co37546","norming","","","{""curiosity"":4,""confidence"":1}","[0,1]","../img/tt/567tt.jpg","",""
"3670.1199999999953","","","recognition","survey-text","121","720634","0.0-6.0-3.16","3406773","co37546","norming","","","{""guess"":""a window""}","","../img/tt/567tt.jpg","",""
"null","../img/gs/567gs.jpg","null","reveal","image-keyboard-response","122","722639","0.0-6.0-4.16","3406773","co37546","norming","","","","","","",""
"null","../img/tt/567tt.jpg","null","mooney2","image-keyboard-response","123","724641","0.0-6.0-5.16","3406773","co37546","norming","","","","","","",""
"1470.9399999999441","","","post_reveal_questions","survey-likert","124","726114","0.0-6.0-6.16","3406773","co37546","norming","","","{""aha"":4}","[0]","../img/tt/567tt.jpg","",""
"null","<div style=""font-size:60px;""> </div>","null","fixation","html-keyboard-response","125","726315","0.0-6.0-0.17","3406773","co37546","norming","","","","","","",""
"null","../img/tt/1048tt.jpg","null","mooney1","image-keyboard-response","126","729328","0.0-6.0-1.17","3406773","co37546","norming","","","","","","",""
"8492.555000000051","","","post_mooney1_questions","survey-likert","127","737823","0.0-6.0-2.17","3406773","co37546","norming","","","{""curiosity"":2,""confidence"":1}","[0,1]","../img/tt/1048tt.jpg","",""
"4398.130000000121","","","recognition","survey-text","128","742223","0.0-6.0-3.17","3406773","co37546","norming","","","{""guess"":""a tree""}","","../img/tt/1048tt.jpg","",""
"null","../img/gs/1048gs.jpg","null","reveal","image-keyboard-response","129","744229","0.0-6.0-4.17","3406773","co37546","norming","","","","","","",""
"null","../img/tt/1048tt.jpg","null","mooney2","image-keyboard-response","130","746239","0.0-6.0-5.17","3406773","co37546","norming","","","","","","",""
"2869.570000000065","","","post_reveal_questions","survey-likert","131","749111","0.0-6.0-6.17","3406773","co37546","norming","","","{""aha"":3}","[0]","../img/tt/1048tt.jpg","",""
"null","<div style=""font-size:60px;""> </div>","null","fixation","html-keyboard-response","132","749312","0.0-6.0-0.18","3406773","co37546","norming","","","","","","",""
"null","../img/tt/418tt.jpg","null","mooney1","image-keyboard-response","133","752317","0.0-6.0-1.18","3406773","co37546","norming","","","","","","",""
"7582.990000000107","","","post_mooney1_questions","survey-likert","134","759903","0.0-6.0-2.18","3406773","co37546","norming","","","{""curiosity"":2,""confidence"":3}","[0,1]","../img/tt/418tt.jpg","",""
"4446.040000000037","","","recognition","survey-text","135","764351","0.0-6.0-3.18","3406773","co37546","norming","","","{""guess"":""a tomato""}","","../img/tt/418tt.jpg","",""
"null","../img/gs/418gs.jpg","null","reveal","image-keyboard-response","136","766358","0.0-6.0-4.18","3406773","co37546","norming","","","","","","",""
"null","../img/tt/418tt.jpg","null","mooney2","image-keyboard-response","137","768369","0.0-6.0-5.18","3406773","co37546","norming","","","","","","",""
"1387.170000000042","","","post_reveal_questions","survey-likert","138","769759","0.0-6.0-6.18","3406773","co37546","norming","","","{""aha"":4}","[0]","../img/tt/418tt.jpg","",""
"null","<div style=""font-size:60px;""> </div>","null","fixation","html-keyboard-response","139","769959","0.0-6.0-0.19","3406773","co37546","norming","","","","","","",""
"null","../img/tt/1063tt.jpg","null","mooney1","image-keyboard-response","140","772966","0.0-6.0-1.19","3406773","co37546","norming","","","","","","",""
"4823.310000000056","","","post_mooney1_questions","survey-likert","141","777791","0.0-6.0-2.19","3406773","co37546","norming","","","{""curiosity"":3,""confidence"":3}","[0,1]","../img/tt/1063tt.jpg","",""
"7966.210000000079","","","recognition","survey-text","142","785759","0.0-6.0-3.19","3406773","co37546","norming","","","{""guess"":""a horse""}","","../img/tt/1063tt.jpg","",""
"null","../img/gs/1063gs.jpg","null","reveal","image-keyboard-response","143","787762","0.0-6.0-4.19","3406773","co37546","norming","","","","","","",""
"null","../img/tt/1063tt.jpg","null","mooney2","image-keyboard-response","144","789766","0.0-6.0-5.19","3406773","co37546","norming","","","","","","",""
"1974.8199999999488","","","post_reveal_questions","survey-likert","145","791743","0.0-6.0-6.19","3406773","co37546","norming","","","{""aha"":3}","[0]","../img/tt/1063tt.jpg","",""
"null","<div style=""font-size:60px;""> </div>","null","fixation","html-keyboard-response","146","791944","0.0-6.0-0.20","3406773","co37546","norming","","","","","","",""
"null","../img/tt/1278tt.jpg","null","mooney1","image-keyboard-response","147","794953","0.0-6.0-1.20","3406773","co37546","norming","","","","","","",""
"6059.294999999809","","","post_mooney1_questions","survey-likert","148","801015","0.0-6.0-2.20","3406773","co37546","norming","","","{""curiosity"":4,""confidence"":1}","[0,1]","../img/tt/1278tt.jpg","",""
"25302.114999999874","","","recognition","survey-text","149","826319","0.0-6.0-3.20","3406773","co37546","norming","","","{""guess"":""a horse""}","","../img/tt/1278tt.jpg","",""
"null","../img/gs/1278gs.jpg","null","reveal","image-keyboard-response","150","828320","0.0-6.0-4.20","3406773","co37546","norming","","","","","","",""
"null","../img/tt/1278tt.jpg","null","mooney2","image-keyboard-response","151","830324","0.0-6.0-5.20","3406773","co37546","norming","","","","","","",""
"2856.5749999999534","","","post_reveal_questions","survey-likert","152","833183","0.0-6.0-6.20","3406773","co37546","norming","","","{""aha"":4}","[0]","../img/tt/1278tt.jpg","",""
"null","<div style=""font-size:60px;""> </div>","null","fixation","html-keyboard-response","153","833390","0.0-6.0-0.21","3406773","co37546","norming","","","","","","",""
"null","../img/tt/496tt.jpg","null","mooney1","image-keyboard-response","154","836394","0.0-6.0-1.21","3406773","co37546","norming","","","","","","",""
"6002.255000000005","","","post_mooney1_questions","survey-likert","155","842399","0.0-6.0-2.21","3406773","co37546","norming","","","{""curiosity"":4,""confidence"":2}","[0,1]","../img/tt/496tt.jpg","",""
"2222.480000000098","","","recognition","survey-text","156","844623","0.0-6.0-3.21","3406773","co37546","norming","","","{""guess"":""a pig""}","","../img/tt/496tt.jpg","",""
"null","../img/gs/496gs.jpg","null","reveal","image-keyboard-response","157","846631","0.0-6.0-4.21","3406773","co37546","norming","","","","","","",""
"null","../img/tt/496tt.jpg","null","mooney2","image-keyboard-response","158","848633","0.0-6.0-5.21","3406773","co37546","norming","","","","","","",""
"2715.7600000000093","","","post_reveal_questions","survey-likert","159","851344","0.0-6.0-6.21","3406773","co37546","norming","","","{""aha"":4}","[0]","../img/tt/496tt.jpg","",""
"null","<div style=""font-size:60px;""> </div>","null","fixation","html-keyboard-response","160","851545","0.0-6.0-0.22","3406773","co37546","norming","","","","","","",""
"null","../img/tt/1202tt.jpg","null","mooney1","image-keyboard-response","161","854549","0.0-6.0-1.22","3406773","co37546","norming","","","","","","",""
"6199.714999999967","","","post_mooney1_questions","survey-likert","162","860752","0.0-6.0-2.22","3406773","co37546","norming","","","{""curiosity"":2,""confidence"":0}","[0,1]","../img/tt/1202tt.jpg","",""
"3910.039999999921","","","recognition","survey-text","163","864664","0.0-6.0-3.22","3406773","co37546","norming","","","{""guess"":""a barn""}","","../img/tt/1202tt.jpg","",""
"null","../img/gs/1202gs.jpg","null","reveal","image-keyboard-response","164","866665","0.0-6.0-4.22","3406773","co37546","norming","","","","","","",""
"null","../img/tt/1202tt.jpg","null","mooney2","image-keyboard-response","165","868669","0.0-6.0-5.22","3406773","co37546","norming","","","","","","",""
"3608.695000000065","","","post_reveal_questions","survey-likert","166","872280","0.0-6.0-6.22","3406773","co37546","norming","","","{""aha"":2}","[0]","../img/tt/1202tt.jpg","",""
"null","<div style=""font-size:60px;""> </div>","null","fixation","html-keyboard-response","167","872481","0.0-6.0-0.23","3406773","co37546","norming","","","","","","",""
"null","../img/tt/1191tt.jpg","null","mooney1","image-keyboard-response","168","875484","0.0-6.0-1.23","3406773","co37546","norming","","","","","","",""
"8041.504999999888","","","post_mooney1_questions","survey-likert","169","883528","0.0-6.0-2.23","3406773","co37546","norming","","","{""curiosity"":3,""confidence"":4}","[0,1]","../img/tt/1191tt.jpg","",""
"3870.2099999999627","","","recognition","survey-text","170","887400","0.0-6.0-3.23","3406773","co37546","norming","","","{""guess"":""two deers""}","","../img/tt/1191tt.jpg","",""
"null","../img/gs/1191gs.jpg","null","reveal","image-keyboard-response","171","889402","0.0-6.0-4.23","3406773","co37546","norming","","","","","","",""
"null","../img/tt/1191tt.jpg","null","mooney2","image-keyboard-response","172","891404","0.0-6.0-5.23","3406773","co37546","norming","","","","","","",""
"2986.8249999999534","","","post_reveal_questions","survey-likert","173","894392","0.0-6.0-6.23","3406773","co37546","norming","","","{""aha"":3}","[0]","../img/tt/1191tt.jpg","",""
"null","<div style=""font-size:60px;""> </div>","null","fixation","html-keyboard-response","174","894599","0.0-6.0-0.24","3406773","co37546","norming","","","","","","",""
"null","../img/tt/1004tt.jpg","null","mooney1","image-keyboard-response","175","897604","0.0-6.0-1.24","3406773","co37546","norming","","","","","","",""
"4402.295000000158","","","post_mooney1_questions","survey-likert","176","902008","0.0-6.0-2.24","3406773","co37546","norming","","","{""curiosity"":4,""confidence"":3}","[0,1]","../img/tt/1004tt.jpg","",""
"3854.170000000042","","","recognition","survey-text","177","905864","0.0-6.0-3.24","3406773","co37546","norming","","","{""guess"":""a lion""}","","../img/tt/1004tt.jpg","",""
"null","../img/gs/1004gs.jpg","null","reveal","image-keyboard-response","178","907867","0.0-6.0-4.24","3406773","co37546","norming","","","","","","",""
"null","../img/tt/1004tt.jpg","null","mooney2","image-keyboard-response","179","909869","0.0-6.0-5.24","3406773","co37546","norming","","","","","","",""
"2105.765000000014","","","post_reveal_questions","survey-likert","180","911982","0.0-6.0-6.24","3406773","co37546","norming","","","{""aha"":1}","[0]","../img/tt/1004tt.jpg","",""
"null","<div style=""font-size:60px;""> </div>","null","fixation","html-keyboard-response","181","912183","0.0-6.0-0.25","3406773","co37546","norming","","","","","","",""
"null","../img/tt/1237tt.jpg","null","mooney1","image-keyboard-response","182","915189","0.0-6.0-1.25","3406773","co37546","norming","","","","","","",""
"5736.620000000112","","","post_mooney1_questions","survey-likert","183","920927","0.0-6.0-2.25","3406773","co37546","norming","","","{""curiosity"":1,""confidence"":6}","[0,1]","../img/tt/1237tt.jpg","",""
"3054.2249999998603","","","recognition","survey-text","184","923982","0.0-6.0-3.25","3406773","co37546","norming","","","{""guess"":""a duck""}","","../img/tt/1237tt.jpg","",""
"null","../img/gs/1237gs.jpg","null","reveal","image-keyboard-response","185","925987","0.0-6.0-4.25","3406773","co37546","norming","","","","","","",""
"null","../img/tt/1237tt.jpg","null","mooney2","image-keyboard-response","186","927989","0.0-6.0-5.25","3406773","co37546","norming","","","","","","",""
"1935.5000000001164","","","post_reveal_questions","survey-likert","187","929926","0.0-6.0-6.25","3406773","co37546","norming","","","{""aha"":0}","[0]","../img/tt/1237tt.jpg","",""
"null","<div style=""font-size:60px;""> </div>","null","fixation","html-keyboard-response","188","930130","0.0-6.0-0.26","3406773","co37546","norming","","","","","","",""
"null","../img/tt/1159tt.jpg","null","mooney1","image-keyboard-response","189","933140","0.0-6.0-1.26","3406773","co37546","norming","","","","","","",""
"8855.520000000019","","","post_mooney1_questions","survey-likert","190","941999","0.0-6.0-2.26","3406773","co37546","norming","","","{""curiosity"":2,""confidence"":3}","[0,1]","../img/tt/1159tt.jpg","",""
"6206.10999999987","","","recognition","survey-text","191","948206","0.0-6.0-3.26","3406773","co37546","norming","","","{""guess"":""a boat""}","","../img/tt/1159tt.jpg","",""
"null","../img/gs/1159gs.jpg","null","reveal","image-keyboard-response","192","950208","0.0-6.0-4.26","3406773","co37546","norming","","","","","","",""
"null","../img/tt/1159tt.jpg","null","mooney2","image-keyboard-response","193","952210","0.0-6.0-5.26","3406773","co37546","norming","","","","","","",""
"1818.759999999893","","","post_reveal_questions","survey-likert","194","954030","0.0-6.0-6.26","3406773","co37546","norming","","","{""aha"":1}","[0]","../img/tt/1159tt.jpg","",""
"null","<div style=""font-size:60px;""> </div>","null","fixation","html-keyboard-response","195","954235","0.0-6.0-0.27","3406773","co37546","norming","","","","","","",""
"null","../img/tt/1290tt.jpg","null","mooney1","image-keyboard-response","196","957238","0.0-6.0-1.27","3406773","co37546","norming","","","","","","",""
"6030","","","post_mooney1_questions","survey-likert","197","963271","0.0-6.0-2.27","3406773","co37546","norming","","","{""curiosity"":0,""confidence"":5}","[0,1]","../img/tt/1290tt.jpg","",""
"47798.075000000186","","","recognition","survey-text","198","1011062","0.0-6.0-3.27","3406773","co37546","norming","","","{""guess"":""mountain lift ""}","","../img/tt/1290tt.jpg","",""
"null","../img/gs/1290gs.jpg","null","reveal","image-keyboard-response","199","1013071","0.0-6.0-4.27","3406773","co37546","norming","","","","","","",""
"null","../img/tt/1290tt.jpg","null","mooney2","image-keyboard-response","200","1015078","0.0-6.0-5.27","3406773","co37546","norming","","","","","","",""
"2653.3200000004144","","","post_reveal_questions","survey-likert","201","1017734","0.0-6.0-6.27","3406773","co37546","norming","","","{""aha"":0}","[0]","../img/tt/1290tt.jpg","",""
"null","<div style=""font-size:60px;""> </div>","null","fixation","html-keyboard-response","202","1017936","0.0-6.0-0.28","3406773","co37546","norming","","","","","","",""
"null","../img/tt/111tt.jpg","null","mooney1","image-keyboard-response","203","1020947","0.0-6.0-1.28","3406773","co37546","norming","","","","","","",""
"6040.814999999828","","","post_mooney1_questions","survey-likert","204","1026990","0.0-6.0-2.28","3406773","co37546","norming","","","{""curiosity"":1,""confidence"":6}","[0,1]","../img/tt/111tt.jpg","",""
"5349.834999999963","","","recognition","survey-text","205","1032342","0.0-6.0-3.28","3406773","co37546","norming","","","{""guess"":""shower head""}","","../img/tt/111tt.jpg","",""
"null","../img/gs/111gs.jpg","null","reveal","image-keyboard-response","206","1034352","0.0-6.0-4.28","3406773","co37546","norming","","","","","","",""
"null","../img/tt/111tt.jpg","null","mooney2","image-keyboard-response","207","1036355","0.0-6.0-5.28","3406773","co37546","norming","","","","","","",""
"1793.8599999997532","","","post_reveal_questions","survey-likert","208","1038151","0.0-6.0-6.28","3406773","co37546","norming","","","{""aha"":0}","[0]","../img/tt/111tt.jpg","",""
"null","<div style=""font-size:60px;""> </div>","null","fixation","html-keyboard-response","209","1038352","0.0-6.0-0.29","3406773","co37546","norming","","","","","","",""
"null","../img/tt/1053tt.jpg","null","mooney1","image-keyboard-response","210","1041354","0.0-6.0-1.29","3406773","co37546","norming","","","","","","",""
"4794.274999999674","","","post_mooney1_questions","survey-likert","211","1046151","0.0-6.0-2.29","3406773","co37546","norming","","","{""curiosity"":2,""confidence"":4}","[0,1]","../img/tt/1053tt.jpg","",""
"2758.194999999949","","","recognition","survey-text","212","1048911","0.0-6.0-3.29","3406773","co37546","norming","","","{""guess"":""rhino""}","","../img/tt/1053tt.jpg","",""
"null","../img/gs/1053gs.jpg","null","reveal","image-keyboard-response","213","1050913","0.0-6.0-4.29","3406773","co37546","norming","","","","","","",""
"null","../img/tt/1053tt.jpg","null","mooney2","image-keyboard-response","214","1052915","0.0-6.0-5.29","3406773","co37546","norming","","","","","","",""
"1697.2299999997485","","","post_reveal_questions","survey-likert","215","1054615","0.0-6.0-6.29","3406773","co37546","norming","","","{""aha"":3}","[0]","../img/tt/1053tt.jpg","",""
"null","<div style=""font-size:60px;""> </div>","null","fixation","html-keyboard-response","216","1054820","0.0-6.0-0.30","3406773","co37546","norming","","","","","","",""
"null","../img/tt/189tt.jpg","null","mooney1","image-keyboard-response","217","1057824","0.0-6.0-1.30","3406773","co37546","norming","","","","","","",""
"5452.5449999999255","","","post_mooney1_questions","survey-likert","218","1063279","0.0-6.0-2.30","3406773","co37546","norming","","","{""curiosity"":4,""confidence"":1}","[0,1]","../img/tt/189tt.jpg","",""
"12558.199999999953","","","recognition","survey-text","219","1075839","0.0-6.0-3.30","3406773","co37546","norming","","","{""guess"":""ostrich""}","","../img/tt/189tt.jpg","",""
"null","../img/gs/189gs.jpg","null","reveal","image-keyboard-response","220","1077846","0.0-6.0-4.30","3406773","co37546","norming","","","","","","",""
"null","../img/tt/189tt.jpg","null","mooney2","image-keyboard-response","221","1079849","0.0-6.0-5.30","3406773","co37546","norming","","","","","","",""
"1619.2100000001956","","","post_reveal_questions","survey-likert","222","1081471","0.0-6.0-6.30","3406773","co37546","norming","","","{""aha"":3}","[0]","../img/tt/189tt.jpg","",""
"null","<div style=""font-size:60px;""> </div>","null","fixation","html-keyboard-response","223","1081672","0.0-6.0-0.31","3406773","co37546","norming","","","","","","",""
"null","../img/tt/1309tt.jpg","null","mooney1","image-keyboard-response","224","1084674","0.0-6.0-1.31","3406773","co37546","norming","","","","","","",""
"3938.5499999998137","","","post_mooney1_questions","survey-likert","225","1088615","0.0-6.0-2.31","3406773","co37546","norming","","","{""curiosity"":1,""confidence"":3}","[0,1]","../img/tt/1309tt.jpg","",""
"3734.2050000000745","","","recognition","survey-text","226","1092351","0.0-6.0-3.31","3406773","co37546","norming","","","{""guess"":""forest""}","","../img/tt/1309tt.jpg","",""
"null","../img/gs/1309gs.jpg","null","reveal","image-keyboard-response","227","1094355","0.0-6.0-4.31","3406773","co37546","norming","","","","","","",""
"null","../img/tt/1309tt.jpg","null","mooney2","image-keyboard-response","228","1096364","0.0-6.0-5.31","3406773","co37546","norming","","","","","","",""
"2225.5399999998044","","","post_reveal_questions","survey-likert","229","1098592","0.0-6.0-6.31","3406773","co37546","norming","","","{""aha"":2}","[0]","../img/tt/1309tt.jpg","",""
"null","<div style=""font-size:60px;""> </div>","null","fixation","html-keyboard-response","230","1098793","0.0-6.0-0.32","3406773","co37546","norming","","","","","","",""
"null","../img/tt/1227tt.jpg","null","mooney1","image-keyboard-response","231","1101797","0.0-6.0-1.32","3406773","co37546","norming","","","","","","",""
"8376.675000000047","","","post_mooney1_questions","survey-likert","232","1110176","0.0-6.0-2.32","3406773","co37546","norming","","","{""curiosity"":1,""confidence"":2}","[0,1]","../img/tt/1227tt.jpg","",""
"2846.179999999935","","","recognition","survey-text","233","1113024","0.0-6.0-3.32","3406773","co37546","norming","","","{""guess"":""cliff""}","","../img/tt/1227tt.jpg","",""
"null","../img/gs/1227gs.jpg","null","reveal","image-keyboard-response","234","1115025","0.0-6.0-4.32","3406773","co37546","norming","","","","","","",""
"null","../img/tt/1227tt.jpg","null","mooney2","image-keyboard-response","235","1117030","0.0-6.0-5.32","3406773","co37546","norming","","","","","","",""
"1136.0549999999348","","","post_reveal_questions","survey-likert","236","1118168","0.0-6.0-6.32","3406773","co37546","norming","","","{""aha"":4}","[0]","../img/tt/1227tt.jpg","",""
"null","<div style=""font-size:60px;""> </div>","null","fixation","html-keyboard-response","237","1118370","0.0-6.0-0.33","3406773","co37546","norming","","","","","","",""
"null","../img/tt/007tt.jpg","null","mooney1","image-keyboard-response","238","1121381","0.0-6.0-1.33","3406773","co37546","norming","","","","","","",""
"5992.90000000014","","","post_mooney1_questions","survey-likert","239","1127376","0.0-6.0-2.33","3406773","co37546","norming","","","{""curiosity"":1,""confidence"":1}","[0,1]","../img/tt/007tt.jpg","",""
"4718.0800000000745","","","recognition","survey-text","240","1132096","0.0-6.0-3.33","3406773","co37546","norming","","","{""guess"":""octopus""}","","../img/tt/007tt.jpg","",""
"null","../img/gs/007gs.jpg","null","reveal","image-keyboard-response","241","1134105","0.0-6.0-4.33","3406773","co37546","norming","","","","","","",""
"null","../img/tt/007tt.jpg","null","mooney2","image-keyboard-response","242","1136114","0.0-6.0-5.33","3406773","co37546","norming","","","","","","",""
"2325.554999999935","","","post_reveal_questions","survey-likert","243","1138440","0.0-6.0-6.33","3406773","co37546","norming","","","{""aha"":2}","[0]","../img/tt/007tt.jpg","",""
"null","<div style=""font-size:60px;""> </div>","null","fixation","html-keyboard-response","244","1138642","0.0-6.0-0.34","3406773","co37546","norming","","","","","","",""
"null","../img/tt/001tt.jpg","null","mooney1","image-keyboard-response","245","1141646","0.0-6.0-1.34","3406773","co37546","norming","","","","","","",""
"7127.594999999972","","","post_mooney1_questions","survey-likert","246","1148776","0.0-6.0-2.34","3406773","co37546","norming","","","{""curiosity"":1,""confidence"":5}","[0,1]","../img/tt/001tt.jpg","",""
"3142.0499999998137","","","recognition","survey-text","247","1151920","0.0-6.0-3.34","3406773","co37546","norming","","","{""guess"":""vulture""}","","../img/tt/001tt.jpg","",""
"null","../img/gs/001gs.jpg","null","reveal","image-keyboard-response","248","1153925","0.0-6.0-4.34","3406773","co37546","norming","","","","","","",""
"null","../img/tt/001tt.jpg","null","mooney2","image-keyboard-response","249","1155936","0.0-6.0-5.34","3406773","co37546","norming","","","","","","",""
"2848.625000000233","","","post_reveal_questions","survey-likert","250","1158787","0.0-6.0-6.34","3406773","co37546","norming","","","{""aha"":2}","[0]","../img/tt/001tt.jpg","",""
"null","<div style=""font-size:60px;""> </div>","null","fixation","html-keyboard-response","251","1158988","0.0-6.0-0.35","3406773","co37546","norming","","","","","","",""
"null","../img/tt/1116tt.jpg","null","mooney1","image-keyboard-response","252","1161993","0.0-6.0-1.35","3406773","co37546","norming","","","","","","",""
"8863.110000000335","","","post_mooney1_questions","survey-likert","253","1170858","0.0-6.0-2.35","3406773","co37546","norming","","","{""curiosity"":3,""confidence"":2}","[0,1]","../img/tt/1116tt.jpg","",""
"3638.2649999998976","","","recognition","survey-text","254","1174498","0.0-6.0-3.35","3406773","co37546","norming","","","{""guess"":""car park""}","","../img/tt/1116tt.jpg","",""
"null","../img/gs/1116gs.jpg","null","reveal","image-keyboard-response","255","1176504","0.0-6.0-4.35","3406773","co37546","norming","","","","","","",""
"null","../img/tt/1116tt.jpg","null","mooney2","image-keyboard-response","256","1178510","0.0-6.0-5.35","3406773","co37546","norming","","","","","","",""
"1634.320000000298","","","post_reveal_questions","survey-likert","257","1180146","0.0-6.0-6.35","3406773","co37546","norming","","","{""aha"":3}","[0]","../img/tt/1116tt.jpg","",""
"null","<div style=""font-size:60px;""> </div>","null","fixation","html-keyboard-response","258","1180347","0.0-6.0-0.36","3406773","co37546","norming","","","","","","",""
"null","../img/tt/1211tt.jpg","null","mooney1","image-keyboard-response","259","1183352","0.0-6.0-1.36","3406773","co37546","norming","","","","","","",""
"4375.264999999665","","","post_mooney1_questions","survey-likert","260","1187730","0.0-6.0-2.36","3406773","co37546","norming","","","{""curiosity"":3,""confidence"":1}","[0,1]","../img/tt/1211tt.jpg","",""
"6030.149999999907","","","recognition","survey-text","261","1193762","0.0-6.0-3.36","3406773","co37546","norming","","","{""guess"":""monkey""}","","../img/tt/1211tt.jpg","",""
"null","../img/gs/1211gs.jpg","null","reveal","image-keyboard-response","262","1195765","0.0-6.0-4.36","3406773","co37546","norming","","","","","","",""
"null","../img/tt/1211tt.jpg","null","mooney2","image-keyboard-response","263","1197766","0.0-6.0-5.36","3406773","co37546","norming","","","","","","",""
"1713.755000000121","","","post_reveal_questions","survey-likert","264","1199482","0.0-6.0-6.36","3406773","co37546","norming","","","{""aha"":2}","[0]","../img/tt/1211tt.jpg","",""
"null","<div style=""font-size:60px;""> </div>","null","fixation","html-keyboard-response","265","1199684","0.0-6.0-0.37","3406773","co37546","norming","","","","","","",""
"null","../img/tt/481tt.jpg","null","mooney1","image-keyboard-response","266","1202687","0.0-6.0-1.37","3406773","co37546","norming","","","","","","",""
"2440.880000000121","","","post_mooney1_questions","survey-likert","267","1205131","0.0-6.0-2.37","3406773","co37546","norming","","","{""curiosity"":0,""confidence"":6}","[0,1]","../img/tt/481tt.jpg","",""
"3509.8950000002515","","","recognition","survey-text","268","1208642","0.0-6.0-3.37","3406773","co37546","norming","","","{""guess"":""dog""}","","../img/tt/481tt.jpg","",""
"null","../img/gs/481gs.jpg","null","reveal","image-keyboard-response","269","1210652","0.0-6.0-4.37","3406773","co37546","norming","","","","","","",""
"null","../img/tt/481tt.jpg","null","mooney2","image-keyboard-response","270","1212661","0.0-6.0-5.37","3406773","co37546","norming","","","","","","",""
"2538.7900000000373","","","post_reveal_questions","survey-likert","271","1215202","0.0-6.0-6.37","3406773","co37546","norming","","","{""aha"":1}","[0]","../img/tt/481tt.jpg","",""
"null","<div style=""font-size:60px;""> </div>","null","fixation","html-keyboard-response","272","1215404","0.0-6.0-0.38","3406773","co37546","norming","","","","","","",""
"null","../img/tt/063tt.jpg","null","mooney1","image-keyboard-response","273","1218411","0.0-6.0-1.38","3406773","co37546","norming","","","","","","",""
"6830.070000000065","","","post_mooney1_questions","survey-likert","274","1225245","0.0-6.0-2.38","3406773","co37546","norming","","","{""curiosity"":1,""confidence"":3}","[0,1]","../img/tt/063tt.jpg","",""
"3222.035000000149","","","recognition","survey-text","275","1228468","0.0-6.0-3.38","3406773","co37546","norming","","","{""guess"":""remote control""}","","../img/tt/063tt.jpg","",""
"null","../img/gs/063gs.jpg","null","reveal","image-keyboard-response","276","1230472","0.0-6.0-4.38","3406773","co37546","norming","","","","","","",""
"null","../img/tt/063tt.jpg","null","mooney2","image-keyboard-response","277","1232481","0.0-6.0-5.38","3406773","co37546","norming","","","","","","",""
"2752.329999999609","","","post_reveal_questions","survey-likert","278","1235236","0.0-6.0-6.38","3406773","co37546","norming","","","{""aha"":3}","[0]","../img/tt/063tt.jpg","",""
"null","<div style=""font-size:60px;""> </div>","null","fixation","html-keyboard-response","279","1235444","0.0-6.0-0.39","3406773","co37546","norming","","","","","","",""
"null","../img/tt/108tt.jpg","null","mooney1","image-keyboard-response","280","1238453","0.0-6.0-1.39","3406773","co37546","norming","","","","","","",""
"7333.239999999991","","","post_mooney1_questions","survey-likert","281","1245789","0.0-6.0-2.39","3406773","co37546","norming","","","{""curiosity"":3,""confidence"":2}","[0,1]","../img/tt/108tt.jpg","",""
"2261.999999999767","","","recognition","survey-text","282","1248052","0.0-6.0-3.39","3406773","co37546","norming","","","{""guess"":""ducks""}","","../img/tt/108tt.jpg","",""
"null","../img/gs/108gs.jpg","null","reveal","image-keyboard-response","283","1250055","0.0-6.0-4.39","3406773","co37546","norming","","","","","","",""
"null","../img/tt/108tt.jpg","null","mooney2","image-keyboard-response","284","1252056","0.0-6.0-5.39","3406773","co37546","norming","","","","","","",""
"2023.2749999999069","","","post_reveal_questions","survey-likert","285","1254084","0.0-6.0-6.39","3406773","co37546","norming","","","{""aha"":2}","[0]","../img/tt/108tt.jpg","",""
"null","<div style=""font-size:60px;""> </div>","null","fixation","html-keyboard-response","286","1254286","0.0-6.0-0.40","3406773","co37546","norming","","","","","","",""
"null","../img/tt/1234tt.jpg","null","mooney1","image-keyboard-response","287","1257290","0.0-6.0-1.40","3406773","co37546","norming","","","","","","",""
"6295.714999999618","","","post_mooney1_questions","survey-likert","288","1263589","0.0-6.0-2.40","3406773","co37546","norming","","","{""curiosity"":2,""confidence"":4}","[0,1]","../img/tt/1234tt.jpg","",""
"3005.994999999879","","","recognition","survey-text","289","1266596","0.0-6.0-3.40","3406773","co37546","norming","","","{""guess"":""beach""}","","../img/tt/1234tt.jpg","",""
"null","../img/gs/1234gs.jpg","null","reveal","image-keyboard-response","290","1268602","0.0-6.0-4.40","3406773","co37546","norming","","","","","","",""
"null","../img/tt/1234tt.jpg","null","mooney2","image-keyboard-response","291","1270606","0.0-6.0-5.40","3406773","co37546","norming","","","","","","",""
"2123.9799999997485","","","post_reveal_questions","survey-likert","292","1272732","0.0-6.0-6.40","3406773","co37546","norming","","","{""aha"":2}","[0]","../img/tt/1234tt.jpg","",""
"null","<div style=""font-size:60px;""> </div>","null","fixation","html-keyboard-response","293","1272933","0.0-6.0-0.41","3406773","co37546","norming","","","","","","",""
"null","../img/tt/552tt.jpg","null","mooney1","image-keyboard-response","294","1275943","0.0-6.0-1.41","3406773","co37546","norming","","","","","","",""
"6996.520000000019","","","post_mooney1_questions","survey-likert","295","1282941","0.0-6.0-2.41","3406773","co37546","norming","","","{""curiosity"":1,""confidence"":5}","[0,1]","../img/tt/552tt.jpg","",""
"2501.885000000242","","","recognition","survey-text","296","1285444","0.0-6.0-3.41","3406773","co37546","norming","","","{""guess"":""skunk""}","","../img/tt/552tt.jpg","",""
"null","../img/gs/552gs.jpg","null","reveal","image-keyboard-response","297","1287450","0.0-6.0-4.41","3406773","co37546","norming","","","","","","",""
"null","../img/tt/552tt.jpg","null","mooney2","image-keyboard-response","298","1289460","0.0-6.0-5.41","3406773","co37546","norming","","","","","","",""
"2461.945000000065","","","post_reveal_questions","survey-likert","299","1291925","0.0-6.0-6.41","3406773","co37546","norming","","","{""aha"":0}","[0]","../img/tt/552tt.jpg","",""
"null","<div style=""font-size:60px;""> </div>","null","fixation","html-keyboard-response","300","1292126","0.0-6.0-0.42","3406773","co37546","norming","","","","","","",""
"null","../img/tt/301tt.jpg","null","mooney1","image-keyboard-response","301","1295132","0.0-6.0-1.42","3406773","co37546","norming","","","","","","",""
"5445.909999999916","","","post_mooney1_questions","survey-likert","302","1300581","0.0-6.0-2.42","3406773","co37546","norming","","","{""curiosity"":4,""confidence"":1}","[0,1]","../img/tt/301tt.jpg","",""
"5454.14000000013","","","recognition","survey-text","303","1306037","0.0-6.0-3.42","3406773","co37546","norming","","","{""guess"":""garage""}","","../img/tt/301tt.jpg","",""
"null","../img/gs/301gs.jpg","null","reveal","image-keyboard-response","304","1308046","0.0-6.0-4.42","3406773","co37546","norming","","","","","","",""
"null","../img/tt/301tt.jpg","null","mooney2","image-keyboard-response","305","1310048","0.0-6.0-5.42","3406773","co37546","norming","","","","","","",""
"1698.0149999998976","","","post_reveal_questions","survey-likert","306","1311749","0.0-6.0-6.42","3406773","co37546","norming","","","{""aha"":2}","[0]","../img/tt/301tt.jpg","",""
"null","<div style=""font-size:60px;""> </div>","null","fixation","html-keyboard-response","307","1311952","0.0-6.0-0.43","3406773","co37546","norming","","","","","","",""
"null","../img/tt/1044tt.jpg","null","mooney1","image-keyboard-response","308","1314962","0.0-6.0-1.43","3406773","co37546","norming","","","","","","",""
"6711.429999999935","","","post_mooney1_questions","survey-likert","309","1321677","0.0-6.0-2.43","3406773","co37546","norming","","","{""curiosity"":4,""confidence"":0}","[0,1]","../img/tt/1044tt.jpg","",""
"3558.1200000003446","","","recognition","survey-text","310","1325237","0.0-6.0-3.43","3406773","co37546","norming","","","{""guess"":""beehive""}","","../img/tt/1044tt.jpg","",""
"null","../img/gs/1044gs.jpg","null","reveal","image-keyboard-response","311","1327241","0.0-6.0-4.43","3406773","co37546","norming","","","","","","",""
"null","../img/tt/1044tt.jpg","null","mooney2","image-keyboard-response","312","1329243","0.0-6.0-5.43","3406773","co37546","norming","","","","","","",""
"1182.9799999999814","","","post_reveal_questions","survey-likert","313","1330429","0.0-6.0-6.43","3406773","co37546","norming","","","{""aha"":3}","[0]","../img/tt/1044tt.jpg","",""
"null","<div style=""font-size:60px;""> </div>","null","fixation","html-keyboard-response","314","1330630","0.0-6.0-0.44","3406773","co37546","norming","","","","","","",""
"null","../img/tt/353tt.jpg","null","mooney1","image-keyboard-response","315","1333638","0.0-6.0-1.44","3406773","co37546","norming","","","","","","",""
"3084.064999999944","","","post_mooney1_questions","survey-likert","316","1336725","0.0-6.0-2.44","3406773","co37546","norming","","","{""curiosity"":1,""confidence"":3}","[0,1]","../img/tt/353tt.jpg","",""
"2142.0900000003166","","","recognition","survey-text","317","1338865","0.0-6.0-3.44","3406773","co37546","norming","","","{""guess"":""penguin""}","","../img/tt/353tt.jpg","",""
"null","../img/gs/353gs.jpg","null","reveal","image-keyboard-response","318","1340867","0.0-6.0-4.44","3406773","co37546","norming","","","","","","",""
"null","../img/tt/353tt.jpg","null","mooney2","image-keyboard-response","319","1342870","0.0-6.0-5.44","3406773","co37546","norming","","","","","","",""
"1929.0750000001863","","","post_reveal_questions","survey-likert","320","1344801","0.0-6.0-6.44","3406773","co37546","norming","","","{""aha"":1}","[0]","../img/tt/353tt.jpg","",""
"null","<div style=""font-size:60px;""> </div>","null","fixation","html-keyboard-response","321","1345002","0.0-6.0-0.45","3406773","co37546","norming","","","","","","",""
"null","../img/tt/1128tt.jpg","null","mooney1","image-keyboard-response","322","1348012","0.0-6.0-1.45","3406773","co37546","norming","","","","","","",""
"3146.75","","","post_mooney1_questions","survey-likert","323","1351161","0.0-6.0-2.45","3406773","co37546","norming","","","{""curiosity"":1,""confidence"":3}","[0,1]","../img/tt/1128tt.jpg","",""
"2806.309999999823","","","recognition","survey-text","324","1353969","0.0-6.0-3.45","3406773","co37546","norming","","","{""guess"":""panda""}","","../img/tt/1128tt.jpg","",""
"null","../img/gs/1128gs.jpg","null","reveal","image-keyboard-response","325","1355975","0.0-6.0-4.45","3406773","co37546","norming","","","","","","",""
"null","../img/tt/1128tt.jpg","null","mooney2","image-keyboard-response","326","1357977","0.0-6.0-5.45","3406773","co37546","norming","","","","","","",""
"1573.6899999997113","","","post_reveal_questions","survey-likert","327","1359553","0.0-6.0-6.45","3406773","co37546","norming","","","{""aha"":4}","[0]","../img/tt/1128tt.jpg","",""
"null","<div style=""font-size:60px;""> </div>","null","fixation","html-keyboard-response","328","1359754","0.0-6.0-0.46","3406773","co37546","norming","","","","","","",""
"null","../img/tt/1261tt.jpg","null","mooney1","image-keyboard-response","329","1362766","0.0-6.0-1.46","3406773","co37546","norming","","","","","","",""
"4776.689999999711","","","post_mooney1_questions","survey-likert","330","1367546","0.0-6.0-2.46","3406773","co37546","norming","","","{""curiosity"":1,""confidence"":5}","[0,1]","../img/tt/1261tt.jpg","",""
"2645.7900000000373","","","recognition","survey-text","331","1370193","0.0-6.0-3.46","3406773","co37546","norming","","","{""guess"":""jaguar""}","","../img/tt/1261tt.jpg","",""
"null","../img/gs/1261gs.jpg","null","reveal","image-keyboard-response","332","1372196","0.0-6.0-4.46","3406773","co37546","norming","","","","","","",""
"null","../img/tt/1261tt.jpg","null","mooney2","image-keyboard-response","333","1374203","0.0-6.0-5.46","3406773","co37546","norming","","","","","","",""
"1357.0250000003725","","","post_reveal_questions","survey-likert","334","1375561","0.0-6.0-6.46","3406773","co37546","norming","","","{""aha"":4}","[0]","../img/tt/1261tt.jpg","",""
"null","<div style=""font-size:60px;""> </div>","null","fixation","html-keyboard-response","335","1375768","0.0-6.0-0.47","3406773","co37546","norming","","","","","","",""
"null","../img/tt/1146tt.jpg","null","mooney1","image-keyboard-response","336","1378771","0.0-6.0-1.47","3406773","co37546","norming","","","","","","",""
"7075.659999999916","","","post_mooney1_questions","survey-likert","337","1385850","0.0-6.0-2.47","3406773","co37546","norming","","","{""curiosity"":3,""confidence"":4}","[0,1]","../img/tt/1146tt.jpg","",""
"1349.79000000027","","","recognition","survey-text","338","1387201","0.0-6.0-3.47","3406773","co37546","norming","","","{""guess"":""car""}","","../img/tt/1146tt.jpg","",""
"null","../img/gs/1146gs.jpg","null","reveal","image-keyboard-response","339","1389202","0.0-6.0-4.47","3406773","co37546","norming","","","","","","",""
"null","../img/tt/1146tt.jpg","null","mooney2","image-keyboard-response","340","1391206","0.0-6.0-5.47","3406773","co37546","norming","","","","","","",""
"2337.3599999998696","","","post_reveal_questions","survey-likert","341","1393545","0.0-6.0-6.47","3406773","co37546","norming","","","{""aha"":4}","[0]","../img/tt/1146tt.jpg","",""
"null","<div style=""font-size:60px;""> </div>","null","fixation","html-keyboard-response","342","1393747","0.0-6.0-0.48","3406773","co37546","norming","","","","","","",""
"null","../img/tt/442tt.jpg","null","mooney1","image-keyboard-response","343","1396757","0.0-6.0-1.48","3406773","co37546","norming","","","","","","",""
"6786.285000000149","","","post_mooney1_questions","survey-likert","344","1403553","0.0-6.0-2.48","3406773","co37546","norming","","","{""curiosity"":3,""confidence"":2}","[0,1]","../img/tt/442tt.jpg","",""
"4374.02500000014","","","recognition","survey-text","345","1407928","0.0-6.0-3.48","3406773","co37546","norming","","","{""guess"":""raccoon""}","","../img/tt/442tt.jpg","",""
"null","../img/gs/442gs.jpg","null","reveal","image-keyboard-response","346","1409936","0.0-6.0-4.48","3406773","co37546","norming","","","","","","",""
"null","../img/tt/442tt.jpg","null","mooney2","image-keyboard-response","347","1411938","0.0-6.0-5.48","3406773","co37546","norming","","","","","","",""
"1964.0399999998044","","","post_reveal_questions","survey-likert","348","1413904","0.0-6.0-6.48","3406773","co37546","norming","","","{""aha"":2}","[0]","../img/tt/442tt.jpg","",""
"null","<div style=""font-size:60px;""> </div>","null","fixation","html-keyboard-response","349","1414106","0.0-6.0-0.49","3406773","co37546","norming","","","","","","",""
"null","../img/tt/010tt.jpg","null","mooney1","image-keyboard-response","350","1417108","0.0-6.0-1.49","3406773","co37546","norming","","","","","","",""
"5793.754999999655","","","post_mooney1_questions","survey-likert","351","1422904","0.0-6.0-2.49","3406773","co37546","norming","","","{""curiosity"":3,""confidence"":2}","[0,1]","../img/tt/010tt.jpg","",""
"4094.225000000326","","","recognition","survey-text","352","1427000","0.0-6.0-3.49","3406773","co37546","norming","","","{""guess"":""fish""}","","../img/tt/010tt.jpg","",""
"null","../img/gs/010gs.jpg","null","reveal","image-keyboard-response","353","1429004","0.0-6.0-4.49","3406773","co37546","norming","","","","","","",""
"null","../img/tt/010tt.jpg","null","mooney2","image-keyboard-response","354","1431005","0.0-6.0-5.49","3406773","co37546","norming","","","","","","",""
"2601.2700000000186","","","post_reveal_questions","survey-likert","355","1433608","0.0-6.0-6.49","3406773","co37546","norming","","","{""aha"":1}","[0]","../img/tt/010tt.jpg","",""
"null","<div style=""font-size:60px;""> </div>","null","fixation","html-keyboard-response","356","1433811","0.0-6.0-0.50","3406773","co37546","norming","","","","","","",""
"null","../img/tt/1226tt.jpg","null","mooney1","image-keyboard-response","357","1436819","0.0-6.0-1.50","3406773","co37546","norming","","","","","","",""
"4050.9149999998044","","","post_mooney1_questions","survey-likert","358","1440873","0.0-6.0-2.50","3406773","co37546","norming","","","{""curiosity"":0,""confidence"":5}","[0,1]","../img/tt/1226tt.jpg","",""
"4510.124999999767","","","recognition","survey-text","359","1445384","0.0-6.0-3.50","3406773","co37546","norming","","","{""guess"":""chicken""}","","../img/tt/1226tt.jpg","",""
"null","../img/gs/1226gs.jpg","null","reveal","image-keyboard-response","360","1447387","0.0-6.0-4.50","3406773","co37546","norming","","","","","","",""
"null","../img/tt/1226tt.jpg","null","mooney2","image-keyboard-response","361","1449390","0.0-6.0-5.50","3406773","co37546","norming","","","","","","",""
"4112.040000000037","","","post_reveal_questions","survey-likert","362","1453504","0.0-6.0-6.50","3406773","co37546","norming","","","{""aha"":0}","[0]","../img/tt/1226tt.jpg","",""
"null","<div style=""font-size:60px;""> </div>","null","fixation","html-keyboard-response","363","1453705","0.0-6.0-0.51","3406773","co37546","norming","","","","","","",""
"null","../img/tt/584tt.jpg","null","mooney1","image-keyboard-response","364","1456710","0.0-6.0-1.51","3406773","co37546","norming","","","","","","",""
"5471.755000000121","","","post_mooney1_questions","survey-likert","365","1462179","0.0-6.0-2.51","3406773","co37546","norming","","","{""curiosity"":4,""confidence"":1}","[0,1]","../img/tt/584tt.jpg","",""
"3374.0550000004005","","","recognition","survey-text","366","1465555","0.0-6.0-3.51","3406773","co37546","norming","","","{""guess"":""leaf""}","","../img/tt/584tt.jpg","",""
"null","../img/gs/584gs.jpg","null","reveal","image-keyboard-response","367","1467559","0.0-6.0-4.51","3406773","co37546","norming","","","","","","",""
"null","../img/tt/584tt.jpg","null","mooney2","image-keyboard-response","368","1469561","0.0-6.0-5.51","3406773","co37546","norming","","","","","","",""
"2087.6699999999255","","","post_reveal_questions","survey-likert","369","1471651","0.0-6.0-6.51","3406773","co37546","norming","","","{""aha"":2}","[0]","../img/tt/584tt.jpg","",""
"null","<div style=""font-size:60px;""> </div>","null","fixation","html-keyboard-response","370","1471855","0.0-6.0-0.52","3406773","co37546","norming","","","","","","",""
"null","../img/tt/098tt.jpg","null","mooney1","image-keyboard-response","371","1474861","0.0-6.0-1.52","3406773","co37546","norming","","","","","","",""
"5923.159999999916","","","post_mooney1_questions","survey-likert","372","1480787","0.0-6.0-2.52","3406773","co37546","norming","","","{""curiosity"":4,""confidence"":0}","[0,1]","../img/tt/098tt.jpg","",""
"4062.0500000000466","","","recognition","survey-text","373","1484851","0.0-6.0-3.52","3406773","co37546","norming","","","{""guess"":""""}","","../img/tt/098tt.jpg","",""
"null","../img/gs/098gs.jpg","null","reveal","image-keyboard-response","374","1486858","0.0-6.0-4.52","3406773","co37546","norming","","","","","","",""
"null","../img/tt/098tt.jpg","null","mooney2","image-keyboard-response","375","1488869","0.0-6.0-5.52","3406773","co37546","norming","","","","","","",""
"3363.249999999767","","","post_reveal_questions","survey-likert","376","1492235","0.0-6.0-6.52","3406773","co37546","norming","","","{""aha"":1}","[0]","../img/tt/098tt.jpg","",""
"null","<div style=""font-size:60px;""> </div>","null","fixation","html-keyboard-response","377","1492444","0.0-6.0-0.53","3406773","co37546","norming","","","","","","",""
"null","../img/tt/1189tt.jpg","null","mooney1","image-keyboard-response","378","1495447","0.0-6.0-1.53","3406773","co37546","norming","","","","","","",""
"3809.125000000233","","","post_mooney1_questions","survey-likert","379","1499259","0.0-6.0-2.53","3406773","co37546","norming","","","{""curiosity"":1,""confidence"":3}","[0,1]","../img/tt/1189tt.jpg","",""
"2134.3249999999534","","","recognition","survey-text","380","1501395","0.0-6.0-3.53","3406773","co37546","norming","","","{""guess"":""river""}","","../img/tt/1189tt.jpg","",""
"null","../img/gs/1189gs.jpg","null","reveal","image-keyboard-response","381","1503402","0.0-6.0-4.53","3406773","co37546","norming","","","","","","",""
"null","../img/tt/1189tt.jpg","null","mooney2","image-keyboard-response","382","1505409","0.0-6.0-5.53","3406773","co37546","norming","","","","","","",""
"3599.494999999879","","","post_reveal_questions","survey-likert","383","1509011","0.0-6.0-6.53","3406773","co37546","norming","","","{""aha"":1}","[0]","../img/tt/1189tt.jpg","",""
"null","<div style=""font-size:60px;""> </div>","null","fixation","html-keyboard-response","384","1509213","0.0-6.0-0.54","3406773","co37546","norming","","","","","","",""
"null","../img/tt/076tt.jpg","null","mooney1","image-keyboard-response","385","1512225","0.0-6.0-1.54","3406773","co37546","norming","","","","","","",""
"4305.135000000242","","","post_mooney1_questions","survey-likert","386","1516531","0.0-6.0-2.54","3406773","co37546","norming","","","{""curiosity"":1,""confidence"":4}","[0,1]","../img/tt/076tt.jpg","",""
"8621.850000000093","","","recognition","survey-text","387","1525154","0.0-6.0-3.54","3406773","co37546","norming","","","{""guess"":""rollerskates""}","","../img/tt/076tt.jpg","",""
"null","../img/gs/076gs.jpg","null","reveal","image-keyboard-response","388","1527162","0.0-6.0-4.54","3406773","co37546","norming","","","","","","",""
"null","../img/tt/076tt.jpg","null","mooney2","image-keyboard-response","389","1529165","0.0-6.0-5.54","3406773","co37546","norming","","","","","","",""
"2684.284999999916","","","post_reveal_questions","survey-likert","390","1531850","0.0-6.0-6.54","3406773","co37546","norming","","","{""aha"":0}","[0]","../img/tt/076tt.jpg","",""
"null","<div style=""font-size:60px;""> </div>","null","fixation","html-keyboard-response","391","1532052","0.0-6.0-0.55","3406773","co37546","norming","","","","","","",""
"null","../img/tt/1243tt.jpg","null","mooney1","image-keyboard-response","392","1535061","0.0-6.0-1.55","3406773","co37546","norming","","","","","","",""
"11890.365000000224","","","post_mooney1_questions","survey-likert","393","1546955","0.0-6.0-2.55","3406773","co37546","norming","","","{""curiosity"":2,""confidence"":4}","[0,1]","../img/tt/1243tt.jpg","",""
"7173.679999999935","","","recognition","survey-text","394","1554130","0.0-6.0-3.55","3406773","co37546","norming","","","{""guess"":""pumas""}","","../img/tt/1243tt.jpg","",""
"null","../img/gs/1243gs.jpg","null","reveal","image-keyboard-response","395","1556139","0.0-6.0-4.55","3406773","co37546","norming","","","","","","",""
"null","../img/tt/1243tt.jpg","null","mooney2","image-keyboard-response","396","1558149","0.0-6.0-5.55","3406773","co37546","norming","","","","","","",""
"1460.8100000000559","","","post_reveal_questions","survey-likert","397","1559610","0.0-6.0-6.55","3406773","co37546","norming","","","{""aha"":2}","[0]","../img/tt/1243tt.jpg","",""
"null","<div style=""font-size:60px;""> </div>","null","fixation","html-keyboard-response","398","1559812","0.0-6.0-0.56","3406773","co37546","norming","","","","","","",""
"null","../img/tt/1186tt.jpg","null","mooney1","image-keyboard-response","399","1562813","0.0-6.0-1.56","3406773","co37546","norming","","","","","","",""
"5570.589999999851","","","post_mooney1_questions","survey-likert","400","1568387","0.0-6.0-2.56","3406773","co37546","norming","","","{""curiosity"":1,""confidence"":1}","[0,1]","../img/tt/1186tt.jpg","",""
"6318.030000000028","","","recognition","survey-text","401","1574707","0.0-6.0-3.56","3406773","co37546","norming","","","{""guess"":""trees""}","","../img/tt/1186tt.jpg","",""
"null","../img/gs/1186gs.jpg","null","reveal","image-keyboard-response","402","1576714","0.0-6.0-4.56","3406773","co37546","norming","","","","","","",""
"null","../img/tt/1186tt.jpg","null","mooney2","image-keyboard-response","403","1578716","0.0-6.0-5.56","3406773","co37546","norming","","","","","","",""
"4131.879999999888","","","post_reveal_questions","survey-likert","404","1582855","0.0-6.0-6.56","3406773","co37546","norming","","","{""aha"":1}","[0]","../img/tt/1186tt.jpg","",""
"null","<div style=""font-size:60px;""> </div>","null","fixation","html-keyboard-response","405","1583057","0.0-6.0-0.57","3406773","co37546","norming","","","","","","",""
"null","../img/tt/380tt.jpg","null","mooney1","image-keyboard-response","406","1586061","0.0-6.0-1.57","3406773","co37546","norming","","","","","","",""
"5726.880000000121","","","post_mooney1_questions","survey-likert","407","1591791","0.0-6.0-2.57","3406773","co37546","norming","","","{""curiosity"":1,""confidence"":3}","[0,1]","../img/tt/380tt.jpg","",""
"2038.25","","","recognition","survey-text","408","1593831","0.0-6.0-3.57","3406773","co37546","norming","","","{""guess"":""rat""}","","../img/tt/380tt.jpg","",""
"null","../img/gs/380gs.jpg","null","reveal","image-keyboard-response","409","1595836","0.0-6.0-4.57","3406773","co37546","norming","","","","","","",""
"null","../img/tt/380tt.jpg","null","mooney2","image-keyboard-response","410","1597846","0.0-6.0-5.57","3406773","co37546","norming","","","","","","",""
"3182.2999999998137","","","post_reveal_questions","survey-likert","411","1601031","0.0-6.0-6.57","3406773","co37546","norming","","","{""aha"":0}","[0]","../img/tt/380tt.jpg","",""
"null","<div style=""font-size:60px;""> </div>","null","fixation","html-keyboard-response","412","1601234","0.0-6.0-0.58","3406773","co37546","norming","","","","","","",""
"null","../img/tt/123tt.jpg","null","mooney1","image-keyboard-response","413","1604245","0.0-6.0-1.58","3406773","co37546","norming","","","","","","",""
"8535.364999999758","","","post_mooney1_questions","survey-likert","414","1612783","0.0-6.0-2.58","3406773","co37546","norming","","","{""curiosity"":1,""confidence"":3}","[0,1]","../img/tt/123tt.jpg","",""
"8869.914999999804","","","recognition","survey-text","415","1621655","0.0-6.0-3.58","3406773","co37546","norming","","","{""guess"":""bag""}","","../img/tt/123tt.jpg","",""
"null","../img/gs/123gs.jpg","null","reveal","image-keyboard-response","416","1623656","0.0-6.0-4.58","3406773","co37546","norming","","","","","","",""
"null","../img/tt/123tt.jpg","null","mooney2","image-keyboard-response","417","1625661","0.0-6.0-5.58","3406773","co37546","norming","","","","","","",""
"3319.7350000001024","","","post_reveal_questions","survey-likert","418","1628983","0.0-6.0-6.58","3406773","co37546","norming","","","{""aha"":2}","[0]","../img/tt/123tt.jpg","",""
"null","<div style=""font-size:60px;""> </div>","null","fixation","html-keyboard-response","419","1629191","0.0-6.0-0.59","3406773","co37546","norming","","","","","","",""
"null","../img/tt/319tt.jpg","null","mooney1","image-keyboard-response","420","1632199","0.0-6.0-1.59","3406773","co37546","norming","","","","","","",""
"7334.795000000158","","","post_mooney1_questions","survey-likert","421","1639535","0.0-6.0-2.59","3406773","co37546","norming","","","{""curiosity"":3,""confidence"":2}","[0,1]","../img/tt/319tt.jpg","",""
"2902.410000000149","","","recognition","survey-text","422","1642438","0.0-6.0-3.59","3406773","co37546","norming","","","{""guess"":""horse""}","","../img/tt/319tt.jpg","",""
"null","../img/gs/319gs.jpg","null","reveal","image-keyboard-response","423","1644445","0.0-6.0-4.59","3406773","co37546","norming","","","","","","",""
"null","../img/tt/319tt.jpg","null","mooney2","image-keyboard-response","424","1646447","0.0-6.0-5.59","3406773","co37546","norming","","","","","","",""
"2148.1800000001676","","","post_reveal_questions","survey-likert","425","1648597","0.0-6.0-6.59","3406773","co37546","norming","","","{""aha"":2}","[0]","../img/tt/319tt.jpg","",""
"null","<div style=""font-size:60px;""> </div>","null","fixation","html-keyboard-response","426","1648798","0.0-6.0-0.60","3406773","co37546","norming","","","","","","",""
"null","../img/tt/163tt.jpg","null","mooney1","image-keyboard-response","427","1651801","0.0-6.0-1.60","3406773","co37546","norming","","","","","","",""
"6537.645000000019","","","post_mooney1_questions","survey-likert","428","1658342","0.0-6.0-2.60","3406773","co37546","norming","","","{""curiosity"":1,""confidence"":4}","[0,1]","../img/tt/163tt.jpg","",""
"2014.0750000001863","","","recognition","survey-text","429","1660357","0.0-6.0-3.60","3406773","co37546","norming","","","{""guess"":""toad""}","","../img/tt/163tt.jpg","",""
"null","../img/gs/163gs.jpg","null","reveal","image-keyboard-response","430","1662359","0.0-6.0-4.60","3406773","co37546","norming","","","","","","",""
"null","../img/tt/163tt.jpg","null","mooney2","image-keyboard-response","431","1664361","0.0-6.0-5.60","3406773","co37546","norming","","","","","","",""
"2082.05999999959","","","post_reveal_questions","survey-likert","432","1666446","0.0-6.0-6.60","3406773","co37546","norming","","","{""aha"":0}","[0]","../img/tt/163tt.jpg","",""
"null","<div style=""font-size:60px;""> </div>","null","fixation","html-keyboard-response","433","1666647","0.0-6.0-0.61","3406773","co37546","norming","","","","","","",""
"null","../img/tt/1043tt.jpg","null","mooney1","image-keyboard-response","434","1669655","0.0-6.0-1.61","3406773","co37546","norming","","","","","","",""
"6940.229999999981","","","post_mooney1_questions","survey-likert","435","1676598","0.0-6.0-2.61","3406773","co37546","norming","","","{""curiosity"":0,""confidence"":2}","[0,1]","../img/tt/1043tt.jpg","",""
"5870.22499999986","","","recognition","survey-text","436","1682470","0.0-6.0-3.61","3406773","co37546","norming","","","{""guess"":""flipflops""}","","../img/tt/1043tt.jpg","",""
"null","../img/gs/1043gs.jpg","null","reveal","image-keyboard-response","437","1684474","0.0-6.0-4.61","3406773","co37546","norming","","","","","","",""
"null","../img/tt/1043tt.jpg","null","mooney2","image-keyboard-response","438","1686475","0.0-6.0-5.61","3406773","co37546","norming","","","","","","",""
"2207.8249999999534","","","post_reveal_questions","survey-likert","439","1688685","0.0-6.0-6.61","3406773","co37546","norming","","","{""aha"":1}","[0]","../img/tt/1043tt.jpg","",""
"null","<div style=""font-size:60px;""> </div>","null","fixation","html-keyboard-response","440","1688896","0.0-6.0-0.62","3406773","co37546","norming","","","","","","",""
"null","../img/tt/1143tt.jpg","null","mooney1","image-keyboard-response","441","1691902","0.0-6.0-1.62","3406773","co37546","norming","","","","","","",""
"3469","","","post_mooney1_questions","survey-likert","442","1695374","0.0-6.0-2.62","3406773","co37546","norming","","","{""curiosity"":0,""confidence"":4}","[0,1]","../img/tt/1143tt.jpg","",""
"5445.944999999832","","","recognition","survey-text","443","1700822","0.0-6.0-3.62","3406773","co37546","norming","","","{""guess"":""treadmills""}","","../img/tt/1143tt.jpg","",""
"null","../img/gs/1143gs.jpg","null","reveal","image-keyboard-response","444","1702832","0.0-6.0-4.62","3406773","co37546","norming","","","","","","",""
"null","../img/tt/1143tt.jpg","null","mooney2","image-keyboard-response","445","1704842","0.0-6.0-5.62","3406773","co37546","norming","","","","","","",""
"1988.1200000001118","","","post_reveal_questions","survey-likert","446","1706832","0.0-6.0-6.62","3406773","co37546","norming","","","{""aha"":1}","[0]","../img/tt/1143tt.jpg","",""
"null","<div style=""font-size:60px;""> </div>","null","fixation","html-keyboard-response","447","1707034","0.0-6.0-0.63","3406773","co37546","norming","","","","","","",""
"null","../img/tt/049tt.jpg","null","mooney1","image-keyboard-response","448","1710038","0.0-6.0-1.63","3406773","co37546","norming","","","","","","",""
"14615.624999999767","","","post_mooney1_questions","survey-likert","449","1724657","0.0-6.0-2.63","3406773","co37546","norming","","","{""curiosity"":1,""confidence"":2}","[0,1]","../img/tt/049tt.jpg","",""
"6629.995000000345","","","recognition","survey-text","450","1731288","0.0-6.0-3.63","3406773","co37546","norming","","","{""guess"":""cubs""}","","../img/tt/049tt.jpg","",""
"null","../img/gs/049gs.jpg","null","reveal","image-keyboard-response","451","1733297","0.0-6.0-4.63","3406773","co37546","norming","","","","","","",""
"null","../img/tt/049tt.jpg","null","mooney2","image-keyboard-response","452","1735303","0.0-6.0-5.63","3406773","co37546","norming","","","","","","",""
"2166.945000000065","","","post_reveal_questions","survey-likert","453","1737472","0.0-6.0-6.63","3406773","co37546","norming","","","{""aha"":0}","[0]","../img/tt/049tt.jpg","",""
"null","<div style=""font-size:60px;""> </div>","null","fixation","html-keyboard-response","454","1737676","0.0-6.0-0.64","3406773","co37546","norming","","","","","","",""
"null","../img/tt/1012tt.jpg","null","mooney1","image-keyboard-response","455","1740687","0.0-6.0-1.64","3406773","co37546","norming","","","","","","",""
"3686.909999999916","","","post_mooney1_questions","survey-likert","456","1744376","0.0-6.0-2.64","3406773","co37546","norming","","","{""curiosity"":0,""confidence"":3}","[0,1]","../img/tt/1012tt.jpg","",""
"3630.189999999944","","","recognition","survey-text","457","1748008","0.0-6.0-3.64","3406773","co37546","norming","","","{""guess"":""horse""}","","../img/tt/1012tt.jpg","",""
"null","../img/gs/1012gs.jpg","null","reveal","image-keyboard-response","458","1750011","0.0-6.0-4.64","3406773","co37546","norming","","","","","","",""
"null","../img/tt/1012tt.jpg","null","mooney2","image-keyboard-response","459","1752018","0.0-6.0-5.64","3406773","co37546","norming","","","","","","",""
"1835.6699999999255","","","post_reveal_questions","survey-likert","460","1753856","0.0-6.0-6.64","3406773","co37546","norming","","","{""aha"":0}","[0]","../img/tt/1012tt.jpg","",""
"null","<div style=""font-size:60px;""> </div>","null","fixation","html-keyboard-response","461","1754067","0.0-6.0-0.65","3406773","co37546","norming","","","","","","",""
"null","../img/tt/440tt.jpg","null","mooney1","image-keyboard-response","462","1757072","0.0-6.0-1.65","3406773","co37546","norming","","","","","","",""
"13517.755000000354","","","post_mooney1_questions","survey-likert","463","1770591","0.0-6.0-2.65","3406773","co37546","norming","","","{""curiosity"":1,""confidence"":4}","[0,1]","../img/tt/440tt.jpg","",""
"3621.970000000205","","","recognition","survey-text","464","1774215","0.0-6.0-3.65","3406773","co37546","norming","","","{""guess"":""shed""}","","../img/tt/440tt.jpg","",""
"null","../img/gs/440gs.jpg","null","reveal","image-keyboard-response","465","1776224","0.0-6.0-4.65","3406773","co37546","norming","","","","","","",""
"null","../img/tt/440tt.jpg","null","mooney2","image-keyboard-response","466","1778228","0.0-6.0-5.65","3406773","co37546","norming","","","","","","",""
"2793.8899999998976","","","post_reveal_questions","survey-likert","467","1781023","0.0-6.0-6.65","3406773","co37546","norming","","","{""aha"":0}","[0]","../img/tt/440tt.jpg","",""
"null","<div style=""font-size:60px;""> </div>","null","fixation","html-keyboard-response","468","1781224","0.0-6.0-0.66","3406773","co37546","norming","","","","","","",""
"null","../img/tt/1055tt.jpg","null","mooney1","image-keyboard-response","469","1784230","0.0-6.0-1.66","3406773","co37546","norming","","","","","","",""
"9687.889999999665","","","post_mooney1_questions","survey-likert","470","1793919","0.0-6.0-2.66","3406773","co37546","norming","","","{""curiosity"":1,""confidence"":2}","[0,1]","../img/tt/1055tt.jpg","",""
"2661.779999999795","","","recognition","survey-text","471","1796583","0.0-6.0-3.66","3406773","co37546","norming","","","{""guess"":""river""}","","../img/tt/1055tt.jpg","",""
"null","../img/gs/1055gs.jpg","null","reveal","image-keyboard-response","472","1798593","0.0-6.0-4.66","3406773","co37546","norming","","","","","","",""
"null","../img/tt/1055tt.jpg","null","mooney2","image-keyboard-response","473","1800598","0.0-6.0-5.66","3406773","co37546","norming","","","","","","",""
"3310.7400000004563","","","post_reveal_questions","survey-likert","474","1803911","0.0-6.0-6.66","3406773","co37546","norming","","","{""aha"":1}","[0]","../img/tt/1055tt.jpg","",""
"null","<div style=""font-size:60px;""> </div>","null","fixation","html-keyboard-response","475","1804113","0.0-6.0-0.67","3406773","co37546","norming","","","","","","",""
"null","../img/tt/1080tt.jpg","null","mooney1","image-keyboard-response","476","1807114","0.0-6.0-1.67","3406773","co37546","norming","","","","","","",""
"6434.214999999851","","","post_mooney1_questions","survey-likert","477","1813551","0.0-6.0-2.67","3406773","co37546","norming","","","{""curiosity"":1,""confidence"":3}","[0,1]","../img/tt/1080tt.jpg","",""
"3206.310000000056","","","recognition","survey-text","478","1816759","0.0-6.0-3.67","3406773","co37546","norming","","","{""guess"":""woman""}","","../img/tt/1080tt.jpg","",""
"null","../img/gs/1080gs.jpg","null","reveal","image-keyboard-response","479","1818764","0.0-6.0-4.67","3406773","co37546","norming","","","","","","",""
"null","../img/tt/1080tt.jpg","null","mooney2","image-keyboard-response","480","1820775","0.0-6.0-5.67","3406773","co37546","norming","","","","","","",""
"1732.6700000001583","","","post_reveal_questions","survey-likert","481","1822511","0.0-6.0-6.67","3406773","co37546","norming","","","{""aha"":1}","[0]","../img/tt/1080tt.jpg","",""
"null","<div style=""font-size:60px;""> </div>","null","fixation","html-keyboard-response","482","1822717","0.0-6.0-0.68","3406773","co37546","norming","","","","","","",""
"null","../img/tt/1175tt.jpg","null","mooney1","image-keyboard-response","483","1825722","0.0-6.0-1.68","3406773","co37546","norming","","","","","","",""
"4796.035000000382","","","post_mooney1_questions","survey-likert","484","1830519","0.0-6.0-2.68","3406773","co37546","norming","","","{""curiosity"":0,""confidence"":3}","[0,1]","../img/tt/1175tt.jpg","",""
"10702.139999999898","","","recognition","survey-text","485","1841222","0.0-6.0-3.68","3406773","co37546","norming","","","{""guess"":""men with sombreros""}","","../img/tt/1175tt.jpg","",""
"null","../img/gs/1175gs.jpg","null","reveal","image-keyboard-response","486","1843233","0.0-6.0-4.68","3406773","co37546","norming","","","","","","",""
"null","../img/tt/1175tt.jpg","null","mooney2","image-keyboard-response","487","1845235","0.0-6.0-5.68","3406773","co37546","norming","","","","","","",""
"1720.695000000298","","","post_reveal_questions","survey-likert","488","1846959","0.0-6.0-6.68","3406773","co37546","norming","","","{""aha"":3}","[0]","../img/tt/1175tt.jpg","",""
"null","<div style=""font-size:60px;""> </div>","null","fixation","html-keyboard-response","489","1847163","0.0-6.0-0.69","3406773","co37546","norming","","","","","","",""
"null","../img/tt/1362tt.jpg","null","mooney1","image-keyboard-response","490","1850175","0.0-6.0-1.69","3406773","co37546","norming","","","","","","",""
"2654.7700000002515","","","post_mooney1_questions","survey-likert","491","1852831","0.0-6.0-2.69","3406773","co37546","norming","","","{""curiosity"":1,""confidence"":2}","[0,1]","../img/tt/1362tt.jpg","",""
"5750.130000000354","","","recognition","survey-text","492","1858582","0.0-6.0-3.69","3406773","co37546","norming","","","{""guess"":""shoes""}","","../img/tt/1362tt.jpg","",""
"null","../img/gs/1362gs.jpg","null","reveal","image-keyboard-response","493","1860590","0.0-6.0-4.69","3406773","co37546","norming","","","","","","",""
"null","../img/tt/1362tt.jpg","null","mooney2","image-keyboard-response","494","1862595","0.0-6.0-5.69","3406773","co37546","norming","","","","","","",""
"3344.5749999994878","","","post_reveal_questions","survey-likert","495","1865943","0.0-6.0-6.69","3406773","co37546","norming","","","{""aha"":0}","[0]","../img/tt/1362tt.jpg","",""
"null","<div style=""font-size:60px;""> </div>","null","fixation","html-keyboard-response","496","1866153","0.0-6.0-0.70","3406773","co37546","norming","","","","","","",""
"null","../img/tt/079tt.jpg","null","mooney1","image-keyboard-response","497","1869163","0.0-6.0-1.70","3406773","co37546","norming","","","","","","",""
"4560.054999999935","","","post_mooney1_questions","survey-likert","498","1873727","0.0-6.0-2.70","3406773","co37546","norming","","","{""curiosity"":0,""confidence"":5}","[0,1]","../img/tt/079tt.jpg","",""
"4470.069999999832","","","recognition","survey-text","499","1878198","0.0-6.0-3.70","3406773","co37546","norming","","","{""guess"":""grizzly""}","","../img/tt/079tt.jpg","",""
"null","../img/gs/079gs.jpg","null","reveal","image-keyboard-response","500","1880202","0.0-6.0-4.70","3406773","co37546","norming","","","","","","",""
"null","../img/tt/079tt.jpg","null","mooney2","image-keyboard-response","501","1882207","0.0-6.0-5.70","3406773","co37546","norming","","","","","","",""
"2438.2549999998882","","","post_reveal_questions","survey-likert","502","1884646","0.0-6.0-6.70","3406773","co37546","norming","","","{""aha"":1}","[0]","../img/tt/079tt.jpg","",""
"null","<div style=""font-size:60px;""> </div>","null","fixation","html-keyboard-response","503","1884856","0.0-6.0-0.71","3406773","co37546","norming","","","","","","",""
"null","../img/tt/1089tt.jpg","null","mooney1","image-keyboard-response","504","1887860","0.0-6.0-1.71","3406773","co37546","norming","","","","","","",""
"5729.679999999935","","","post_mooney1_questions","survey-likert","505","1893584","0.0-6.0-2.71","3406773","co37546","norming","","","{""curiosity"":1,""confidence"":4}","[0,1]","../img/tt/1089tt.jpg","",""
"2254.1049999999814","","","recognition","survey-text","506","1895840","0.0-6.0-3.71","3406773","co37546","norming","","","{""guess"":""cow""}","","../img/tt/1089tt.jpg","",""
"null","../img/gs/1089gs.jpg","null","reveal","image-keyboard-response","507","1897850","0.0-6.0-4.71","3406773","co37546","norming","","","","","","",""
"null","../img/tt/1089tt.jpg","null","mooney2","image-keyboard-response","508","1899861","0.0-6.0-5.71","3406773","co37546","norming","","","","","","",""
"4369.189999999944","","","post_reveal_questions","survey-likert","509","1904232","0.0-6.0-6.71","3406773","co37546","norming","","","{""aha"":1}","[0]","../img/tt/1089tt.jpg","",""
"null","<div style=""font-size:60px;""> </div>","null","fixation","html-keyboard-response","510","1904433","0.0-6.0-0.72","3406773","co37546","norming","","","","","","",""
"null","../img/tt/080tt.jpg","null","mooney1","image-keyboard-response","511","1907444","0.0-6.0-1.72","3406773","co37546","norming","","","","","","",""
"3577.0949999997392","","","post_mooney1_questions","survey-likert","512","1911024","0.0-6.0-2.72","3406773","co37546","norming","","","{""curiosity"":0,""confidence"":4}","[0,1]","../img/tt/080tt.jpg","",""
"5902.130000000121","","","recognition","survey-text","513","1916928","0.0-6.0-3.72","3406773","co37546","norming","","","{""guess"":""mushroom""}","","../img/tt/080tt.jpg","",""
"null","../img/gs/080gs.jpg","null","reveal","image-keyboard-response","514","1918936","0.0-6.0-4.72","3406773","co37546","norming","","","","","","",""
"null","../img/tt/080tt.jpg","null","mooney2","image-keyboard-response","515","1920945","0.0-6.0-5.72","3406773","co37546","norming","","","","","","",""
"2563.894999999786","","","post_reveal_questions","survey-likert","516","1923512","0.0-6.0-6.72","3406773","co37546","norming","","","{""aha"":1}","[0]","../img/tt/080tt.jpg","",""
"null","<div style=""font-size:60px;""> </div>","null","fixation","html-keyboard-response","517","1923717","0.0-6.0-0.73","3406773","co37546","norming","","","","","","",""
"null","../img/tt/507tt.jpg","null","mooney1","image-keyboard-response","518","1926724","0.0-6.0-1.73","3406773","co37546","norming","","","","","","",""
"10169.175000000047","","","post_mooney1_questions","survey-likert","519","1936896","0.0-6.0-2.73","3406773","co37546","norming","","","{""curiosity"":1,""confidence"":4}","[0,1]","../img/tt/507tt.jpg","",""
"7006.15000000014","","","recognition","survey-text","520","1943904","0.0-6.0-3.73","3406773","co37546","norming","","","{""guess"":""woman in garden""}","","../img/tt/507tt.jpg","",""
"null","../img/gs/507gs.jpg","null","reveal","image-keyboard-response","521","1945905","0.0-6.0-4.73","3406773","co37546","norming","","","","","","",""
"null","../img/tt/507tt.jpg","null","mooney2","image-keyboard-response","522","1947912","0.0-6.0-5.73","3406773","co37546","norming","","","","","","",""
"2621.214999999618","","","post_reveal_questions","survey-likert","523","1950541","0.0-6.0-6.73","3406773","co37546","norming","","","{""aha"":0}","[0]","../img/tt/507tt.jpg","",""
"null","<div style=""font-size:60px;""> </div>","null","fixation","html-keyboard-response","524","1950743","0.0-6.0-0.74","3406773","co37546","norming","","","","","","",""
"null","../img/tt/091tt.jpg","null","mooney1","image-keyboard-response","525","1953746","0.0-6.0-1.74","3406773","co37546","norming","","","","","","",""
"5136.125","","","post_mooney1_questions","survey-likert","526","1958885","0.0-6.0-2.74","3406773","co37546","norming","","","{""curiosity"":0,""confidence"":4}","[0,1]","../img/tt/091tt.jpg","",""
"4685.999999999767","","","recognition","survey-text","527","1963573","0.0-6.0-3.74","3406773","co37546","norming","","","{""guess"":""salamander""}","","../img/tt/091tt.jpg","",""
"null","../img/gs/091gs.jpg","null","reveal","image-keyboard-response","528","1965581","0.0-6.0-4.74","3406773","co37546","norming","","","","","","",""
"null","../img/tt/091tt.jpg","null","mooney2","image-keyboard-response","529","1967583","0.0-6.0-5.74","3406773","co37546","norming","","","","","","",""
"2227.5399999998044","","","post_reveal_questions","survey-likert","530","1969813","0.0-6.0-6.74","3406773","co37546","norming","","","{""aha"":0}","[0]","../img/tt/091tt.jpg","",""
"null","<div style=""font-size:60px;""> </div>","null","fixation","html-keyboard-response","531","1970016","0.0-6.0-0.75","3406773","co37546","norming","","","","","","",""
"null","../img/tt/524tt.jpg","null","mooney1","image-keyboard-response","532","1973019","0.0-6.0-1.75","3406773","co37546","norming","","","","","","",""
"4206.59999999986","","","post_mooney1_questions","survey-likert","533","1977229","0.0-6.0-2.75","3406773","co37546","norming","","","{""curiosity"":0,""confidence"":4}","[0,1]","../img/tt/524tt.jpg","",""
"2198.2450000001118","","","recognition","survey-text","534","1979429","0.0-6.0-3.75","3406773","co37546","norming","","","{""guess"":""boar""}","","../img/tt/524tt.jpg","",""
"null","../img/gs/524gs.jpg","null","reveal","image-keyboard-response","535","1981432","0.0-6.0-4.75","3406773","co37546","norming","","","","","","",""
"null","../img/tt/524tt.jpg","null","mooney2","image-keyboard-response","536","1983439","0.0-6.0-5.75","3406773","co37546","norming","","","","","","",""
"1939.6099999998696","","","post_reveal_questions","survey-likert","537","1985381","0.0-6.0-6.75","3406773","co37546","norming","","","{""aha"":1}","[0]","../img/tt/524tt.jpg","",""
"null","<div style=""font-size:60px;""> </div>","null","fixation","html-keyboard-response","538","1985585","0.0-6.0-0.76","3406773","co37546","norming","","","","","","",""
"null","../img/tt/435tt.jpg","null","mooney1","image-keyboard-response","539","1988588","0.0-6.0-1.76","3406773","co37546","norming","","","","","","",""
"6230.500000000233","","","post_mooney1_questions","survey-likert","540","1994821","0.0-6.0-2.76","3406773","co37546","norming","","","{""curiosity"":1,""confidence"":2}","[0,1]","../img/tt/435tt.jpg","",""
"2238.0749999997206","","","recognition","survey-text","541","1997061","0.0-6.0-3.76","3406773","co37546","norming","","","{""guess"":""sword""}","","../img/tt/435tt.jpg","",""
"null","../img/gs/435gs.jpg","null","reveal","image-keyboard-response","542","1999062","0.0-6.0-4.76","3406773","co37546","norming","","","","","","",""
"null","../img/tt/435tt.jpg","null","mooney2","image-keyboard-response","543","2001066","0.0-6.0-5.76","3406773","co37546","norming","","","","","","",""
"3968.980000000214","","","post_reveal_questions","survey-likert","544","2005037","0.0-6.0-6.76","3406773","co37546","norming","","","{""aha"":0}","[0]","../img/tt/435tt.jpg","",""
"null","<div style=""font-size:60px;""> </div>","null","fixation","html-keyboard-response","545","2005246","0.0-6.0-0.77","3406773","co37546","norming","","","","","","",""
"null","../img/tt/1217tt.jpg","null","mooney1","image-keyboard-response","546","2008252","0.0-6.0-1.77","3406773","co37546","norming","","","","","","",""
"4687.010000000242","","","post_mooney1_questions","survey-likert","547","2012939","0.0-6.0-2.77","3406773","co37546","norming","","","{""curiosity"":0,""confidence"":4}","[0,1]","../img/tt/1217tt.jpg","",""
"5318.069999999832","","","recognition","survey-text","548","2018259","0.0-6.0-3.77","3406773","co37546","norming","","","{""guess"":""rugby game""}","","../img/tt/1217tt.jpg","",""
"null","../img/gs/1217gs.jpg","null","reveal","image-keyboard-response","549","2020262","0.0-6.0-4.77","3406773","co37546","norming","","","","","","",""
"null","../img/tt/1217tt.jpg","null","mooney2","image-keyboard-response","550","2022272","0.0-6.0-5.77","3406773","co37546","norming","","","","","","",""
"2320.519999999786","","","post_reveal_questions","survey-likert","551","2024595","0.0-6.0-6.77","3406773","co37546","norming","","","{""aha"":0}","[0]","../img/tt/1217tt.jpg","",""
