"rt","stimulus","key_press","test_part","trial_type","trial_index","time_elapsed","internal_node_id","totalTime","subject","experiment_name","button_pressed","success","responses","question_order","currentStim","old","correct"
"5095.024999999964","Welcome to the experiment. This is an online experiment so please don't close the tab/window until we say goodbye.  Press any key to begin.","75","instructions","html-keyboard-response","0","5109","0.0-0.0","2999905","co37954","norming","","","","","","",""
"32027.030000000083","<div style='word-wrap: break-word; width: 900px'><h3>Please consider this information carefully before deciding whether to participate in this research</h3><ul style='text-align: left; font-size: .8em;'><li><b>Purpose of the research</b>: To examine how people process images.</li><li><b>What you will do in this research</b>:  Stimuli (images) will be presented on the computer and you will be asked different questions about them.</li><li><b>Time required</b>: Participation will take between 45 and 60 minutes to complete.</li><li><b>Risks</b>:  There are no anticipated risks associated with participating in this study. The effects of participating should be comparable to those you would experience from viewing a computer monitor for 30 minutes and using a mouse or keyboard.</li><li><b>Benefits</b>:  This study provides no benefits to you individually except for the credit. The study provides important information about the nature of perception and learning.</li><li><b>Confidentiality</b>:  Your participation in this study will remain confidential. No personally identifiable information will be associated with your data. Your de-identified data may be shared with other researchers and used in future projects.</li><li><b>Participation and withdrawal</b>:  Your participation in this study is completely voluntary and you may refuse to participate or you may choose to withdraw at any time without penalty.</li><li><b>How to contact the researchers</b>: If you have questions or concerns about your participation or payment, or want to request a summary of research findings, please contact Sander Van de Cruys (KU Leuven), at sander.vandecruys@kuleuven.be.</li></ul><p>The nature and purpose of this research have been sufficiently explained and I agree to participate in this study.  I understand that I am free to withdraw at any time without incurring any penalty.</p><p>Please consent by clicking the button below to continue. Otherwise, please exit the study at this time.</p></div>","","instructions","html-button-response","1","37130","0.0-1.0","2999905","co37954","norming","0","","","","","",""
"","","","instructions","fullscreen","2","41733","0.0-2.0","2999905","co37954","norming","","true","","","","",""
"30593.910000000047","","","sona","survey-html-form","3","72330","0.0-3.0","2999905","co37954","norming","","","[{""name"":""sonaid"",""value"":""37954""},{""name"":""debrief"",""value"":""no""},{""name"":""datajoin"",""value"":""yes""}]","","","",""
"65483.69000000003","<div style='word-wrap: break-word; width: 900px'><h3>Instructions</h3><p>This experiment will have 3 parts. In the first part you will see a series of distorted images like the one below on the left. As you can see in the righthand image, the distorted images are derived from actual photographs. In what follows, you will <strong>briefly</strong> be presented with <strong>only</strong> the distorted image.</p> <div style='float: left; margin-right: 20px;'><img src='../img/018tt.jpg' height='250' width='250'></img></div><div style='float: right; margin-left: 20px;'><img src='../img/018gs.jpg' height='250' width='250'></img></div><p>Subsequently you will be asked a few questions about the image: One question on how <strong>curious</strong> you are about the solution and one on how <strong>confident</strong> you are that you know the solution.</p>Next, we ask you to make a guess on what is in the image. Note that it is OK to name just the <strong>basic level category</strong>. For example when you see a parrot in the image, 'parrot' will obviously be a correct answer but also correct is 'bird'. However, 'animal' will <strong>not</strong> be counted as a correct response. For the example above, 'rose' would be correct or 'flower', but not 'plant'. When soccer players are depicted, 'soccer', 'football', 'soccer players' will be correct, but not 'humans', 'outdoors', or 'sports'. You do not need to describe the image in full, just name the main object in it <strong>in one or two words</strong>. All images depict objects from one of the following broad level categories: animals, inanimate objects, plants, sports, vehicles, and food. Recognizing means knowing <strong>more</strong> than these broad labels for a given image. But we always encourage you to <strong>make a guess</strong> if you can. Note that you are allowed to use <strong>Dutch and English</strong> in your answers, whatever comes easiest for you.</p><p>Press any key to continue.</p></div>","72","instructions","html-keyboard-response","4","137823","0.0-4.0","2999905","co37954","norming","","","","","","",""
"63965.32000000001","<div style='word-wrap: break-word; width: 900px'><h3>Instructions</h3> <p>Next, the solution image will be revealed to you and you'll be asked to indicate how strong your <strong>aha-experience</strong> was after seeing the solution. This describes the positive feeling of the 'click' you sometimes experience, when the pieces of the 'puzzle' fall together and you suddenly have 'insight' in the image.</p><img src='aha.jpg' height='188' width='250'></img><p>Note that there are no right or wrong answers. We are interested in what <strong>you</strong> see in the image and how <strong>you</strong> feel about it.</p><p>Press any key to start the experiment.</p></div>","32","instructions","html-keyboard-response","5","201792","0.0-5.0","2999905","co37954","norming","","","","","","",""
"null","<div style=""font-size:60px;""> </div>","null","fixation","html-keyboard-response","6","202000","0.0-6.0-0.0","2999905","co37954","norming","","","","","","",""
"null","../img/tt/296tt.jpg","null","mooney1","image-keyboard-response","7","205009","0.0-6.0-1.0","2999905","co37954","norming","","","","","","",""
"12045.834999999875","","","post_mooney1_questions","survey-likert","8","217057","0.0-6.0-2.0","2999905","co37954","norming","","","{""curiosity"":5,""confidence"":0}","[0,1]","../img/tt/296tt.jpg","",""
"8725.729999999894","","","recognition","survey-text","9","225784","0.0-6.0-3.0","2999905","co37954","norming","","","{""guess"":""bank""}","","../img/tt/296tt.jpg","",""
"null","../img/gs/296gs.jpg","null","reveal","image-keyboard-response","10","227787","0.0-6.0-4.0","2999905","co37954","norming","","","","","","",""
"null","../img/tt/296tt.jpg","null","mooney2","image-keyboard-response","11","229792","0.0-6.0-5.0","2999905","co37954","norming","","","","","","",""
"4310.945000000182","","","post_reveal_questions","survey-likert","12","234104","0.0-6.0-6.0","2999905","co37954","norming","","","{""aha"":4}","[0]","../img/tt/296tt.jpg","",""
"null","<div style=""font-size:60px;""> </div>","null","fixation","html-keyboard-response","13","234314","0.0-6.0-0.1","2999905","co37954","norming","","","","","","",""
"null","../img/tt/084tt.jpg","null","mooney1","image-keyboard-response","14","237323","0.0-6.0-1.1","2999905","co37954","norming","","","","","","",""
"9132.679999999935","","","post_mooney1_questions","survey-likert","15","246456","0.0-6.0-2.1","2999905","co37954","norming","","","{""curiosity"":4,""confidence"":4}","[0,1]","../img/tt/084tt.jpg","",""
"3421.9599999998754","","","recognition","survey-text","16","249880","0.0-6.0-3.1","2999905","co37954","norming","","","{""guess"":""eend""}","","../img/tt/084tt.jpg","",""
"null","../img/gs/084gs.jpg","null","reveal","image-keyboard-response","17","251883","0.0-6.0-4.1","2999905","co37954","norming","","","","","","",""
"null","../img/tt/084tt.jpg","null","mooney2","image-keyboard-response","18","253889","0.0-6.0-5.1","2999905","co37954","norming","","","","","","",""
"2886.5699999998906","","","post_reveal_questions","survey-likert","19","256777","0.0-6.0-6.1","2999905","co37954","norming","","","{""aha"":2}","[0]","../img/tt/084tt.jpg","",""
"null","<div style=""font-size:60px;""> </div>","null","fixation","html-keyboard-response","20","256986","0.0-6.0-0.2","2999905","co37954","norming","","","","","","",""
"null","../img/tt/1254tt.jpg","null","mooney1","image-keyboard-response","21","259987","0.0-6.0-1.2","2999905","co37954","norming","","","","","","",""
"4636.264999999868","","","post_mooney1_questions","survey-likert","22","264629","0.0-6.0-2.2","2999905","co37954","norming","","","{""curiosity"":5,""confidence"":1}","[0,1]","../img/tt/1254tt.jpg","",""
"2366.130000000121","","","recognition","survey-text","23","266997","0.0-6.0-3.2","2999905","co37954","norming","","","{""guess"":""konijn""}","","../img/tt/1254tt.jpg","",""
"null","../img/gs/1254gs.jpg","null","reveal","image-keyboard-response","24","269002","0.0-6.0-4.2","2999905","co37954","norming","","","","","","",""
"null","../img/tt/1254tt.jpg","null","mooney2","image-keyboard-response","25","271004","0.0-6.0-5.2","2999905","co37954","norming","","","","","","",""
"4567.469999999972","","","post_reveal_questions","survey-likert","26","275573","0.0-6.0-6.2","2999905","co37954","norming","","","{""aha"":4}","[0]","../img/tt/1254tt.jpg","",""
"null","<div style=""font-size:60px;""> </div>","null","fixation","html-keyboard-response","27","275774","0.0-6.0-0.3","2999905","co37954","norming","","","","","","",""
"null","../img/tt/1143tt.jpg","null","mooney1","image-keyboard-response","28","278777","0.0-6.0-1.3","2999905","co37954","norming","","","","","","",""
"5626.854999999981","","","post_mooney1_questions","survey-likert","29","284405","0.0-6.0-2.3","2999905","co37954","norming","","","{""curiosity"":2,""confidence"":2}","[0,1]","../img/tt/1143tt.jpg","",""
"3038.1100000001607","","","recognition","survey-text","30","287445","0.0-6.0-3.3","2999905","co37954","norming","","","{""guess"":""fitness""}","","../img/tt/1143tt.jpg","",""
"null","../img/gs/1143gs.jpg","null","reveal","image-keyboard-response","31","289446","0.0-6.0-4.3","2999905","co37954","norming","","","","","","",""
"null","../img/tt/1143tt.jpg","null","mooney2","image-keyboard-response","32","291447","0.0-6.0-5.3","2999905","co37954","norming","","","","","","",""
"5228.679999999935","","","post_reveal_questions","survey-likert","33","296677","0.0-6.0-6.3","2999905","co37954","norming","","","{""aha"":1}","[0]","../img/tt/1143tt.jpg","",""
"null","<div style=""font-size:60px;""> </div>","null","fixation","html-keyboard-response","34","296882","0.0-6.0-0.4","2999905","co37954","norming","","","","","","",""
"null","../img/tt/1125tt.jpg","null","mooney1","image-keyboard-response","35","299885","0.0-6.0-1.4","2999905","co37954","norming","","","","","","",""
"4822.414999999863","","","post_mooney1_questions","survey-likert","36","304709","0.0-6.0-2.4","2999905","co37954","norming","","","{""curiosity"":4,""confidence"":2}","[0,1]","../img/tt/1125tt.jpg","",""
"2765.685000000056","","","recognition","survey-text","37","307477","0.0-6.0-3.4","2999905","co37954","norming","","","{""guess"":""auto""}","","../img/tt/1125tt.jpg","",""
"null","../img/gs/1125gs.jpg","null","reveal","image-keyboard-response","38","309486","0.0-6.0-4.4","2999905","co37954","norming","","","","","","",""
"null","../img/tt/1125tt.jpg","null","mooney2","image-keyboard-response","39","311490","0.0-6.0-5.4","2999905","co37954","norming","","","","","","",""
"3105.2949999998673","","","post_reveal_questions","survey-likert","40","314597","0.0-6.0-6.4","2999905","co37954","norming","","","{""aha"":5}","[0]","../img/tt/1125tt.jpg","",""
"null","<div style=""font-size:60px;""> </div>","null","fixation","html-keyboard-response","41","314800","0.0-6.0-0.5","2999905","co37954","norming","","","","","","",""
"null","../img/tt/163tt.jpg","null","mooney1","image-keyboard-response","42","317802","0.0-6.0-1.5","2999905","co37954","norming","","","","","","",""
"4929.754999999888","","","post_mooney1_questions","survey-likert","43","322726","0.0-6.0-2.5","2999905","co37954","norming","","","{""curiosity"":5,""confidence"":0}","[0,1]","../img/tt/163tt.jpg","",""
"4310.120000000054","","","recognition","survey-text","44","327038","0.0-6.0-3.5","2999905","co37954","norming","","","{""guess"":""rug""}","","../img/tt/163tt.jpg","",""
"null","../img/gs/163gs.jpg","null","reveal","image-keyboard-response","45","329048","0.0-6.0-4.5","2999905","co37954","norming","","","","","","",""
"null","../img/tt/163tt.jpg","null","mooney2","image-keyboard-response","46","331058","0.0-6.0-5.5","2999905","co37954","norming","","","","","","",""
"4210.850000000151","","","post_reveal_questions","survey-likert","47","335270","0.0-6.0-6.5","2999905","co37954","norming","","","{""aha"":5}","[0]","../img/tt/163tt.jpg","",""
"null","<div style=""font-size:60px;""> </div>","null","fixation","html-keyboard-response","48","335472","0.0-6.0-0.6","2999905","co37954","norming","","","","","","",""
"null","../img/tt/020tt.jpg","null","mooney1","image-keyboard-response","49","338476","0.0-6.0-1.6","2999905","co37954","norming","","","","","","",""
"4505.104999999981","","","post_mooney1_questions","survey-likert","50","342982","0.0-6.0-2.6","2999905","co37954","norming","","","{""curiosity"":5,""confidence"":1}","[0,1]","../img/tt/020tt.jpg","",""
"3350.024999999965","","","recognition","survey-text","51","346334","0.0-6.0-3.6","2999905","co37954","norming","","","{""guess"":""paard""}","","../img/tt/020tt.jpg","",""
"null","../img/gs/020gs.jpg","null","reveal","image-keyboard-response","52","348341","0.0-6.0-4.6","2999905","co37954","norming","","","","","","",""
"null","../img/tt/020tt.jpg","null","mooney2","image-keyboard-response","53","350346","0.0-6.0-5.6","2999905","co37954","norming","","","","","","",""
"3339.070000000007","","","post_reveal_questions","survey-likert","54","353686","0.0-6.0-6.6","2999905","co37954","norming","","","{""aha"":4}","[0]","../img/tt/020tt.jpg","",""
"null","<div style=""font-size:60px;""> </div>","null","fixation","html-keyboard-response","55","353893","0.0-6.0-0.7","2999905","co37954","norming","","","","","","",""
"null","../img/tt/1239tt.jpg","null","mooney1","image-keyboard-response","56","356895","0.0-6.0-1.7","2999905","co37954","norming","","","","","","",""
"5078.355000000098","","","post_mooney1_questions","survey-likert","57","361974","0.0-6.0-2.7","2999905","co37954","norming","","","{""curiosity"":3,""confidence"":4}","[0,1]","../img/tt/1239tt.jpg","",""
"1574.0450000001001","","","recognition","survey-text","58","363550","0.0-6.0-3.7","2999905","co37954","norming","","","{""guess"":""hond""}","","../img/tt/1239tt.jpg","",""
"null","../img/gs/1239gs.jpg","null","reveal","image-keyboard-response","59","365558","0.0-6.0-4.7","2999905","co37954","norming","","","","","","",""
"null","../img/tt/1239tt.jpg","null","mooney2","image-keyboard-response","60","367566","0.0-6.0-5.7","2999905","co37954","norming","","","","","","",""
"5983.025000000023","","","post_reveal_questions","survey-likert","61","373550","0.0-6.0-6.7","2999905","co37954","norming","","","{""aha"":1}","[0]","../img/tt/1239tt.jpg","",""
"null","<div style=""font-size:60px;""> </div>","null","fixation","html-keyboard-response","62","373752","0.0-6.0-0.8","2999905","co37954","norming","","","","","","",""
"null","../img/tt/105tt.jpg","null","mooney1","image-keyboard-response","63","376761","0.0-6.0-1.8","2999905","co37954","norming","","","","","","",""
"5268.604999999981","","","post_mooney1_questions","survey-likert","64","382030","0.0-6.0-2.8","2999905","co37954","norming","","","{""curiosity"":5,""confidence"":1}","[0,1]","../img/tt/105tt.jpg","",""
"2414.2099999999045","","","recognition","survey-text","65","384448","0.0-6.0-3.8","2999905","co37954","norming","","","{""guess"":""rijst""}","","../img/tt/105tt.jpg","",""
"null","../img/gs/105gs.jpg","null","reveal","image-keyboard-response","66","386453","0.0-6.0-4.8","2999905","co37954","norming","","","","","","",""
"null","../img/tt/105tt.jpg","null","mooney2","image-keyboard-response","67","388456","0.0-6.0-5.8","2999905","co37954","norming","","","","","","",""
"5143.665000000037","","","post_reveal_questions","survey-likert","68","393600","0.0-6.0-6.8","2999905","co37954","norming","","","{""aha"":5}","[0]","../img/tt/105tt.jpg","",""
"null","<div style=""font-size:60px;""> </div>","null","fixation","html-keyboard-response","69","393804","0.0-6.0-0.9","2999905","co37954","norming","","","","","","",""
"null","../img/tt/1307tt.jpg","null","mooney1","image-keyboard-response","70","396805","0.0-6.0-1.9","2999905","co37954","norming","","","","","","",""
"7354.400000000198","","","post_mooney1_questions","survey-likert","71","404160","0.0-6.0-2.9","2999905","co37954","norming","","","{""curiosity"":4,""confidence"":2}","[0,1]","../img/tt/1307tt.jpg","",""
"2478.0600000001723","","","recognition","survey-text","72","406640","0.0-6.0-3.9","2999905","co37954","norming","","","{""guess"":""vliegtuig""}","","../img/tt/1307tt.jpg","",""
"null","../img/gs/1307gs.jpg","null","reveal","image-keyboard-response","73","408642","0.0-6.0-4.9","2999905","co37954","norming","","","","","","",""
"null","../img/tt/1307tt.jpg","null","mooney2","image-keyboard-response","74","410644","0.0-6.0-5.9","2999905","co37954","norming","","","","","","",""
"6747.110000000044","","","post_reveal_questions","survey-likert","75","417392","0.0-6.0-6.9","2999905","co37954","norming","","","{""aha"":5}","[0]","../img/tt/1307tt.jpg","",""
"null","<div style=""font-size:60px;""> </div>","null","fixation","html-keyboard-response","76","417595","0.0-6.0-0.10","2999905","co37954","norming","","","","","","",""
"null","../img/tt/1066tt.jpg","null","mooney1","image-keyboard-response","77","420598","0.0-6.0-1.10","2999905","co37954","norming","","","","","","",""
"5825.939999999944","","","post_mooney1_questions","survey-likert","78","426424","0.0-6.0-2.10","2999905","co37954","norming","","","{""curiosity"":5,""confidence"":1}","[0,1]","../img/tt/1066tt.jpg","",""
"3238.024999999907","","","recognition","survey-text","79","429664","0.0-6.0-3.10","2999905","co37954","norming","","","{""guess"":""tankstation ""}","","../img/tt/1066tt.jpg","",""
"null","../img/gs/1066gs.jpg","null","reveal","image-keyboard-response","80","431675","0.0-6.0-4.10","2999905","co37954","norming","","","","","","",""
"null","../img/tt/1066tt.jpg","null","mooney2","image-keyboard-response","81","433685","0.0-6.0-5.10","2999905","co37954","norming","","","","","","",""
"4154.204999999842","","","post_reveal_questions","survey-likert","82","437840","0.0-6.0-6.10","2999905","co37954","norming","","","{""aha"":4}","[0]","../img/tt/1066tt.jpg","",""
"null","<div style=""font-size:60px;""> </div>","null","fixation","html-keyboard-response","83","438041","0.0-6.0-0.11","2999905","co37954","norming","","","","","","",""
"null","../img/tt/010tt.jpg","null","mooney1","image-keyboard-response","84","441049","0.0-6.0-1.11","2999905","co37954","norming","","","","","","",""
"4806.7249999999185","","","post_mooney1_questions","survey-likert","85","445860","0.0-6.0-2.11","2999905","co37954","norming","","","{""curiosity"":5,""confidence"":0}","[0,1]","../img/tt/010tt.jpg","",""
"2542.179999999935","","","recognition","survey-text","86","448404","0.0-6.0-3.11","2999905","co37954","norming","","","{""guess"":""vis""}","","../img/tt/010tt.jpg","",""
"null","../img/gs/010gs.jpg","null","reveal","image-keyboard-response","87","450414","0.0-6.0-4.11","2999905","co37954","norming","","","","","","",""
"null","../img/tt/010tt.jpg","null","mooney2","image-keyboard-response","88","452416","0.0-6.0-5.11","2999905","co37954","norming","","","","","","",""
"4170.810000000114","","","post_reveal_questions","survey-likert","89","456588","0.0-6.0-6.11","2999905","co37954","norming","","","{""aha"":5}","[0]","../img/tt/010tt.jpg","",""
"null","<div style=""font-size:60px;""> </div>","null","fixation","html-keyboard-response","90","456792","0.0-6.0-0.12","2999905","co37954","norming","","","","","","",""
"null","../img/tt/1272tt.jpg","null","mooney1","image-keyboard-response","91","459800","0.0-6.0-1.12","2999905","co37954","norming","","","","","","",""
"4779.035000000033","","","post_mooney1_questions","survey-likert","92","464580","0.0-6.0-2.12","2999905","co37954","norming","","","{""curiosity"":5,""confidence"":0}","[0,1]","../img/tt/1272tt.jpg","",""
"3358.070000000007","","","recognition","survey-text","93","467940","0.0-6.0-3.12","2999905","co37954","norming","","","{""guess"":""wafel""}","","../img/tt/1272tt.jpg","",""
"null","../img/gs/1272gs.jpg","null","reveal","image-keyboard-response","94","469950","0.0-6.0-4.12","2999905","co37954","norming","","","","","","",""
"null","../img/tt/1272tt.jpg","null","mooney2","image-keyboard-response","95","471952","0.0-6.0-5.12","2999905","co37954","norming","","","","","","",""
"4739.090000000026","","","post_reveal_questions","survey-likert","96","476692","0.0-6.0-6.12","2999905","co37954","norming","","","{""aha"":6}","[0]","../img/tt/1272tt.jpg","",""
"null","<div style=""font-size:60px;""> </div>","null","fixation","html-keyboard-response","97","476903","0.0-6.0-0.13","2999905","co37954","norming","","","","","","",""
"null","../img/tt/1276tt.jpg","null","mooney1","image-keyboard-response","98","479909","0.0-6.0-1.13","2999905","co37954","norming","","","","","","",""
"4950.770000000135","","","post_mooney1_questions","survey-likert","99","484861","0.0-6.0-2.13","2999905","co37954","norming","","","{""curiosity"":6,""confidence"":0}","[0,1]","../img/tt/1276tt.jpg","",""
"5341.969999999972","","","recognition","survey-text","100","490204","0.0-6.0-3.13","2999905","co37954","norming","","","{""guess"":""dier""}","","../img/tt/1276tt.jpg","",""
"null","../img/gs/1276gs.jpg","null","reveal","image-keyboard-response","101","492206","0.0-6.0-4.13","2999905","co37954","norming","","","","","","",""
"null","../img/tt/1276tt.jpg","null","mooney2","image-keyboard-response","102","494211","0.0-6.0-5.13","2999905","co37954","norming","","","","","","",""
"3928.4950000001118","","","post_reveal_questions","survey-likert","103","498140","0.0-6.0-6.13","2999905","co37954","norming","","","{""aha"":5}","[0]","../img/tt/1276tt.jpg","",""
"null","<div style=""font-size:60px;""> </div>","null","fixation","html-keyboard-response","104","498341","0.0-6.0-0.14","2999905","co37954","norming","","","","","","",""
"null","../img/tt/076tt.jpg","null","mooney1","image-keyboard-response","105","501351","0.0-6.0-1.14","2999905","co37954","norming","","","","","","",""
"5092.820000000065","","","post_mooney1_questions","survey-likert","106","506448","0.0-6.0-2.14","2999905","co37954","norming","","","{""curiosity"":4,""confidence"":2}","[0,1]","../img/tt/076tt.jpg","",""
"3525.984999999986","","","recognition","survey-text","107","509975","0.0-6.0-3.14","2999905","co37954","norming","","","{""guess"":""rollerskates""}","","../img/tt/076tt.jpg","",""
"null","../img/gs/076gs.jpg","null","reveal","image-keyboard-response","108","511979","0.0-6.0-4.14","2999905","co37954","norming","","","","","","",""
"null","../img/tt/076tt.jpg","null","mooney2","image-keyboard-response","109","513982","0.0-6.0-5.14","2999905","co37954","norming","","","","","","",""
"4305.039999999979","","","post_reveal_questions","survey-likert","110","518288","0.0-6.0-6.14","2999905","co37954","norming","","","{""aha"":4}","[0]","../img/tt/076tt.jpg","",""
"null","<div style=""font-size:60px;""> </div>","null","fixation","html-keyboard-response","111","518497","0.0-6.0-0.15","2999905","co37954","norming","","","","","","",""
"null","../img/tt/456tt.jpg","null","mooney1","image-keyboard-response","112","521499","0.0-6.0-1.15","2999905","co37954","norming","","","","","","",""
"9091.854999999865","","","post_mooney1_questions","survey-likert","113","530592","0.0-6.0-2.15","2999905","co37954","norming","","","{""curiosity"":4,""confidence"":4}","[0,1]","../img/tt/456tt.jpg","",""
"1685.9749999998603","","","recognition","survey-text","114","532279","0.0-6.0-3.15","2999905","co37954","norming","","","{""guess"":""hond""}","","../img/tt/456tt.jpg","",""
"null","../img/gs/456gs.jpg","null","reveal","image-keyboard-response","115","534284","0.0-6.0-4.15","2999905","co37954","norming","","","","","","",""
"null","../img/tt/456tt.jpg","null","mooney2","image-keyboard-response","116","536288","0.0-6.0-5.15","2999905","co37954","norming","","","","","","",""
"3886.25","","","post_reveal_questions","survey-likert","117","540176","0.0-6.0-6.15","2999905","co37954","norming","","","{""aha"":6}","[0]","../img/tt/456tt.jpg","",""
"null","<div style=""font-size:60px;""> </div>","null","fixation","html-keyboard-response","118","540386","0.0-6.0-0.16","2999905","co37954","norming","","","","","","",""
"null","../img/tt/315tt.jpg","null","mooney1","image-keyboard-response","119","543391","0.0-6.0-1.16","2999905","co37954","norming","","","","","","",""
"4775.015000000014","","","post_mooney1_questions","survey-likert","120","548168","0.0-6.0-2.16","2999905","co37954","norming","","","{""curiosity"":2,""confidence"":4}","[0,1]","../img/tt/315tt.jpg","",""
"1789.7249999998603","","","recognition","survey-text","121","549959","0.0-6.0-3.16","2999905","co37954","norming","","","{""guess"":""kip""}","","../img/tt/315tt.jpg","",""
"null","../img/gs/315gs.jpg","null","reveal","image-keyboard-response","122","551968","0.0-6.0-4.16","2999905","co37954","norming","","","","","","",""
"null","../img/tt/315tt.jpg","null","mooney2","image-keyboard-response","123","553972","0.0-6.0-5.16","2999905","co37954","norming","","","","","","",""
"2546.75","","","post_reveal_questions","survey-likert","124","556520","0.0-6.0-6.16","2999905","co37954","norming","","","{""aha"":6}","[0]","../img/tt/315tt.jpg","",""
"null","<div style=""font-size:60px;""> </div>","null","fixation","html-keyboard-response","125","556729","0.0-6.0-0.17","2999905","co37954","norming","","","","","","",""
"null","../img/tt/559tt.jpg","null","mooney1","image-keyboard-response","126","559735","0.0-6.0-1.17","2999905","co37954","norming","","","","","","",""
"5455.905000000028","","","post_mooney1_questions","survey-likert","127","565190","0.0-6.0-2.17","2999905","co37954","norming","","","{""curiosity"":3,""confidence"":2}","[0,1]","../img/tt/559tt.jpg","",""
"1582.1049999999814","","","recognition","survey-text","128","566774","0.0-6.0-3.17","2999905","co37954","norming","","","{""guess"":""auto""}","","../img/tt/559tt.jpg","",""
"null","../img/gs/559gs.jpg","null","reveal","image-keyboard-response","129","568784","0.0-6.0-4.17","2999905","co37954","norming","","","","","","",""
"null","../img/tt/559tt.jpg","null","mooney2","image-keyboard-response","130","570786","0.0-6.0-5.17","2999905","co37954","norming","","","","","","",""
"2715.454999999958","","","post_reveal_questions","survey-likert","131","573502","0.0-6.0-6.17","2999905","co37954","norming","","","{""aha"":6}","[0]","../img/tt/559tt.jpg","",""
"null","<div style=""font-size:60px;""> </div>","null","fixation","html-keyboard-response","132","573708","0.0-6.0-0.18","2999905","co37954","norming","","","","","","",""
"null","../img/tt/517tt.jpg","null","mooney1","image-keyboard-response","133","576709","0.0-6.0-1.18","2999905","co37954","norming","","","","","","",""
"6009.189999999944","","","post_mooney1_questions","survey-likert","134","582719","0.0-6.0-2.18","2999905","co37954","norming","","","{""curiosity"":4,""confidence"":4}","[0,1]","../img/tt/517tt.jpg","",""
"2582.144999999902","","","recognition","survey-text","135","585303","0.0-6.0-3.18","2999905","co37954","norming","","","{""guess"":""big""}","","../img/tt/517tt.jpg","",""
"null","../img/gs/517gs.jpg","null","reveal","image-keyboard-response","136","587310","0.0-6.0-4.18","2999905","co37954","norming","","","","","","",""
"null","../img/tt/517tt.jpg","null","mooney2","image-keyboard-response","137","589314","0.0-6.0-5.18","2999905","co37954","norming","","","","","","",""
"2426.9950000001118","","","post_reveal_questions","survey-likert","138","591742","0.0-6.0-6.18","2999905","co37954","norming","","","{""aha"":6}","[0]","../img/tt/517tt.jpg","",""
"null","<div style=""font-size:60px;""> </div>","null","fixation","html-keyboard-response","139","591949","0.0-6.0-0.19","2999905","co37954","norming","","","","","","",""
"null","../img/tt/406tt.jpg","null","mooney1","image-keyboard-response","140","594959","0.0-6.0-1.19","2999905","co37954","norming","","","","","","",""
"4438.394999999902","","","post_mooney1_questions","survey-likert","141","599399","0.0-6.0-2.19","2999905","co37954","norming","","","{""curiosity"":6,""confidence"":0}","[0,1]","../img/tt/406tt.jpg","",""
"1758.169999999809","","","recognition","survey-text","142","601159","0.0-6.0-3.19","2999905","co37954","norming","","","{""guess"":""tru""}","","../img/tt/406tt.jpg","",""
"null","../img/gs/406gs.jpg","null","reveal","image-keyboard-response","143","603168","0.0-6.0-4.19","2999905","co37954","norming","","","","","","",""
"null","../img/tt/406tt.jpg","null","mooney2","image-keyboard-response","144","605169","0.0-6.0-5.19","2999905","co37954","norming","","","","","","",""
"2820.1149999999907","","","post_reveal_questions","survey-likert","145","607990","0.0-6.0-6.19","2999905","co37954","norming","","","{""aha"":6}","[0]","../img/tt/406tt.jpg","",""
"null","<div style=""font-size:60px;""> </div>","null","fixation","html-keyboard-response","146","608193","0.0-6.0-0.20","2999905","co37954","norming","","","","","","",""
"null","../img/tt/1190tt.jpg","null","mooney1","image-keyboard-response","147","611201","0.0-6.0-1.20","2999905","co37954","norming","","","","","","",""
"6316.4400000000605","","","post_mooney1_questions","survey-likert","148","617518","0.0-6.0-2.20","2999905","co37954","norming","","","{""curiosity"":5,""confidence"":1}","[0,1]","../img/tt/1190tt.jpg","",""
"2214.1600000000326","","","recognition","survey-text","149","619734","0.0-6.0-3.20","2999905","co37954","norming","","","{""guess"":""persoon""}","","../img/tt/1190tt.jpg","",""
"null","../img/gs/1190gs.jpg","null","reveal","image-keyboard-response","150","621742","0.0-6.0-4.20","2999905","co37954","norming","","","","","","",""
"null","../img/tt/1190tt.jpg","null","mooney2","image-keyboard-response","151","623743","0.0-6.0-5.20","2999905","co37954","norming","","","","","","",""
"3382.6350000001257","","","post_reveal_questions","survey-likert","152","627127","0.0-6.0-6.20","2999905","co37954","norming","","","{""aha"":4}","[0]","../img/tt/1190tt.jpg","",""
"null","<div style=""font-size:60px;""> </div>","null","fixation","html-keyboard-response","153","627329","0.0-6.0-0.21","2999905","co37954","norming","","","","","","",""
"null","../img/tt/567tt.jpg","null","mooney1","image-keyboard-response","154","630333","0.0-6.0-1.21","2999905","co37954","norming","","","","","","",""
"8568.619999999995","","","post_mooney1_questions","survey-likert","155","638903","0.0-6.0-2.21","2999905","co37954","norming","","","{""curiosity"":5,""confidence"":1}","[0,1]","../img/tt/567tt.jpg","",""
"2765.9999999998836","","","recognition","survey-text","156","641671","0.0-6.0-3.21","2999905","co37954","norming","","","{""guess"":""raam""}","","../img/tt/567tt.jpg","",""
"null","../img/gs/567gs.jpg","null","reveal","image-keyboard-response","157","643676","0.0-6.0-4.21","2999905","co37954","norming","","","","","","",""
"null","../img/tt/567tt.jpg","null","mooney2","image-keyboard-response","158","645686","0.0-6.0-5.21","2999905","co37954","norming","","","","","","",""
"2823.6699999999255","","","post_reveal_questions","survey-likert","159","648511","0.0-6.0-6.21","2999905","co37954","norming","","","{""aha"":6}","[0]","../img/tt/567tt.jpg","",""
"null","<div style=""font-size:60px;""> </div>","null","fixation","html-keyboard-response","160","648716","0.0-6.0-0.22","2999905","co37954","norming","","","","","","",""
"null","../img/tt/053tt.jpg","null","mooney1","image-keyboard-response","161","651720","0.0-6.0-1.22","2999905","co37954","norming","","","","","","",""
"6181.730000000098","","","post_mooney1_questions","survey-likert","162","657903","0.0-6.0-2.22","2999905","co37954","norming","","","{""curiosity"":2,""confidence"":4}","[0,1]","../img/tt/053tt.jpg","",""
"2853.335000000079","","","recognition","survey-text","163","660759","0.0-6.0-3.22","2999905","co37954","norming","","","{""guess"":""kajakken ""}","","../img/tt/053tt.jpg","",""
"null","../img/gs/053gs.jpg","null","reveal","image-keyboard-response","164","662767","0.0-6.0-4.22","2999905","co37954","norming","","","","","","",""
"null","../img/tt/053tt.jpg","null","mooney2","image-keyboard-response","165","664773","0.0-6.0-5.22","2999905","co37954","norming","","","","","","",""
"2520.6450000000186","","","post_reveal_questions","survey-likert","166","667295","0.0-6.0-6.22","2999905","co37954","norming","","","{""aha"":2}","[0]","../img/tt/053tt.jpg","",""
"null","<div style=""font-size:60px;""> </div>","null","fixation","html-keyboard-response","167","667502","0.0-6.0-0.23","2999905","co37954","norming","","","","","","",""
"null","../img/tt/085tt.jpg","null","mooney1","image-keyboard-response","168","670508","0.0-6.0-1.23","2999905","co37954","norming","","","","","","",""
"5370.314999999828","","","post_mooney1_questions","survey-likert","169","675879","0.0-6.0-2.23","2999905","co37954","norming","","","{""curiosity"":3,""confidence"":3}","[0,1]","../img/tt/085tt.jpg","",""
"3293.7000000001863","","","recognition","survey-text","170","679175","0.0-6.0-3.23","2999905","co37954","norming","","","{""guess"":""gitaar""}","","../img/tt/085tt.jpg","",""
"null","../img/gs/085gs.jpg","null","reveal","image-keyboard-response","171","681181","0.0-6.0-4.23","2999905","co37954","norming","","","","","","",""
"null","../img/tt/085tt.jpg","null","mooney2","image-keyboard-response","172","683190","0.0-6.0-5.23","2999905","co37954","norming","","","","","","",""
"3143.7550000000047","","","post_reveal_questions","survey-likert","173","686335","0.0-6.0-6.23","2999905","co37954","norming","","","{""aha"":6}","[0]","../img/tt/085tt.jpg","",""
"null","<div style=""font-size:60px;""> </div>","null","fixation","html-keyboard-response","174","686537","0.0-6.0-0.24","2999905","co37954","norming","","","","","","",""
"null","../img/tt/580tt.jpg","null","mooney1","image-keyboard-response","175","689540","0.0-6.0-1.24","2999905","co37954","norming","","","","","","",""
"4586.770000000135","","","post_mooney1_questions","survey-likert","176","694128","0.0-6.0-2.24","2999905","co37954","norming","","","{""curiosity"":5,""confidence"":1}","[0,1]","../img/tt/580tt.jpg","",""
"14454.120000000112","","","recognition","survey-text","177","708584","0.0-6.0-3.24","2999905","co37954","norming","","","{""guess"":""insect""}","","../img/tt/580tt.jpg","",""
"null","../img/gs/580gs.jpg","null","reveal","image-keyboard-response","178","710592","0.0-6.0-4.24","2999905","co37954","norming","","","","","","",""
"null","../img/tt/580tt.jpg","null","mooney2","image-keyboard-response","179","712595","0.0-6.0-5.24","2999905","co37954","norming","","","","","","",""
"2706.630000000121","","","post_reveal_questions","survey-likert","180","715303","0.0-6.0-6.24","2999905","co37954","norming","","","{""aha"":6}","[0]","../img/tt/580tt.jpg","",""
"null","<div style=""font-size:60px;""> </div>","null","fixation","html-keyboard-response","181","715509","0.0-6.0-0.25","2999905","co37954","norming","","","","","","",""
"null","../img/tt/096tt.jpg","null","mooney1","image-keyboard-response","182","718517","0.0-6.0-1.25","2999905","co37954","norming","","","","","","",""
"8513.079999999958","","","post_mooney1_questions","survey-likert","183","727031","0.0-6.0-2.25","2999905","co37954","norming","","","{""curiosity"":2,""confidence"":5}","[0,1]","../img/tt/096tt.jpg","",""
"1806.0399999999208","","","recognition","survey-text","184","728839","0.0-6.0-3.25","2999905","co37954","norming","","","{""guess"":""piano""}","","../img/tt/096tt.jpg","",""
"null","../img/gs/096gs.jpg","null","reveal","image-keyboard-response","185","730844","0.0-6.0-4.25","2999905","co37954","norming","","","","","","",""
"null","../img/tt/096tt.jpg","null","mooney2","image-keyboard-response","186","732845","0.0-6.0-5.25","2999905","co37954","norming","","","","","","",""
"3441.105000000098","","","post_reveal_questions","survey-likert","187","736287","0.0-6.0-6.25","2999905","co37954","norming","","","{""aha"":1}","[0]","../img/tt/096tt.jpg","",""
"null","<div style=""font-size:60px;""> </div>","null","fixation","html-keyboard-response","188","736493","0.0-6.0-0.26","2999905","co37954","norming","","","","","","",""
"null","../img/tt/1072tt.jpg","null","mooney1","image-keyboard-response","189","739502","0.0-6.0-1.26","2999905","co37954","norming","","","","","","",""
"3760.6900000000605","","","post_mooney1_questions","survey-likert","190","743263","0.0-6.0-2.26","2999905","co37954","norming","","","{""curiosity"":5,""confidence"":1}","[0,1]","../img/tt/1072tt.jpg","",""
"3026.9599999999627","","","recognition","survey-text","191","746295","0.0-6.0-3.26","2999905","co37954","norming","","","{""guess"":""voetpad""}","","../img/tt/1072tt.jpg","",""
"null","../img/gs/1072gs.jpg","null","reveal","image-keyboard-response","192","748302","0.0-6.0-4.26","2999905","co37954","norming","","","","","","",""
"null","../img/tt/1072tt.jpg","null","mooney2","image-keyboard-response","193","750305","0.0-6.0-5.26","2999905","co37954","norming","","","","","","",""
"3101.0100000000093","","","post_reveal_questions","survey-likert","194","753407","0.0-6.0-6.26","2999905","co37954","norming","","","{""aha"":5}","[0]","../img/tt/1072tt.jpg","",""
"null","<div style=""font-size:60px;""> </div>","null","fixation","html-keyboard-response","195","753614","0.0-6.0-0.27","2999905","co37954","norming","","","","","","",""
"null","../img/tt/438tt.jpg","null","mooney1","image-keyboard-response","196","756618","0.0-6.0-1.27","2999905","co37954","norming","","","","","","",""
"6884.624999999884","","","post_mooney1_questions","survey-likert","197","763503","0.0-6.0-2.27","2999905","co37954","norming","","","{""curiosity"":5,""confidence"":1}","[0,1]","../img/tt/438tt.jpg","",""
"4741.814999999828","","","recognition","survey-text","198","768247","0.0-6.0-3.27","2999905","co37954","norming","","","{""guess"":""instrument""}","","../img/tt/438tt.jpg","",""
"null","../img/gs/438gs.jpg","null","reveal","image-keyboard-response","199","770252","0.0-6.0-4.27","2999905","co37954","norming","","","","","","",""
"null","../img/tt/438tt.jpg","null","mooney2","image-keyboard-response","200","772262","0.0-6.0-5.27","2999905","co37954","norming","","","","","","",""
"2416.25","","","post_reveal_questions","survey-likert","201","774679","0.0-6.0-6.27","2999905","co37954","norming","","","{""aha"":6}","[0]","../img/tt/438tt.jpg","",""
"null","<div style=""font-size:60px;""> </div>","null","fixation","html-keyboard-response","202","774881","0.0-6.0-0.28","2999905","co37954","norming","","","","","","",""
"null","../img/tt/1269tt.jpg","null","mooney1","image-keyboard-response","203","777884","0.0-6.0-1.28","2999905","co37954","norming","","","","","","",""
"5274.020000000135","","","post_mooney1_questions","survey-likert","204","783159","0.0-6.0-2.28","2999905","co37954","norming","","","{""curiosity"":3,""confidence"":3}","[0,1]","../img/tt/1269tt.jpg","",""
"2606.2399999999907","","","recognition","survey-text","205","785767","0.0-6.0-3.28","2999905","co37954","norming","","","{""guess"":""varken ""}","","../img/tt/1269tt.jpg","",""
"null","../img/gs/1269gs.jpg","null","reveal","image-keyboard-response","206","787777","0.0-6.0-4.28","2999905","co37954","norming","","","","","","",""
"null","../img/tt/1269tt.jpg","null","mooney2","image-keyboard-response","207","789788","0.0-6.0-5.28","2999905","co37954","norming","","","","","","",""
"5162.640000000014","","","post_reveal_questions","survey-likert","208","794951","0.0-6.0-6.28","2999905","co37954","norming","","","{""aha"":6}","[0]","../img/tt/1269tt.jpg","",""
"null","<div style=""font-size:60px;""> </div>","null","fixation","html-keyboard-response","209","795161","0.0-6.0-0.29","2999905","co37954","norming","","","","","","",""
"null","../img/tt/063tt.jpg","null","mooney1","image-keyboard-response","210","798169","0.0-6.0-1.29","2999905","co37954","norming","","","","","","",""
"4564.715000000084","","","post_mooney1_questions","survey-likert","211","802735","0.0-6.0-2.29","2999905","co37954","norming","","","{""curiosity"":1,""confidence"":4}","[0,1]","../img/tt/063tt.jpg","",""
"4806.055000000051","","","recognition","survey-text","212","807543","0.0-6.0-3.29","2999905","co37954","norming","","","{""guess"":""accordeon""}","","../img/tt/063tt.jpg","",""
"null","../img/gs/063gs.jpg","null","reveal","image-keyboard-response","213","809547","0.0-6.0-4.29","2999905","co37954","norming","","","","","","",""
"null","../img/tt/063tt.jpg","null","mooney2","image-keyboard-response","214","811549","0.0-6.0-5.29","2999905","co37954","norming","","","","","","",""
"1745.7600000000093","","","post_reveal_questions","survey-likert","215","813295","0.0-6.0-6.29","2999905","co37954","norming","","","{""aha"":1}","[0]","../img/tt/063tt.jpg","",""
"null","<div style=""font-size:60px;""> </div>","null","fixation","html-keyboard-response","216","813497","0.0-6.0-0.30","2999905","co37954","norming","","","","","","",""
"null","../img/tt/1097tt.jpg","null","mooney1","image-keyboard-response","217","816504","0.0-6.0-1.30","2999905","co37954","norming","","","","","","",""
"5437.859999999986","","","post_mooney1_questions","survey-likert","218","821943","0.0-6.0-2.30","2999905","co37954","norming","","","{""curiosity"":2,""confidence"":2}","[0,1]","../img/tt/1097tt.jpg","",""
"1486.454999999958","","","recognition","survey-text","219","823432","0.0-6.0-3.30","2999905","co37954","norming","","","{""guess"":""boer""}","","../img/tt/1097tt.jpg","",""
"null","../img/gs/1097gs.jpg","null","reveal","image-keyboard-response","220","825440","0.0-6.0-4.30","2999905","co37954","norming","","","","","","",""
"null","../img/tt/1097tt.jpg","null","mooney2","image-keyboard-response","221","827450","0.0-6.0-5.30","2999905","co37954","norming","","","","","","",""
"2084.5549999998184","","","post_reveal_questions","survey-likert","222","829535","0.0-6.0-6.30","2999905","co37954","norming","","","{""aha"":6}","[0]","../img/tt/1097tt.jpg","",""
"null","<div style=""font-size:60px;""> </div>","null","fixation","html-keyboard-response","223","829745","0.0-6.0-0.31","2999905","co37954","norming","","","","","","",""
"null","../img/tt/1142tt.jpg","null","mooney1","image-keyboard-response","224","832747","0.0-6.0-1.31","2999905","co37954","norming","","","","","","",""
"4691.244999999995","","","post_mooney1_questions","survey-likert","225","837439","0.0-6.0-2.31","2999905","co37954","norming","","","{""curiosity"":2,""confidence"":5}","[0,1]","../img/tt/1142tt.jpg","",""
"2949.9949999999953","","","recognition","survey-text","226","840391","0.0-6.0-3.31","2999905","co37954","norming","","","{""guess"":""tennis""}","","../img/tt/1142tt.jpg","",""
"null","../img/gs/1142gs.jpg","null","reveal","image-keyboard-response","227","842396","0.0-6.0-4.31","2999905","co37954","norming","","","","","","",""
"null","../img/tt/1142tt.jpg","null","mooney2","image-keyboard-response","228","844406","0.0-6.0-5.31","2999905","co37954","norming","","","","","","",""
"2199.8799999998882","","","post_reveal_questions","survey-likert","229","846607","0.0-6.0-6.31","2999905","co37954","norming","","","{""aha"":5}","[0]","../img/tt/1142tt.jpg","",""
"null","<div style=""font-size:60px;""> </div>","null","fixation","html-keyboard-response","230","846809","0.0-6.0-0.32","2999905","co37954","norming","","","","","","",""
"null","../img/tt/598tt.jpg","null","mooney1","image-keyboard-response","231","849819","0.0-6.0-1.32","2999905","co37954","norming","","","","","","",""
"4490.755000000005","","","post_mooney1_questions","survey-likert","232","854311","0.0-6.0-2.32","2999905","co37954","norming","","","{""curiosity"":5,""confidence"":1}","[0,1]","../img/tt/598tt.jpg","",""
"2077.804999999935","","","recognition","survey-text","233","856391","0.0-6.0-3.32","2999905","co37954","norming","","","{""guess"":""paard""}","","../img/tt/598tt.jpg","",""
"null","../img/gs/598gs.jpg","null","reveal","image-keyboard-response","234","858394","0.0-6.0-4.32","2999905","co37954","norming","","","","","","",""
"null","../img/tt/598tt.jpg","null","mooney2","image-keyboard-response","235","860403","0.0-6.0-5.32","2999905","co37954","norming","","","","","","",""
"2011.6599999999162","","","post_reveal_questions","survey-likert","236","862415","0.0-6.0-6.32","2999905","co37954","norming","","","{""aha"":6}","[0]","../img/tt/598tt.jpg","",""
"null","<div style=""font-size:60px;""> </div>","null","fixation","html-keyboard-response","237","862623","0.0-6.0-0.33","2999905","co37954","norming","","","","","","",""
"null","../img/tt/1232tt.jpg","null","mooney1","image-keyboard-response","238","865627","0.0-6.0-1.33","2999905","co37954","norming","","","","","","",""
"7539.635000000126","","","post_mooney1_questions","survey-likert","239","873162","0.0-6.0-2.33","2999905","co37954","norming","","","{""curiosity"":5,""confidence"":2}","[0,1]","../img/tt/1232tt.jpg","",""
"3814.069999999949","","","recognition","survey-text","240","876978","0.0-6.0-3.33","2999905","co37954","norming","","","{""guess"":""windsurfen ""}","","../img/tt/1232tt.jpg","",""
"null","../img/gs/1232gs.jpg","null","reveal","image-keyboard-response","241","878986","0.0-6.0-4.33","2999905","co37954","norming","","","","","","",""
"null","../img/tt/1232tt.jpg","null","mooney2","image-keyboard-response","242","880989","0.0-6.0-5.33","2999905","co37954","norming","","","","","","",""
"2819.7750000000233","","","post_reveal_questions","survey-likert","243","883810","0.0-6.0-6.33","2999905","co37954","norming","","","{""aha"":6}","[0]","../img/tt/1232tt.jpg","",""
"null","<div style=""font-size:60px;""> </div>","null","fixation","html-keyboard-response","244","884021","0.0-6.0-0.34","2999905","co37954","norming","","","","","","",""
"null","../img/tt/044tt.jpg","null","mooney1","image-keyboard-response","245","887022","0.0-6.0-1.34","2999905","co37954","norming","","","","","","",""
"6370.929999999935","","","post_mooney1_questions","survey-likert","246","893394","0.0-6.0-2.34","2999905","co37954","norming","","","{""curiosity"":4,""confidence"":3}","[0,1]","../img/tt/044tt.jpg","",""
"2990.015000000014","","","recognition","survey-text","247","896386","0.0-6.0-3.34","2999905","co37954","norming","","","{""guess"":""piano""}","","../img/tt/044tt.jpg","",""
"null","../img/gs/044gs.jpg","null","reveal","image-keyboard-response","248","898395","0.0-6.0-4.34","2999905","co37954","norming","","","","","","",""
"null","../img/tt/044tt.jpg","null","mooney2","image-keyboard-response","249","900399","0.0-6.0-5.34","2999905","co37954","norming","","","","","","",""
"3314.030000000028","","","post_reveal_questions","survey-likert","250","903714","0.0-6.0-6.34","2999905","co37954","norming","","","{""aha"":6}","[0]","../img/tt/044tt.jpg","",""
"null","<div style=""font-size:60px;""> </div>","null","fixation","html-keyboard-response","251","903923","0.0-6.0-0.35","2999905","co37954","norming","","","","","","",""
"null","../img/tt/001tt.jpg","null","mooney1","image-keyboard-response","252","906932","0.0-6.0-1.35","2999905","co37954","norming","","","","","","",""
"4628.5","","","post_mooney1_questions","survey-likert","253","911562","0.0-6.0-2.35","2999905","co37954","norming","","","{""curiosity"":5,""confidence"":2}","[0,1]","../img/tt/001tt.jpg","",""
"1125.8700000001118","","","recognition","survey-text","254","912690","0.0-6.0-3.35","2999905","co37954","norming","","","{""guess"":""koe""}","","../img/tt/001tt.jpg","",""
"null","../img/gs/001gs.jpg","null","reveal","image-keyboard-response","255","914695","0.0-6.0-4.35","2999905","co37954","norming","","","","","","",""
"null","../img/tt/001tt.jpg","null","mooney2","image-keyboard-response","256","916698","0.0-6.0-5.35","2999905","co37954","norming","","","","","","",""
"2503.1500000000233","","","post_reveal_questions","survey-likert","257","919202","0.0-6.0-6.35","2999905","co37954","norming","","","{""aha"":6}","[0]","../img/tt/001tt.jpg","",""
"null","<div style=""font-size:60px;""> </div>","null","fixation","html-keyboard-response","258","919412","0.0-6.0-0.36","2999905","co37954","norming","","","","","","",""
"null","../img/tt/094tt.jpg","null","mooney1","image-keyboard-response","259","922413","0.0-6.0-1.36","2999905","co37954","norming","","","","","","",""
"4139.859999999986","","","post_mooney1_questions","survey-likert","260","926554","0.0-6.0-2.36","2999905","co37954","norming","","","{""curiosity"":6,""confidence"":1}","[0,1]","../img/tt/094tt.jpg","",""
"1237.6899999999441","","","recognition","survey-text","261","927794","0.0-6.0-3.36","2999905","co37954","norming","","","{""guess"":""koe""}","","../img/tt/094tt.jpg","",""
"null","../img/gs/094gs.jpg","null","reveal","image-keyboard-response","262","929798","0.0-6.0-4.36","2999905","co37954","norming","","","","","","",""
"null","../img/tt/094tt.jpg","null","mooney2","image-keyboard-response","263","931811","0.0-6.0-5.36","2999905","co37954","norming","","","","","","",""
"2892.17499999993","","","post_reveal_questions","survey-likert","264","934704","0.0-6.0-6.36","2999905","co37954","norming","","","{""aha"":5}","[0]","../img/tt/094tt.jpg","",""
"null","<div style=""font-size:60px;""> </div>","null","fixation","html-keyboard-response","265","934906","0.0-6.0-0.37","2999905","co37954","norming","","","","","","",""
"null","../img/tt/522tt.jpg","null","mooney1","image-keyboard-response","266","937915","0.0-6.0-1.37","2999905","co37954","norming","","","","","","",""
"8355.13500000001","","","post_mooney1_questions","survey-likert","267","946272","0.0-6.0-2.37","2999905","co37954","norming","","","{""curiosity"":5,""confidence"":2}","[0,1]","../img/tt/522tt.jpg","",""
"3894.455000000191","","","recognition","survey-text","268","950168","0.0-6.0-3.37","2999905","co37954","norming","","","{""guess"":""persoon ""}","","../img/tt/522tt.jpg","",""
"null","../img/gs/522gs.jpg","null","reveal","image-keyboard-response","269","952169","0.0-6.0-4.37","2999905","co37954","norming","","","","","","",""
"null","../img/tt/522tt.jpg","null","mooney2","image-keyboard-response","270","954175","0.0-6.0-5.37","2999905","co37954","norming","","","","","","",""
"3871.2350000001024","","","post_reveal_questions","survey-likert","271","958047","0.0-6.0-6.37","2999905","co37954","norming","","","{""aha"":6}","[0]","../img/tt/522tt.jpg","",""
"null","<div style=""font-size:60px;""> </div>","null","fixation","html-keyboard-response","272","958256","0.0-6.0-0.38","2999905","co37954","norming","","","","","","",""
"null","../img/tt/013tt.jpg","null","mooney1","image-keyboard-response","273","961263","0.0-6.0-1.38","2999905","co37954","norming","","","","","","",""
"4158.510000000009","","","post_mooney1_questions","survey-likert","274","965424","0.0-6.0-2.38","2999905","co37954","norming","","","{""curiosity"":6,""confidence"":0}","[0,1]","../img/tt/013tt.jpg","",""
"2358.185000000056","","","recognition","survey-text","275","967783","0.0-6.0-3.38","2999905","co37954","norming","","","{""guess"":""berg""}","","../img/tt/013tt.jpg","",""
"null","../img/gs/013gs.jpg","null","reveal","image-keyboard-response","276","969789","0.0-6.0-4.38","2999905","co37954","norming","","","","","","",""
"null","../img/tt/013tt.jpg","null","mooney2","image-keyboard-response","277","971791","0.0-6.0-5.38","2999905","co37954","norming","","","","","","",""
"1591.5199999999022","","","post_reveal_questions","survey-likert","278","973384","0.0-6.0-6.38","2999905","co37954","norming","","","{""aha"":5}","[0]","../img/tt/013tt.jpg","",""
"null","<div style=""font-size:60px;""> </div>","null","fixation","html-keyboard-response","279","973589","0.0-6.0-0.39","2999905","co37954","norming","","","","","","",""
"null","../img/tt/1366tt.jpg","null","mooney1","image-keyboard-response","280","976598","0.0-6.0-1.39","2999905","co37954","norming","","","","","","",""
"3552.805000000051","","","post_mooney1_questions","survey-likert","281","980152","0.0-6.0-2.39","2999905","co37954","norming","","","{""curiosity"":5,""confidence"":1}","[0,1]","../img/tt/1366tt.jpg","",""
"2189.9599999999627","","","recognition","survey-text","282","982344","0.0-6.0-3.39","2999905","co37954","norming","","","{""guess"":""straat""}","","../img/tt/1366tt.jpg","",""
"null","../img/gs/1366gs.jpg","null","reveal","image-keyboard-response","283","984347","0.0-6.0-4.39","2999905","co37954","norming","","","","","","",""
"null","../img/tt/1366tt.jpg","null","mooney2","image-keyboard-response","284","986350","0.0-6.0-5.39","2999905","co37954","norming","","","","","","",""
"2832.6750000000466","","","post_reveal_questions","survey-likert","285","989184","0.0-6.0-6.39","2999905","co37954","norming","","","{""aha"":6}","[0]","../img/tt/1366tt.jpg","",""
"null","<div style=""font-size:60px;""> </div>","null","fixation","html-keyboard-response","286","989394","0.0-6.0-0.40","2999905","co37954","norming","","","","","","",""
"null","../img/tt/1235tt.jpg","null","mooney1","image-keyboard-response","287","992404","0.0-6.0-1.40","2999905","co37954","norming","","","","","","",""
"6041.969999999972","","","post_mooney1_questions","survey-likert","288","998448","0.0-6.0-2.40","2999905","co37954","norming","","","{""curiosity"":5,""confidence"":2}","[0,1]","../img/tt/1235tt.jpg","",""
"1750.4300000000512","","","recognition","survey-text","289","1000200","0.0-6.0-3.40","2999905","co37954","norming","","","{""guess"":""vogel""}","","../img/tt/1235tt.jpg","",""
"null","../img/gs/1235gs.jpg","null","reveal","image-keyboard-response","290","1002206","0.0-6.0-4.40","2999905","co37954","norming","","","","","","",""
"null","../img/tt/1235tt.jpg","null","mooney2","image-keyboard-response","291","1004207","0.0-6.0-5.40","2999905","co37954","norming","","","","","","",""
"1574.7000000001863","","","post_reveal_questions","survey-likert","292","1005783","0.0-6.0-6.40","2999905","co37954","norming","","","{""aha"":3}","[0]","../img/tt/1235tt.jpg","",""
"null","<div style=""font-size:60px;""> </div>","null","fixation","html-keyboard-response","293","1005987","0.0-6.0-0.41","2999905","co37954","norming","","","","","","",""
"null","../img/tt/507tt.jpg","null","mooney1","image-keyboard-response","294","1008995","0.0-6.0-1.41","2999905","co37954","norming","","","","","","",""
"4442.47499999986","","","post_mooney1_questions","survey-likert","295","1013440","0.0-6.0-2.41","2999905","co37954","norming","","","{""curiosity"":4,""confidence"":3}","[0,1]","../img/tt/507tt.jpg","",""
"1461.765000000014","","","recognition","survey-text","296","1014903","0.0-6.0-3.41","2999905","co37954","norming","","","{""guess"":""toneel""}","","../img/tt/507tt.jpg","",""
"null","../img/gs/507gs.jpg","null","reveal","image-keyboard-response","297","1016913","0.0-6.0-4.41","2999905","co37954","norming","","","","","","",""
"null","../img/tt/507tt.jpg","null","mooney2","image-keyboard-response","298","1018920","0.0-6.0-5.41","2999905","co37954","norming","","","","","","",""
"4797.994999999879","","","post_reveal_questions","survey-likert","299","1023720","0.0-6.0-6.41","2999905","co37954","norming","","","{""aha"":5}","[0]","../img/tt/507tt.jpg","",""
"null","<div style=""font-size:60px;""> </div>","null","fixation","html-keyboard-response","300","1023921","0.0-6.0-0.42","2999905","co37954","norming","","","","","","",""
"null","../img/tt/1046tt.jpg","null","mooney1","image-keyboard-response","301","1026928","0.0-6.0-1.42","2999905","co37954","norming","","","","","","",""
"5173.494999999995","","","post_mooney1_questions","survey-likert","302","1032104","0.0-6.0-2.42","2999905","co37954","norming","","","{""curiosity"":5,""confidence"":3}","[0,1]","../img/tt/1046tt.jpg","",""
"1662.059999999823","","","recognition","survey-text","303","1033767","0.0-6.0-3.42","2999905","co37954","norming","","","{""guess"":""eten ""}","","../img/tt/1046tt.jpg","",""
"null","../img/gs/1046gs.jpg","null","reveal","image-keyboard-response","304","1035771","0.0-6.0-4.42","2999905","co37954","norming","","","","","","",""
"null","../img/tt/1046tt.jpg","null","mooney2","image-keyboard-response","305","1037773","0.0-6.0-5.42","2999905","co37954","norming","","","","","","",""
"3574.3649999999907","","","post_reveal_questions","survey-likert","306","1041352","0.0-6.0-6.42","2999905","co37954","norming","","","{""aha"":4}","[0]","../img/tt/1046tt.jpg","",""
"null","<div style=""font-size:60px;""> </div>","null","fixation","html-keyboard-response","307","1041555","0.0-6.0-0.43","2999905","co37954","norming","","","","","","",""
"null","../img/tt/007tt.jpg","null","mooney1","image-keyboard-response","308","1044560","0.0-6.0-1.43","2999905","co37954","norming","","","","","","",""
"4965.52499999979","","","post_mooney1_questions","survey-likert","309","1049528","0.0-6.0-2.43","2999905","co37954","norming","","","{""curiosity"":6,""confidence"":1}","[0,1]","../img/tt/007tt.jpg","",""
"1661.9250000002794","","","recognition","survey-text","310","1051191","0.0-6.0-3.43","2999905","co37954","norming","","","{""guess"":""kikker""}","","../img/tt/007tt.jpg","",""
"null","../img/gs/007gs.jpg","null","reveal","image-keyboard-response","311","1053198","0.0-6.0-4.43","2999905","co37954","norming","","","","","","",""
"null","../img/tt/007tt.jpg","null","mooney2","image-keyboard-response","312","1055206","0.0-6.0-5.43","2999905","co37954","norming","","","","","","",""
"4150.970000000205","","","post_reveal_questions","survey-likert","313","1059359","0.0-6.0-6.43","2999905","co37954","norming","","","{""aha"":5}","[0]","../img/tt/007tt.jpg","",""
"null","<div style=""font-size:60px;""> </div>","null","fixation","html-keyboard-response","314","1059563","0.0-6.0-0.44","2999905","co37954","norming","","","","","","",""
"null","../img/tt/1199tt.jpg","null","mooney1","image-keyboard-response","315","1062573","0.0-6.0-1.44","2999905","co37954","norming","","","","","","",""
"3352.350000000093","","","post_mooney1_questions","survey-likert","316","1065928","0.0-6.0-2.44","2999905","co37954","norming","","","{""curiosity"":5,""confidence"":2}","[0,1]","../img/tt/1199tt.jpg","",""
"1646.0750000001863","","","recognition","survey-text","317","1067575","0.0-6.0-3.44","2999905","co37954","norming","","","{""guess"":""piano""}","","../img/tt/1199tt.jpg","",""
"null","../img/gs/1199gs.jpg","null","reveal","image-keyboard-response","318","1069580","0.0-6.0-4.44","2999905","co37954","norming","","","","","","",""
"null","../img/tt/1199tt.jpg","null","mooney2","image-keyboard-response","319","1071582","0.0-6.0-5.44","2999905","co37954","norming","","","","","","",""
"4231.15000000014","","","post_reveal_questions","survey-likert","320","1075815","0.0-6.0-6.44","2999905","co37954","norming","","","{""aha"":5}","[0]","../img/tt/1199tt.jpg","",""
"null","<div style=""font-size:60px;""> </div>","null","fixation","html-keyboard-response","321","1076023","0.0-6.0-0.45","2999905","co37954","norming","","","","","","",""
"null","../img/tt/1049tt.jpg","null","mooney1","image-keyboard-response","322","1079030","0.0-6.0-1.45","2999905","co37954","norming","","","","","","",""
"5293.90000000014","","","post_mooney1_questions","survey-likert","323","1084327","0.0-6.0-2.45","2999905","co37954","norming","","","{""curiosity"":5,""confidence"":0}","[0,1]","../img/tt/1049tt.jpg","",""
"2878.4850000003353","","","recognition","survey-text","324","1087207","0.0-6.0-3.45","2999905","co37954","norming","","","{""guess"":""vogel""}","","../img/tt/1049tt.jpg","",""
"null","../img/gs/1049gs.jpg","null","reveal","image-keyboard-response","325","1089217","0.0-6.0-4.45","2999905","co37954","norming","","","","","","",""
"null","../img/tt/1049tt.jpg","null","mooney2","image-keyboard-response","326","1091228","0.0-6.0-5.45","2999905","co37954","norming","","","","","","",""
"2769.304999999935","","","post_reveal_questions","survey-likert","327","1093999","0.0-6.0-6.45","2999905","co37954","norming","","","{""aha"":5}","[0]","../img/tt/1049tt.jpg","",""
"null","<div style=""font-size:60px;""> </div>","null","fixation","html-keyboard-response","328","1094207","0.0-6.0-0.46","2999905","co37954","norming","","","","","","",""
"null","../img/tt/1061tt.jpg","null","mooney1","image-keyboard-response","329","1097216","0.0-6.0-1.46","2999905","co37954","norming","","","","","","",""
"3868.875000000233","","","post_mooney1_questions","survey-likert","330","1101088","0.0-6.0-2.46","2999905","co37954","norming","","","{""curiosity"":5,""confidence"":2}","[0,1]","../img/tt/1061tt.jpg","",""
"1542.1200000001118","","","recognition","survey-text","331","1102631","0.0-6.0-3.46","2999905","co37954","norming","","","{""guess"":""park""}","","../img/tt/1061tt.jpg","",""
"null","../img/gs/1061gs.jpg","null","reveal","image-keyboard-response","332","1104639","0.0-6.0-4.46","2999905","co37954","norming","","","","","","",""
"null","../img/tt/1061tt.jpg","null","mooney2","image-keyboard-response","333","1106640","0.0-6.0-5.46","2999905","co37954","norming","","","","","","",""
"4701.105000000214","","","post_reveal_questions","survey-likert","334","1111343","0.0-6.0-6.46","2999905","co37954","norming","","","{""aha"":1}","[0]","../img/tt/1061tt.jpg","",""
"null","<div style=""font-size:60px;""> </div>","null","fixation","html-keyboard-response","335","1111551","0.0-6.0-0.47","2999905","co37954","norming","","","","","","",""
"null","../img/tt/1146tt.jpg","null","mooney1","image-keyboard-response","336","1114559","0.0-6.0-1.47","2999905","co37954","norming","","","","","","",""
"7686.185000000056","","","post_mooney1_questions","survey-likert","337","1122248","0.0-6.0-2.47","2999905","co37954","norming","","","{""curiosity"":4,""confidence"":4}","[0,1]","../img/tt/1146tt.jpg","",""
"1853.6049999997485","","","recognition","survey-text","338","1124104","0.0-6.0-3.47","2999905","co37954","norming","","","{""guess"":""brug""}","","../img/tt/1146tt.jpg","",""
"null","../img/gs/1146gs.jpg","null","reveal","image-keyboard-response","339","1126110","0.0-6.0-4.47","2999905","co37954","norming","","","","","","",""
"null","../img/tt/1146tt.jpg","null","mooney2","image-keyboard-response","340","1128114","0.0-6.0-5.47","2999905","co37954","norming","","","","","","",""
"2676.440000000177","","","post_reveal_questions","survey-likert","341","1130792","0.0-6.0-6.47","2999905","co37954","norming","","","{""aha"":6}","[0]","../img/tt/1146tt.jpg","",""
"null","<div style=""font-size:60px;""> </div>","null","fixation","html-keyboard-response","342","1130994","0.0-6.0-0.48","2999905","co37954","norming","","","","","","",""
"null","../img/tt/1196tt.jpg","null","mooney1","image-keyboard-response","343","1134002","0.0-6.0-1.48","2999905","co37954","norming","","","","","","",""
"5443.069999999832","","","post_mooney1_questions","survey-likert","344","1139448","0.0-6.0-2.48","2999905","co37954","norming","","","{""curiosity"":5,""confidence"":0}","[0,1]","../img/tt/1196tt.jpg","",""
"2093.899999999907","","","recognition","survey-text","345","1141544","0.0-6.0-3.48","2999905","co37954","norming","","","{""guess"":""persoon""}","","../img/tt/1196tt.jpg","",""
"null","../img/gs/1196gs.jpg","null","reveal","image-keyboard-response","346","1143554","0.0-6.0-4.48","2999905","co37954","norming","","","","","","",""
"null","../img/tt/1196tt.jpg","null","mooney2","image-keyboard-response","347","1145557","0.0-6.0-5.48","2999905","co37954","norming","","","","","","",""
"2744.1949999998324","","","post_reveal_questions","survey-likert","348","1148304","0.0-6.0-6.48","2999905","co37954","norming","","","{""aha"":4}","[0]","../img/tt/1196tt.jpg","",""
"null","<div style=""font-size:60px;""> </div>","null","fixation","html-keyboard-response","349","1148506","0.0-6.0-0.49","2999905","co37954","norming","","","","","","",""
"null","../img/tt/515tt.jpg","null","mooney1","image-keyboard-response","350","1151517","0.0-6.0-1.49","2999905","co37954","norming","","","","","","",""
"4591.895000000019","","","post_mooney1_questions","survey-likert","351","1156111","0.0-6.0-2.49","2999905","co37954","norming","","","{""curiosity"":5,""confidence"":3}","[0,1]","../img/tt/515tt.jpg","",""
"1974.6299999998882","","","recognition","survey-text","352","1158088","0.0-6.0-3.49","2999905","co37954","norming","","","{""guess"":""vogel""}","","../img/tt/515tt.jpg","",""
"null","../img/gs/515gs.jpg","null","reveal","image-keyboard-response","353","1160096","0.0-6.0-4.49","2999905","co37954","norming","","","","","","",""
"null","../img/tt/515tt.jpg","null","mooney2","image-keyboard-response","354","1162105","0.0-6.0-5.49","2999905","co37954","norming","","","","","","",""
"4045.5149999998976","","","post_reveal_questions","survey-likert","355","1166152","0.0-6.0-6.49","2999905","co37954","norming","","","{""aha"":1}","[0]","../img/tt/515tt.jpg","",""
"null","<div style=""font-size:60px;""> </div>","null","fixation","html-keyboard-response","356","1166354","0.0-6.0-0.50","2999905","co37954","norming","","","","","","",""
"null","../img/tt/1127tt.jpg","null","mooney1","image-keyboard-response","357","1169364","0.0-6.0-1.50","2999905","co37954","norming","","","","","","",""
"6512.970000000205","","","post_mooney1_questions","survey-likert","358","1175880","0.0-6.0-2.50","2999905","co37954","norming","","","{""curiosity"":5,""confidence"":1}","[0,1]","../img/tt/1127tt.jpg","",""
"1869.929999999702","","","recognition","survey-text","359","1177751","0.0-6.0-3.50","2999905","co37954","norming","","","{""guess"":""cafe""}","","../img/tt/1127tt.jpg","",""
"null","../img/gs/1127gs.jpg","null","reveal","image-keyboard-response","360","1179757","0.0-6.0-4.50","2999905","co37954","norming","","","","","","",""
"null","../img/tt/1127tt.jpg","null","mooney2","image-keyboard-response","361","1181759","0.0-6.0-5.50","2999905","co37954","norming","","","","","","",""
"6766.685000000056","","","post_reveal_questions","survey-likert","362","1188527","0.0-6.0-6.50","2999905","co37954","norming","","","{""aha"":6}","[0]","../img/tt/1127tt.jpg","",""
"null","<div style=""font-size:60px;""> </div>","null","fixation","html-keyboard-response","363","1188733","0.0-6.0-0.51","2999905","co37954","norming","","","","","","",""
"null","../img/tt/124tt.jpg","null","mooney1","image-keyboard-response","364","1191740","0.0-6.0-1.51","2999905","co37954","norming","","","","","","",""
"5576.785000000149","","","post_mooney1_questions","survey-likert","365","1197320","0.0-6.0-2.51","2999905","co37954","norming","","","{""curiosity"":1,""confidence"":6}","[0,1]","../img/tt/124tt.jpg","",""
"1438.1800000001676","","","recognition","survey-text","366","1198759","0.0-6.0-3.51","2999905","co37954","norming","","","{""guess"":""aap""}","","../img/tt/124tt.jpg","",""
"null","../img/gs/124gs.jpg","null","reveal","image-keyboard-response","367","1200767","0.0-6.0-4.51","2999905","co37954","norming","","","","","","",""
"null","../img/tt/124tt.jpg","null","mooney2","image-keyboard-response","368","1202770","0.0-6.0-5.51","2999905","co37954","norming","","","","","","",""
"2195.405000000028","","","post_reveal_questions","survey-likert","369","1204967","0.0-6.0-6.51","2999905","co37954","norming","","","{""aha"":0}","[0]","../img/tt/124tt.jpg","",""
"null","<div style=""font-size:60px;""> </div>","null","fixation","html-keyboard-response","370","1205175","0.0-6.0-0.52","2999905","co37954","norming","","","","","","",""
"null","../img/tt/1200tt.jpg","null","mooney1","image-keyboard-response","371","1208183","0.0-6.0-1.52","2999905","co37954","norming","","","","","","",""
"6518.129999999888","","","post_mooney1_questions","survey-likert","372","1214704","0.0-6.0-2.52","2999905","co37954","norming","","","{""curiosity"":5,""confidence"":4}","[0,1]","../img/tt/1200tt.jpg","",""
"5510.105000000214","","","recognition","survey-text","373","1220215","0.0-6.0-3.52","2999905","co37954","norming","","","{""guess"":""voertuig""}","","../img/tt/1200tt.jpg","",""
"null","../img/gs/1200gs.jpg","null","reveal","image-keyboard-response","374","1222221","0.0-6.0-4.52","2999905","co37954","norming","","","","","","",""
"null","../img/tt/1200tt.jpg","null","mooney2","image-keyboard-response","375","1224229","0.0-6.0-5.52","2999905","co37954","norming","","","","","","",""
"3296.4550000003073","","","post_reveal_questions","survey-likert","376","1227527","0.0-6.0-6.52","2999905","co37954","norming","","","{""aha"":5}","[0]","../img/tt/1200tt.jpg","",""
"null","<div style=""font-size:60px;""> </div>","null","fixation","html-keyboard-response","377","1227729","0.0-6.0-0.53","2999905","co37954","norming","","","","","","",""
"null","../img/tt/1151tt.jpg","null","mooney1","image-keyboard-response","378","1230738","0.0-6.0-1.53","2999905","co37954","norming","","","","","","",""
"4546.539999999804","","","post_mooney1_questions","survey-likert","379","1235289","0.0-6.0-2.53","2999905","co37954","norming","","","{""curiosity"":6,""confidence"":0}","[0,1]","../img/tt/1151tt.jpg","",""
"3006.1099999998696","","","recognition","survey-text","380","1238297","0.0-6.0-3.53","2999905","co37954","norming","","","{""guess"":""berg""}","","../img/tt/1151tt.jpg","",""
"null","../img/gs/1151gs.jpg","null","reveal","image-keyboard-response","381","1240304","0.0-6.0-4.53","2999905","co37954","norming","","","","","","",""
"null","../img/tt/1151tt.jpg","null","mooney2","image-keyboard-response","382","1242314","0.0-6.0-5.53","2999905","co37954","norming","","","","","","",""
"3332.470000000205","","","post_reveal_questions","survey-likert","383","1245649","0.0-6.0-6.53","2999905","co37954","norming","","","{""aha"":5}","[0]","../img/tt/1151tt.jpg","",""
"null","<div style=""font-size:60px;""> </div>","null","fixation","html-keyboard-response","384","1245859","0.0-6.0-0.54","2999905","co37954","norming","","","","","","",""
"null","../img/tt/1123tt.jpg","null","mooney1","image-keyboard-response","385","1248864","0.0-6.0-1.54","2999905","co37954","norming","","","","","","",""
"6206.514999999898","","","post_mooney1_questions","survey-likert","386","1255073","0.0-6.0-2.54","2999905","co37954","norming","","","{""curiosity"":1,""confidence"":5}","[0,1]","../img/tt/1123tt.jpg","",""
"1333.9749999998603","","","recognition","survey-text","387","1256409","0.0-6.0-3.54","2999905","co37954","norming","","","{""guess"":""bal""}","","../img/tt/1123tt.jpg","",""
"null","../img/gs/1123gs.jpg","null","reveal","image-keyboard-response","388","1258411","0.0-6.0-4.54","2999905","co37954","norming","","","","","","",""
"null","../img/tt/1123tt.jpg","null","mooney2","image-keyboard-response","389","1260421","0.0-6.0-5.54","2999905","co37954","norming","","","","","","",""
"4449.694999999832","","","post_reveal_questions","survey-likert","390","1264873","0.0-6.0-6.54","2999905","co37954","norming","","","{""aha"":3}","[0]","../img/tt/1123tt.jpg","",""
"null","<div style=""font-size:60px;""> </div>","null","fixation","html-keyboard-response","391","1265078","0.0-6.0-0.55","2999905","co37954","norming","","","","","","",""
"null","../img/tt/1156tt.jpg","null","mooney1","image-keyboard-response","392","1268084","0.0-6.0-1.55","2999905","co37954","norming","","","","","","",""
"7355.850000000093","","","post_mooney1_questions","survey-likert","393","1275441","0.0-6.0-2.55","2999905","co37954","norming","","","{""curiosity"":2,""confidence"":4}","[0,1]","../img/tt/1156tt.jpg","",""
"1670.255000000121","","","recognition","survey-text","394","1277113","0.0-6.0-3.55","2999905","co37954","norming","","","{""guess"":""zonnen""}","","../img/tt/1156tt.jpg","",""
"null","../img/gs/1156gs.jpg","null","reveal","image-keyboard-response","395","1279123","0.0-6.0-4.55","2999905","co37954","norming","","","","","","",""
"null","../img/tt/1156tt.jpg","null","mooney2","image-keyboard-response","396","1281131","0.0-6.0-5.55","2999905","co37954","norming","","","","","","",""
"2499.695000000065","","","post_reveal_questions","survey-likert","397","1283633","0.0-6.0-6.55","2999905","co37954","norming","","","{""aha"":2}","[0]","../img/tt/1156tt.jpg","",""
"null","<div style=""font-size:60px;""> </div>","null","fixation","html-keyboard-response","398","1283837","0.0-6.0-0.56","2999905","co37954","norming","","","","","","",""
"null","../img/tt/1043tt.jpg","null","mooney1","image-keyboard-response","399","1286840","0.0-6.0-1.56","2999905","co37954","norming","","","","","","",""
"3502.4549999998417","","","post_mooney1_questions","survey-likert","400","1290345","0.0-6.0-2.56","2999905","co37954","norming","","","{""curiosity"":4,""confidence"":3}","[0,1]","../img/tt/1043tt.jpg","",""
"1406.1350000002421","","","recognition","survey-text","401","1291753","0.0-6.0-3.56","2999905","co37954","norming","","","{""guess"":""eten ""}","","../img/tt/1043tt.jpg","",""
"null","../img/gs/1043gs.jpg","null","reveal","image-keyboard-response","402","1293761","0.0-6.0-4.56","2999905","co37954","norming","","","","","","",""
"null","../img/tt/1043tt.jpg","null","mooney2","image-keyboard-response","403","1295774","0.0-6.0-5.56","2999905","co37954","norming","","","","","","",""
"2779.1999999999534","","","post_reveal_questions","survey-likert","404","1298555","0.0-6.0-6.56","2999905","co37954","norming","","","{""aha"":4}","[0]","../img/tt/1043tt.jpg","",""
"null","<div style=""font-size:60px;""> </div>","null","fixation","html-keyboard-response","405","1298756","0.0-6.0-0.57","2999905","co37954","norming","","","","","","",""
"null","../img/tt/1189tt.jpg","null","mooney1","image-keyboard-response","406","1301760","0.0-6.0-1.57","2999905","co37954","norming","","","","","","",""
"3839.839999999618","","","post_mooney1_questions","survey-likert","407","1305603","0.0-6.0-2.57","2999905","co37954","norming","","","{""curiosity"":5,""confidence"":2}","[0,1]","../img/tt/1189tt.jpg","",""
"2485.8449999997392","","","recognition","survey-text","408","1308090","0.0-6.0-3.57","2999905","co37954","norming","","","{""guess"":""zwemmen ""}","","../img/tt/1189tt.jpg","",""
"null","../img/gs/1189gs.jpg","null","reveal","image-keyboard-response","409","1310094","0.0-6.0-4.57","2999905","co37954","norming","","","","","","",""
"null","../img/tt/1189tt.jpg","null","mooney2","image-keyboard-response","410","1312096","0.0-6.0-5.57","2999905","co37954","norming","","","","","","",""
"2825.54000000027","","","post_reveal_questions","survey-likert","411","1314923","0.0-6.0-6.57","2999905","co37954","norming","","","{""aha"":4}","[0]","../img/tt/1189tt.jpg","",""
"null","<div style=""font-size:60px;""> </div>","null","fixation","html-keyboard-response","412","1315129","0.0-6.0-0.58","2999905","co37954","norming","","","","","","",""
"null","../img/tt/1012tt.jpg","null","mooney1","image-keyboard-response","413","1318139","0.0-6.0-1.58","2999905","co37954","norming","","","","","","",""
"3142.8899999996647","","","post_mooney1_questions","survey-likert","414","1321283","0.0-6.0-2.58","2999905","co37954","norming","","","{""curiosity"":6,""confidence"":0}","[0,1]","../img/tt/1012tt.jpg","",""
"3510.4000000001397","","","recognition","survey-text","415","1324795","0.0-6.0-3.58","2999905","co37954","norming","","","{""guess"":""persoon ""}","","../img/tt/1012tt.jpg","",""
"null","../img/gs/1012gs.jpg","null","reveal","image-keyboard-response","416","1326805","0.0-6.0-4.58","2999905","co37954","norming","","","","","","",""
"null","../img/tt/1012tt.jpg","null","mooney2","image-keyboard-response","417","1328815","0.0-6.0-5.58","2999905","co37954","norming","","","","","","",""
"3577.8700000001118","","","post_reveal_questions","survey-likert","418","1332395","0.0-6.0-6.58","2999905","co37954","norming","","","{""aha"":6}","[0]","../img/tt/1012tt.jpg","",""
"null","<div style=""font-size:60px;""> </div>","null","fixation","html-keyboard-response","419","1332596","0.0-6.0-0.59","2999905","co37954","norming","","","","","","",""
"null","../img/tt/091tt.jpg","null","mooney1","image-keyboard-response","420","1335601","0.0-6.0-1.59","2999905","co37954","norming","","","","","","",""
"14975.309999999823","","","post_mooney1_questions","survey-likert","421","1350579","0.0-6.0-2.59","2999905","co37954","norming","","","{""curiosity"":6,""confidence"":0}","[0,1]","../img/tt/091tt.jpg","",""
"1958.094999999972","","","recognition","survey-text","422","1352539","0.0-6.0-3.59","2999905","co37954","norming","","","{""guess"":""berg""}","","../img/tt/091tt.jpg","",""
"null","../img/gs/091gs.jpg","null","reveal","image-keyboard-response","423","1354540","0.0-6.0-4.59","2999905","co37954","norming","","","","","","",""
"null","../img/tt/091tt.jpg","null","mooney2","image-keyboard-response","424","1356543","0.0-6.0-5.59","2999905","co37954","norming","","","","","","",""
"2650.8499999998603","","","post_reveal_questions","survey-likert","425","1359196","0.0-6.0-6.59","2999905","co37954","norming","","","{""aha"":6}","[0]","../img/tt/091tt.jpg","",""
"null","<div style=""font-size:60px;""> </div>","null","fixation","html-keyboard-response","426","1359398","0.0-6.0-0.60","2999905","co37954","norming","","","","","","",""
"null","../img/tt/1027tt.jpg","null","mooney1","image-keyboard-response","427","1362405","0.0-6.0-1.60","2999905","co37954","norming","","","","","","",""
"6243.875","","","post_mooney1_questions","survey-likert","428","1368652","0.0-6.0-2.60","2999905","co37954","norming","","","{""curiosity"":6,""confidence"":1}","[0,1]","../img/tt/1027tt.jpg","",""
"3037.964999999851","","","recognition","survey-text","429","1371692","0.0-6.0-3.60","2999905","co37954","norming","","","{""guess"":""kameel""}","","../img/tt/1027tt.jpg","",""
"null","../img/gs/1027gs.jpg","null","reveal","image-keyboard-response","430","1373702","0.0-6.0-4.60","2999905","co37954","norming","","","","","","",""
"null","../img/tt/1027tt.jpg","null","mooney2","image-keyboard-response","431","1375713","0.0-6.0-5.60","2999905","co37954","norming","","","","","","",""
"3632.3199999998324","","","post_reveal_questions","survey-likert","432","1379348","0.0-6.0-6.60","2999905","co37954","norming","","","{""aha"":5}","[0]","../img/tt/1027tt.jpg","",""
"null","<div style=""font-size:60px;""> </div>","null","fixation","html-keyboard-response","433","1379551","0.0-6.0-0.61","2999905","co37954","norming","","","","","","",""
"null","../img/tt/222tt.jpg","null","mooney1","image-keyboard-response","434","1382559","0.0-6.0-1.61","2999905","co37954","norming","","","","","","",""
"3409.8250000001863","","","post_mooney1_questions","survey-likert","435","1385972","0.0-6.0-2.61","2999905","co37954","norming","","","{""curiosity"":6,""confidence"":1}","[0,1]","../img/tt/222tt.jpg","",""
"1381.8549999995157","","","recognition","survey-text","436","1387356","0.0-6.0-3.61","2999905","co37954","norming","","","{""guess"":""boot""}","","../img/tt/222tt.jpg","",""
"null","../img/gs/222gs.jpg","null","reveal","image-keyboard-response","437","1389361","0.0-6.0-4.61","2999905","co37954","norming","","","","","","",""
"null","../img/tt/222tt.jpg","null","mooney2","image-keyboard-response","438","1391369","0.0-6.0-5.61","2999905","co37954","norming","","","","","","",""
"2921.4599999999627","","","post_reveal_questions","survey-likert","439","1394292","0.0-6.0-6.61","2999905","co37954","norming","","","{""aha"":5}","[0]","../img/tt/222tt.jpg","",""
"null","<div style=""font-size:60px;""> </div>","null","fixation","html-keyboard-response","440","1394502","0.0-6.0-0.62","2999905","co37954","norming","","","","","","",""
"null","../img/tt/1091tt.jpg","null","mooney1","image-keyboard-response","441","1397504","0.0-6.0-1.62","2999905","co37954","norming","","","","","","",""
"3905.1399999998976","","","post_mooney1_questions","survey-likert","442","1401412","0.0-6.0-2.62","2999905","co37954","norming","","","{""curiosity"":3,""confidence"":3}","[0,1]","../img/tt/1091tt.jpg","",""
"1734.1049999999814","","","recognition","survey-text","443","1403148","0.0-6.0-3.62","2999905","co37954","norming","","","{""guess"":""koe""}","","../img/tt/1091tt.jpg","",""
"null","../img/gs/1091gs.jpg","null","reveal","image-keyboard-response","444","1405150","0.0-6.0-4.62","2999905","co37954","norming","","","","","","",""
"null","../img/tt/1091tt.jpg","null","mooney2","image-keyboard-response","445","1407160","0.0-6.0-5.62","2999905","co37954","norming","","","","","","",""
"2785.1350000000093","","","post_reveal_questions","survey-likert","446","1409948","0.0-6.0-6.62","2999905","co37954","norming","","","{""aha"":4}","[0]","../img/tt/1091tt.jpg","",""
"null","<div style=""font-size:60px;""> </div>","null","fixation","html-keyboard-response","447","1410151","0.0-6.0-0.63","2999905","co37954","norming","","","","","","",""
"null","../img/tt/1087tt.jpg","null","mooney1","image-keyboard-response","448","1413153","0.0-6.0-1.63","2999905","co37954","norming","","","","","","",""
"5960.329999999842","","","post_mooney1_questions","survey-likert","449","1419113","0.0-6.0-2.63","2999905","co37954","norming","","","{""curiosity"":5,""confidence"":3}","[0,1]","../img/tt/1087tt.jpg","",""
"1245.8900000001304","","","recognition","survey-text","450","1420361","0.0-6.0-3.63","2999905","co37954","norming","","","{""guess"":""koe""}","","../img/tt/1087tt.jpg","",""
"null","../img/gs/1087gs.jpg","null","reveal","image-keyboard-response","451","1422363","0.0-6.0-4.63","2999905","co37954","norming","","","","","","",""
"null","../img/tt/1087tt.jpg","null","mooney2","image-keyboard-response","452","1424365","0.0-6.0-5.63","2999905","co37954","norming","","","","","","",""
"2681.5400000000373","","","post_reveal_questions","survey-likert","453","1427049","0.0-6.0-6.63","2999905","co37954","norming","","","{""aha"":5}","[0]","../img/tt/1087tt.jpg","",""
"null","<div style=""font-size:60px;""> </div>","null","fixation","html-keyboard-response","454","1427255","0.0-6.0-0.64","2999905","co37954","norming","","","","","","",""
"null","../img/tt/079tt.jpg","null","mooney1","image-keyboard-response","455","1430262","0.0-6.0-1.64","2999905","co37954","norming","","","","","","",""
"4056.3299999998417","","","post_mooney1_questions","survey-likert","456","1434321","0.0-6.0-2.64","2999905","co37954","norming","","","{""curiosity"":6,""confidence"":3}","[0,1]","../img/tt/079tt.jpg","",""
"1365.6399999998976","","","recognition","survey-text","457","1435689","0.0-6.0-3.64","2999905","co37954","norming","","","{""guess"":""koe""}","","../img/tt/079tt.jpg","",""
"null","../img/gs/079gs.jpg","null","reveal","image-keyboard-response","458","1437696","0.0-6.0-4.64","2999905","co37954","norming","","","","","","",""
"null","../img/tt/079tt.jpg","null","mooney2","image-keyboard-response","459","1439705","0.0-6.0-5.64","2999905","co37954","norming","","","","","","",""
"2501.220000000205","","","post_reveal_questions","survey-likert","460","1442209","0.0-6.0-6.64","2999905","co37954","norming","","","{""aha"":5}","[0]","../img/tt/079tt.jpg","",""
"null","<div style=""font-size:60px;""> </div>","null","fixation","html-keyboard-response","461","1442411","0.0-6.0-0.65","2999905","co37954","norming","","","","","","",""
"null","../img/tt/1080tt.jpg","null","mooney1","image-keyboard-response","462","1445417","0.0-6.0-1.65","2999905","co37954","norming","","","","","","",""
"3941.314999999944","","","post_mooney1_questions","survey-likert","463","1449361","0.0-6.0-2.65","2999905","co37954","norming","","","{""curiosity"":6,""confidence"":0}","[0,1]","../img/tt/1080tt.jpg","",""
"1862.0049999998882","","","recognition","survey-text","464","1451225","0.0-6.0-3.65","2999905","co37954","norming","","","{""guess"":""brug""}","","../img/tt/1080tt.jpg","",""
"null","../img/gs/1080gs.jpg","null","reveal","image-keyboard-response","465","1453234","0.0-6.0-4.65","2999905","co37954","norming","","","","","","",""
"null","../img/tt/1080tt.jpg","null","mooney2","image-keyboard-response","466","1455236","0.0-6.0-5.65","2999905","co37954","norming","","","","","","",""
"3594.25","","","post_reveal_questions","survey-likert","467","1458833","0.0-6.0-6.65","2999905","co37954","norming","","","{""aha"":6}","[0]","../img/tt/1080tt.jpg","",""
"null","<div style=""font-size:60px;""> </div>","null","fixation","html-keyboard-response","468","1459035","0.0-6.0-0.66","2999905","co37954","norming","","","","","","",""
"null","../img/tt/1262tt.jpg","null","mooney1","image-keyboard-response","469","1462038","0.0-6.0-1.66","2999905","co37954","norming","","","","","","",""
"4633.659999999916","","","post_mooney1_questions","survey-likert","470","1466673","0.0-6.0-2.66","2999905","co37954","norming","","","{""curiosity"":6,""confidence"":1}","[0,1]","../img/tt/1262tt.jpg","",""
"2278.1500000001397","","","recognition","survey-text","471","1468953","0.0-6.0-3.66","2999905","co37954","norming","","","{""guess"":""vogel""}","","../img/tt/1262tt.jpg","",""
"null","../img/gs/1262gs.jpg","null","reveal","image-keyboard-response","472","1470963","0.0-6.0-4.66","2999905","co37954","norming","","","","","","",""
"null","../img/tt/1262tt.jpg","null","mooney2","image-keyboard-response","473","1472965","0.0-6.0-5.66","2999905","co37954","norming","","","","","","",""
"2369.780000000028","","","post_reveal_questions","survey-likert","474","1475337","0.0-6.0-6.66","2999905","co37954","norming","","","{""aha"":5}","[0]","../img/tt/1262tt.jpg","",""
"null","<div style=""font-size:60px;""> </div>","null","fixation","html-keyboard-response","475","1475546","0.0-6.0-0.67","2999905","co37954","norming","","","","","","",""
"null","../img/tt/1171tt.jpg","null","mooney1","image-keyboard-response","476","1478561","0.0-6.0-1.67","2999905","co37954","norming","","","","","","",""
"5649.675000000279","","","post_mooney1_questions","survey-likert","477","1484213","0.0-6.0-2.67","2999905","co37954","norming","","","{""curiosity"":6,""confidence"":1}","[0,1]","../img/tt/1171tt.jpg","",""
"1893.7749999999069","","","recognition","survey-text","478","1486109","0.0-6.0-3.67","2999905","co37954","norming","","","{""guess"":""leeuw""}","","../img/tt/1171tt.jpg","",""
"null","../img/gs/1171gs.jpg","null","reveal","image-keyboard-response","479","1488117","0.0-6.0-4.67","2999905","co37954","norming","","","","","","",""
"null","../img/tt/1171tt.jpg","null","mooney2","image-keyboard-response","480","1490128","0.0-6.0-5.67","2999905","co37954","norming","","","","","","",""
"2899.910000000149","","","post_reveal_questions","survey-likert","481","1493029","0.0-6.0-6.67","2999905","co37954","norming","","","{""aha"":6}","[0]","../img/tt/1171tt.jpg","",""
"null","<div style=""font-size:60px;""> </div>","null","fixation","html-keyboard-response","482","1493231","0.0-6.0-0.68","2999905","co37954","norming","","","","","","",""
"null","../img/tt/1290tt.jpg","null","mooney1","image-keyboard-response","483","1496236","0.0-6.0-1.68","2999905","co37954","norming","","","","","","",""
"4606.825000000186","","","post_mooney1_questions","survey-likert","484","1500845","0.0-6.0-2.68","2999905","co37954","norming","","","{""curiosity"":5,""confidence"":1}","[0,1]","../img/tt/1290tt.jpg","",""
"2270.114999999758","","","recognition","survey-text","485","1503117","0.0-6.0-3.68","2999905","co37954","norming","","","{""guess"":""granaat""}","","../img/tt/1290tt.jpg","",""
"null","../img/gs/1290gs.jpg","null","reveal","image-keyboard-response","486","1505126","0.0-6.0-4.68","2999905","co37954","norming","","","","","","",""
"null","../img/tt/1290tt.jpg","null","mooney2","image-keyboard-response","487","1507136","0.0-6.0-5.68","2999905","co37954","norming","","","","","","",""
"2987.0399999998044","","","post_reveal_questions","survey-likert","488","1510125","0.0-6.0-6.68","2999905","co37954","norming","","","{""aha"":5}","[0]","../img/tt/1290tt.jpg","",""
"null","<div style=""font-size:60px;""> </div>","null","fixation","html-keyboard-response","489","1510334","0.0-6.0-0.69","2999905","co37954","norming","","","","","","",""
"null","../img/tt/098tt.jpg","null","mooney1","image-keyboard-response","490","1513337","0.0-6.0-1.69","2999905","co37954","norming","","","","","","",""
"4265.464999999851","","","post_mooney1_questions","survey-likert","491","1517605","0.0-6.0-2.69","2999905","co37954","norming","","","{""curiosity"":6,""confidence"":0}","[0,1]","../img/tt/098tt.jpg","",""
"2341.9850000001024","","","recognition","survey-text","492","1519949","0.0-6.0-3.69","2999905","co37954","norming","","","{""guess"":""mensen ""}","","../img/tt/098tt.jpg","",""
"null","../img/gs/098gs.jpg","null","reveal","image-keyboard-response","493","1521950","0.0-6.0-4.69","2999905","co37954","norming","","","","","","",""
"null","../img/tt/098tt.jpg","null","mooney2","image-keyboard-response","494","1523958","0.0-6.0-5.69","2999905","co37954","norming","","","","","","",""
"2356.905000000028","","","post_reveal_questions","survey-likert","495","1526317","0.0-6.0-6.69","2999905","co37954","norming","","","{""aha"":6}","[0]","../img/tt/098tt.jpg","",""
"null","<div style=""font-size:60px;""> </div>","null","fixation","html-keyboard-response","496","1526525","0.0-6.0-0.70","2999905","co37954","norming","","","","","","",""
"null","../img/tt/055tt.jpg","null","mooney1","image-keyboard-response","497","1529527","0.0-6.0-1.70","2999905","co37954","norming","","","","","","",""
"4763.270000000019","","","post_mooney1_questions","survey-likert","498","1534293","0.0-6.0-2.70","2999905","co37954","norming","","","{""curiosity"":5,""confidence"":2}","[0,1]","../img/tt/055tt.jpg","",""
"2246.274999999907","","","recognition","survey-text","499","1536541","0.0-6.0-3.70","2999905","co37954","norming","","","{""guess"":""kajakken ""}","","../img/tt/055tt.jpg","",""
"null","../img/gs/055gs.jpg","null","reveal","image-keyboard-response","500","1538550","0.0-6.0-4.70","2999905","co37954","norming","","","","","","",""
"null","../img/tt/055tt.jpg","null","mooney2","image-keyboard-response","501","1540556","0.0-6.0-5.70","2999905","co37954","norming","","","","","","",""
"3695.4149999995716","","","post_reveal_questions","survey-likert","502","1544253","0.0-6.0-6.70","2999905","co37954","norming","","","{""aha"":6}","[0]","../img/tt/055tt.jpg","",""
"null","<div style=""font-size:60px;""> </div>","null","fixation","html-keyboard-response","503","1544461","0.0-6.0-0.71","2999905","co37954","norming","","","","","","",""
"null","../img/tt/081tt.jpg","null","mooney1","image-keyboard-response","504","1547472","0.0-6.0-1.71","2999905","co37954","norming","","","","","","",""
"3714.3100000002887","","","post_mooney1_questions","survey-likert","505","1551189","0.0-6.0-2.71","2999905","co37954","norming","","","{""curiosity"":6,""confidence"":1}","[0,1]","../img/tt/081tt.jpg","",""
"1942.125","","","recognition","survey-text","506","1553133","0.0-6.0-3.71","2999905","co37954","norming","","","{""guess"":""aap""}","","../img/tt/081tt.jpg","",""
"null","../img/gs/081gs.jpg","null","reveal","image-keyboard-response","507","1555140","0.0-6.0-4.71","2999905","co37954","norming","","","","","","",""
"null","../img/tt/081tt.jpg","null","mooney2","image-keyboard-response","508","1557142","0.0-6.0-5.71","2999905","co37954","norming","","","","","","",""
"4541.825000000186","","","post_reveal_questions","survey-likert","509","1561685","0.0-6.0-6.71","2999905","co37954","norming","","","{""aha"":6}","[0]","../img/tt/081tt.jpg","",""
"null","<div style=""font-size:60px;""> </div>","null","fixation","html-keyboard-response","510","1561886","0.0-6.0-0.72","2999905","co37954","norming","","","","","","",""
"null","../img/tt/1309tt.jpg","null","mooney1","image-keyboard-response","511","1564897","0.0-6.0-1.72","2999905","co37954","norming","","","","","","",""
"4425.310000000056","","","post_mooney1_questions","survey-likert","512","1569325","0.0-6.0-2.72","2999905","co37954","norming","","","{""curiosity"":2,""confidence"":5}","[0,1]","../img/tt/1309tt.jpg","",""
"2158.3300000000745","","","recognition","survey-text","513","1571485","0.0-6.0-3.72","2999905","co37954","norming","","","{""guess"":""auto""}","","../img/tt/1309tt.jpg","",""
"null","../img/gs/1309gs.jpg","null","reveal","image-keyboard-response","514","1573491","0.0-6.0-4.72","2999905","co37954","norming","","","","","","",""
"null","../img/tt/1309tt.jpg","null","mooney2","image-keyboard-response","515","1575499","0.0-6.0-5.72","2999905","co37954","norming","","","","","","",""
"3374.75","","","post_reveal_questions","survey-likert","516","1578877","0.0-6.0-6.72","2999905","co37954","norming","","","{""aha"":0}","[0]","../img/tt/1309tt.jpg","",""
"null","<div style=""font-size:60px;""> </div>","null","fixation","html-keyboard-response","517","1579082","0.0-6.0-0.73","2999905","co37954","norming","","","","","","",""
"null","../img/tt/552tt.jpg","null","mooney1","image-keyboard-response","518","1582084","0.0-6.0-1.73","2999905","co37954","norming","","","","","","",""
"4367.739999999525","","","post_mooney1_questions","survey-likert","519","1586453","0.0-6.0-2.73","2999905","co37954","norming","","","{""curiosity"":6,""confidence"":1}","[0,1]","../img/tt/552tt.jpg","",""
"2805.899999999674","","","recognition","survey-text","520","1589261","0.0-6.0-3.73","2999905","co37954","norming","","","{""guess"":""stinkdier""}","","../img/tt/552tt.jpg","",""
"null","../img/gs/552gs.jpg","null","reveal","image-keyboard-response","521","1591269","0.0-6.0-4.73","2999905","co37954","norming","","","","","","",""
"null","../img/tt/552tt.jpg","null","mooney2","image-keyboard-response","522","1593277","0.0-6.0-5.73","2999905","co37954","norming","","","","","","",""
"3957.125","","","post_reveal_questions","survey-likert","523","1597237","0.0-6.0-6.73","2999905","co37954","norming","","","{""aha"":1}","[0]","../img/tt/552tt.jpg","",""
"null","<div style=""font-size:60px;""> </div>","null","fixation","html-keyboard-response","524","1597442","0.0-6.0-0.74","2999905","co37954","norming","","","","","","",""
"null","../img/tt/080tt.jpg","null","mooney1","image-keyboard-response","525","1600453","0.0-6.0-1.74","2999905","co37954","norming","","","","","","",""
"4645.280000000261","","","post_mooney1_questions","survey-likert","526","1605100","0.0-6.0-2.74","2999905","co37954","norming","","","{""curiosity"":4,""confidence"":4}","[0,1]","../img/tt/080tt.jpg","",""
"1710.1149999999907","","","recognition","survey-text","527","1606812","0.0-6.0-3.74","2999905","co37954","norming","","","{""guess"":""tijger""}","","../img/tt/080tt.jpg","",""
"null","../img/gs/080gs.jpg","null","reveal","image-keyboard-response","528","1608818","0.0-6.0-4.74","2999905","co37954","norming","","","","","","",""
"null","../img/tt/080tt.jpg","null","mooney2","image-keyboard-response","529","1610823","0.0-6.0-5.74","2999905","co37954","norming","","","","","","",""
"1754.119999999646","","","post_reveal_questions","survey-likert","530","1612580","0.0-6.0-6.74","2999905","co37954","norming","","","{""aha"":6}","[0]","../img/tt/080tt.jpg","",""
"null","<div style=""font-size:60px;""> </div>","null","fixation","html-keyboard-response","531","1612782","0.0-6.0-0.75","2999905","co37954","norming","","","","","","",""
"null","../img/tt/380tt.jpg","null","mooney1","image-keyboard-response","532","1615785","0.0-6.0-1.75","2999905","co37954","norming","","","","","","",""
"3415.7599999997765","","","post_mooney1_questions","survey-likert","533","1619204","0.0-6.0-2.75","2999905","co37954","norming","","","{""curiosity"":6,""confidence"":1}","[0,1]","../img/tt/380tt.jpg","",""
"1334.7250000000931","","","recognition","survey-text","534","1620540","0.0-6.0-3.75","2999905","co37954","norming","","","{""guess"":""dier""}","","../img/tt/380tt.jpg","",""
"null","../img/gs/380gs.jpg","null","reveal","image-keyboard-response","535","1622549","0.0-6.0-4.75","2999905","co37954","norming","","","","","","",""
"null","../img/tt/380tt.jpg","null","mooney2","image-keyboard-response","536","1624556","0.0-6.0-5.75","2999905","co37954","norming","","","","","","",""
"1869.3599999996368","","","post_reveal_questions","survey-likert","537","1626428","0.0-6.0-6.75","2999905","co37954","norming","","","{""aha"":6}","[0]","../img/tt/380tt.jpg","",""
"null","<div style=""font-size:60px;""> </div>","null","fixation","html-keyboard-response","538","1626638","0.0-6.0-0.76","2999905","co37954","norming","","","","","","",""
"null","../img/tt/135tt.jpg","null","mooney1","image-keyboard-response","539","1629648","0.0-6.0-1.76","2999905","co37954","norming","","","","","","",""
"6497.375000000233","","","post_mooney1_questions","survey-likert","540","1636148","0.0-6.0-2.76","2999905","co37954","norming","","","{""curiosity"":1,""confidence"":6}","[0,1]","../img/tt/135tt.jpg","",""
"3606.309999999823","","","recognition","survey-text","541","1639756","0.0-6.0-3.76","2999905","co37954","norming","","","{""guess"":""wc ""}","","../img/tt/135tt.jpg","",""
"null","../img/gs/135gs.jpg","null","reveal","image-keyboard-response","542","1641757","0.0-6.0-4.76","2999905","co37954","norming","","","","","","",""
"null","../img/tt/135tt.jpg","null","mooney2","image-keyboard-response","543","1643760","0.0-6.0-5.76","2999905","co37954","norming","","","","","","",""
"2184.9549999998417","","","post_reveal_questions","survey-likert","544","1645948","0.0-6.0-6.76","2999905","co37954","norming","","","{""aha"":0}","[0]","../img/tt/135tt.jpg","",""
"null","<div style=""font-size:60px;""> </div>","null","fixation","html-keyboard-response","545","1646157","0.0-6.0-0.77","2999905","co37954","norming","","","","","","",""
"null","../img/tt/1363tt.jpg","null","mooney1","image-keyboard-response","546","1649164","0.0-6.0-1.77","2999905","co37954","norming","","","","","","",""
"5468.960000000196","","","post_mooney1_questions","survey-likert","547","1654636","0.0-6.0-2.77","2999905","co37954","norming","","","{""curiosity"":4,""confidence"":4}","[0,1]","../img/tt/1363tt.jpg","",""
"5390.179999999702","","","recognition","survey-text","548","1660028","0.0-6.0-3.77","2999905","co37954","norming","","","{""guess"":""sauskan ""}","","../img/tt/1363tt.jpg","",""
"null","../img/gs/1363gs.jpg","null","reveal","image-keyboard-response","549","1662037","0.0-6.0-4.77","2999905","co37954","norming","","","","","","",""
"null","../img/tt/1363tt.jpg","null","mooney2","image-keyboard-response","550","1664043","0.0-6.0-5.77","2999905","co37954","norming","","","","","","",""
"1904.1499999999069","","","post_reveal_questions","survey-likert","551","1665949","0.0-6.0-6.77","2999905","co37954","norming","","","{""aha"":0}","[0]","../img/tt/1363tt.jpg","",""
"null","<div style=""font-size:60px;""> </div>","null","fixation","html-keyboard-response","552","1666152","0.0-6.0-0.78","2999905","co37954","norming","","","","","","",""
