"rt","stimulus","key_press","test_part","trial_type","trial_index","time_elapsed","internal_node_id","totalTime","subject","experiment_name","button_pressed","success","responses","question_order","currentStim","old","correct"
"6008.340000000033","Welcome to the experiment. This is an online experiment so please don't close the tab/window until we say goodbye.  Press any key to begin.","13","instructions","html-keyboard-response","0","6023","0.0-0.0","2668967","co37690","norming","","","","","","",""
"13670.644999999979","<div style='word-wrap: break-word; width: 900px'><h3>Please consider this information carefully before deciding whether to participate in this research</h3><ul style='text-align: left; font-size: .8em;'><li><b>Purpose of the research</b>: To examine how people process images.</li><li><b>What you will do in this research</b>:  Stimuli (images) will be presented on the computer and you will be asked different questions about them.</li><li><b>Time required</b>: Participation will take between 45 and 60 minutes to complete.</li><li><b>Risks</b>:  There are no anticipated risks associated with participating in this study. The effects of participating should be comparable to those you would experience from viewing a computer monitor for 30 minutes and using a mouse or keyboard.</li><li><b>Benefits</b>:  This study provides no benefits to you individually except for the credit. The study provides important information about the nature of perception and learning.</li><li><b>Confidentiality</b>:  Your participation in this study will remain confidential. No personally identifiable information will be associated with your data. Your de-identified data may be shared with other researchers and used in future projects.</li><li><b>Participation and withdrawal</b>:  Your participation in this study is completely voluntary and you may refuse to participate or you may choose to withdraw at any time without penalty.</li><li><b>How to contact the researchers</b>: If you have questions or concerns about your participation or payment, or want to request a summary of research findings, please contact Sander Van de Cruys (KU Leuven), at sander.vandecruys@kuleuven.be.</li></ul><p>The nature and purpose of this research have been sufficiently explained and I agree to participate in this study.  I understand that I am free to withdraw at any time without incurring any penalty.</p><p>Please consent by clicking the button below to continue. Otherwise, please exit the study at this time.</p></div>","","instructions","html-button-response","1","19695","0.0-1.0","2668967","co37690","norming","0","","","","","",""
"","","","instructions","fullscreen","2","23045","0.0-2.0","2668967","co37690","norming","","true","","","","",""
"30736.510000000006","","","sona","survey-html-form","3","53700","0.0-3.0","2668967","co37690","norming","","","[{""name"":""sonaid"",""value"":""37690""},{""name"":""debrief"",""value"":""no""},{""name"":""datajoin"",""value"":""yes""}]","","","",""
"79898.66000000002","<div style='word-wrap: break-word; width: 900px'><h3>Instructions</h3><p>This experiment will have 3 parts. In the first part you will see a series of distorted images like the one below on the left. As you can see in the righthand image, the distorted images are derived from actual photographs. In what follows, you will <strong>briefly</strong> be presented with <strong>only</strong> the distorted image.</p> <div style='float: left; margin-right: 20px;'><img src='../img/018tt.jpg' height='250' width='250'></img></div><div style='float: right; margin-left: 20px;'><img src='../img/018gs.jpg' height='250' width='250'></img></div><p>Subsequently you will be asked a few questions about the image: One question on how <strong>curious</strong> you are about the solution and one on how <strong>confident</strong> you are that you know the solution.</p>Next, we ask you to make a guess on what is in the image. Note that it is OK to name just the <strong>basic level category</strong>. For example when you see a parrot in the image, 'parrot' will obviously be a correct answer but also correct is 'bird'. However, 'animal' will <strong>not</strong> be counted as a correct response. For the example above, 'rose' would be correct or 'flower', but not 'plant'. When soccer players are depicted, 'soccer', 'football', 'soccer players' will be correct, but not 'humans', 'outdoors', or 'sports'. You do not need to describe the image in full, just name the main object in it <strong>in one or two words</strong>. All images depict objects from one of the following broad level categories: animals, inanimate objects, plants, sports, vehicles, and food. Recognizing means knowing <strong>more</strong> than these broad labels for a given image. But we always encourage you to <strong>make a guess</strong> if you can. Note that you are allowed to use <strong>Dutch and English</strong> in your answers, whatever comes easiest for you.</p><p>Press any key to continue.</p></div>","39","instructions","html-keyboard-response","4","133305","0.0-4.0","2668967","co37690","norming","","","","","","",""
"109313.26000000001","<div style='word-wrap: break-word; width: 900px'><h3>Instructions</h3> <p>Next, the solution image will be revealed to you and you'll be asked to indicate how strong your <strong>aha-experience</strong> was after seeing the solution. This describes the positive feeling of the 'click' you sometimes experience, when the pieces of the 'puzzle' fall together and you suddenly have 'insight' in the image.</p><img src='aha.jpg' height='188' width='250'></img><p>Note that there are no right or wrong answers. We are interested in what <strong>you</strong> see in the image and how <strong>you</strong> feel about it.</p><p>Press any key to start the experiment.</p></div>","39","instructions","html-keyboard-response","5","242312","0.0-5.0","2668967","co37690","norming","","","","","","",""
"null","<div style=""font-size:60px;""> </div>","null","fixation","html-keyboard-response","6","242523","0.0-6.0-0.0","2668967","co37690","norming","","","","","","",""
"null","../img/tt/1228tt.jpg","null","mooney1","image-keyboard-response","7","245535","0.0-6.0-1.0","2668967","co37690","norming","","","","","","",""
"10987.084999999992","","","post_mooney1_questions","survey-likert","8","256526","0.0-6.0-2.0","2668967","co37690","norming","","","{""curiosity"":2,""confidence"":1}","[0,1]","../img/tt/1228tt.jpg","",""
"4333.794999999984","","","recognition","survey-text","9","260862","0.0-6.0-3.0","2668967","co37690","norming","","","{""guess"":""bird""}","","../img/tt/1228tt.jpg","",""
"null","../img/gs/1228gs.jpg","null","reveal","image-keyboard-response","10","262869","0.0-6.0-4.0","2668967","co37690","norming","","","","","","",""
"null","../img/tt/1228tt.jpg","null","mooney2","image-keyboard-response","11","264872","0.0-6.0-5.0","2668967","co37690","norming","","","","","","",""
"4253.384999999951","","","post_reveal_questions","survey-likert","12","269126","0.0-6.0-6.0","2668967","co37690","norming","","","{""aha"":1}","[0]","../img/tt/1228tt.jpg","",""
"null","<div style=""font-size:60px;""> </div>","null","fixation","html-keyboard-response","13","269328","0.0-6.0-0.1","2668967","co37690","norming","","","","","","",""
"null","../img/tt/1307tt.jpg","null","mooney1","image-keyboard-response","14","272332","0.0-6.0-1.1","2668967","co37690","norming","","","","","","",""
"8863.625000000058","","","post_mooney1_questions","survey-likert","15","281198","0.0-6.0-2.1","2668967","co37690","norming","","","{""curiosity"":2,""confidence"":1}","[0,1]","../img/tt/1307tt.jpg","",""
"8077.89499999996","","","recognition","survey-text","16","289278","0.0-6.0-3.1","2668967","co37690","norming","","","{""guess"":""""}","","../img/tt/1307tt.jpg","",""
"null","../img/gs/1307gs.jpg","null","reveal","image-keyboard-response","17","291281","0.0-6.0-4.1","2668967","co37690","norming","","","","","","",""
"null","../img/tt/1307tt.jpg","null","mooney2","image-keyboard-response","18","293289","0.0-6.0-5.1","2668967","co37690","norming","","","","","","",""
"2274.9649999999674","","","post_reveal_questions","survey-likert","19","295566","0.0-6.0-6.1","2668967","co37690","norming","","","{""aha"":2}","[0]","../img/tt/1307tt.jpg","",""
"null","<div style=""font-size:60px;""> </div>","null","fixation","html-keyboard-response","20","295768","0.0-6.0-0.2","2668967","co37690","norming","","","","","","",""
"null","../img/tt/567tt.jpg","null","mooney1","image-keyboard-response","21","298775","0.0-6.0-1.2","2668967","co37690","norming","","","","","","",""
"7548.075000000012","","","post_mooney1_questions","survey-likert","22","306199","0.0-6.0-2.2","2668967","co37690","norming","","","{""curiosity"":1,""confidence"":5}","[0,1]","../img/tt/567tt.jpg","",""
"2710.2549999999464","","","recognition","survey-text","23","308911","0.0-6.0-3.2","2668967","co37690","norming","","","{""guess"":""toast""}","","../img/tt/567tt.jpg","",""
"null","../img/gs/567gs.jpg","null","reveal","image-keyboard-response","24","310917","0.0-6.0-4.2","2668967","co37690","norming","","","","","","",""
"null","../img/tt/567tt.jpg","null","mooney2","image-keyboard-response","25","312920","0.0-6.0-5.2","2668967","co37690","norming","","","","","","",""
"2669.594999999914","","","post_reveal_questions","survey-likert","26","315591","0.0-6.0-6.2","2668967","co37690","norming","","","{""aha"":0}","[0]","../img/tt/567tt.jpg","",""
"null","<div style=""font-size:60px;""> </div>","null","fixation","html-keyboard-response","27","315793","0.0-6.0-0.3","2668967","co37690","norming","","","","","","",""
"null","../img/tt/1251tt.jpg","null","mooney1","image-keyboard-response","28","318804","0.0-6.0-1.3","2668967","co37690","norming","","","","","","",""
"5568.4749999999185","","","post_mooney1_questions","survey-likert","29","324375","0.0-6.0-2.3","2668967","co37690","norming","","","{""curiosity"":2,""confidence"":1}","[0,1]","../img/tt/1251tt.jpg","",""
"3614.030000000086","","","recognition","survey-text","30","327990","0.0-6.0-3.3","2668967","co37690","norming","","","{""guess"":""bear""}","","../img/tt/1251tt.jpg","",""
"null","../img/gs/1251gs.jpg","null","reveal","image-keyboard-response","31","329995","0.0-6.0-4.3","2668967","co37690","norming","","","","","","",""
"null","../img/tt/1251tt.jpg","null","mooney2","image-keyboard-response","32","332006","0.0-6.0-5.3","2668967","co37690","norming","","","","","","",""
"2494.835000000079","","","post_reveal_questions","survey-likert","33","334503","0.0-6.0-6.3","2668967","co37690","norming","","","{""aha"":0}","[0]","../img/tt/1251tt.jpg","",""
"null","<div style=""font-size:60px;""> </div>","null","fixation","html-keyboard-response","34","334704","0.0-6.0-0.4","2668967","co37690","norming","","","","","","",""
"null","../img/tt/534tt.jpg","null","mooney1","image-keyboard-response","35","337710","0.0-6.0-1.4","2668967","co37690","norming","","","","","","",""
"4862.494999999995","","","post_mooney1_questions","survey-likert","36","342575","0.0-6.0-2.4","2668967","co37690","norming","","","{""curiosity"":3,""confidence"":0}","[0,1]","../img/tt/534tt.jpg","",""
"1438.0800000000163","","","recognition","survey-text","37","344014","0.0-6.0-3.4","2668967","co37690","norming","","","{""guess"":""""}","","../img/tt/534tt.jpg","",""
"null","../img/gs/534gs.jpg","null","reveal","image-keyboard-response","38","346020","0.0-6.0-4.4","2668967","co37690","norming","","","","","","",""
"null","../img/tt/534tt.jpg","null","mooney2","image-keyboard-response","39","348025","0.0-6.0-5.4","2668967","co37690","norming","","","","","","",""
"4355.5799999999","","","post_reveal_questions","survey-likert","40","352383","0.0-6.0-6.4","2668967","co37690","norming","","","{""aha"":1}","[0]","../img/tt/534tt.jpg","",""
"null","<div style=""font-size:60px;""> </div>","null","fixation","html-keyboard-response","41","352584","0.0-6.0-0.5","2668967","co37690","norming","","","","","","",""
"null","../img/tt/1181tt.jpg","null","mooney1","image-keyboard-response","42","355594","0.0-6.0-1.5","2668967","co37690","norming","","","","","","",""
"6242.335000000021","","","post_mooney1_questions","survey-likert","43","361839","0.0-6.0-2.5","2668967","co37690","norming","","","{""curiosity"":1,""confidence"":3}","[0,1]","../img/tt/1181tt.jpg","",""
"4670.119999999995","","","recognition","survey-text","44","366513","0.0-6.0-3.5","2668967","co37690","norming","","","{""guess"":""people dancing""}","","../img/tt/1181tt.jpg","",""
"null","../img/gs/1181gs.jpg","null","reveal","image-keyboard-response","45","368514","0.0-6.0-4.5","2668967","co37690","norming","","","","","","",""
"null","../img/tt/1181tt.jpg","null","mooney2","image-keyboard-response","46","370524","0.0-6.0-5.5","2668967","co37690","norming","","","","","","",""
"1851.2600000000675","","","post_reveal_questions","survey-likert","47","372377","0.0-6.0-6.5","2668967","co37690","norming","","","{""aha"":3}","[0]","../img/tt/1181tt.jpg","",""
"null","<div style=""font-size:60px;""> </div>","null","fixation","html-keyboard-response","48","372579","0.0-6.0-0.6","2668967","co37690","norming","","","","","","",""
"null","../img/tt/1261tt.jpg","null","mooney1","image-keyboard-response","49","375587","0.0-6.0-1.6","2668967","co37690","norming","","","","","","",""
"7531.34500000003","","","post_mooney1_questions","survey-likert","50","383121","0.0-6.0-2.6","2668967","co37690","norming","","","{""curiosity"":1,""confidence"":2}","[0,1]","../img/tt/1261tt.jpg","",""
"4054.125","","","recognition","survey-text","51","387177","0.0-6.0-3.6","2668967","co37690","norming","","","{""guess"":""dog""}","","../img/tt/1261tt.jpg","",""
"null","../img/gs/1261gs.jpg","null","reveal","image-keyboard-response","52","389180","0.0-6.0-4.6","2668967","co37690","norming","","","","","","",""
"null","../img/tt/1261tt.jpg","null","mooney2","image-keyboard-response","53","391188","0.0-6.0-5.6","2668967","co37690","norming","","","","","","",""
"2322.8299999999","","","post_reveal_questions","survey-likert","54","393513","0.0-6.0-6.6","2668967","co37690","norming","","","{""aha"":1}","[0]","../img/tt/1261tt.jpg","",""
"null","<div style=""font-size:60px;""> </div>","null","fixation","html-keyboard-response","55","393714","0.0-6.0-0.7","2668967","co37690","norming","","","","","","",""
"null","../img/tt/085tt.jpg","null","mooney1","image-keyboard-response","56","396723","0.0-6.0-1.7","2668967","co37690","norming","","","","","","",""
"6659.799999999988","","","post_mooney1_questions","survey-likert","57","403385","0.0-6.0-2.7","2668967","co37690","norming","","","{""curiosity"":2,""confidence"":0}","[0,1]","../img/tt/085tt.jpg","",""
"702.2150000000256","","","recognition","survey-text","58","404089","0.0-6.0-3.7","2668967","co37690","norming","","","{""guess"":""""}","","../img/tt/085tt.jpg","",""
"null","../img/gs/085gs.jpg","null","reveal","image-keyboard-response","59","406091","0.0-6.0-4.7","2668967","co37690","norming","","","","","","",""
"null","../img/tt/085tt.jpg","null","mooney2","image-keyboard-response","60","408100","0.0-6.0-5.7","2668967","co37690","norming","","","","","","",""
"2706.2150000000256","","","post_reveal_questions","survey-likert","61","410809","0.0-6.0-6.7","2668967","co37690","norming","","","{""aha"":2}","[0]","../img/tt/085tt.jpg","",""
"null","<div style=""font-size:60px;""> </div>","null","fixation","html-keyboard-response","62","411013","0.0-6.0-0.8","2668967","co37690","norming","","","","","","",""
"null","../img/tt/1143tt.jpg","null","mooney1","image-keyboard-response","63","414022","0.0-6.0-1.8","2668967","co37690","norming","","","","","","",""
"3456.3699999999953","","","post_mooney1_questions","survey-likert","64","417481","0.0-6.0-2.8","2668967","co37690","norming","","","{""curiosity"":2,""confidence"":2}","[0,1]","../img/tt/1143tt.jpg","",""
"7150.375","","","recognition","survey-text","65","424633","0.0-6.0-3.8","2668967","co37690","norming","","","{""guess"":""fitness bike""}","","../img/tt/1143tt.jpg","",""
"null","../img/gs/1143gs.jpg","null","reveal","image-keyboard-response","66","426647","0.0-6.0-4.8","2668967","co37690","norming","","","","","","",""
"null","../img/tt/1143tt.jpg","null","mooney2","image-keyboard-response","67","428657","0.0-6.0-5.8","2668967","co37690","norming","","","","","","",""
"3465.6049999999814","","","post_reveal_questions","survey-likert","68","432124","0.0-6.0-6.8","2668967","co37690","norming","","","{""aha"":0}","[0]","../img/tt/1143tt.jpg","",""
"null","<div style=""font-size:60px;""> </div>","null","fixation","html-keyboard-response","69","432328","0.0-6.0-0.9","2668967","co37690","norming","","","","","","",""
"null","../img/tt/378tt.jpg","null","mooney1","image-keyboard-response","70","435339","0.0-6.0-1.9","2668967","co37690","norming","","","","","","",""
"3952.384999999951","","","post_mooney1_questions","survey-likert","71","439292","0.0-6.0-2.9","2668967","co37690","norming","","","{""curiosity"":1,""confidence"":0}","[0,1]","../img/tt/378tt.jpg","",""
"1598.2000000000116","","","recognition","survey-text","72","440892","0.0-6.0-3.9","2668967","co37690","norming","","","{""guess"":""""}","","../img/tt/378tt.jpg","",""
"null","../img/gs/378gs.jpg","null","reveal","image-keyboard-response","73","442899","0.0-6.0-4.9","2668967","co37690","norming","","","","","","",""
"null","../img/tt/378tt.jpg","null","mooney2","image-keyboard-response","74","444904","0.0-6.0-5.9","2668967","co37690","norming","","","","","","",""
"2738.734999999986","","","post_reveal_questions","survey-likert","75","447645","0.0-6.0-6.9","2668967","co37690","norming","","","{""aha"":3}","[0]","../img/tt/378tt.jpg","",""
"null","<div style=""font-size:60px;""> </div>","null","fixation","html-keyboard-response","76","447850","0.0-6.0-0.10","2668967","co37690","norming","","","","","","",""
"null","../img/tt/552tt.jpg","null","mooney1","image-keyboard-response","77","450857","0.0-6.0-1.10","2668967","co37690","norming","","","","","","",""
"3168.469999999914","","","post_mooney1_questions","survey-likert","78","454029","0.0-6.0-2.10","2668967","co37690","norming","","","{""curiosity"":2,""confidence"":1}","[0,1]","../img/tt/552tt.jpg","",""
"3510.2050000000745","","","recognition","survey-text","79","457541","0.0-6.0-3.10","2668967","co37690","norming","","","{""guess"":""toilet""}","","../img/tt/552tt.jpg","",""
"null","../img/gs/552gs.jpg","null","reveal","image-keyboard-response","80","459545","0.0-6.0-4.10","2668967","co37690","norming","","","","","","",""
"null","../img/tt/552tt.jpg","null","mooney2","image-keyboard-response","81","461552","0.0-6.0-5.10","2668967","co37690","norming","","","","","","",""
"1898.0500000000466","","","post_reveal_questions","survey-likert","82","463453","0.0-6.0-6.10","2668967","co37690","norming","","","{""aha"":2}","[0]","../img/tt/552tt.jpg","",""
"null","<div style=""font-size:60px;""> </div>","null","fixation","html-keyboard-response","83","463658","0.0-6.0-0.11","2668967","co37690","norming","","","","","","",""
"null","../img/tt/1012tt.jpg","null","mooney1","image-keyboard-response","84","466669","0.0-6.0-1.11","2668967","co37690","norming","","","","","","",""
"6605.615000000049","","","post_mooney1_questions","survey-likert","85","473277","0.0-6.0-2.11","2668967","co37690","norming","","","{""curiosity"":3,""confidence"":0}","[0,1]","../img/tt/1012tt.jpg","",""
"5294.364999999991","","","recognition","survey-text","86","478573","0.0-6.0-3.11","2668967","co37690","norming","","","{""guess"":""corn""}","","../img/tt/1012tt.jpg","",""
"null","../img/gs/1012gs.jpg","null","reveal","image-keyboard-response","87","480576","0.0-6.0-4.11","2668967","co37690","norming","","","","","","",""
"null","../img/tt/1012tt.jpg","null","mooney2","image-keyboard-response","88","482578","0.0-6.0-5.11","2668967","co37690","norming","","","","","","",""
"2256.655000000028","","","post_reveal_questions","survey-likert","89","484836","0.0-6.0-6.11","2668967","co37690","norming","","","{""aha"":3}","[0]","../img/tt/1012tt.jpg","",""
"null","<div style=""font-size:60px;""> </div>","null","fixation","html-keyboard-response","90","485043","0.0-6.0-0.12","2668967","co37690","norming","","","","","","",""
"null","../img/tt/353tt.jpg","null","mooney1","image-keyboard-response","91","488050","0.0-6.0-1.12","2668967","co37690","norming","","","","","","",""
"5783.809999999998","","","post_mooney1_questions","survey-likert","92","493837","0.0-6.0-2.12","2668967","co37690","norming","","","{""curiosity"":3,""confidence"":0}","[0,1]","../img/tt/353tt.jpg","",""
"1102.1299999999464","","","recognition","survey-text","93","494941","0.0-6.0-3.12","2668967","co37690","norming","","","{""guess"":""""}","","../img/tt/353tt.jpg","",""
"null","../img/gs/353gs.jpg","null","reveal","image-keyboard-response","94","496949","0.0-6.0-4.12","2668967","co37690","norming","","","","","","",""
"null","../img/tt/353tt.jpg","null","mooney2","image-keyboard-response","95","498959","0.0-6.0-5.12","2668967","co37690","norming","","","","","","",""
"2420.5500000000466","","","post_reveal_questions","survey-likert","96","501381","0.0-6.0-6.12","2668967","co37690","norming","","","{""aha"":3}","[0]","../img/tt/353tt.jpg","",""
"null","<div style=""font-size:60px;""> </div>","null","fixation","html-keyboard-response","97","501582","0.0-6.0-0.13","2668967","co37690","norming","","","","","","",""
"null","../img/tt/091tt.jpg","null","mooney1","image-keyboard-response","98","504592","0.0-6.0-1.13","2668967","co37690","norming","","","","","","",""
"5674.119999999995","","","post_mooney1_questions","survey-likert","99","510269","0.0-6.0-2.13","2668967","co37690","norming","","","{""curiosity"":3,""confidence"":1}","[0,1]","../img/tt/091tt.jpg","",""
"6669.954999999842","","","recognition","survey-text","100","516940","0.0-6.0-3.13","2668967","co37690","norming","","","{""guess"":""people standing""}","","../img/tt/091tt.jpg","",""
"null","../img/gs/091gs.jpg","null","reveal","image-keyboard-response","101","518950","0.0-6.0-4.13","2668967","co37690","norming","","","","","","",""
"null","../img/tt/091tt.jpg","null","mooney2","image-keyboard-response","102","520958","0.0-6.0-5.13","2668967","co37690","norming","","","","","","",""
"1811.9300000001094","","","post_reveal_questions","survey-likert","103","522772","0.0-6.0-6.13","2668967","co37690","norming","","","{""aha"":3}","[0]","../img/tt/091tt.jpg","",""
"null","<div style=""font-size:60px;""> </div>","null","fixation","html-keyboard-response","104","522974","0.0-6.0-0.14","2668967","co37690","norming","","","","","","",""
"null","../img/tt/279tt.jpg","null","mooney1","image-keyboard-response","105","525983","0.0-6.0-1.14","2668967","co37690","norming","","","","","","",""
"3826.705000000191","","","post_mooney1_questions","survey-likert","106","529812","0.0-6.0-2.14","2668967","co37690","norming","","","{""curiosity"":0,""confidence"":5}","[0,1]","../img/tt/279tt.jpg","",""
"3062.265000000014","","","recognition","survey-text","107","532876","0.0-6.0-3.14","2668967","co37690","norming","","","{""guess"":""koala""}","","../img/tt/279tt.jpg","",""
"null","../img/gs/279gs.jpg","null","reveal","image-keyboard-response","108","534879","0.0-6.0-4.14","2668967","co37690","norming","","","","","","",""
"null","../img/tt/279tt.jpg","null","mooney2","image-keyboard-response","109","536889","0.0-6.0-5.14","2668967","co37690","norming","","","","","","",""
"2225.3300000000745","","","post_reveal_questions","survey-likert","110","539116","0.0-6.0-6.14","2668967","co37690","norming","","","{""aha"":0}","[0]","../img/tt/279tt.jpg","",""
"null","<div style=""font-size:60px;""> </div>","null","fixation","html-keyboard-response","111","539318","0.0-6.0-0.15","2668967","co37690","norming","","","","","","",""
"null","../img/tt/040tt.jpg","null","mooney1","image-keyboard-response","112","542322","0.0-6.0-1.15","2668967","co37690","norming","","","","","","",""
"4320.260000000009","","","post_mooney1_questions","survey-likert","113","546645","0.0-6.0-2.15","2668967","co37690","norming","","","{""curiosity"":2,""confidence"":1}","[0,1]","../img/tt/040tt.jpg","",""
"2222.119999999879","","","recognition","survey-text","114","548863","0.0-6.0-3.15","2668967","co37690","norming","","","{""guess"":""dog""}","","../img/tt/040tt.jpg","",""
"null","../img/gs/040gs.jpg","null","reveal","image-keyboard-response","115","550873","0.0-6.0-4.15","2668967","co37690","norming","","","","","","",""
"null","../img/tt/040tt.jpg","null","mooney2","image-keyboard-response","116","552881","0.0-6.0-5.15","2668967","co37690","norming","","","","","","",""
"1827.4949999999953","","","post_reveal_questions","survey-likert","117","554711","0.0-6.0-6.15","2668967","co37690","norming","","","{""aha"":3}","[0]","../img/tt/040tt.jpg","",""
"null","<div style=""font-size:60px;""> </div>","null","fixation","html-keyboard-response","118","554913","0.0-6.0-0.16","2668967","co37690","norming","","","","","","",""
"null","../img/tt/078tt.jpg","null","mooney1","image-keyboard-response","119","557924","0.0-6.0-1.16","2668967","co37690","norming","","","","","","",""
"5550.835000000079","","","post_mooney1_questions","survey-likert","120","563479","0.0-6.0-2.16","2668967","co37690","norming","","","{""curiosity"":1,""confidence"":4}","[0,1]","../img/tt/078tt.jpg","",""
"2678.1700000001583","","","recognition","survey-text","121","566159","0.0-6.0-3.16","2668967","co37690","norming","","","{""guess"":""grapes""}","","../img/tt/078tt.jpg","",""
"null","../img/gs/078gs.jpg","null","reveal","image-keyboard-response","122","568165","0.0-6.0-4.16","2668967","co37690","norming","","","","","","",""
"null","../img/tt/078tt.jpg","null","mooney2","image-keyboard-response","123","570171","0.0-6.0-5.16","2668967","co37690","norming","","","","","","",""
"2865.894999999902","","","post_reveal_questions","survey-likert","124","573039","0.0-6.0-6.16","2668967","co37690","norming","","","{""aha"":1}","[0]","../img/tt/078tt.jpg","",""
"null","<div style=""font-size:60px;""> </div>","null","fixation","html-keyboard-response","125","573240","0.0-6.0-0.17","2668967","co37690","norming","","","","","","",""
"null","../img/tt/1080tt.jpg","null","mooney1","image-keyboard-response","126","576251","0.0-6.0-1.17","2668967","co37690","norming","","","","","","",""
"4161.310000000172","","","post_mooney1_questions","survey-likert","127","580415","0.0-6.0-2.17","2668967","co37690","norming","","","{""curiosity"":1,""confidence"":1}","[0,1]","../img/tt/1080tt.jpg","",""
"14525.900000000023","","","recognition","survey-text","128","594943","0.0-6.0-3.17","2668967","co37690","norming","","","{""guess"":""people leaning""}","","../img/tt/1080tt.jpg","",""
"null","../img/gs/1080gs.jpg","null","reveal","image-keyboard-response","129","596944","0.0-6.0-4.17","2668967","co37690","norming","","","","","","",""
"null","../img/tt/1080tt.jpg","null","mooney2","image-keyboard-response","130","598954","0.0-6.0-5.17","2668967","co37690","norming","","","","","","",""
"4178.005000000005","","","post_reveal_questions","survey-likert","131","603135","0.0-6.0-6.17","2668967","co37690","norming","","","{""aha"":1}","[0]","../img/tt/1080tt.jpg","",""
"null","<div style=""font-size:60px;""> </div>","null","fixation","html-keyboard-response","132","603340","0.0-6.0-0.18","2668967","co37690","norming","","","","","","",""
"null","../img/tt/318tt.jpg","null","mooney1","image-keyboard-response","133","606348","0.0-6.0-1.18","2668967","co37690","norming","","","","","","",""
"5377.070000000065","","","post_mooney1_questions","survey-likert","134","611726","0.0-6.0-2.18","2668967","co37690","norming","","","{""curiosity"":2,""confidence"":1}","[0,1]","../img/tt/318tt.jpg","",""
"2157.7700000000186","","","recognition","survey-text","135","613885","0.0-6.0-3.18","2668967","co37690","norming","","","{""guess"":""car""}","","../img/tt/318tt.jpg","",""
"null","../img/gs/318gs.jpg","null","reveal","image-keyboard-response","136","615886","0.0-6.0-4.18","2668967","co37690","norming","","","","","","",""
"null","../img/tt/318tt.jpg","null","mooney2","image-keyboard-response","137","617893","0.0-6.0-5.18","2668967","co37690","norming","","","","","","",""
"2039.134999999893","","","post_reveal_questions","survey-likert","138","619933","0.0-6.0-6.18","2668967","co37690","norming","","","{""aha"":1}","[0]","../img/tt/318tt.jpg","",""
"null","<div style=""font-size:60px;""> </div>","null","fixation","html-keyboard-response","139","620137","0.0-6.0-0.19","2668967","co37690","norming","","","","","","",""
"null","../img/tt/1241tt.jpg","null","mooney1","image-keyboard-response","140","623146","0.0-6.0-1.19","2668967","co37690","norming","","","","","","",""
"5793.244999999995","","","post_mooney1_questions","survey-likert","141","628942","0.0-6.0-2.19","2668967","co37690","norming","","","{""curiosity"":2,""confidence"":0}","[0,1]","../img/tt/1241tt.jpg","",""
"614.0600000000559","","","recognition","survey-text","142","629557","0.0-6.0-3.19","2668967","co37690","norming","","","{""guess"":""""}","","../img/tt/1241tt.jpg","",""
"null","../img/gs/1241gs.jpg","null","reveal","image-keyboard-response","143","631567","0.0-6.0-4.19","2668967","co37690","norming","","","","","","",""
"null","../img/tt/1241tt.jpg","null","mooney2","image-keyboard-response","144","633572","0.0-6.0-5.19","2668967","co37690","norming","","","","","","",""
"2375.0550000001676","","","post_reveal_questions","survey-likert","145","635949","0.0-6.0-6.19","2668967","co37690","norming","","","{""aha"":0}","[0]","../img/tt/1241tt.jpg","",""
"null","<div style=""font-size:60px;""> </div>","null","fixation","html-keyboard-response","146","636155","0.0-6.0-0.20","2668967","co37690","norming","","","","","","",""
"null","../img/tt/084tt.jpg","null","mooney1","image-keyboard-response","147","639166","0.0-6.0-1.20","2668967","co37690","norming","","","","","","",""
"5445.369999999995","","","post_mooney1_questions","survey-likert","148","644613","0.0-6.0-2.20","2668967","co37690","norming","","","{""curiosity"":1,""confidence"":5}","[0,1]","../img/tt/084tt.jpg","",""
"2446.140000000014","","","recognition","survey-text","149","647061","0.0-6.0-3.20","2668967","co37690","norming","","","{""guess"":""goose""}","","../img/tt/084tt.jpg","",""
"null","../img/gs/084gs.jpg","null","reveal","image-keyboard-response","150","649068","0.0-6.0-4.20","2668967","co37690","norming","","","","","","",""
"null","../img/tt/084tt.jpg","null","mooney2","image-keyboard-response","151","651072","0.0-6.0-5.20","2668967","co37690","norming","","","","","","",""
"2394.6749999998137","","","post_reveal_questions","survey-likert","152","653469","0.0-6.0-6.20","2668967","co37690","norming","","","{""aha"":0}","[0]","../img/tt/084tt.jpg","",""
"null","<div style=""font-size:60px;""> </div>","null","fixation","html-keyboard-response","153","653677","0.0-6.0-0.21","2668967","co37690","norming","","","","","","",""
"null","../img/tt/1043tt.jpg","null","mooney1","image-keyboard-response","154","656686","0.0-6.0-1.21","2668967","co37690","norming","","","","","","",""
"4396.5800000000745","","","post_mooney1_questions","survey-likert","155","661085","0.0-6.0-2.21","2668967","co37690","norming","","","{""curiosity"":1,""confidence"":0}","[0,1]","../img/tt/1043tt.jpg","",""
"3518.229999999865","","","recognition","survey-text","156","664605","0.0-6.0-3.21","2668967","co37690","norming","","","{""guess"":""sledge""}","","../img/tt/1043tt.jpg","",""
"null","../img/gs/1043gs.jpg","null","reveal","image-keyboard-response","157","666616","0.0-6.0-4.21","2668967","co37690","norming","","","","","","",""
"null","../img/tt/1043tt.jpg","null","mooney2","image-keyboard-response","158","668620","0.0-6.0-5.21","2668967","co37690","norming","","","","","","",""
"3983.065000000177","","","post_reveal_questions","survey-likert","159","672611","0.0-6.0-6.21","2668967","co37690","norming","","","{""aha"":1}","[0]","../img/tt/1043tt.jpg","",""
"null","<div style=""font-size:60px;""> </div>","null","fixation","html-keyboard-response","160","672818","0.0-6.0-0.22","2668967","co37690","norming","","","","","","",""
"null","../img/tt/1366tt.jpg","null","mooney1","image-keyboard-response","161","675826","0.0-6.0-1.22","2668967","co37690","norming","","","","","","",""
"8576.469999999972","","","post_mooney1_questions","survey-likert","162","684403","0.0-6.0-2.22","2668967","co37690","norming","","","{""curiosity"":2,""confidence"":0}","[0,1]","../img/tt/1366tt.jpg","",""
"5014.159999999916","","","recognition","survey-text","163","689419","0.0-6.0-3.22","2668967","co37690","norming","","","{""guess"":""koala""}","","../img/tt/1366tt.jpg","",""
"null","../img/gs/1366gs.jpg","null","reveal","image-keyboard-response","164","691429","0.0-6.0-4.22","2668967","co37690","norming","","","","","","",""
"null","../img/tt/1366tt.jpg","null","mooney2","image-keyboard-response","165","693433","0.0-6.0-5.22","2668967","co37690","norming","","","","","","",""
"2567.1549999999115","","","post_reveal_questions","survey-likert","166","696003","0.0-6.0-6.22","2668967","co37690","norming","","","{""aha"":3}","[0]","../img/tt/1366tt.jpg","",""
"null","<div style=""font-size:60px;""> </div>","null","fixation","html-keyboard-response","167","696205","0.0-6.0-0.23","2668967","co37690","norming","","","","","","",""
"null","../img/tt/105tt.jpg","null","mooney1","image-keyboard-response","168","699213","0.0-6.0-1.23","2668967","co37690","norming","","","","","","",""
"3323.089999999851","","","post_mooney1_questions","survey-likert","169","702539","0.0-6.0-2.23","2668967","co37690","norming","","","{""curiosity"":2,""confidence"":4}","[0,1]","../img/tt/105tt.jpg","",""
"3478.33499999973","","","recognition","survey-text","170","706019","0.0-6.0-3.23","2668967","co37690","norming","","","{""guess"":""paperclips""}","","../img/tt/105tt.jpg","",""
"null","../img/gs/105gs.jpg","null","reveal","image-keyboard-response","171","708021","0.0-6.0-4.23","2668967","co37690","norming","","","","","","",""
"null","../img/tt/105tt.jpg","null","mooney2","image-keyboard-response","172","710027","0.0-6.0-5.23","2668967","co37690","norming","","","","","","",""
"1542.199999999837","","","post_reveal_questions","survey-likert","173","711571","0.0-6.0-6.23","2668967","co37690","norming","","","{""aha"":0}","[0]","../img/tt/105tt.jpg","",""
"null","<div style=""font-size:60px;""> </div>","null","fixation","html-keyboard-response","174","711778","0.0-6.0-0.24","2668967","co37690","norming","","","","","","",""
"null","../img/tt/1046tt.jpg","null","mooney1","image-keyboard-response","175","714784","0.0-6.0-1.24","2668967","co37690","norming","","","","","","",""
"3296.339999999851","","","post_mooney1_questions","survey-likert","176","718083","0.0-6.0-2.24","2668967","co37690","norming","","","{""curiosity"":1,""confidence"":2}","[0,1]","../img/tt/1046tt.jpg","",""
"2630.4199999999255","","","recognition","survey-text","177","720715","0.0-6.0-3.24","2668967","co37690","norming","","","{""guess"":""pizza""}","","../img/tt/1046tt.jpg","",""
"null","../img/gs/1046gs.jpg","null","reveal","image-keyboard-response","178","722717","0.0-6.0-4.24","2668967","co37690","norming","","","","","","",""
"null","../img/tt/1046tt.jpg","null","mooney2","image-keyboard-response","179","724729","0.0-6.0-5.24","2668967","co37690","norming","","","","","","",""
"2767.704999999958","","","post_reveal_questions","survey-likert","180","727499","0.0-6.0-6.24","2668967","co37690","norming","","","{""aha"":0}","[0]","../img/tt/1046tt.jpg","",""
"null","<div style=""font-size:60px;""> </div>","null","fixation","html-keyboard-response","181","727707","0.0-6.0-0.25","2668967","co37690","norming","","","","","","",""
"null","../img/tt/060tt.jpg","null","mooney1","image-keyboard-response","182","730718","0.0-6.0-1.25","2668967","co37690","norming","","","","","","",""
"2762.1750000000466","","","post_mooney1_questions","survey-likert","183","733481","0.0-6.0-2.25","2668967","co37690","norming","","","{""curiosity"":2,""confidence"":2}","[0,1]","../img/tt/060tt.jpg","",""
"4814.20000000007","","","recognition","survey-text","184","738297","0.0-6.0-3.25","2668967","co37690","norming","","","{""guess"":""hedgehog""}","","../img/tt/060tt.jpg","",""
"null","../img/gs/060gs.jpg","null","reveal","image-keyboard-response","185","740304","0.0-6.0-4.25","2668967","co37690","norming","","","","","","",""
"null","../img/tt/060tt.jpg","null","mooney2","image-keyboard-response","186","742314","0.0-6.0-5.25","2668967","co37690","norming","","","","","","",""
"1932.704999999958","","","post_reveal_questions","survey-likert","187","744249","0.0-6.0-6.25","2668967","co37690","norming","","","{""aha"":1}","[0]","../img/tt/060tt.jpg","",""
"null","<div style=""font-size:60px;""> </div>","null","fixation","html-keyboard-response","188","744456","0.0-6.0-0.26","2668967","co37690","norming","","","","","","",""
"null","../img/tt/1186tt.jpg","null","mooney1","image-keyboard-response","189","747465","0.0-6.0-1.26","2668967","co37690","norming","","","","","","",""
"3093.1750000000466","","","post_mooney1_questions","survey-likert","190","750561","0.0-6.0-2.26","2668967","co37690","norming","","","{""curiosity"":2,""confidence"":2}","[0,1]","../img/tt/1186tt.jpg","",""
"4325.964999999967","","","recognition","survey-text","191","754889","0.0-6.0-3.26","2668967","co37690","norming","","","{""guess"":""man skiing""}","","../img/tt/1186tt.jpg","",""
"null","../img/gs/1186gs.jpg","null","reveal","image-keyboard-response","192","756900","0.0-6.0-4.26","2668967","co37690","norming","","","","","","",""
"null","../img/tt/1186tt.jpg","null","mooney2","image-keyboard-response","193","758903","0.0-6.0-5.26","2668967","co37690","norming","","","","","","",""
"1296.2749999999069","","","post_reveal_questions","survey-likert","194","760201","0.0-6.0-6.26","2668967","co37690","norming","","","{""aha"":1}","[0]","../img/tt/1186tt.jpg","",""
"null","<div style=""font-size:60px;""> </div>","null","fixation","html-keyboard-response","195","760403","0.0-6.0-0.27","2668967","co37690","norming","","","","","","",""
"null","../img/tt/329tt.jpg","null","mooney1","image-keyboard-response","196","763411","0.0-6.0-1.27","2668967","co37690","norming","","","","","","",""
"3284.6999999999534","","","post_mooney1_questions","survey-likert","197","766697","0.0-6.0-2.27","2668967","co37690","norming","","","{""curiosity"":3,""confidence"":0}","[0,1]","../img/tt/329tt.jpg","",""
"893.9049999999115","","","recognition","survey-text","198","767593","0.0-6.0-3.27","2668967","co37690","norming","","","{""guess"":""""}","","../img/tt/329tt.jpg","",""
"null","../img/gs/329gs.jpg","null","reveal","image-keyboard-response","199","769599","0.0-6.0-4.27","2668967","co37690","norming","","","","","","",""
"null","../img/tt/329tt.jpg","null","mooney2","image-keyboard-response","200","771610","0.0-6.0-5.27","2668967","co37690","norming","","","","","","",""
"1164.7399999998743","","","post_reveal_questions","survey-likert","201","772777","0.0-6.0-6.27","2668967","co37690","norming","","","{""aha"":2}","[0]","../img/tt/329tt.jpg","",""
"null","<div style=""font-size:60px;""> </div>","null","fixation","html-keyboard-response","202","772982","0.0-6.0-0.28","2668967","co37690","norming","","","","","","",""
"null","../img/tt/1278tt.jpg","null","mooney1","image-keyboard-response","203","775987","0.0-6.0-1.28","2668967","co37690","norming","","","","","","",""
"3859.570000000065","","","post_mooney1_questions","survey-likert","204","779849","0.0-6.0-2.28","2668967","co37690","norming","","","{""curiosity"":3,""confidence"":0}","[0,1]","../img/tt/1278tt.jpg","",""
"1206.3250000000698","","","recognition","survey-text","205","781057","0.0-6.0-3.28","2668967","co37690","norming","","","{""guess"":""""}","","../img/tt/1278tt.jpg","",""
"null","../img/gs/1278gs.jpg","null","reveal","image-keyboard-response","206","783061","0.0-6.0-4.28","2668967","co37690","norming","","","","","","",""
"null","../img/tt/1278tt.jpg","null","mooney2","image-keyboard-response","207","785063","0.0-6.0-5.28","2668967","co37690","norming","","","","","","",""
"4726.949999999953","","","post_reveal_questions","survey-likert","208","789792","0.0-6.0-6.28","2668967","co37690","norming","","","{""aha"":2}","[0]","../img/tt/1278tt.jpg","",""
"null","<div style=""font-size:60px;""> </div>","null","fixation","html-keyboard-response","209","790003","0.0-6.0-0.29","2668967","co37690","norming","","","","","","",""
"null","../img/tt/1128tt.jpg","null","mooney1","image-keyboard-response","210","793014","0.0-6.0-1.29","2668967","co37690","norming","","","","","","",""
"6278.119999999879","","","post_mooney1_questions","survey-likert","211","799295","0.0-6.0-2.29","2668967","co37690","norming","","","{""curiosity"":3,""confidence"":1}","[0,1]","../img/tt/1128tt.jpg","",""
"2974.2949999999255","","","recognition","survey-text","212","802271","0.0-6.0-3.29","2668967","co37690","norming","","","{""guess"":""women dancing""}","","../img/tt/1128tt.jpg","",""
"null","../img/gs/1128gs.jpg","null","reveal","image-keyboard-response","213","804280","0.0-6.0-4.29","2668967","co37690","norming","","","","","","",""
"null","../img/tt/1128tt.jpg","null","mooney2","image-keyboard-response","214","806282","0.0-6.0-5.29","2668967","co37690","norming","","","","","","",""
"2698.9000000001397","","","post_reveal_questions","survey-likert","215","808983","0.0-6.0-6.29","2668967","co37690","norming","","","{""aha"":1}","[0]","../img/tt/1128tt.jpg","",""
"null","<div style=""font-size:60px;""> </div>","null","fixation","html-keyboard-response","216","809184","0.0-6.0-0.30","2668967","co37690","norming","","","","","","",""
"null","../img/tt/1279tt.jpg","null","mooney1","image-keyboard-response","217","812192","0.0-6.0-1.30","2668967","co37690","norming","","","","","","",""
"4052.134999999893","","","post_mooney1_questions","survey-likert","218","816247","0.0-6.0-2.30","2668967","co37690","norming","","","{""curiosity"":1,""confidence"":1}","[0,1]","../img/tt/1279tt.jpg","",""
"6318.009999999893","","","recognition","survey-text","219","822567","0.0-6.0-3.30","2668967","co37690","norming","","","{""guess"":""deers""}","","../img/tt/1279tt.jpg","",""
"null","../img/gs/1279gs.jpg","null","reveal","image-keyboard-response","220","824568","0.0-6.0-4.30","2668967","co37690","norming","","","","","","",""
"null","../img/tt/1279tt.jpg","null","mooney2","image-keyboard-response","221","826575","0.0-6.0-5.30","2668967","co37690","norming","","","","","","",""
"2373.984999999986","","","post_reveal_questions","survey-likert","222","828951","0.0-6.0-6.30","2668967","co37690","norming","","","{""aha"":1}","[0]","../img/tt/1279tt.jpg","",""
"null","<div style=""font-size:60px;""> </div>","null","fixation","html-keyboard-response","223","829161","0.0-6.0-0.31","2668967","co37690","norming","","","","","","",""
"null","../img/tt/405tt.jpg","null","mooney1","image-keyboard-response","224","832163","0.0-6.0-1.31","2668967","co37690","norming","","","","","","",""
"4153.925000000047","","","post_mooney1_questions","survey-likert","225","836319","0.0-6.0-2.31","2668967","co37690","norming","","","{""curiosity"":1,""confidence"":1}","[0,1]","../img/tt/405tt.jpg","",""
"2245.9400000000605","","","recognition","survey-text","226","838567","0.0-6.0-3.31","2668967","co37690","norming","","","{""guess"":""fries""}","","../img/tt/405tt.jpg","",""
"null","../img/gs/405gs.jpg","null","reveal","image-keyboard-response","227","840571","0.0-6.0-4.31","2668967","co37690","norming","","","","","","",""
"null","../img/tt/405tt.jpg","null","mooney2","image-keyboard-response","228","842580","0.0-6.0-5.31","2668967","co37690","norming","","","","","","",""
"2968.280000000028","","","post_reveal_questions","survey-likert","229","845551","0.0-6.0-6.31","2668967","co37690","norming","","","{""aha"":3}","[0]","../img/tt/405tt.jpg","",""
"null","<div style=""font-size:60px;""> </div>","null","fixation","html-keyboard-response","230","845756","0.0-6.0-0.32","2668967","co37690","norming","","","","","","",""
"null","../img/tt/300tt.jpg","null","mooney1","image-keyboard-response","231","848768","0.0-6.0-1.32","2668967","co37690","norming","","","","","","",""
"3243.125","","","post_mooney1_questions","survey-likert","232","852015","0.0-6.0-2.32","2668967","co37690","norming","","","{""curiosity"":1,""confidence"":3}","[0,1]","../img/tt/300tt.jpg","",""
"4685.890000000014","","","recognition","survey-text","233","856704","0.0-6.0-3.32","2668967","co37690","norming","","","{""guess"":""people hugging""}","","../img/tt/300tt.jpg","",""
"null","../img/gs/300gs.jpg","null","reveal","image-keyboard-response","234","858713","0.0-6.0-4.32","2668967","co37690","norming","","","","","","",""
"null","../img/tt/300tt.jpg","null","mooney2","image-keyboard-response","235","860719","0.0-6.0-5.32","2668967","co37690","norming","","","","","","",""
"2807.815000000177","","","post_reveal_questions","survey-likert","236","863528","0.0-6.0-6.32","2668967","co37690","norming","","","{""aha"":0}","[0]","../img/tt/300tt.jpg","",""
"null","<div style=""font-size:60px;""> </div>","null","fixation","html-keyboard-response","237","863737","0.0-6.0-0.33","2668967","co37690","norming","","","","","","",""
"null","../img/tt/1260tt.jpg","null","mooney1","image-keyboard-response","238","866746","0.0-6.0-1.33","2668967","co37690","norming","","","","","","",""
"4244.645000000019","","","post_mooney1_questions","survey-likert","239","870992","0.0-6.0-2.33","2668967","co37690","norming","","","{""curiosity"":1,""confidence"":0}","[0,1]","../img/tt/1260tt.jpg","",""
"558.0600000000559","","","recognition","survey-text","240","871552","0.0-6.0-3.33","2668967","co37690","norming","","","{""guess"":""""}","","../img/tt/1260tt.jpg","",""
"null","../img/gs/1260gs.jpg","null","reveal","image-keyboard-response","241","873554","0.0-6.0-4.33","2668967","co37690","norming","","","","","","",""
"null","../img/tt/1260tt.jpg","null","mooney2","image-keyboard-response","242","875561","0.0-6.0-5.33","2668967","co37690","norming","","","","","","",""
"1566.2249999999767","","","post_reveal_questions","survey-likert","243","877128","0.0-6.0-6.33","2668967","co37690","norming","","","{""aha"":2}","[0]","../img/tt/1260tt.jpg","",""
"null","<div style=""font-size:60px;""> </div>","null","fixation","html-keyboard-response","244","877333","0.0-6.0-0.34","2668967","co37690","norming","","","","","","",""
"null","../img/tt/1048tt.jpg","null","mooney1","image-keyboard-response","245","880338","0.0-6.0-1.34","2668967","co37690","norming","","","","","","",""
"4717.000000000116","","","post_mooney1_questions","survey-likert","246","885056","0.0-6.0-2.34","2668967","co37690","norming","","","{""curiosity"":2,""confidence"":1}","[0,1]","../img/tt/1048tt.jpg","",""
"2181.935000000056","","","recognition","survey-text","247","887240","0.0-6.0-3.34","2668967","co37690","norming","","","{""guess"":""horse""}","","../img/tt/1048tt.jpg","",""
"null","../img/gs/1048gs.jpg","null","reveal","image-keyboard-response","248","889248","0.0-6.0-4.34","2668967","co37690","norming","","","","","","",""
"null","../img/tt/1048tt.jpg","null","mooney2","image-keyboard-response","249","891249","0.0-6.0-5.34","2668967","co37690","norming","","","","","","",""
"1805.8349999998463","","","post_reveal_questions","survey-likert","250","893056","0.0-6.0-6.34","2668967","co37690","norming","","","{""aha"":3}","[0]","../img/tt/1048tt.jpg","",""
"null","<div style=""font-size:60px;""> </div>","null","fixation","html-keyboard-response","251","893259","0.0-6.0-0.35","2668967","co37690","norming","","","","","","",""
"null","../img/tt/1049tt.jpg","null","mooney1","image-keyboard-response","252","896261","0.0-6.0-1.35","2668967","co37690","norming","","","","","","",""
"2914.305000000051","","","post_mooney1_questions","survey-likert","253","899176","0.0-6.0-2.35","2668967","co37690","norming","","","{""curiosity"":1,""confidence"":1}","[0,1]","../img/tt/1049tt.jpg","",""
"2333.8250000001863","","","recognition","survey-text","254","901512","0.0-6.0-3.35","2668967","co37690","norming","","","{""guess"":""sheep""}","","../img/tt/1049tt.jpg","",""
"null","../img/gs/1049gs.jpg","null","reveal","image-keyboard-response","255","903518","0.0-6.0-4.35","2668967","co37690","norming","","","","","","",""
"null","../img/tt/1049tt.jpg","null","mooney2","image-keyboard-response","256","905519","0.0-6.0-5.35","2668967","co37690","norming","","","","","","",""
"3343.82500000007","","","post_reveal_questions","survey-likert","257","908864","0.0-6.0-6.35","2668967","co37690","norming","","","{""aha"":1}","[0]","../img/tt/1049tt.jpg","",""
"null","<div style=""font-size:60px;""> </div>","null","fixation","html-keyboard-response","258","909065","0.0-6.0-0.36","2668967","co37690","norming","","","","","","",""
"null","../img/tt/194tt.jpg","null","mooney1","image-keyboard-response","259","912075","0.0-6.0-1.36","2668967","co37690","norming","","","","","","",""
"6979.564999999828","","","post_mooney1_questions","survey-likert","260","919053","0.0-6.0-2.36","2668967","co37690","norming","","","{""curiosity"":2,""confidence"":1}","[0,1]","../img/tt/194tt.jpg","",""
"5997.760000000126","","","recognition","survey-text","261","925052","0.0-6.0-3.36","2668967","co37690","norming","","","{""guess"":""girl harp""}","","../img/tt/194tt.jpg","",""
"null","../img/gs/194gs.jpg","null","reveal","image-keyboard-response","262","927061","0.0-6.0-4.36","2668967","co37690","norming","","","","","","",""
"null","../img/tt/194tt.jpg","null","mooney2","image-keyboard-response","263","929065","0.0-6.0-5.36","2668967","co37690","norming","","","","","","",""
"2387.070000000065","","","post_reveal_questions","survey-likert","264","931453","0.0-6.0-6.36","2668967","co37690","norming","","","{""aha"":3}","[0]","../img/tt/194tt.jpg","",""
"null","<div style=""font-size:60px;""> </div>","null","fixation","html-keyboard-response","265","931659","0.0-6.0-0.37","2668967","co37690","norming","","","","","","",""
"null","../img/tt/315tt.jpg","null","mooney1","image-keyboard-response","266","934669","0.0-6.0-1.37","2668967","co37690","norming","","","","","","",""
"5070.594999999856","","","post_mooney1_questions","survey-likert","267","939741","0.0-6.0-2.37","2668967","co37690","norming","","","{""curiosity"":3,""confidence"":0}","[0,1]","../img/tt/315tt.jpg","",""
"598.109999999986","","","recognition","survey-text","268","940341","0.0-6.0-3.37","2668967","co37690","norming","","","{""guess"":""""}","","../img/tt/315tt.jpg","",""
"null","../img/gs/315gs.jpg","null","reveal","image-keyboard-response","269","942346","0.0-6.0-4.37","2668967","co37690","norming","","","","","","",""
"null","../img/tt/315tt.jpg","null","mooney2","image-keyboard-response","270","944348","0.0-6.0-5.37","2668967","co37690","norming","","","","","","",""
"1375.9449999999488","","","post_reveal_questions","survey-likert","271","945725","0.0-6.0-6.37","2668967","co37690","norming","","","{""aha"":3}","[0]","../img/tt/315tt.jpg","",""
"null","<div style=""font-size:60px;""> </div>","null","fixation","html-keyboard-response","272","945926","0.0-6.0-0.38","2668967","co37690","norming","","","","","","",""
"null","../img/tt/1156tt.jpg","null","mooney1","image-keyboard-response","273","948936","0.0-6.0-1.38","2668967","co37690","norming","","","","","","",""
"5642.225000000093","","","post_mooney1_questions","survey-likert","274","954581","0.0-6.0-2.38","2668967","co37690","norming","","","{""curiosity"":2,""confidence"":1}","[0,1]","../img/tt/1156tt.jpg","",""
"2158.194999999949","","","recognition","survey-text","275","956740","0.0-6.0-3.38","2668967","co37690","norming","","","{""guess"":""cat""}","","../img/tt/1156tt.jpg","",""
"null","../img/gs/1156gs.jpg","null","reveal","image-keyboard-response","276","958750","0.0-6.0-4.38","2668967","co37690","norming","","","","","","",""
"null","../img/tt/1156tt.jpg","null","mooney2","image-keyboard-response","277","960755","0.0-6.0-5.38","2668967","co37690","norming","","","","","","",""
"1544.4150000000373","","","post_reveal_questions","survey-likert","278","962300","0.0-6.0-6.38","2668967","co37690","norming","","","{""aha"":3}","[0]","../img/tt/1156tt.jpg","",""
"null","<div style=""font-size:60px;""> </div>","null","fixation","html-keyboard-response","279","962511","0.0-6.0-0.39","2668967","co37690","norming","","","","","","",""
"null","../img/tt/435tt.jpg","null","mooney1","image-keyboard-response","280","965519","0.0-6.0-1.39","2668967","co37690","norming","","","","","","",""
"3027.1300000000047","","","post_mooney1_questions","survey-likert","281","968549","0.0-6.0-2.39","2668967","co37690","norming","","","{""curiosity"":1,""confidence"":0}","[0,1]","../img/tt/435tt.jpg","",""
"654.1050000000978","","","recognition","survey-text","282","969204","0.0-6.0-3.39","2668967","co37690","norming","","","{""guess"":""""}","","../img/tt/435tt.jpg","",""
"null","../img/gs/435gs.jpg","null","reveal","image-keyboard-response","283","971214","0.0-6.0-4.39","2668967","co37690","norming","","","","","","",""
"null","../img/tt/435tt.jpg","null","mooney2","image-keyboard-response","284","973223","0.0-6.0-5.39","2668967","co37690","norming","","","","","","",""
"4706.770000000019","","","post_reveal_questions","survey-likert","285","977939","0.0-6.0-6.39","2668967","co37690","norming","","","{""aha"":0}","[0]","../img/tt/435tt.jpg","",""
"null","<div style=""font-size:60px;""> </div>","null","fixation","html-keyboard-response","286","978141","0.0-6.0-0.40","2668967","co37690","norming","","","","","","",""
"null","../img/tt/007tt.jpg","null","mooney1","image-keyboard-response","287","981144","0.0-6.0-1.40","2668967","co37690","norming","","","","","","",""
"7831.844999999972","","","post_mooney1_questions","survey-likert","288","988979","0.0-6.0-2.40","2668967","co37690","norming","","","{""curiosity"":2,""confidence"":1}","[0,1]","../img/tt/007tt.jpg","",""
"6501.880000000005","","","recognition","survey-text","289","995483","0.0-6.0-3.40","2668967","co37690","norming","","","{""guess"":""men skiing""}","","../img/tt/007tt.jpg","",""
"null","../img/gs/007gs.jpg","null","reveal","image-keyboard-response","290","997485","0.0-6.0-4.40","2668967","co37690","norming","","","","","","",""
"null","../img/tt/007tt.jpg","null","mooney2","image-keyboard-response","291","999487","0.0-6.0-5.40","2668967","co37690","norming","","","","","","",""
"3242.009999999893","","","post_reveal_questions","survey-likert","292","1002731","0.0-6.0-6.40","2668967","co37690","norming","","","{""aha"":2}","[0]","../img/tt/007tt.jpg","",""
"null","<div style=""font-size:60px;""> </div>","null","fixation","html-keyboard-response","293","1002941","0.0-6.0-0.41","2668967","co37690","norming","","","","","","",""
"null","../img/tt/1171tt.jpg","null","mooney1","image-keyboard-response","294","1005947","0.0-6.0-1.41","2668967","co37690","norming","","","","","","",""
"5334.739999999991","","","post_mooney1_questions","survey-likert","295","1011283","0.0-6.0-2.41","2668967","co37690","norming","","","{""curiosity"":2,""confidence"":1}","[0,1]","../img/tt/1171tt.jpg","",""
"3398.054999999935","","","recognition","survey-text","296","1014683","0.0-6.0-3.41","2668967","co37690","norming","","","{""guess"":""skeleton""}","","../img/tt/1171tt.jpg","",""
"null","../img/gs/1171gs.jpg","null","reveal","image-keyboard-response","297","1016692","0.0-6.0-4.41","2668967","co37690","norming","","","","","","",""
"null","../img/tt/1171tt.jpg","null","mooney2","image-keyboard-response","298","1018698","0.0-6.0-5.41","2668967","co37690","norming","","","","","","",""
"1470.2449999999953","","","post_reveal_questions","survey-likert","299","1020171","0.0-6.0-6.41","2668967","co37690","norming","","","{""aha"":1}","[0]","../img/tt/1171tt.jpg","",""
"null","<div style=""font-size:60px;""> </div>","null","fixation","html-keyboard-response","300","1020381","0.0-6.0-0.42","2668967","co37690","norming","","","","","","",""
"null","../img/tt/044tt.jpg","null","mooney1","image-keyboard-response","301","1023390","0.0-6.0-1.42","2668967","co37690","norming","","","","","","",""
"5050.085000000079","","","post_mooney1_questions","survey-likert","302","1028443","0.0-6.0-2.42","2668967","co37690","norming","","","{""curiosity"":1,""confidence"":2}","[0,1]","../img/tt/044tt.jpg","",""
"2422.119999999879","","","recognition","survey-text","303","1030867","0.0-6.0-3.42","2668967","co37690","norming","","","{""guess"":""printer""}","","../img/tt/044tt.jpg","",""
"null","../img/gs/044gs.jpg","null","reveal","image-keyboard-response","304","1032871","0.0-6.0-4.42","2668967","co37690","norming","","","","","","",""
"null","../img/tt/044tt.jpg","null","mooney2","image-keyboard-response","305","1034881","0.0-6.0-5.42","2668967","co37690","norming","","","","","","",""
"1548.8749999998836","","","post_reveal_questions","survey-likert","306","1036435","0.0-6.0-6.42","2668967","co37690","norming","","","{""aha"":1}","[0]","../img/tt/044tt.jpg","",""
"null","<div style=""font-size:60px;""> </div>","null","fixation","html-keyboard-response","307","1036636","0.0-6.0-0.43","2668967","co37690","norming","","","","","","",""
"null","../img/tt/008tt.jpg","null","mooney1","image-keyboard-response","308","1039643","0.0-6.0-1.43","2668967","co37690","norming","","","","","","",""
"4891.589999999967","","","post_mooney1_questions","survey-likert","309","1044538","0.0-6.0-2.43","2668967","co37690","norming","","","{""curiosity"":1,""confidence"":0}","[0,1]","../img/tt/008tt.jpg","",""
"2070.055000000051","","","recognition","survey-text","310","1046610","0.0-6.0-3.43","2668967","co37690","norming","","","{""guess"":""umbrella""}","","../img/tt/008tt.jpg","",""
"null","../img/gs/008gs.jpg","null","reveal","image-keyboard-response","311","1048619","0.0-6.0-4.43","2668967","co37690","norming","","","","","","",""
"null","../img/tt/008tt.jpg","null","mooney2","image-keyboard-response","312","1050630","0.0-6.0-5.43","2668967","co37690","norming","","","","","","",""
"2625.6650000000373","","","post_reveal_questions","survey-likert","313","1053258","0.0-6.0-6.43","2668967","co37690","norming","","","{""aha"":1}","[0]","../img/tt/008tt.jpg","",""
"null","<div style=""font-size:60px;""> </div>","null","fixation","html-keyboard-response","314","1053465","0.0-6.0-0.44","2668967","co37690","norming","","","","","","",""
"null","../img/tt/1142tt.jpg","null","mooney1","image-keyboard-response","315","1056476","0.0-6.0-1.44","2668967","co37690","norming","","","","","","",""
"4835.104999999981","","","post_mooney1_questions","survey-likert","316","1061314","0.0-6.0-2.44","2668967","co37690","norming","","","{""curiosity"":2,""confidence"":3}","[0,1]","../img/tt/1142tt.jpg","",""
"2686.190000000177","","","recognition","survey-text","317","1064002","0.0-6.0-3.44","2668967","co37690","norming","","","{""guess"":""cheerleader""}","","../img/tt/1142tt.jpg","",""
"null","../img/gs/1142gs.jpg","null","reveal","image-keyboard-response","318","1066008","0.0-6.0-4.44","2668967","co37690","norming","","","","","","",""
"null","../img/tt/1142tt.jpg","null","mooney2","image-keyboard-response","319","1068012","0.0-6.0-5.44","2668967","co37690","norming","","","","","","",""
"1787.5200000000186","","","post_reveal_questions","survey-likert","320","1069802","0.0-6.0-6.44","2668967","co37690","norming","","","{""aha"":1}","[0]","../img/tt/1142tt.jpg","",""
"null","<div style=""font-size:60px;""> </div>","null","fixation","html-keyboard-response","321","1070003","0.0-6.0-0.45","2668967","co37690","norming","","","","","","",""
"null","../img/tt/1070tt.jpg","null","mooney1","image-keyboard-response","322","1073014","0.0-6.0-1.45","2668967","co37690","norming","","","","","","",""
"4329.570000000065","","","post_mooney1_questions","survey-likert","323","1077346","0.0-6.0-2.45","2668967","co37690","norming","","","{""curiosity"":2,""confidence"":2}","[0,1]","../img/tt/1070tt.jpg","",""
"1214.0150000001304","","","recognition","survey-text","324","1078562","0.0-6.0-3.45","2668967","co37690","norming","","","{""guess"":""cake""}","","../img/tt/1070tt.jpg","",""
"null","../img/gs/1070gs.jpg","null","reveal","image-keyboard-response","325","1080568","0.0-6.0-4.45","2668967","co37690","norming","","","","","","",""
"null","../img/tt/1070tt.jpg","null","mooney2","image-keyboard-response","326","1082575","0.0-6.0-5.45","2668967","co37690","norming","","","","","","",""
"1736.9550000000745","","","post_reveal_questions","survey-likert","327","1084314","0.0-6.0-6.45","2668967","co37690","norming","","","{""aha"":2}","[0]","../img/tt/1070tt.jpg","",""
"null","<div style=""font-size:60px;""> </div>","null","fixation","html-keyboard-response","328","1084515","0.0-6.0-0.46","2668967","co37690","norming","","","","","","",""
"null","../img/tt/080tt.jpg","null","mooney1","image-keyboard-response","329","1087523","0.0-6.0-1.46","2668967","co37690","norming","","","","","","",""
"4067.840000000084","","","post_mooney1_questions","survey-likert","330","1091594","0.0-6.0-2.46","2668967","co37690","norming","","","{""curiosity"":3,""confidence"":2}","[0,1]","../img/tt/080tt.jpg","",""
"934.339999999851","","","recognition","survey-text","331","1092530","0.0-6.0-3.46","2668967","co37690","norming","","","{""guess"":""egg""}","","../img/tt/080tt.jpg","",""
"null","../img/gs/080gs.jpg","null","reveal","image-keyboard-response","332","1094532","0.0-6.0-4.46","2668967","co37690","norming","","","","","","",""
"null","../img/tt/080tt.jpg","null","mooney2","image-keyboard-response","333","1096535","0.0-6.0-5.46","2668967","co37690","norming","","","","","","",""
"1600.809999999823","","","post_reveal_questions","survey-likert","334","1098143","0.0-6.0-6.46","2668967","co37690","norming","","","{""aha"":3}","[0]","../img/tt/080tt.jpg","",""
"null","<div style=""font-size:60px;""> </div>","null","fixation","html-keyboard-response","335","1098344","0.0-6.0-0.47","2668967","co37690","norming","","","","","","",""
"null","../img/tt/438tt.jpg","null","mooney1","image-keyboard-response","336","1101352","0.0-6.0-1.47","2668967","co37690","norming","","","","","","",""
"4171.9199999999255","","","post_mooney1_questions","survey-likert","337","1105527","0.0-6.0-2.47","2668967","co37690","norming","","","{""curiosity"":2,""confidence"":0}","[0,1]","../img/tt/438tt.jpg","",""
"1405.6699999996927","","","recognition","survey-text","338","1106935","0.0-6.0-3.47","2668967","co37690","norming","","","{""guess"":""toad""}","","../img/tt/438tt.jpg","",""
"null","../img/gs/438gs.jpg","null","reveal","image-keyboard-response","339","1108944","0.0-6.0-4.47","2668967","co37690","norming","","","","","","",""
"null","../img/tt/438tt.jpg","null","mooney2","image-keyboard-response","340","1110953","0.0-6.0-5.47","2668967","co37690","norming","","","","","","",""
"2347.0749999999534","","","post_reveal_questions","survey-likert","341","1113303","0.0-6.0-6.47","2668967","co37690","norming","","","{""aha"":3}","[0]","../img/tt/438tt.jpg","",""
"null","<div style=""font-size:60px;""> </div>","null","fixation","html-keyboard-response","342","1113508","0.0-6.0-0.48","2668967","co37690","norming","","","","","","",""
"null","../img/tt/497tt.jpg","null","mooney1","image-keyboard-response","343","1116515","0.0-6.0-1.48","2668967","co37690","norming","","","","","","",""
"4145.2700000002515","","","post_mooney1_questions","survey-likert","344","1120663","0.0-6.0-2.48","2668967","co37690","norming","","","{""curiosity"":2,""confidence"":0}","[0,1]","../img/tt/497tt.jpg","",""
"6766.114999999991","","","recognition","survey-text","345","1127431","0.0-6.0-3.48","2668967","co37690","norming","","","{""guess"":""""}","","../img/tt/497tt.jpg","",""
"null","../img/gs/497gs.jpg","null","reveal","image-keyboard-response","346","1129440","0.0-6.0-4.48","2668967","co37690","norming","","","","","","",""
"null","../img/tt/497tt.jpg","null","mooney2","image-keyboard-response","347","1131441","0.0-6.0-5.48","2668967","co37690","norming","","","","","","",""
"2195.375","","","post_reveal_questions","survey-likert","348","1133639","0.0-6.0-6.48","2668967","co37690","norming","","","{""aha"":3}","[0]","../img/tt/497tt.jpg","",""
"null","<div style=""font-size:60px;""> </div>","null","fixation","html-keyboard-response","349","1133841","0.0-6.0-0.49","2668967","co37690","norming","","","","","","",""
"null","../img/tt/019tt.jpg","null","mooney1","image-keyboard-response","350","1136852","0.0-6.0-1.49","2668967","co37690","norming","","","","","","",""
"3656.5150000001304","","","post_mooney1_questions","survey-likert","351","1140511","0.0-6.0-2.49","2668967","co37690","norming","","","{""curiosity"":4,""confidence"":0}","[0,1]","../img/tt/019tt.jpg","",""
"622.1149999999907","","","recognition","survey-text","352","1141135","0.0-6.0-3.49","2668967","co37690","norming","","","{""guess"":""""}","","../img/tt/019tt.jpg","",""
"null","../img/gs/019gs.jpg","null","reveal","image-keyboard-response","353","1143142","0.0-6.0-4.49","2668967","co37690","norming","","","","","","",""
"null","../img/tt/019tt.jpg","null","mooney2","image-keyboard-response","354","1145150","0.0-6.0-5.49","2668967","co37690","norming","","","","","","",""
"1390.4099999999162","","","post_reveal_questions","survey-likert","355","1146543","0.0-6.0-6.49","2668967","co37690","norming","","","{""aha"":5}","[0]","../img/tt/019tt.jpg","",""
"null","<div style=""font-size:60px;""> </div>","null","fixation","html-keyboard-response","356","1146747","0.0-6.0-0.50","2668967","co37690","norming","","","","","","",""
"null","../img/tt/053tt.jpg","null","mooney1","image-keyboard-response","357","1149753","0.0-6.0-1.50","2668967","co37690","norming","","","","","","",""
"4675.154999999795","","","post_mooney1_questions","survey-likert","358","1154431","0.0-6.0-2.50","2668967","co37690","norming","","","{""curiosity"":2,""confidence"":0}","[0,1]","../img/tt/053tt.jpg","",""
"2374.185000000056","","","recognition","survey-text","359","1156807","0.0-6.0-3.50","2668967","co37690","norming","","","{""guess"":""fish""}","","../img/tt/053tt.jpg","",""
"null","../img/gs/053gs.jpg","null","reveal","image-keyboard-response","360","1158814","0.0-6.0-4.50","2668967","co37690","norming","","","","","","",""
"null","../img/tt/053tt.jpg","null","mooney2","image-keyboard-response","361","1160825","0.0-6.0-5.50","2668967","co37690","norming","","","","","","",""
"2059.7349999998696","","","post_reveal_questions","survey-likert","362","1162887","0.0-6.0-6.50","2668967","co37690","norming","","","{""aha"":3}","[0]","../img/tt/053tt.jpg","",""
"null","<div style=""font-size:60px;""> </div>","null","fixation","html-keyboard-response","363","1163094","0.0-6.0-0.51","2668967","co37690","norming","","","","","","",""
"null","../img/tt/296tt.jpg","null","mooney1","image-keyboard-response","364","1166104","0.0-6.0-1.51","2668967","co37690","norming","","","","","","",""
"3732.2600000000093","","","post_mooney1_questions","survey-likert","365","1169839","0.0-6.0-2.51","2668967","co37690","norming","","","{""curiosity"":2,""confidence"":1}","[0,1]","../img/tt/296tt.jpg","",""
"5110.065000000177","","","recognition","survey-text","366","1174951","0.0-6.0-3.51","2668967","co37690","norming","","","{""guess"":""cd player""}","","../img/tt/296tt.jpg","",""
"null","../img/gs/296gs.jpg","null","reveal","image-keyboard-response","367","1176959","0.0-6.0-4.51","2668967","co37690","norming","","","","","","",""
"null","../img/tt/296tt.jpg","null","mooney2","image-keyboard-response","368","1178961","0.0-6.0-5.51","2668967","co37690","norming","","","","","","",""
"1372.030000000028","","","post_reveal_questions","survey-likert","369","1180335","0.0-6.0-6.51","2668967","co37690","norming","","","{""aha"":4}","[0]","../img/tt/296tt.jpg","",""
"null","<div style=""font-size:60px;""> </div>","null","fixation","html-keyboard-response","370","1180537","0.0-6.0-0.52","2668967","co37690","norming","","","","","","",""
"null","../img/tt/580tt.jpg","null","mooney1","image-keyboard-response","371","1183543","0.0-6.0-1.52","2668967","co37690","norming","","","","","","",""
"4887.395000000019","","","post_mooney1_questions","survey-likert","372","1188432","0.0-6.0-2.52","2668967","co37690","norming","","","{""curiosity"":3,""confidence"":0}","[0,1]","../img/tt/580tt.jpg","",""
"1493.9200000001583","","","recognition","survey-text","373","1189927","0.0-6.0-3.52","2668967","co37690","norming","","","{""guess"":""mask""}","","../img/tt/580tt.jpg","",""
"null","../img/gs/580gs.jpg","null","reveal","image-keyboard-response","374","1191932","0.0-6.0-4.52","2668967","co37690","norming","","","","","","",""
"null","../img/tt/580tt.jpg","null","mooney2","image-keyboard-response","375","1193934","0.0-6.0-5.52","2668967","co37690","norming","","","","","","",""
"1399.75","","","post_reveal_questions","survey-likert","376","1195335","0.0-6.0-6.52","2668967","co37690","norming","","","{""aha"":3}","[0]","../img/tt/580tt.jpg","",""
"null","<div style=""font-size:60px;""> </div>","null","fixation","html-keyboard-response","377","1195537","0.0-6.0-0.53","2668967","co37690","norming","","","","","","",""
"null","../img/tt/1175tt.jpg","null","mooney1","image-keyboard-response","378","1198547","0.0-6.0-1.53","2668967","co37690","norming","","","","","","",""
"3722.6949999998324","","","post_mooney1_questions","survey-likert","379","1202271","0.0-6.0-2.53","2668967","co37690","norming","","","{""curiosity"":3,""confidence"":0}","[0,1]","../img/tt/1175tt.jpg","",""
"4398.145000000019","","","recognition","survey-text","380","1206671","0.0-6.0-3.53","2668967","co37690","norming","","","{""guess"":""""}","","../img/tt/1175tt.jpg","",""
"null","../img/gs/1175gs.jpg","null","reveal","image-keyboard-response","381","1208673","0.0-6.0-4.53","2668967","co37690","norming","","","","","","",""
"null","../img/tt/1175tt.jpg","null","mooney2","image-keyboard-response","382","1210675","0.0-6.0-5.53","2668967","co37690","norming","","","","","","",""
"1345.4800000002142","","","post_reveal_questions","survey-likert","383","1212023","0.0-6.0-6.53","2668967","co37690","norming","","","{""aha"":4}","[0]","../img/tt/1175tt.jpg","",""
"null","<div style=""font-size:60px;""> </div>","null","fixation","html-keyboard-response","384","1212224","0.0-6.0-0.54","2668967","co37690","norming","","","","","","",""
"null","../img/tt/436tt.jpg","null","mooney1","image-keyboard-response","385","1215229","0.0-6.0-1.54","2668967","co37690","norming","","","","","","",""
"6495.155000000028","","","post_mooney1_questions","survey-likert","386","1221721","0.0-6.0-2.54","2668967","co37690","norming","","","{""curiosity"":2,""confidence"":0}","[0,1]","../img/tt/436tt.jpg","",""
"9013.979999999749","","","recognition","survey-text","387","1230737","0.0-6.0-3.54","2668967","co37690","norming","","","{""guess"":""keyboard""}","","../img/tt/436tt.jpg","",""
"null","../img/gs/436gs.jpg","null","reveal","image-keyboard-response","388","1232745","0.0-6.0-4.54","2668967","co37690","norming","","","","","","",""
"null","../img/tt/436tt.jpg","null","mooney2","image-keyboard-response","389","1234755","0.0-6.0-5.54","2668967","co37690","norming","","","","","","",""
"3595.119999999879","","","post_reveal_questions","survey-likert","390","1238353","0.0-6.0-6.54","2668967","co37690","norming","","","{""aha"":1}","[0]","../img/tt/436tt.jpg","",""
"null","<div style=""font-size:60px;""> </div>","null","fixation","html-keyboard-response","391","1238554","0.0-6.0-0.55","2668967","co37690","norming","","","","","","",""
"null","../img/tt/1362tt.jpg","null","mooney1","image-keyboard-response","392","1241559","0.0-6.0-1.55","2668967","co37690","norming","","","","","","",""
"4766.709999999963","","","post_mooney1_questions","survey-likert","393","1246329","0.0-6.0-2.55","2668967","co37690","norming","","","{""curiosity"":2,""confidence"":3}","[0,1]","../img/tt/1362tt.jpg","",""
"2374.054999999935","","","recognition","survey-text","394","1248705","0.0-6.0-3.55","2668967","co37690","norming","","","{""guess"":""bowls""}","","../img/tt/1362tt.jpg","",""
"null","../img/gs/1362gs.jpg","null","reveal","image-keyboard-response","395","1250706","0.0-6.0-4.55","2668967","co37690","norming","","","","","","",""
"null","../img/tt/1362tt.jpg","null","mooney2","image-keyboard-response","396","1252717","0.0-6.0-5.55","2668967","co37690","norming","","","","","","",""
"2592.685000000056","","","post_reveal_questions","survey-likert","397","1255313","0.0-6.0-6.55","2668967","co37690","norming","","","{""aha"":1}","[0]","../img/tt/1362tt.jpg","",""
"null","<div style=""font-size:60px;""> </div>","null","fixation","html-keyboard-response","398","1255514","0.0-6.0-0.56","2668967","co37690","norming","","","","","","",""
"null","../img/tt/123tt.jpg","null","mooney1","image-keyboard-response","399","1258526","0.0-6.0-1.56","2668967","co37690","norming","","","","","","",""
"3160.3000000000466","","","post_mooney1_questions","survey-likert","400","1261689","0.0-6.0-2.56","2668967","co37690","norming","","","{""curiosity"":2,""confidence"":2}","[0,1]","../img/tt/123tt.jpg","",""
"2374.0999999998603","","","recognition","survey-text","401","1264065","0.0-6.0-3.56","2668967","co37690","norming","","","{""guess"":""suitcase""}","","../img/tt/123tt.jpg","",""
"null","../img/gs/123gs.jpg","null","reveal","image-keyboard-response","402","1266066","0.0-6.0-4.56","2668967","co37690","norming","","","","","","",""
"null","../img/tt/123tt.jpg","null","mooney2","image-keyboard-response","403","1268068","0.0-6.0-5.56","2668967","co37690","norming","","","","","","",""
"1946.3850000000093","","","post_reveal_questions","survey-likert","404","1270017","0.0-6.0-6.56","2668967","co37690","norming","","","{""aha"":1}","[0]","../img/tt/123tt.jpg","",""
"null","<div style=""font-size:60px;""> </div>","null","fixation","html-keyboard-response","405","1270218","0.0-6.0-0.57","2668967","co37690","norming","","","","","","",""
"null","../img/tt/1102tt.jpg","null","mooney1","image-keyboard-response","406","1273226","0.0-6.0-1.57","2668967","co37690","norming","","","","","","",""
"7571.300000000047","","","post_mooney1_questions","survey-likert","407","1280803","0.0-6.0-2.57","2668967","co37690","norming","","","{""curiosity"":1,""confidence"":0}","[0,1]","../img/tt/1102tt.jpg","",""
"1485.875","","","recognition","survey-text","408","1282291","0.0-6.0-3.57","2668967","co37690","norming","","","{""guess"":""car""}","","../img/tt/1102tt.jpg","",""
"null","../img/gs/1102gs.jpg","null","reveal","image-keyboard-response","409","1284294","0.0-6.0-4.57","2668967","co37690","norming","","","","","","",""
"null","../img/tt/1102tt.jpg","null","mooney2","image-keyboard-response","410","1286306","0.0-6.0-5.57","2668967","co37690","norming","","","","","","",""
"2750.314999999944","","","post_reveal_questions","survey-likert","411","1289059","0.0-6.0-6.57","2668967","co37690","norming","","","{""aha"":2}","[0]","../img/tt/1102tt.jpg","",""
"null","<div style=""font-size:60px;""> </div>","null","fixation","html-keyboard-response","412","1289261","0.0-6.0-0.58","2668967","co37690","norming","","","","","","",""
"null","../img/tt/549tt.jpg","null","mooney1","image-keyboard-response","413","1292264","0.0-6.0-1.58","2668967","co37690","norming","","","","","","",""
"4177.994999999879","","","post_mooney1_questions","survey-likert","414","1296443","0.0-6.0-2.58","2668967","co37690","norming","","","{""curiosity"":3,""confidence"":0}","[0,1]","../img/tt/549tt.jpg","",""
"1814.1349999997765","","","recognition","survey-text","415","1298259","0.0-6.0-3.58","2668967","co37690","norming","","","{""guess"":""""}","","../img/tt/549tt.jpg","",""
"null","../img/gs/549gs.jpg","null","reveal","image-keyboard-response","416","1300262","0.0-6.0-4.58","2668967","co37690","norming","","","","","","",""
"null","../img/tt/549tt.jpg","null","mooney2","image-keyboard-response","417","1302264","0.0-6.0-5.58","2668967","co37690","norming","","","","","","",""
"1312.279999999795","","","post_reveal_questions","survey-likert","418","1303579","0.0-6.0-6.58","2668967","co37690","norming","","","{""aha"":2}","[0]","../img/tt/549tt.jpg","",""
"null","<div style=""font-size:60px;""> </div>","null","fixation","html-keyboard-response","419","1303780","0.0-6.0-0.59","2668967","co37690","norming","","","","","","",""
"null","../img/tt/507tt.jpg","null","mooney1","image-keyboard-response","420","1306790","0.0-6.0-1.59","2668967","co37690","norming","","","","","","",""
"4441.600000000093","","","post_mooney1_questions","survey-likert","421","1311235","0.0-6.0-2.59","2668967","co37690","norming","","","{""curiosity"":1,""confidence"":3}","[0,1]","../img/tt/507tt.jpg","",""
"2254.1100000001024","","","recognition","survey-text","422","1313491","0.0-6.0-3.59","2668967","co37690","norming","","","{""guess"":""woman""}","","../img/tt/507tt.jpg","",""
"null","../img/gs/507gs.jpg","null","reveal","image-keyboard-response","423","1315492","0.0-6.0-4.59","2668967","co37690","norming","","","","","","",""
"null","../img/tt/507tt.jpg","null","mooney2","image-keyboard-response","424","1317497","0.0-6.0-5.59","2668967","co37690","norming","","","","","","",""
"2766.0999999998603","","","post_reveal_questions","survey-likert","425","1320267","0.0-6.0-6.59","2668967","co37690","norming","","","{""aha"":0}","[0]","../img/tt/507tt.jpg","",""
"null","<div style=""font-size:60px;""> </div>","null","fixation","html-keyboard-response","426","1320468","0.0-6.0-0.60","2668967","co37690","norming","","","","","","",""
"null","../img/tt/1239tt.jpg","null","mooney1","image-keyboard-response","427","1323477","0.0-6.0-1.60","2668967","co37690","norming","","","","","","",""
"4707.1349999997765","","","post_mooney1_questions","survey-likert","428","1328187","0.0-6.0-2.60","2668967","co37690","norming","","","{""curiosity"":3,""confidence"":1}","[0,1]","../img/tt/1239tt.jpg","",""
"1910.0450000001583","","","recognition","survey-text","429","1330099","0.0-6.0-3.60","2668967","co37690","norming","","","{""guess"":""cows""}","","../img/tt/1239tt.jpg","",""
"null","../img/gs/1239gs.jpg","null","reveal","image-keyboard-response","430","1332107","0.0-6.0-4.60","2668967","co37690","norming","","","","","","",""
"null","../img/tt/1239tt.jpg","null","mooney2","image-keyboard-response","431","1334111","0.0-6.0-5.60","2668967","co37690","norming","","","","","","",""
"2763.035000000149","","","post_reveal_questions","survey-likert","432","1336875","0.0-6.0-6.60","2668967","co37690","norming","","","{""aha"":3}","[0]","../img/tt/1239tt.jpg","",""
"null","<div style=""font-size:60px;""> </div>","null","fixation","html-keyboard-response","433","1337076","0.0-6.0-0.61","2668967","co37690","norming","","","","","","",""
"null","../img/tt/1190tt.jpg","null","mooney1","image-keyboard-response","434","1340088","0.0-6.0-1.61","2668967","co37690","norming","","","","","","",""
"3463.2899999998044","","","post_mooney1_questions","survey-likert","435","1343551","0.0-6.0-2.61","2668967","co37690","norming","","","{""curiosity"":2,""confidence"":0}","[0,1]","../img/tt/1190tt.jpg","",""
"653.9300000001676","","","recognition","survey-text","436","1344206","0.0-6.0-3.61","2668967","co37690","norming","","","{""guess"":""""}","","../img/tt/1190tt.jpg","",""
"null","../img/gs/1190gs.jpg","null","reveal","image-keyboard-response","437","1346207","0.0-6.0-4.61","2668967","co37690","norming","","","","","","",""
"null","../img/tt/1190tt.jpg","null","mooney2","image-keyboard-response","438","1348210","0.0-6.0-5.61","2668967","co37690","norming","","","","","","",""
"1154.3499999998603","","","post_reveal_questions","survey-likert","439","1349367","0.0-6.0-6.61","2668967","co37690","norming","","","{""aha"":2}","[0]","../img/tt/1190tt.jpg","",""
"null","<div style=""font-size:60px;""> </div>","null","fixation","html-keyboard-response","440","1349567","0.0-6.0-0.62","2668967","co37690","norming","","","","","","",""
"null","../img/tt/112tt.jpg","null","mooney1","image-keyboard-response","441","1352574","0.0-6.0-1.62","2668967","co37690","norming","","","","","","",""
"3525.524999999907","","","post_mooney1_questions","survey-likert","442","1356103","0.0-6.0-2.62","2668967","co37690","norming","","","{""curiosity"":1,""confidence"":1}","[0,1]","../img/tt/112tt.jpg","",""
"3142.1299999998882","","","recognition","survey-text","443","1359247","0.0-6.0-3.62","2668967","co37690","norming","","","{""guess"":""pots ""}","","../img/tt/112tt.jpg","",""
"null","../img/gs/112gs.jpg","null","reveal","image-keyboard-response","444","1361250","0.0-6.0-4.62","2668967","co37690","norming","","","","","","",""
"null","../img/tt/112tt.jpg","null","mooney2","image-keyboard-response","445","1363253","0.0-6.0-5.62","2668967","co37690","norming","","","","","","",""
"1686.9399999999441","","","post_reveal_questions","survey-likert","446","1364943","0.0-6.0-6.62","2668967","co37690","norming","","","{""aha"":3}","[0]","../img/tt/112tt.jpg","",""
"null","<div style=""font-size:60px;""> </div>","null","fixation","html-keyboard-response","447","1365144","0.0-6.0-0.63","2668967","co37690","norming","","","","","","",""
"null","../img/tt/1226tt.jpg","null","mooney1","image-keyboard-response","448","1368151","0.0-6.0-1.63","2668967","co37690","norming","","","","","","",""
"2324.8199999998324","","","post_mooney1_questions","survey-likert","449","1370479","0.0-6.0-2.63","2668967","co37690","norming","","","{""curiosity"":2,""confidence"":2}","[0,1]","../img/tt/1226tt.jpg","",""
"1438.1250000002328","","","recognition","survey-text","450","1371919","0.0-6.0-3.63","2668967","co37690","norming","","","{""guess"":""fish""}","","../img/tt/1226tt.jpg","",""
"null","../img/gs/1226gs.jpg","null","reveal","image-keyboard-response","451","1373924","0.0-6.0-4.63","2668967","co37690","norming","","","","","","",""
"null","../img/tt/1226tt.jpg","null","mooney2","image-keyboard-response","452","1375926","0.0-6.0-5.63","2668967","co37690","norming","","","","","","",""
"3335.8649999999907","","","post_reveal_questions","survey-likert","453","1379263","0.0-6.0-6.63","2668967","co37690","norming","","","{""aha"":2}","[0]","../img/tt/1226tt.jpg","",""
"null","<div style=""font-size:60px;""> </div>","null","fixation","html-keyboard-response","454","1379464","0.0-6.0-0.64","2668967","co37690","norming","","","","","","",""
"null","../img/tt/1116tt.jpg","null","mooney1","image-keyboard-response","455","1382476","0.0-6.0-1.64","2668967","co37690","norming","","","","","","",""
"3271.7350000001024","","","post_mooney1_questions","survey-likert","456","1385751","0.0-6.0-2.64","2668967","co37690","norming","","","{""curiosity"":2,""confidence"":2}","[0,1]","../img/tt/1116tt.jpg","",""
"1205.755000000121","","","recognition","survey-text","457","1386959","0.0-6.0-3.64","2668967","co37690","norming","","","{""guess"":""car""}","","../img/tt/1116tt.jpg","",""
"null","../img/gs/1116gs.jpg","null","reveal","image-keyboard-response","458","1388963","0.0-6.0-4.64","2668967","co37690","norming","","","","","","",""
"null","../img/tt/1116tt.jpg","null","mooney2","image-keyboard-response","459","1390965","0.0-6.0-5.64","2668967","co37690","norming","","","","","","",""
"3390.600000000093","","","post_reveal_questions","survey-likert","460","1394359","0.0-6.0-6.64","2668967","co37690","norming","","","{""aha"":1}","[0]","../img/tt/1116tt.jpg","",""
"null","<div style=""font-size:60px;""> </div>","null","fixation","html-keyboard-response","461","1394560","0.0-6.0-0.65","2668967","co37690","norming","","","","","","",""
"null","../img/tt/1027tt.jpg","null","mooney1","image-keyboard-response","462","1397566","0.0-6.0-1.65","2668967","co37690","norming","","","","","","",""
"4597.40000000014","","","post_mooney1_questions","survey-likert","463","1402174","0.0-6.0-2.65","2668967","co37690","norming","","","{""curiosity"":3,""confidence"":1}","[0,1]","../img/tt/1027tt.jpg","",""
"1510.0449999999255","","","recognition","survey-text","464","1403686","0.0-6.0-3.65","2668967","co37690","norming","","","{""guess"":""cow""}","","../img/tt/1027tt.jpg","",""
"null","../img/gs/1027gs.jpg","null","reveal","image-keyboard-response","465","1405688","0.0-6.0-4.65","2668967","co37690","norming","","","","","","",""
"null","../img/tt/1027tt.jpg","null","mooney2","image-keyboard-response","466","1407690","0.0-6.0-5.65","2668967","co37690","norming","","","","","","",""
"2018.1899999999441","","","post_reveal_questions","survey-likert","467","1409710","0.0-6.0-6.65","2668967","co37690","norming","","","{""aha"":0}","[0]","../img/tt/1027tt.jpg","",""
"null","<div style=""font-size:60px;""> </div>","null","fixation","html-keyboard-response","468","1409911","0.0-6.0-0.66","2668967","co37690","norming","","","","","","",""
"null","../img/tt/1072tt.jpg","null","mooney1","image-keyboard-response","469","1412917","0.0-6.0-1.66","2668967","co37690","norming","","","","","","",""
"4309.840000000084","","","post_mooney1_questions","survey-likert","470","1417230","0.0-6.0-2.66","2668967","co37690","norming","","","{""curiosity"":1,""confidence"":2}","[0,1]","../img/tt/1072tt.jpg","",""
"3366.034999999916","","","recognition","survey-text","471","1420598","0.0-6.0-3.66","2668967","co37690","norming","","","{""guess"":""motorbike""}","","../img/tt/1072tt.jpg","",""
"null","../img/gs/1072gs.jpg","null","reveal","image-keyboard-response","472","1422604","0.0-6.0-4.66","2668967","co37690","norming","","","","","","",""
"null","../img/tt/1072tt.jpg","null","mooney2","image-keyboard-response","473","1424607","0.0-6.0-5.66","2668967","co37690","norming","","","","","","",""
"2230.4149999998044","","","post_reveal_questions","survey-likert","474","1426838","0.0-6.0-6.66","2668967","co37690","norming","","","{""aha"":1}","[0]","../img/tt/1072tt.jpg","",""
"null","<div style=""font-size:60px;""> </div>","null","fixation","html-keyboard-response","475","1427040","0.0-6.0-0.67","2668967","co37690","norming","","","","","","",""
"null","../img/tt/1247tt.jpg","null","mooney1","image-keyboard-response","476","1430048","0.0-6.0-1.67","2668967","co37690","norming","","","","","","",""
"2850.465000000084","","","post_mooney1_questions","survey-likert","477","1432902","0.0-6.0-2.67","2668967","co37690","norming","","","{""curiosity"":1,""confidence"":1}","[0,1]","../img/tt/1247tt.jpg","",""
"3998.4850000001024","","","recognition","survey-text","478","1436902","0.0-6.0-3.67","2668967","co37690","norming","","","{""guess"":""lizard""}","","../img/tt/1247tt.jpg","",""
"null","../img/gs/1247gs.jpg","null","reveal","image-keyboard-response","479","1438906","0.0-6.0-4.67","2668967","co37690","norming","","","","","","",""
"null","../img/tt/1247tt.jpg","null","mooney2","image-keyboard-response","480","1440915","0.0-6.0-5.67","2668967","co37690","norming","","","","","","",""
"1921.0450000001583","","","post_reveal_questions","survey-likert","481","1442838","0.0-6.0-6.67","2668967","co37690","norming","","","{""aha"":1}","[0]","../img/tt/1247tt.jpg","",""
"null","<div style=""font-size:60px;""> </div>","null","fixation","html-keyboard-response","482","1443040","0.0-6.0-0.68","2668967","co37690","norming","","","","","","",""
"null","../img/tt/1118tt.jpg","null","mooney1","image-keyboard-response","483","1446049","0.0-6.0-1.68","2668967","co37690","norming","","","","","","",""
"5033.489999999991","","","post_mooney1_questions","survey-likert","484","1451086","0.0-6.0-2.68","2668967","co37690","norming","","","{""curiosity"":4,""confidence"":0}","[0,1]","../img/tt/1118tt.jpg","",""
"1701.9500000001863","","","recognition","survey-text","485","1452790","0.0-6.0-3.68","2668967","co37690","norming","","","{""guess"":""car""}","","../img/tt/1118tt.jpg","",""
"null","../img/gs/1118gs.jpg","null","reveal","image-keyboard-response","486","1454794","0.0-6.0-4.68","2668967","co37690","norming","","","","","","",""
"null","../img/tt/1118tt.jpg","null","mooney2","image-keyboard-response","487","1456797","0.0-6.0-5.68","2668967","co37690","norming","","","","","","",""
"1718.2450000001118","","","post_reveal_questions","survey-likert","488","1458518","0.0-6.0-6.68","2668967","co37690","norming","","","{""aha"":2}","[0]","../img/tt/1118tt.jpg","",""
"null","<div style=""font-size:60px;""> </div>","null","fixation","html-keyboard-response","489","1458720","0.0-6.0-0.69","2668967","co37690","norming","","","","","","",""
"null","../img/tt/1200tt.jpg","null","mooney1","image-keyboard-response","490","1461723","0.0-6.0-1.69","2668967","co37690","norming","","","","","","",""
"3672.5749999999534","","","post_mooney1_questions","survey-likert","491","1465391","0.0-6.0-2.69","2668967","co37690","norming","","","{""curiosity"":2,""confidence"":3}","[0,1]","../img/tt/1200tt.jpg","",""
"4094.215000000084","","","recognition","survey-text","492","1469487","0.0-6.0-3.69","2668967","co37690","norming","","","{""guess"":""rowing boat""}","","../img/tt/1200tt.jpg","",""
"null","../img/gs/1200gs.jpg","null","reveal","image-keyboard-response","493","1471489","0.0-6.0-4.69","2668967","co37690","norming","","","","","","",""
"null","../img/tt/1200tt.jpg","null","mooney2","image-keyboard-response","494","1473495","0.0-6.0-5.69","2668967","co37690","norming","","","","","","",""
"1789.3149999999441","","","post_reveal_questions","survey-likert","495","1475287","0.0-6.0-6.69","2668967","co37690","norming","","","{""aha"":0}","[0]","../img/tt/1200tt.jpg","",""
"null","<div style=""font-size:60px;""> </div>","null","fixation","html-keyboard-response","496","1475488","0.0-6.0-0.70","2668967","co37690","norming","","","","","","",""
"null","../img/tt/098tt.jpg","null","mooney1","image-keyboard-response","497","1478491","0.0-6.0-1.70","2668967","co37690","norming","","","","","","",""
"3112.9799999997485","","","post_mooney1_questions","survey-likert","498","1481607","0.0-6.0-2.70","2668967","co37690","norming","","","{""curiosity"":1,""confidence"":1}","[0,1]","../img/tt/098tt.jpg","",""
"4086.2299999999814","","","recognition","survey-text","499","1485695","0.0-6.0-3.70","2668967","co37690","norming","","","{""guess"":""sheep""}","","../img/tt/098tt.jpg","",""
"null","../img/gs/098gs.jpg","null","reveal","image-keyboard-response","500","1487699","0.0-6.0-4.70","2668967","co37690","norming","","","","","","",""
"null","../img/tt/098tt.jpg","null","mooney2","image-keyboard-response","501","1489700","0.0-6.0-5.70","2668967","co37690","norming","","","","","","",""
"1415.7099999999627","","","post_reveal_questions","survey-likert","502","1491119","0.0-6.0-6.70","2668967","co37690","norming","","","{""aha"":3}","[0]","../img/tt/098tt.jpg","",""
"null","<div style=""font-size:60px;""> </div>","null","fixation","html-keyboard-response","503","1491320","0.0-6.0-0.71","2668967","co37690","norming","","","","","","",""
"null","../img/tt/1199tt.jpg","null","mooney1","image-keyboard-response","504","1494322","0.0-6.0-1.71","2668967","co37690","norming","","","","","","",""
"6537.174999999814","","","post_mooney1_questions","survey-likert","505","1500863","0.0-6.0-2.71","2668967","co37690","norming","","","{""curiosity"":1,""confidence"":2}","[0,1]","../img/tt/1199tt.jpg","",""
"7213.930000000168","","","recognition","survey-text","506","1508079","0.0-6.0-3.71","2668967","co37690","norming","","","{""guess"":""gymnastic""}","","../img/tt/1199tt.jpg","",""
"null","../img/gs/1199gs.jpg","null","reveal","image-keyboard-response","507","1510080","0.0-6.0-4.71","2668967","co37690","norming","","","","","","",""
"null","../img/tt/1199tt.jpg","null","mooney2","image-keyboard-response","508","1512089","0.0-6.0-5.71","2668967","co37690","norming","","","","","","",""
"2283.590000000084","","","post_reveal_questions","survey-likert","509","1514375","0.0-6.0-6.71","2668967","co37690","norming","","","{""aha"":0}","[0]","../img/tt/1199tt.jpg","",""
"null","<div style=""font-size:60px;""> </div>","null","fixation","html-keyboard-response","510","1514576","0.0-6.0-0.72","2668967","co37690","norming","","","","","","",""
"null","../img/tt/603tt.jpg","null","mooney1","image-keyboard-response","511","1517581","0.0-6.0-1.72","2668967","co37690","norming","","","","","","",""
"3406.5450000001583","","","post_mooney1_questions","survey-likert","512","1520991","0.0-6.0-2.72","2668967","co37690","norming","","","{""curiosity"":3,""confidence"":0}","[0,1]","../img/tt/603tt.jpg","",""
"894.1550000000279","","","recognition","survey-text","513","1521887","0.0-6.0-3.72","2668967","co37690","norming","","","{""guess"":""""}","","../img/tt/603tt.jpg","",""
"null","../img/gs/603gs.jpg","null","reveal","image-keyboard-response","514","1523905","0.0-6.0-4.72","2668967","co37690","norming","","","","","","",""
"null","../img/tt/603tt.jpg","null","mooney2","image-keyboard-response","515","1525908","0.0-6.0-5.72","2668967","co37690","norming","","","","","","",""
"1545.8950000000186","","","post_reveal_questions","survey-likert","516","1527455","0.0-6.0-6.72","2668967","co37690","norming","","","{""aha"":3}","[0]","../img/tt/603tt.jpg","",""
"null","<div style=""font-size:60px;""> </div>","null","fixation","html-keyboard-response","517","1527657","0.0-6.0-0.73","2668967","co37690","norming","","","","","","",""
"null","../img/tt/468tt.jpg","null","mooney1","image-keyboard-response","518","1530662","0.0-6.0-1.73","2668967","co37690","norming","","","","","","",""
"7125.939999999944","","","post_mooney1_questions","survey-likert","519","1537791","0.0-6.0-2.73","2668967","co37690","norming","","","{""curiosity"":1,""confidence"":0}","[0,1]","../img/tt/468tt.jpg","",""
"4646.079999999842","","","recognition","survey-text","520","1542439","0.0-6.0-3.73","2668967","co37690","norming","","","{""guess"":""paperclip hat""}","","../img/tt/468tt.jpg","",""
"null","../img/gs/468gs.jpg","null","reveal","image-keyboard-response","521","1544446","0.0-6.0-4.73","2668967","co37690","norming","","","","","","",""
"null","../img/tt/468tt.jpg","null","mooney2","image-keyboard-response","522","1546448","0.0-6.0-5.73","2668967","co37690","norming","","","","","","",""
"1842.6350000000093","","","post_reveal_questions","survey-likert","523","1548295","0.0-6.0-6.73","2668967","co37690","norming","","","{""aha"":3}","[0]","../img/tt/468tt.jpg","",""
"null","<div style=""font-size:60px;""> </div>","null","fixation","html-keyboard-response","524","1548497","0.0-6.0-0.74","2668967","co37690","norming","","","","","","",""
"null","../img/tt/599tt.jpg","null","mooney1","image-keyboard-response","525","1551508","0.0-6.0-1.74","2668967","co37690","norming","","","","","","",""
"3648.9399999997113","","","post_mooney1_questions","survey-likert","526","1555161","0.0-6.0-2.74","2668967","co37690","norming","","","{""curiosity"":2,""confidence"":2}","[0,1]","../img/tt/599tt.jpg","",""
"1804.6749999998137","","","recognition","survey-text","527","1556967","0.0-6.0-3.74","2668967","co37690","norming","","","{""guess"":""owl""}","","../img/tt/599tt.jpg","",""
"null","../img/gs/599gs.jpg","null","reveal","image-keyboard-response","528","1558972","0.0-6.0-4.74","2668967","co37690","norming","","","","","","",""
"null","../img/tt/599tt.jpg","null","mooney2","image-keyboard-response","529","1560973","0.0-6.0-5.74","2668967","co37690","norming","","","","","","",""
"1471.125","","","post_reveal_questions","survey-likert","530","1562447","0.0-6.0-6.74","2668967","co37690","norming","","","{""aha"":0}","[0]","../img/tt/599tt.jpg","",""
"null","<div style=""font-size:60px;""> </div>","null","fixation","html-keyboard-response","531","1562648","0.0-6.0-0.75","2668967","co37690","norming","","","","","","",""
"null","../img/tt/1276tt.jpg","null","mooney1","image-keyboard-response","532","1565651","0.0-6.0-1.75","2668967","co37690","norming","","","","","","",""
"3745.4199999999255","","","post_mooney1_questions","survey-likert","533","1569399","0.0-6.0-2.75","2668967","co37690","norming","","","{""curiosity"":3,""confidence"":1}","[0,1]","../img/tt/1276tt.jpg","",""
"1790.1149999999907","","","recognition","survey-text","534","1571191","0.0-6.0-3.75","2668967","co37690","norming","","","{""guess"":""pig""}","","../img/tt/1276tt.jpg","",""
"null","../img/gs/1276gs.jpg","null","reveal","image-keyboard-response","535","1573195","0.0-6.0-4.75","2668967","co37690","norming","","","","","","",""
"null","../img/tt/1276tt.jpg","null","mooney2","image-keyboard-response","536","1575197","0.0-6.0-5.75","2668967","co37690","norming","","","","","","",""
"1759.4599999999627","","","post_reveal_questions","survey-likert","537","1576959","0.0-6.0-6.75","2668967","co37690","norming","","","{""aha"":0}","[0]","../img/tt/1276tt.jpg","",""
"null","<div style=""font-size:60px;""> </div>","null","fixation","html-keyboard-response","538","1577160","0.0-6.0-0.76","2668967","co37690","norming","","","","","","",""
"null","../img/tt/1096tt.jpg","null","mooney1","image-keyboard-response","539","1580163","0.0-6.0-1.76","2668967","co37690","norming","","","","","","",""
"4272.820000000298","","","post_mooney1_questions","survey-likert","540","1584430","0.0-6.0-2.76","2668967","co37690","norming","","","{""curiosity"":3,""confidence"":1}","[0,1]","../img/tt/1096tt.jpg","",""
"2046.1800000001676","","","recognition","survey-text","541","1586478","0.0-6.0-3.76","2668967","co37690","norming","","","{""guess"":""violin""}","","../img/tt/1096tt.jpg","",""
"null","../img/gs/1096gs.jpg","null","reveal","image-keyboard-response","542","1588487","0.0-6.0-4.76","2668967","co37690","norming","","","","","","",""
"null","../img/tt/1096tt.jpg","null","mooney2","image-keyboard-response","543","1590490","0.0-6.0-5.76","2668967","co37690","norming","","","","","","",""
"1977.1350000000093","","","post_reveal_questions","survey-likert","544","1592470","0.0-6.0-6.76","2668967","co37690","norming","","","{""aha"":4}","[0]","../img/tt/1096tt.jpg","",""
"null","<div style=""font-size:60px;""> </div>","null","fixation","html-keyboard-response","545","1592672","0.0-6.0-0.77","2668967","co37690","norming","","","","","","",""
"null","../img/tt/1122tt.jpg","null","mooney1","image-keyboard-response","546","1595678","0.0-6.0-1.77","2668967","co37690","norming","","","","","","",""
"4908.9550000000745","","","post_mooney1_questions","survey-likert","547","1600590","0.0-6.0-2.77","2668967","co37690","norming","","","{""curiosity"":1,""confidence"":4}","[0,1]","../img/tt/1122tt.jpg","",""
"2558.135000000242","","","recognition","survey-text","548","1603150","0.0-6.0-3.77","2668967","co37690","norming","","","{""guess"":""boat""}","","../img/tt/1122tt.jpg","",""
"null","../img/gs/1122gs.jpg","null","reveal","image-keyboard-response","549","1605159","0.0-6.0-4.77","2668967","co37690","norming","","","","","","",""
"null","../img/tt/1122tt.jpg","null","mooney2","image-keyboard-response","550","1607161","0.0-6.0-5.77","2668967","co37690","norming","","","","","","",""
"1442.1850000000559","","","post_reveal_questions","survey-likert","551","1608606","0.0-6.0-6.77","2668967","co37690","norming","","","{""aha"":0}","[0]","../img/tt/1122tt.jpg","",""
"null","<div style=""font-size:60px;""> </div>","null","fixation","html-keyboard-response","552","1608808","0.0-6.0-0.78","2668967","co37690","norming","","","","","","",""
