"rt","stimulus","key_press","test_part","trial_type","trial_index","time_elapsed","internal_node_id","totalTime","subject","experiment_name","button_pressed","success","responses","question_order","currentStim","old","correct"
"8728.339999999662","Welcome to the experiment. This is an online experiment so please don't close the tab/window until we say goodbye.  Press any key to begin.","32","instructions","html-keyboard-response","0","8731","0.0-0.0","3187095","co37945","norming","","","","","","",""
"5025.29499999946","<div style='word-wrap: break-word; width: 900px'><h3>Please consider this information carefully before deciding whether to participate in this research</h3><ul style='text-align: left; font-size: .8em;'><li><b>Purpose of the research</b>: To examine how people process images.</li><li><b>What you will do in this research</b>:  Stimuli (images) will be presented on the computer and you will be asked different questions about them.</li><li><b>Time required</b>: Participation will take between 45 and 60 minutes to complete.</li><li><b>Risks</b>:  There are no anticipated risks associated with participating in this study. The effects of participating should be comparable to those you would experience from viewing a computer monitor for 30 minutes and using a mouse or keyboard.</li><li><b>Benefits</b>:  This study provides no benefits to you individually except for the credit. The study provides important information about the nature of perception and learning.</li><li><b>Confidentiality</b>:  Your participation in this study will remain confidential. No personally identifiable information will be associated with your data. Your de-identified data may be shared with other researchers and used in future projects.</li><li><b>Participation and withdrawal</b>:  Your participation in this study is completely voluntary and you may refuse to participate or you may choose to withdraw at any time without penalty.</li><li><b>How to contact the researchers</b>: If you have questions or concerns about your participation or payment, or want to request a summary of research findings, please contact Sander Van de Cruys (KU Leuven), at sander.vandecruys@kuleuven.be.</li></ul><p>The nature and purpose of this research have been sufficiently explained and I agree to participate in this study.  I understand that I am free to withdraw at any time without incurring any penalty.</p><p>Please consent by clicking the button below to continue. Otherwise, please exit the study at this time.</p></div>","","instructions","html-button-response","1","13760","0.0-1.0","3187095","co37945","norming","0","","","","","",""
"","","","instructions","fullscreen","2","16049","0.0-2.0","3187095","co37945","norming","","true","","","","",""
"109826.9049999999","","","sona","survey-html-form","3","125880","0.0-3.0","3187095","co37945","norming","","","[{""name"":""sonaid"",""value"":""37945""},{""name"":""debrief"",""value"":""yes""},{""name"":""datajoin"",""value"":""yes""}]","","","",""
"57950.60500000001","<div style='word-wrap: break-word; width: 900px'><h3>Instructions</h3><p>This experiment will have 3 parts. In the first part you will see a series of distorted images like the one below on the left. As you can see in the righthand image, the distorted images are derived from actual photographs. In what follows, you will <strong>briefly</strong> be presented with <strong>only</strong> the distorted image.</p> <div style='float: left; margin-right: 20px;'><img src='../img/018tt.jpg' height='250' width='250'></img></div><div style='float: right; margin-left: 20px;'><img src='../img/018gs.jpg' height='250' width='250'></img></div><p>Subsequently you will be asked a few questions about the image: One question on how <strong>curious</strong> you are about the solution and one on how <strong>confident</strong> you are that you know the solution.</p>Next, we ask you to make a guess on what is in the image. Note that it is OK to name just the <strong>basic level category</strong>. For example when you see a parrot in the image, 'parrot' will obviously be a correct answer but also correct is 'bird'. However, 'animal' will <strong>not</strong> be counted as a correct response. For the example above, 'rose' would be correct or 'flower', but not 'plant'. When soccer players are depicted, 'soccer', 'football', 'soccer players' will be correct, but not 'humans', 'outdoors', or 'sports'. You do not need to describe the image in full, just name the main object in it <strong>in one or two words</strong>. All images depict objects from one of the following broad level categories: animals, inanimate objects, plants, sports, vehicles, and food. Recognizing means knowing <strong>more</strong> than these broad labels for a given image. But we always encourage you to <strong>make a guess</strong> if you can. Note that you are allowed to use <strong>Dutch and English</strong> in your answers, whatever comes easiest for you.</p><p>Press any key to continue.</p></div>","13","instructions","html-keyboard-response","4","183836","0.0-4.0","3187095","co37945","norming","","","","","","",""
"20559.219999999186","<div style='word-wrap: break-word; width: 900px'><h3>Instructions</h3> <p>Next, the solution image will be revealed to you and you'll be asked to indicate how strong your <strong>aha-experience</strong> was after seeing the solution. This describes the positive feeling of the 'click' you sometimes experience, when the pieces of the 'puzzle' fall together and you suddenly have 'insight' in the image.</p><img src='aha.jpg' height='188' width='250'></img><p>Note that there are no right or wrong answers. We are interested in what <strong>you</strong> see in the image and how <strong>you</strong> feel about it.</p><p>Press any key to start the experiment.</p></div>","13","instructions","html-keyboard-response","5","204396","0.0-5.0","3187095","co37945","norming","","","","","","",""
"null","<div style=""font-size:60px;""> </div>","null","fixation","html-keyboard-response","6","204597","0.0-6.0-0.0","3187095","co37945","norming","","","","","","",""
"null","../img/tt/1118tt.jpg","null","mooney1","image-keyboard-response","7","207603","0.0-6.0-1.0","3187095","co37945","norming","","","","","","",""
"10781.564999999333","","","post_mooney1_questions","survey-likert","8","218389","0.0-6.0-2.0","3187095","co37945","norming","","","{""curiosity"":2,""confidence"":0}","[0,1]","../img/tt/1118tt.jpg","",""
"10533.654999999271","","","recognition","survey-text","9","228924","0.0-6.0-3.0","3187095","co37945","norming","","","{""guess"":""flower""}","","../img/tt/1118tt.jpg","",""
"null","../img/gs/1118gs.jpg","null","reveal","image-keyboard-response","10","230927","0.0-6.0-4.0","3187095","co37945","norming","","","","","","",""
"null","../img/tt/1118tt.jpg","null","mooney2","image-keyboard-response","11","232929","0.0-6.0-5.0","3187095","co37945","norming","","","","","","",""
"4424.904999999853","","","post_reveal_questions","survey-likert","12","237356","0.0-6.0-6.0","3187095","co37945","norming","","","{""aha"":0}","[0]","../img/tt/1118tt.jpg","",""
"null","<div style=""font-size:60px;""> </div>","null","fixation","html-keyboard-response","13","237567","0.0-6.0-0.1","3187095","co37945","norming","","","","","","",""
"null","../img/tt/020tt.jpg","null","mooney1","image-keyboard-response","14","240569","0.0-6.0-1.1","3187095","co37945","norming","","","","","","",""
"5762.205000000889","","","post_mooney1_questions","survey-likert","15","246334","0.0-6.0-2.1","3187095","co37945","norming","","","{""curiosity"":0,""confidence"":6}","[0,1]","../img/tt/020tt.jpg","",""
"3470.139999999432","","","recognition","survey-text","16","249806","0.0-6.0-3.1","3187095","co37945","norming","","","{""guess"":""a person""}","","../img/tt/020tt.jpg","",""
"null","../img/gs/020gs.jpg","null","reveal","image-keyboard-response","17","251813","0.0-6.0-4.1","3187095","co37945","norming","","","","","","",""
"null","../img/tt/020tt.jpg","null","mooney2","image-keyboard-response","18","253815","0.0-6.0-5.1","3187095","co37945","norming","","","","","","",""
"5332.025000001537","","","post_reveal_questions","survey-likert","19","259150","0.0-6.0-6.1","3187095","co37945","norming","","","{""aha"":0}","[0]","../img/tt/020tt.jpg","",""
"null","<div style=""font-size:60px;""> </div>","null","fixation","html-keyboard-response","20","259351","0.0-6.0-0.2","3187095","co37945","norming","","","","","","",""
"null","../img/tt/1175tt.jpg","null","mooney1","image-keyboard-response","21","262360","0.0-6.0-1.2","3187095","co37945","norming","","","","","","",""
"6355.434999999474","","","post_mooney1_questions","survey-likert","22","268718","0.0-6.0-2.2","3187095","co37945","norming","","","{""curiosity"":4,""confidence"":2}","[0,1]","../img/tt/1175tt.jpg","",""
"4430.059999998775","","","recognition","survey-text","23","273150","0.0-6.0-3.2","3187095","co37945","norming","","","{""guess"":""persons ""}","","../img/tt/1175tt.jpg","",""
"null","../img/gs/1175gs.jpg","null","reveal","image-keyboard-response","24","275160","0.0-6.0-4.2","3187095","co37945","norming","","","","","","",""
"null","../img/tt/1175tt.jpg","null","mooney2","image-keyboard-response","25","277167","0.0-6.0-5.2","3187095","co37945","norming","","","","","","",""
"3796.290000000212","","","post_reveal_questions","survey-likert","26","280966","0.0-6.0-6.2","3187095","co37945","norming","","","{""aha"":2}","[0]","../img/tt/1175tt.jpg","",""
"null","<div style=""font-size:60px;""> </div>","null","fixation","html-keyboard-response","27","281172","0.0-6.0-0.3","3187095","co37945","norming","","","","","","",""
"null","../img/tt/1269tt.jpg","null","mooney1","image-keyboard-response","28","284176","0.0-6.0-1.3","3187095","co37945","norming","","","","","","",""
"5963.175000000803","","","post_mooney1_questions","survey-likert","29","290142","0.0-6.0-2.3","3187095","co37945","norming","","","{""curiosity"":4,""confidence"":2}","[0,1]","../img/tt/1269tt.jpg","",""
"1462.1099999985308","","","recognition","survey-text","30","291606","0.0-6.0-3.3","3187095","co37945","norming","","","{""guess"":""""}","","../img/tt/1269tt.jpg","",""
"null","../img/gs/1269gs.jpg","null","reveal","image-keyboard-response","31","293607","0.0-6.0-4.3","3187095","co37945","norming","","","","","","",""
"null","../img/tt/1269tt.jpg","null","mooney2","image-keyboard-response","32","295608","0.0-6.0-5.3","3187095","co37945","norming","","","","","","",""
"4026.9399999997113","","","post_reveal_questions","survey-likert","33","299638","0.0-6.0-6.3","3187095","co37945","norming","","","{""aha"":0}","[0]","../img/tt/1269tt.jpg","",""
"null","<div style=""font-size:60px;""> </div>","null","fixation","html-keyboard-response","34","299842","0.0-6.0-0.4","3187095","co37945","norming","","","","","","",""
"null","../img/tt/442tt.jpg","null","mooney1","image-keyboard-response","35","302852","0.0-6.0-1.4","3187095","co37945","norming","","","","","","",""
"5631.779999999737","","","post_mooney1_questions","survey-likert","36","308488","0.0-6.0-2.4","3187095","co37945","norming","","","{""curiosity"":6,""confidence"":0}","[0,1]","../img/tt/442tt.jpg","",""
"2966.0649999987218","","","recognition","survey-text","37","311456","0.0-6.0-3.4","3187095","co37945","norming","","","{""guess"":""""}","","../img/tt/442tt.jpg","",""
"null","../img/gs/442gs.jpg","null","reveal","image-keyboard-response","38","313465","0.0-6.0-4.4","3187095","co37945","norming","","","","","","",""
"null","../img/tt/442tt.jpg","null","mooney2","image-keyboard-response","39","315477","0.0-6.0-5.4","3187095","co37945","norming","","","","","","",""
"3041.3899999985006","","","post_reveal_questions","survey-likert","40","318520","0.0-6.0-6.4","3187095","co37945","norming","","","{""aha"":1}","[0]","../img/tt/442tt.jpg","",""
"null","<div style=""font-size:60px;""> </div>","null","fixation","html-keyboard-response","41","318722","0.0-6.0-0.5","3187095","co37945","norming","","","","","","",""
"null","../img/tt/1033tt.jpg","null","mooney1","image-keyboard-response","42","321726","0.0-6.0-1.5","3187095","co37945","norming","","","","","","",""
"7063.6500000000815","","","post_mooney1_questions","survey-likert","43","328792","0.0-6.0-2.5","3187095","co37945","norming","","","{""curiosity"":4,""confidence"":2}","[0,1]","../img/tt/1033tt.jpg","",""
"11366.174999999232","","","recognition","survey-text","44","340160","0.0-6.0-3.5","3187095","co37945","norming","","","{""guess"":""2 persons fighting ""}","","../img/tt/1033tt.jpg","",""
"null","../img/gs/1033gs.jpg","null","reveal","image-keyboard-response","45","342170","0.0-6.0-4.5","3187095","co37945","norming","","","","","","",""
"null","../img/tt/1033tt.jpg","null","mooney2","image-keyboard-response","46","344175","0.0-6.0-5.5","3187095","co37945","norming","","","","","","",""
"3846.0749999994878","","","post_reveal_questions","survey-likert","47","348023","0.0-6.0-6.5","3187095","co37945","norming","","","{""aha"":2}","[0]","../img/tt/1033tt.jpg","",""
"null","<div style=""font-size:60px;""> </div>","null","fixation","html-keyboard-response","48","348225","0.0-6.0-0.6","3187095","co37945","norming","","","","","","",""
"null","../img/tt/1199tt.jpg","null","mooney1","image-keyboard-response","49","351235","0.0-6.0-1.6","3187095","co37945","norming","","","","","","",""
"4011.0000000004075","","","post_mooney1_questions","survey-likert","50","355248","0.0-6.0-2.6","3187095","co37945","norming","","","{""curiosity"":3,""confidence"":1}","[0,1]","../img/tt/1199tt.jpg","",""
"4910.229999999516","","","recognition","survey-text","51","360160","0.0-6.0-3.6","3187095","co37945","norming","","","{""guess"":""someone in bed ""}","","../img/tt/1199tt.jpg","",""
"null","../img/gs/1199gs.jpg","null","reveal","image-keyboard-response","52","362169","0.0-6.0-4.6","3187095","co37945","norming","","","","","","",""
"null","../img/tt/1199tt.jpg","null","mooney2","image-keyboard-response","53","364174","0.0-6.0-5.6","3187095","co37945","norming","","","","","","",""
"4359.379999999888","","","post_reveal_questions","survey-likert","54","368537","0.0-6.0-6.6","3187095","co37945","norming","","","{""aha"":0}","[0]","../img/tt/1199tt.jpg","",""
"null","<div style=""font-size:60px;""> </div>","null","fixation","html-keyboard-response","55","368745","0.0-6.0-0.7","3187095","co37945","norming","","","","","","",""
"null","../img/tt/270tt.jpg","null","mooney1","image-keyboard-response","56","371752","0.0-6.0-1.7","3187095","co37945","norming","","","","","","",""
"5702.724999999162","","","post_mooney1_questions","survey-likert","57","377457","0.0-6.0-2.7","3187095","co37945","norming","","","{""curiosity"":6,""confidence"":0}","[0,1]","../img/tt/270tt.jpg","",""
"4542.095000000729","","","recognition","survey-text","58","382001","0.0-6.0-3.7","3187095","co37945","norming","","","{""guess"":""a wizard ""}","","../img/tt/270tt.jpg","",""
"null","../img/gs/270gs.jpg","null","reveal","image-keyboard-response","59","384009","0.0-6.0-4.7","3187095","co37945","norming","","","","","","",""
"null","../img/tt/270tt.jpg","null","mooney2","image-keyboard-response","60","386018","0.0-6.0-5.7","3187095","co37945","norming","","","","","","",""
"3396.36999999854","","","post_reveal_questions","survey-likert","61","389417","0.0-6.0-6.7","3187095","co37945","norming","","","{""aha"":0}","[0]","../img/tt/270tt.jpg","",""
"null","<div style=""font-size:60px;""> </div>","null","fixation","html-keyboard-response","62","389623","0.0-6.0-0.8","3187095","co37945","norming","","","","","","",""
"null","../img/tt/549tt.jpg","null","mooney1","image-keyboard-response","63","392626","0.0-6.0-1.8","3187095","co37945","norming","","","","","","",""
"8670.034999999218","","","post_mooney1_questions","survey-likert","64","401297","0.0-6.0-2.8","3187095","co37945","norming","","","{""curiosity"":5,""confidence"":0}","[0,1]","../img/tt/549tt.jpg","",""
"3870.0250000001397","","","recognition","survey-text","65","405169","0.0-6.0-3.8","3187095","co37945","norming","","","{""guess"":""""}","","../img/tt/549tt.jpg","",""
"null","../img/gs/549gs.jpg","null","reveal","image-keyboard-response","66","407174","0.0-6.0-4.8","3187095","co37945","norming","","","","","","",""
"null","../img/tt/549tt.jpg","null","mooney2","image-keyboard-response","67","409185","0.0-6.0-5.8","3187095","co37945","norming","","","","","","",""
"3333.5950000000303","","","post_reveal_questions","survey-likert","68","412521","0.0-6.0-6.8","3187095","co37945","norming","","","{""aha"":0}","[0]","../img/tt/549tt.jpg","",""
"null","<div style=""font-size:60px;""> </div>","null","fixation","html-keyboard-response","69","412725","0.0-6.0-0.9","3187095","co37945","norming","","","","","","",""
"null","../img/tt/1087tt.jpg","null","mooney1","image-keyboard-response","70","415727","0.0-6.0-1.9","3187095","co37945","norming","","","","","","",""
"6270.7150000005495","","","post_mooney1_questions","survey-likert","71","422001","0.0-6.0-2.9","3187095","co37945","norming","","","{""curiosity"":3,""confidence"":4}","[0,1]","../img/tt/1087tt.jpg","",""
"4046.2150000003166","","","recognition","survey-text","72","426049","0.0-6.0-3.9","3187095","co37945","norming","","","{""guess"":""schapen""}","","../img/tt/1087tt.jpg","",""
"null","../img/gs/1087gs.jpg","null","reveal","image-keyboard-response","73","428053","0.0-6.0-4.9","3187095","co37945","norming","","","","","","",""
"null","../img/tt/1087tt.jpg","null","mooney2","image-keyboard-response","74","430057","0.0-6.0-5.9","3187095","co37945","norming","","","","","","",""
"3454.6549999995623","","","post_reveal_questions","survey-likert","75","433514","0.0-6.0-6.9","3187095","co37945","norming","","","{""aha"":5}","[0]","../img/tt/1087tt.jpg","",""
"null","<div style=""font-size:60px;""> </div>","null","fixation","html-keyboard-response","76","433717","0.0-6.0-0.10","3187095","co37945","norming","","","","","","",""
"null","../img/tt/524tt.jpg","null","mooney1","image-keyboard-response","77","436721","0.0-6.0-1.10","3187095","co37945","norming","","","","","","",""
"8423.484999999346","","","post_mooney1_questions","survey-likert","78","445146","0.0-6.0-2.10","3187095","co37945","norming","","","{""curiosity"":6,""confidence"":0}","[0,1]","../img/tt/524tt.jpg","",""
"2508.900000000722","","","recognition","survey-text","79","447658","0.0-6.0-3.10","3187095","co37945","norming","","","{""guess"":""""}","","../img/tt/524tt.jpg","",""
"null","../img/gs/524gs.jpg","null","reveal","image-keyboard-response","80","449668","0.0-6.0-4.10","3187095","co37945","norming","","","","","","",""
"null","../img/tt/524tt.jpg","null","mooney2","image-keyboard-response","81","451670","0.0-6.0-5.10","3187095","co37945","norming","","","","","","",""
"2881.6100000003353","","","post_reveal_questions","survey-likert","82","454554","0.0-6.0-6.10","3187095","co37945","norming","","","{""aha"":2}","[0]","../img/tt/524tt.jpg","",""
"null","<div style=""font-size:60px;""> </div>","null","fixation","html-keyboard-response","83","454763","0.0-6.0-0.11","3187095","co37945","norming","","","","","","",""
"null","../img/tt/534tt.jpg","null","mooney1","image-keyboard-response","84","457775","0.0-6.0-1.11","3187095","co37945","norming","","","","","","",""
"4008.789999999921","","","post_mooney1_questions","survey-likert","85","461786","0.0-6.0-2.11","3187095","co37945","norming","","","{""curiosity"":3,""confidence"":2}","[0,1]","../img/tt/534tt.jpg","",""
"4310.36499999935","","","recognition","survey-text","86","466098","0.0-6.0-3.11","3187095","co37945","norming","","","{""guess"":""planten""}","","../img/tt/534tt.jpg","",""
"null","../img/gs/534gs.jpg","null","reveal","image-keyboard-response","87","468099","0.0-6.0-4.11","3187095","co37945","norming","","","","","","",""
"null","../img/tt/534tt.jpg","null","mooney2","image-keyboard-response","88","470106","0.0-6.0-5.11","3187095","co37945","norming","","","","","","",""
"2239.6449999996694","","","post_reveal_questions","survey-likert","89","472346","0.0-6.0-6.11","3187095","co37945","norming","","","{""aha"":2}","[0]","../img/tt/534tt.jpg","",""
"null","<div style=""font-size:60px;""> </div>","null","fixation","html-keyboard-response","90","472554","0.0-6.0-0.12","3187095","co37945","norming","","","","","","",""
"null","../img/tt/007tt.jpg","null","mooney1","image-keyboard-response","91","475557","0.0-6.0-1.12","3187095","co37945","norming","","","","","","",""
"5722.825000000768","","","post_mooney1_questions","survey-likert","92","481282","0.0-6.0-2.12","3187095","co37945","norming","","","{""curiosity"":5,""confidence"":2}","[0,1]","../img/tt/007tt.jpg","",""
"3166.170000000391","","","recognition","survey-text","93","484450","0.0-6.0-3.12","3187095","co37945","norming","","","{""guess"":""een paard ""}","","../img/tt/007tt.jpg","",""
"null","../img/gs/007gs.jpg","null","reveal","image-keyboard-response","94","486460","0.0-6.0-4.12","3187095","co37945","norming","","","","","","",""
"null","../img/tt/007tt.jpg","null","mooney2","image-keyboard-response","95","488463","0.0-6.0-5.12","3187095","co37945","norming","","","","","","",""
"2529.8050000001094","","","post_reveal_questions","survey-likert","96","490995","0.0-6.0-6.12","3187095","co37945","norming","","","{""aha"":2}","[0]","../img/tt/007tt.jpg","",""
"null","<div style=""font-size:60px;""> </div>","null","fixation","html-keyboard-response","97","491203","0.0-6.0-0.13","3187095","co37945","norming","","","","","","",""
"null","../img/tt/055tt.jpg","null","mooney1","image-keyboard-response","98","494215","0.0-6.0-1.13","3187095","co37945","norming","","","","","","",""
"9856.849999998289","","","post_mooney1_questions","survey-likert","99","504075","0.0-6.0-2.13","3187095","co37945","norming","","","{""curiosity"":4,""confidence"":0}","[0,1]","../img/tt/055tt.jpg","",""
"7173.969999999797","","","recognition","survey-text","100","511251","0.0-6.0-3.13","3187095","co37945","norming","","","{""guess"":""iemand die aan het sporten is""}","","../img/tt/055tt.jpg","",""
"null","../img/gs/055gs.jpg","null","reveal","image-keyboard-response","101","513252","0.0-6.0-4.13","3187095","co37945","norming","","","","","","",""
"null","../img/tt/055tt.jpg","null","mooney2","image-keyboard-response","102","515254","0.0-6.0-5.13","3187095","co37945","norming","","","","","","",""
"3210.0149999987334","","","post_reveal_questions","survey-likert","103","518467","0.0-6.0-6.13","3187095","co37945","norming","","","{""aha"":4}","[0]","../img/tt/055tt.jpg","",""
"null","<div style=""font-size:60px;""> </div>","null","fixation","html-keyboard-response","104","518676","0.0-6.0-0.14","3187095","co37945","norming","","","","","","",""
"null","../img/tt/1211tt.jpg","null","mooney1","image-keyboard-response","105","521679","0.0-6.0-1.14","3187095","co37945","norming","","","","","","",""
"7344.38000000047","","","post_mooney1_questions","survey-likert","106","529027","0.0-6.0-2.14","3187095","co37945","norming","","","{""curiosity"":4,""confidence"":1}","[0,1]","../img/tt/1211tt.jpg","",""
"3630.289999999106","","","recognition","survey-text","107","532659","0.0-6.0-3.14","3187095","co37945","norming","","","{""guess"":""een persoon""}","","../img/tt/1211tt.jpg","",""
"null","../img/gs/1211gs.jpg","null","reveal","image-keyboard-response","108","534662","0.0-6.0-4.14","3187095","co37945","norming","","","","","","",""
"null","../img/tt/1211tt.jpg","null","mooney2","image-keyboard-response","109","536665","0.0-6.0-5.14","3187095","co37945","norming","","","","","","",""
"2168.574999999604","","","post_reveal_questions","survey-likert","110","538834","0.0-6.0-6.14","3187095","co37945","norming","","","{""aha"":2}","[0]","../img/tt/1211tt.jpg","",""
"null","<div style=""font-size:60px;""> </div>","null","fixation","html-keyboard-response","111","539036","0.0-6.0-0.15","3187095","co37945","norming","","","","","","",""
"null","../img/tt/456tt.jpg","null","mooney1","image-keyboard-response","112","542046","0.0-6.0-1.15","3187095","co37945","norming","","","","","","",""
"5298.385000000009","","","post_mooney1_questions","survey-likert","113","547347","0.0-6.0-2.15","3187095","co37945","norming","","","{""curiosity"":5,""confidence"":0}","[0,1]","../img/tt/456tt.jpg","",""
"2574.099999999744","","","recognition","survey-text","114","549918","0.0-6.0-3.15","3187095","co37945","norming","","","{""guess"":""een dier""}","","../img/tt/456tt.jpg","",""
"null","../img/gs/456gs.jpg","null","reveal","image-keyboard-response","115","551928","0.0-6.0-4.15","3187095","co37945","norming","","","","","","",""
"null","../img/tt/456tt.jpg","null","mooney2","image-keyboard-response","116","553939","0.0-6.0-5.15","3187095","co37945","norming","","","","","","",""
"5280.650000000605","","","post_reveal_questions","survey-likert","117","559222","0.0-6.0-6.15","3187095","co37945","norming","","","{""aha"":3}","[0]","../img/tt/456tt.jpg","",""
"null","<div style=""font-size:60px;""> </div>","null","fixation","html-keyboard-response","118","559428","0.0-6.0-0.16","3187095","co37945","norming","","","","","","",""
"null","../img/tt/1024tt.jpg","null","mooney1","image-keyboard-response","119","562440","0.0-6.0-1.16","3187095","co37945","norming","","","","","","",""
"6243.180000001332","","","post_mooney1_questions","survey-likert","120","568686","0.0-6.0-2.16","3187095","co37945","norming","","","{""curiosity"":4,""confidence"":3}","[0,1]","../img/tt/1024tt.jpg","",""
"5723.99000000034","","","recognition","survey-text","121","574414","0.0-6.0-3.16","3187095","co37945","norming","","","{""guess"":""een tenniser ""}","","../img/tt/1024tt.jpg","",""
"null","../img/gs/1024gs.jpg","null","reveal","image-keyboard-response","122","576424","0.0-6.0-4.16","3187095","co37945","norming","","","","","","",""
"null","../img/tt/1024tt.jpg","null","mooney2","image-keyboard-response","123","578429","0.0-6.0-5.16","3187095","co37945","norming","","","","","","",""
"3071.995000000228","","","post_reveal_questions","survey-likert","124","581502","0.0-6.0-6.16","3187095","co37945","norming","","","{""aha"":0}","[0]","../img/tt/1024tt.jpg","",""
"null","<div style=""font-size:60px;""> </div>","null","fixation","html-keyboard-response","125","581706","0.0-6.0-0.17","3187095","co37945","norming","","","","","","",""
"null","../img/tt/082tt.jpg","null","mooney1","image-keyboard-response","126","584714","0.0-6.0-1.17","3187095","co37945","norming","","","","","","",""
"7546.915000000852","","","post_mooney1_questions","survey-likert","127","592262","0.0-6.0-2.17","3187095","co37945","norming","","","{""curiosity"":3,""confidence"":2}","[0,1]","../img/tt/082tt.jpg","",""
"6373.915000000154","","","recognition","survey-text","128","598638","0.0-6.0-3.17","3187095","co37945","norming","","","{""guess"":""een basketballer""}","","../img/tt/082tt.jpg","",""
"null","../img/gs/082gs.jpg","null","reveal","image-keyboard-response","129","600648","0.0-6.0-4.17","3187095","co37945","norming","","","","","","",""
"null","../img/tt/082tt.jpg","null","mooney2","image-keyboard-response","130","602650","0.0-6.0-5.17","3187095","co37945","norming","","","","","","",""
"3403.024999999674","","","post_reveal_questions","survey-likert","131","606054","0.0-6.0-6.17","3187095","co37945","norming","","","{""aha"":2}","[0]","../img/tt/082tt.jpg","",""
"null","<div style=""font-size:60px;""> </div>","null","fixation","html-keyboard-response","132","606263","0.0-6.0-0.18","3187095","co37945","norming","","","","","","",""
"null","../img/tt/1156tt.jpg","null","mooney1","image-keyboard-response","133","609272","0.0-6.0-1.18","3187095","co37945","norming","","","","","","",""
"4816.460000000079","","","post_mooney1_questions","survey-likert","134","614092","0.0-6.0-2.18","3187095","co37945","norming","","","{""curiosity"":3,""confidence"":0}","[0,1]","../img/tt/1156tt.jpg","",""
"869.8249999997206","","","recognition","survey-text","135","614963","0.0-6.0-3.18","3187095","co37945","norming","","","{""guess"":""""}","","../img/tt/1156tt.jpg","",""
"null","../img/gs/1156gs.jpg","null","reveal","image-keyboard-response","136","616968","0.0-6.0-4.18","3187095","co37945","norming","","","","","","",""
"null","../img/tt/1156tt.jpg","null","mooney2","image-keyboard-response","137","618978","0.0-6.0-5.18","3187095","co37945","norming","","","","","","",""
"5606.144999999786","","","post_reveal_questions","survey-likert","138","624587","0.0-6.0-6.18","3187095","co37945","norming","","","{""aha"":4}","[0]","../img/tt/1156tt.jpg","",""
"null","<div style=""font-size:60px;""> </div>","null","fixation","html-keyboard-response","139","624796","0.0-6.0-0.19","3187095","co37945","norming","","","","","","",""
"null","../img/tt/468tt.jpg","null","mooney1","image-keyboard-response","140","627801","0.0-6.0-1.19","3187095","co37945","norming","","","","","","",""
"4703.704999999842","","","post_mooney1_questions","survey-likert","141","632507","0.0-6.0-2.19","3187095","co37945","norming","","","{""curiosity"":4,""confidence"":1}","[0,1]","../img/tt/468tt.jpg","",""
"3381.7349999990547","","","recognition","survey-text","142","635891","0.0-6.0-3.19","3187095","co37945","norming","","","{""guess"":""turnen""}","","../img/tt/468tt.jpg","",""
"null","../img/gs/468gs.jpg","null","reveal","image-keyboard-response","143","637899","0.0-6.0-4.19","3187095","co37945","norming","","","","","","",""
"null","../img/tt/468tt.jpg","null","mooney2","image-keyboard-response","144","639901","0.0-6.0-5.19","3187095","co37945","norming","","","","","","",""
"2860.075000000419","","","post_reveal_questions","survey-likert","145","642763","0.0-6.0-6.19","3187095","co37945","norming","","","{""aha"":4}","[0]","../img/tt/468tt.jpg","",""
"null","<div style=""font-size:60px;""> </div>","null","fixation","html-keyboard-response","146","642970","0.0-6.0-0.20","3187095","co37945","norming","","","","","","",""
"null","../img/tt/1089tt.jpg","null","mooney1","image-keyboard-response","147","645976","0.0-6.0-1.20","3187095","co37945","norming","","","","","","",""
"5768.270000000484","","","post_mooney1_questions","survey-likert","148","651747","0.0-6.0-2.20","3187095","co37945","norming","","","{""curiosity"":2,""confidence"":5}","[0,1]","../img/tt/1089tt.jpg","",""
"3149.8300000003073","","","recognition","survey-text","149","654899","0.0-6.0-3.20","3187095","co37945","norming","","","{""guess"":""olifanten""}","","../img/tt/1089tt.jpg","",""
"null","../img/gs/1089gs.jpg","null","reveal","image-keyboard-response","150","656903","0.0-6.0-4.20","3187095","co37945","norming","","","","","","",""
"null","../img/tt/1089tt.jpg","null","mooney2","image-keyboard-response","151","658907","0.0-6.0-5.20","3187095","co37945","norming","","","","","","",""
"2285.859999999986","","","post_reveal_questions","survey-likert","152","661195","0.0-6.0-6.20","3187095","co37945","norming","","","{""aha"":1}","[0]","../img/tt/1089tt.jpg","",""
"null","<div style=""font-size:60px;""> </div>","null","fixation","html-keyboard-response","153","661398","0.0-6.0-0.21","3187095","co37945","norming","","","","","","",""
"null","../img/tt/060tt.jpg","null","mooney1","image-keyboard-response","154","664404","0.0-6.0-1.21","3187095","co37945","norming","","","","","","",""
"4996.250000000116","","","post_mooney1_questions","survey-likert","155","669397","0.0-6.0-2.21","3187095","co37945","norming","","","{""curiosity"":5,""confidence"":0}","[0,1]","../img/tt/060tt.jpg","",""
"918.2049999999581","","","recognition","survey-text","156","670316","0.0-6.0-3.21","3187095","co37945","norming","","","{""guess"":""""}","","../img/tt/060tt.jpg","",""
"null","../img/gs/060gs.jpg","null","reveal","image-keyboard-response","157","672326","0.0-6.0-4.21","3187095","co37945","norming","","","","","","",""
"null","../img/tt/060tt.jpg","null","mooney2","image-keyboard-response","158","674339","0.0-6.0-5.21","3187095","co37945","norming","","","","","","",""
"1967.8850000000093","","","post_reveal_questions","survey-likert","159","676309","0.0-6.0-6.21","3187095","co37945","norming","","","{""aha"":4}","[0]","../img/tt/060tt.jpg","",""
"null","<div style=""font-size:60px;""> </div>","null","fixation","html-keyboard-response","160","676516","0.0-6.0-0.22","3187095","co37945","norming","","","","","","",""
"null","../img/tt/1205tt.jpg","null","mooney1","image-keyboard-response","161","679520","0.0-6.0-1.22","3187095","co37945","norming","","","","","","",""
"6569.989999999991","","","post_mooney1_questions","survey-likert","162","686093","0.0-6.0-2.22","3187095","co37945","norming","","","{""curiosity"":4,""confidence"":3}","[0,1]","../img/tt/1205tt.jpg","",""
"6014.150000000838","","","recognition","survey-text","163","692109","0.0-6.0-3.22","3187095","co37945","norming","","","{""guess"":""groep mensen""}","","../img/tt/1205tt.jpg","",""
"null","../img/gs/1205gs.jpg","null","reveal","image-keyboard-response","164","694117","0.0-6.0-4.22","3187095","co37945","norming","","","","","","",""
"null","../img/tt/1205tt.jpg","null","mooney2","image-keyboard-response","165","696119","0.0-6.0-5.22","3187095","co37945","norming","","","","","","",""
"2586.8699999991804","","","post_reveal_questions","survey-likert","166","698709","0.0-6.0-6.22","3187095","co37945","norming","","","{""aha"":3}","[0]","../img/tt/1205tt.jpg","",""
"null","<div style=""font-size:60px;""> </div>","null","fixation","html-keyboard-response","167","698914","0.0-6.0-0.23","3187095","co37945","norming","","","","","","",""
"null","../img/tt/1151tt.jpg","null","mooney1","image-keyboard-response","168","701917","0.0-6.0-1.23","3187095","co37945","norming","","","","","","",""
"4700.490000001155","","","post_mooney1_questions","survey-likert","169","706620","0.0-6.0-2.23","3187095","co37945","norming","","","{""curiosity"":5,""confidence"":1}","[0,1]","../img/tt/1151tt.jpg","",""
"5774.584999999148","","","recognition","survey-text","170","712397","0.0-6.0-3.23","3187095","co37945","norming","","","{""guess"":""bergbeklimmer ""}","","../img/tt/1151tt.jpg","",""
"null","../img/gs/1151gs.jpg","null","reveal","image-keyboard-response","171","714398","0.0-6.0-4.23","3187095","co37945","norming","","","","","","",""
"null","../img/tt/1151tt.jpg","null","mooney2","image-keyboard-response","172","716399","0.0-6.0-5.23","3187095","co37945","norming","","","","","","",""
"3347.1649999992223","","","post_reveal_questions","survey-likert","173","719749","0.0-6.0-6.23","3187095","co37945","norming","","","{""aha"":1}","[0]","../img/tt/1151tt.jpg","",""
"null","<div style=""font-size:60px;""> </div>","null","fixation","html-keyboard-response","174","719959","0.0-6.0-0.24","3187095","co37945","norming","","","","","","",""
"null","../img/tt/194tt.jpg","null","mooney1","image-keyboard-response","175","722961","0.0-6.0-1.24","3187095","co37945","norming","","","","","","",""
"3858.2449999994133","","","post_mooney1_questions","survey-likert","176","726821","0.0-6.0-2.24","3187095","co37945","norming","","","{""curiosity"":3,""confidence"":3}","[0,1]","../img/tt/194tt.jpg","",""
"8950.224999998696","","","recognition","survey-text","177","735780","0.0-6.0-3.24","3187095","co37945","norming","","","{""guess"":""iemand die muziek speelt""}","","../img/tt/194tt.jpg","",""
"null","../img/gs/194gs.jpg","null","reveal","image-keyboard-response","178","737787","0.0-6.0-4.24","3187095","co37945","norming","","","","","","",""
"null","../img/tt/194tt.jpg","null","mooney2","image-keyboard-response","179","739796","0.0-6.0-5.24","3187095","co37945","norming","","","","","","",""
"3485.810000000056","","","post_reveal_questions","survey-likert","180","743284","0.0-6.0-6.24","3187095","co37945","norming","","","{""aha"":1}","[0]","../img/tt/194tt.jpg","",""
"null","<div style=""font-size:60px;""> </div>","null","fixation","html-keyboard-response","181","743486","0.0-6.0-0.25","3187095","co37945","norming","","","","","","",""
"null","../img/tt/378tt.jpg","null","mooney1","image-keyboard-response","182","746493","0.0-6.0-1.25","3187095","co37945","norming","","","","","","",""
"6147.88000000047","","","post_mooney1_questions","survey-likert","183","752644","0.0-6.0-2.25","3187095","co37945","norming","","","{""curiosity"":6,""confidence"":0}","[0,1]","../img/tt/378tt.jpg","",""
"1150.3049999992363","","","recognition","survey-text","184","753796","0.0-6.0-3.25","3187095","co37945","norming","","","{""guess"":""""}","","../img/tt/378tt.jpg","",""
"null","../img/gs/378gs.jpg","null","reveal","image-keyboard-response","185","755801","0.0-6.0-4.25","3187095","co37945","norming","","","","","","",""
"null","../img/tt/378tt.jpg","null","mooney2","image-keyboard-response","186","757807","0.0-6.0-5.25","3187095","co37945","norming","","","","","","",""
"3107.879999999539","","","post_reveal_questions","survey-likert","187","760916","0.0-6.0-6.25","3187095","co37945","norming","","","{""aha"":3}","[0]","../img/tt/378tt.jpg","",""
"null","<div style=""font-size:60px;""> </div>","null","fixation","html-keyboard-response","188","761119","0.0-6.0-0.26","3187095","co37945","norming","","","","","","",""
"null","../img/tt/049tt.jpg","null","mooney1","image-keyboard-response","189","764129","0.0-6.0-1.26","3187095","co37945","norming","","","","","","",""
"4848.070000000065","","","post_mooney1_questions","survey-likert","190","768980","0.0-6.0-2.26","3187095","co37945","norming","","","{""curiosity"":3,""confidence"":2}","[0,1]","../img/tt/049tt.jpg","",""
"4910.039999998873","","","recognition","survey-text","191","773892","0.0-6.0-3.26","3187095","co37945","norming","","","{""guess"":""een tijger ""}","","../img/tt/049tt.jpg","",""
"null","../img/gs/049gs.jpg","null","reveal","image-keyboard-response","192","775897","0.0-6.0-4.26","3187095","co37945","norming","","","","","","",""
"null","../img/tt/049tt.jpg","null","mooney2","image-keyboard-response","193","777900","0.0-6.0-5.26","3187095","co37945","norming","","","","","","",""
"3445.939999999595","","","post_reveal_questions","survey-likert","194","781348","0.0-6.0-6.26","3187095","co37945","norming","","","{""aha"":4}","[0]","../img/tt/049tt.jpg","",""
"null","<div style=""font-size:60px;""> </div>","null","fixation","html-keyboard-response","195","781549","0.0-6.0-0.27","3187095","co37945","norming","","","","","","",""
"null","../img/tt/1048tt.jpg","null","mooney1","image-keyboard-response","196","784553","0.0-6.0-1.27","3187095","co37945","norming","","","","","","",""
"5168.25500000047","","","post_mooney1_questions","survey-likert","197","789719","0.0-6.0-2.27","3187095","co37945","norming","","","{""curiosity"":5,""confidence"":1}","[0,1]","../img/tt/1048tt.jpg","",""
"5302.099999999045","","","recognition","survey-text","198","795023","0.0-6.0-3.27","3187095","co37945","norming","","","{""guess"":""waterval""}","","../img/tt/1048tt.jpg","",""
"null","../img/gs/1048gs.jpg","null","reveal","image-keyboard-response","199","797027","0.0-6.0-4.27","3187095","co37945","norming","","","","","","",""
"null","../img/tt/1048tt.jpg","null","mooney2","image-keyboard-response","200","799033","0.0-6.0-5.27","3187095","co37945","norming","","","","","","",""
"2427.0850000012433","","","post_reveal_questions","survey-likert","201","801463","0.0-6.0-6.27","3187095","co37945","norming","","","{""aha"":3}","[0]","../img/tt/1048tt.jpg","",""
"null","<div style=""font-size:60px;""> </div>","null","fixation","html-keyboard-response","202","801669","0.0-6.0-0.28","3187095","co37945","norming","","","","","","",""
"null","../img/tt/1012tt.jpg","null","mooney1","image-keyboard-response","203","804672","0.0-6.0-1.28","3187095","co37945","norming","","","","","","",""
"6134.285000000149","","","post_mooney1_questions","survey-likert","204","810807","0.0-6.0-2.28","3187095","co37945","norming","","","{""curiosity"":6,""confidence"":0}","[0,1]","../img/tt/1012tt.jpg","",""
"878.0450000013225","","","recognition","survey-text","205","811687","0.0-6.0-3.28","3187095","co37945","norming","","","{""guess"":""""}","","../img/tt/1012tt.jpg","",""
"null","../img/gs/1012gs.jpg","null","reveal","image-keyboard-response","206","813697","0.0-6.0-4.28","3187095","co37945","norming","","","","","","",""
"null","../img/tt/1012tt.jpg","null","mooney2","image-keyboard-response","207","815703","0.0-6.0-5.28","3187095","co37945","norming","","","","","","",""
"2973.1699999993434","","","post_reveal_questions","survey-likert","208","818679","0.0-6.0-6.28","3187095","co37945","norming","","","{""aha"":3}","[0]","../img/tt/1012tt.jpg","",""
"null","<div style=""font-size:60px;""> </div>","null","fixation","html-keyboard-response","209","818880","0.0-6.0-0.29","3187095","co37945","norming","","","","","","",""
"null","../img/tt/123tt.jpg","null","mooney1","image-keyboard-response","210","821882","0.0-6.0-1.29","3187095","co37945","norming","","","","","","",""
"4681.630000001052","","","post_mooney1_questions","survey-likert","211","826567","0.0-6.0-2.29","3187095","co37945","norming","","","{""curiosity"":5,""confidence"":2}","[0,1]","../img/tt/123tt.jpg","",""
"3237.714999999269","","","recognition","survey-text","212","829806","0.0-6.0-3.29","3187095","co37945","norming","","","{""guess"":""een bad ""}","","../img/tt/123tt.jpg","",""
"null","../img/gs/123gs.jpg","null","reveal","image-keyboard-response","213","831814","0.0-6.0-4.29","3187095","co37945","norming","","","","","","",""
"null","../img/tt/123tt.jpg","null","mooney2","image-keyboard-response","214","833825","0.0-6.0-5.29","3187095","co37945","norming","","","","","","",""
"3443.659999998985","","","post_reveal_questions","survey-likert","215","837271","0.0-6.0-6.29","3187095","co37945","norming","","","{""aha"":3}","[0]","../img/tt/123tt.jpg","",""
"null","<div style=""font-size:60px;""> </div>","null","fixation","html-keyboard-response","216","837481","0.0-6.0-0.30","3187095","co37945","norming","","","","","","",""
"null","../img/tt/1235tt.jpg","null","mooney1","image-keyboard-response","217","840493","0.0-6.0-1.30","3187095","co37945","norming","","","","","","",""
"5758.6799999990035","","","post_mooney1_questions","survey-likert","218","846255","0.0-6.0-2.30","3187095","co37945","norming","","","{""curiosity"":4,""confidence"":2}","[0,1]","../img/tt/1235tt.jpg","",""
"4638.005000000703","","","recognition","survey-text","219","850891","0.0-6.0-3.30","3187095","co37945","norming","","","{""guess"":""werkende mensen""}","","../img/tt/1235tt.jpg","",""
"null","../img/gs/1235gs.jpg","null","reveal","image-keyboard-response","220","852892","0.0-6.0-4.30","3187095","co37945","norming","","","","","","",""
"null","../img/tt/1235tt.jpg","null","mooney2","image-keyboard-response","221","854896","0.0-6.0-5.30","3187095","co37945","norming","","","","","","",""
"2088.42499999993","","","post_reveal_questions","survey-likert","222","856987","0.0-6.0-6.30","3187095","co37945","norming","","","{""aha"":2}","[0]","../img/tt/1235tt.jpg","",""
"null","<div style=""font-size:60px;""> </div>","null","fixation","html-keyboard-response","223","857189","0.0-6.0-0.31","3187095","co37945","norming","","","","","","",""
"null","../img/tt/584tt.jpg","null","mooney1","image-keyboard-response","224","860193","0.0-6.0-1.31","3187095","co37945","norming","","","","","","",""
"3847.504999999772","","","post_mooney1_questions","survey-likert","225","864043","0.0-6.0-2.31","3187095","co37945","norming","","","{""curiosity"":3,""confidence"":2}","[0,1]","../img/tt/584tt.jpg","",""
"2045.9350000000559","","","recognition","survey-text","226","866091","0.0-6.0-3.31","3187095","co37945","norming","","","{""guess"":""handen""}","","../img/tt/584tt.jpg","",""
"null","../img/gs/584gs.jpg","null","reveal","image-keyboard-response","227","868098","0.0-6.0-4.31","3187095","co37945","norming","","","","","","",""
"null","../img/tt/584tt.jpg","null","mooney2","image-keyboard-response","228","870107","0.0-6.0-5.31","3187095","co37945","norming","","","","","","",""
"3965.9200000005076","","","post_reveal_questions","survey-likert","229","874075","0.0-6.0-6.31","3187095","co37945","norming","","","{""aha"":2}","[0]","../img/tt/584tt.jpg","",""
"null","<div style=""font-size:60px;""> </div>","null","fixation","html-keyboard-response","230","874279","0.0-6.0-0.32","3187095","co37945","norming","","","","","","",""
"null","../img/tt/1278tt.jpg","null","mooney1","image-keyboard-response","231","877289","0.0-6.0-1.32","3187095","co37945","norming","","","","","","",""
"4352.670000000158","","","post_mooney1_questions","survey-likert","232","881643","0.0-6.0-2.32","3187095","co37945","norming","","","{""curiosity"":5,""confidence"":1}","[0,1]","../img/tt/1278tt.jpg","",""
"1005.6599999988684","","","recognition","survey-text","233","882651","0.0-6.0-3.32","3187095","co37945","norming","","","{""guess"":""""}","","../img/tt/1278tt.jpg","",""
"null","../img/gs/1278gs.jpg","null","reveal","image-keyboard-response","234","884652","0.0-6.0-4.32","3187095","co37945","norming","","","","","","",""
"null","../img/tt/1278tt.jpg","null","mooney2","image-keyboard-response","235","886654","0.0-6.0-5.32","3187095","co37945","norming","","","","","","",""
"4187.570000000065","","","post_reveal_questions","survey-likert","236","890843","0.0-6.0-6.32","3187095","co37945","norming","","","{""aha"":2}","[0]","../img/tt/1278tt.jpg","",""
"null","<div style=""font-size:60px;""> </div>","null","fixation","html-keyboard-response","237","891051","0.0-6.0-0.33","3187095","co37945","norming","","","","","","",""
"null","../img/tt/1027tt.jpg","null","mooney1","image-keyboard-response","238","894057","0.0-6.0-1.33","3187095","co37945","norming","","","","","","",""
"4320.539999998873","","","post_mooney1_questions","survey-likert","239","898379","0.0-6.0-2.33","3187095","co37945","norming","","","{""curiosity"":5,""confidence"":2}","[0,1]","../img/tt/1027tt.jpg","",""
"3933.665000000503","","","recognition","survey-text","240","902315","0.0-6.0-3.33","3187095","co37945","norming","","","{""guess"":""prikkeldraad""}","","../img/tt/1027tt.jpg","",""
"null","../img/gs/1027gs.jpg","null","reveal","image-keyboard-response","241","904322","0.0-6.0-4.33","3187095","co37945","norming","","","","","","",""
"null","../img/tt/1027tt.jpg","null","mooney2","image-keyboard-response","242","906325","0.0-6.0-5.33","3187095","co37945","norming","","","","","","",""
"3483.8249999993714","","","post_reveal_questions","survey-likert","243","909820","0.0-6.0-6.33","3187095","co37945","norming","","","{""aha"":4}","[0]","../img/tt/1027tt.jpg","",""
"null","<div style=""font-size:60px;""> </div>","null","fixation","html-keyboard-response","244","910026","0.0-6.0-0.34","3187095","co37945","norming","","","","","","",""
"null","../img/tt/1272tt.jpg","null","mooney1","image-keyboard-response","245","913028","0.0-6.0-1.34","3187095","co37945","norming","","","","","","",""
"7356.2200000014855","","","post_mooney1_questions","survey-likert","246","920388","0.0-6.0-2.34","3187095","co37945","norming","","","{""curiosity"":4,""confidence"":3}","[0,1]","../img/tt/1272tt.jpg","",""
"5870.084999998682","","","recognition","survey-text","247","926260","0.0-6.0-3.34","3187095","co37945","norming","","","{""guess"":""schapen achter hek""}","","../img/tt/1272tt.jpg","",""
"null","../img/gs/1272gs.jpg","null","reveal","image-keyboard-response","248","928261","0.0-6.0-4.34","3187095","co37945","norming","","","","","","",""
"null","../img/tt/1272tt.jpg","null","mooney2","image-keyboard-response","249","930263","0.0-6.0-5.34","3187095","co37945","norming","","","","","","",""
"3689.580000000191","","","post_reveal_questions","survey-likert","250","933955","0.0-6.0-6.34","3187095","co37945","norming","","","{""aha"":5}","[0]","../img/tt/1272tt.jpg","",""
"null","<div style=""font-size:60px;""> </div>","null","fixation","html-keyboard-response","251","934157","0.0-6.0-0.35","3187095","co37945","norming","","","","","","",""
"null","../img/tt/1078tt.jpg","null","mooney1","image-keyboard-response","252","937162","0.0-6.0-1.35","3187095","co37945","norming","","","","","","",""
"4975.060000000638","","","post_mooney1_questions","survey-likert","253","942140","0.0-6.0-2.35","3187095","co37945","norming","","","{""curiosity"":4,""confidence"":4}","[0,1]","../img/tt/1078tt.jpg","",""
"2630.264999999781","","","recognition","survey-text","254","944771","0.0-6.0-3.35","3187095","co37945","norming","","","{""guess"":""skater""}","","../img/tt/1078tt.jpg","",""
"null","../img/gs/1078gs.jpg","null","reveal","image-keyboard-response","255","946782","0.0-6.0-4.35","3187095","co37945","norming","","","","","","",""
"null","../img/tt/1078tt.jpg","null","mooney2","image-keyboard-response","256","948791","0.0-6.0-5.35","3187095","co37945","norming","","","","","","",""
"4721.685000000405","","","post_reveal_questions","survey-likert","257","953515","0.0-6.0-6.35","3187095","co37945","norming","","","{""aha"":2}","[0]","../img/tt/1078tt.jpg","",""
"null","<div style=""font-size:60px;""> </div>","null","fixation","html-keyboard-response","258","953721","0.0-6.0-0.36","3187095","co37945","norming","","","","","","",""
"null","../img/tt/357tt.jpg","null","mooney1","image-keyboard-response","259","956730","0.0-6.0-1.36","3187095","co37945","norming","","","","","","",""
"5136.435000000289","","","post_mooney1_questions","survey-likert","260","961868","0.0-6.0-2.36","3187095","co37945","norming","","","{""curiosity"":5,""confidence"":1}","[0,1]","../img/tt/357tt.jpg","",""
"1174.0750000007683","","","recognition","survey-text","261","963043","0.0-6.0-3.36","3187095","co37945","norming","","","{""guess"":""""}","","../img/tt/357tt.jpg","",""
"null","../img/gs/357gs.jpg","null","reveal","image-keyboard-response","262","965050","0.0-6.0-4.36","3187095","co37945","norming","","","","","","",""
"null","../img/tt/357tt.jpg","null","mooney2","image-keyboard-response","263","967052","0.0-6.0-5.36","3187095","co37945","norming","","","","","","",""
"5365.434999999707","","","post_reveal_questions","survey-likert","264","972416","0.0-6.0-6.36","3187095","co37945","norming","","","{""aha"":0}","[0]","../img/tt/357tt.jpg","",""
"null","<div style=""font-size:60px;""> </div>","null","fixation","html-keyboard-response","265","972619","0.0-6.0-0.37","3187095","co37945","norming","","","","","","",""
"null","../img/tt/1053tt.jpg","null","mooney1","image-keyboard-response","266","975628","0.0-6.0-1.37","3187095","co37945","norming","","","","","","",""
"6497.069999999483","","","post_mooney1_questions","survey-likert","267","982128","0.0-6.0-2.37","3187095","co37945","norming","","","{""curiosity"":4,""confidence"":3}","[0,1]","../img/tt/1053tt.jpg","",""
"2798.050000001327","","","recognition","survey-text","268","984928","0.0-6.0-3.37","3187095","co37945","norming","","","{""guess"":""koeien ""}","","../img/tt/1053tt.jpg","",""
"null","../img/gs/1053gs.jpg","null","reveal","image-keyboard-response","269","986931","0.0-6.0-4.37","3187095","co37945","norming","","","","","","",""
"null","../img/tt/1053tt.jpg","null","mooney2","image-keyboard-response","270","988934","0.0-6.0-5.37","3187095","co37945","norming","","","","","","",""
"6910.635000000242","","","post_reveal_questions","survey-likert","271","995847","0.0-6.0-6.37","3187095","co37945","norming","","","{""aha"":2}","[0]","../img/tt/1053tt.jpg","",""
"null","<div style=""font-size:60px;""> </div>","null","fixation","html-keyboard-response","272","996052","0.0-6.0-0.38","3187095","co37945","norming","","","","","","",""
"null","../img/tt/301tt.jpg","null","mooney1","image-keyboard-response","273","999057","0.0-6.0-1.38","3187095","co37945","norming","","","","","","",""
"4403.985000000801","","","post_mooney1_questions","survey-likert","274","1003464","0.0-6.0-2.38","3187095","co37945","norming","","","{""curiosity"":4,""confidence"":2}","[0,1]","../img/tt/301tt.jpg","",""
"3110.055000001099","","","recognition","survey-text","275","1006575","0.0-6.0-3.38","3187095","co37945","norming","","","{""guess"":""oorbellen""}","","../img/tt/301tt.jpg","",""
"null","../img/gs/301gs.jpg","null","reveal","image-keyboard-response","276","1008582","0.0-6.0-4.38","3187095","co37945","norming","","","","","","",""
"null","../img/tt/301tt.jpg","null","mooney2","image-keyboard-response","277","1010592","0.0-6.0-5.38","3187095","co37945","norming","","","","","","",""
"3028.625000000815","","","post_reveal_questions","survey-likert","278","1013623","0.0-6.0-6.38","3187095","co37945","norming","","","{""aha"":4}","[0]","../img/tt/301tt.jpg","",""
"null","<div style=""font-size:60px;""> </div>","null","fixation","html-keyboard-response","279","1013826","0.0-6.0-0.39","3187095","co37945","norming","","","","","","",""
"null","../img/tt/1309tt.jpg","null","mooney1","image-keyboard-response","280","1016836","0.0-6.0-1.39","3187095","co37945","norming","","","","","","",""
"3392.130000000121","","","post_mooney1_questions","survey-likert","281","1020232","0.0-6.0-2.39","3187095","co37945","norming","","","{""curiosity"":4,""confidence"":3}","[0,1]","../img/tt/1309tt.jpg","",""
"2630.294999998994","","","recognition","survey-text","282","1022864","0.0-6.0-3.39","3187095","co37945","norming","","","{""guess"":""een auto""}","","../img/tt/1309tt.jpg","",""
"null","../img/gs/1309gs.jpg","null","reveal","image-keyboard-response","283","1024867","0.0-6.0-4.39","3187095","co37945","norming","","","","","","",""
"null","../img/tt/1309tt.jpg","null","mooney2","image-keyboard-response","284","1026869","0.0-6.0-5.39","3187095","co37945","norming","","","","","","",""
"3303.5500000005122","","","post_reveal_questions","survey-likert","285","1030175","0.0-6.0-6.39","3187095","co37945","norming","","","{""aha"":4}","[0]","../img/tt/1309tt.jpg","",""
"null","<div style=""font-size:60px;""> </div>","null","fixation","html-keyboard-response","286","1030379","0.0-6.0-0.40","3187095","co37945","norming","","","","","","",""
"null","../img/tt/036tt.jpg","null","mooney1","image-keyboard-response","287","1033394","0.0-6.0-1.40","3187095","co37945","norming","","","","","","",""
"6677.130000000121","","","post_mooney1_questions","survey-likert","288","1040074","0.0-6.0-2.40","3187095","co37945","norming","","","{""curiosity"":6,""confidence"":1}","[0,1]","../img/tt/036tt.jpg","",""
"2270.1399999987334","","","recognition","survey-text","289","1042346","0.0-6.0-3.40","3187095","co37945","norming","","","{""guess"":""tak""}","","../img/tt/036tt.jpg","",""
"null","../img/gs/036gs.jpg","null","reveal","image-keyboard-response","290","1044357","0.0-6.0-4.40","3187095","co37945","norming","","","","","","",""
"null","../img/tt/036tt.jpg","null","mooney2","image-keyboard-response","291","1046364","0.0-6.0-5.40","3187095","co37945","norming","","","","","","",""
"2634.88500000129","","","post_reveal_questions","survey-likert","292","1049001","0.0-6.0-6.40","3187095","co37945","norming","","","{""aha"":4}","[0]","../img/tt/036tt.jpg","",""
"null","<div style=""font-size:60px;""> </div>","null","fixation","html-keyboard-response","293","1049204","0.0-6.0-0.41","3187095","co37945","norming","","","","","","",""
"null","../img/tt/405tt.jpg","null","mooney1","image-keyboard-response","294","1052212","0.0-6.0-1.41","3187095","co37945","norming","","","","","","",""
"6748.1800000004005","","","post_mooney1_questions","survey-likert","295","1058962","0.0-6.0-2.41","3187095","co37945","norming","","","{""curiosity"":5,""confidence"":0}","[0,1]","../img/tt/405tt.jpg","",""
"822.1250000006985","","","recognition","survey-text","296","1059786","0.0-6.0-3.41","3187095","co37945","norming","","","{""guess"":""""}","","../img/tt/405tt.jpg","",""
"null","../img/gs/405gs.jpg","null","reveal","image-keyboard-response","297","1061790","0.0-6.0-4.41","3187095","co37945","norming","","","","","","",""
"null","../img/tt/405tt.jpg","null","mooney2","image-keyboard-response","298","1063799","0.0-6.0-5.41","3187095","co37945","norming","","","","","","",""
"2640.4549999989104","","","post_reveal_questions","survey-likert","299","1066442","0.0-6.0-6.41","3187095","co37945","norming","","","{""aha"":6}","[0]","../img/tt/405tt.jpg","",""
"null","<div style=""font-size:60px;""> </div>","null","fixation","html-keyboard-response","300","1066644","0.0-6.0-0.42","3187095","co37945","norming","","","","","","",""
"null","../img/tt/1234tt.jpg","null","mooney1","image-keyboard-response","301","1069654","0.0-6.0-1.42","3187095","co37945","norming","","","","","","",""
"4311.895000000717","","","post_mooney1_questions","survey-likert","302","1073970","0.0-6.0-2.42","3187095","co37945","norming","","","{""curiosity"":3,""confidence"":4}","[0,1]","../img/tt/1234tt.jpg","",""
"3142.234999999171","","","recognition","survey-text","303","1077114","0.0-6.0-3.42","3187095","co37945","norming","","","{""guess"":""tafels""}","","../img/tt/1234tt.jpg","",""
"null","../img/gs/1234gs.jpg","null","reveal","image-keyboard-response","304","1079123","0.0-6.0-4.42","3187095","co37945","norming","","","","","","",""
"null","../img/tt/1234tt.jpg","null","mooney2","image-keyboard-response","305","1081126","0.0-6.0-5.42","3187095","co37945","norming","","","","","","",""
"2911.219999999972","","","post_reveal_questions","survey-likert","306","1084042","0.0-6.0-6.42","3187095","co37945","norming","","","{""aha"":4}","[0]","../img/tt/1234tt.jpg","",""
"null","<div style=""font-size:60px;""> </div>","null","fixation","html-keyboard-response","307","1084248","0.0-6.0-0.43","3187095","co37945","norming","","","","","","",""
"null","../img/tt/1069tt.jpg","null","mooney1","image-keyboard-response","308","1087251","0.0-6.0-1.43","3187095","co37945","norming","","","","","","",""
"8619.559999999125","","","post_mooney1_questions","survey-likert","309","1095874","0.0-6.0-2.43","3187095","co37945","norming","","","{""curiosity"":4,""confidence"":2}","[0,1]","../img/tt/1069tt.jpg","",""
"5382.064999999711","","","recognition","survey-text","310","1101258","0.0-6.0-3.43","3187095","co37945","norming","","","{""guess"":""mensen die slapen""}","","../img/tt/1069tt.jpg","",""
"null","../img/gs/1069gs.jpg","null","reveal","image-keyboard-response","311","1103264","0.0-6.0-4.43","3187095","co37945","norming","","","","","","",""
"null","../img/tt/1069tt.jpg","null","mooney2","image-keyboard-response","312","1105267","0.0-6.0-5.43","3187095","co37945","norming","","","","","","",""
"3532.1999999997206","","","post_reveal_questions","survey-likert","313","1108802","0.0-6.0-6.43","3187095","co37945","norming","","","{""aha"":5}","[0]","../img/tt/1069tt.jpg","",""
"null","<div style=""font-size:60px;""> </div>","null","fixation","html-keyboard-response","314","1109006","0.0-6.0-0.44","3187095","co37945","norming","","","","","","",""
"null","../img/tt/085tt.jpg","null","mooney1","image-keyboard-response","315","1112018","0.0-6.0-1.44","3187095","co37945","norming","","","","","","",""
"3132.9899999999907","","","post_mooney1_questions","survey-likert","316","1115154","0.0-6.0-2.44","3187095","co37945","norming","","","{""curiosity"":3,""confidence"":3}","[0,1]","../img/tt/085tt.jpg","",""
"4965.819999999367","","","recognition","survey-text","317","1120122","0.0-6.0-3.44","3187095","co37945","norming","","","{""guess"":""insect""}","","../img/tt/085tt.jpg","",""
"null","../img/gs/085gs.jpg","null","reveal","image-keyboard-response","318","1122132","0.0-6.0-4.44","3187095","co37945","norming","","","","","","",""
"null","../img/tt/085tt.jpg","null","mooney2","image-keyboard-response","319","1124137","0.0-6.0-5.44","3187095","co37945","norming","","","","","","",""
"3437.8749999995343","","","post_reveal_questions","survey-likert","320","1127578","0.0-6.0-6.44","3187095","co37945","norming","","","{""aha"":1}","[0]","../img/tt/085tt.jpg","",""
"null","<div style=""font-size:60px;""> </div>","null","fixation","html-keyboard-response","321","1127779","0.0-6.0-0.45","3187095","co37945","norming","","","","","","",""
"null","../img/tt/507tt.jpg","null","mooney1","image-keyboard-response","322","1130789","0.0-6.0-1.45","3187095","co37945","norming","","","","","","",""
"8596.155000001192","","","post_mooney1_questions","survey-likert","323","1139386","0.0-6.0-2.45","3187095","co37945","norming","","","{""curiosity"":4,""confidence"":3}","[0,1]","../img/tt/507tt.jpg","",""
"12174.04999999958","","","recognition","survey-text","324","1151562","0.0-6.0-3.45","3187095","co37945","norming","","","{""guess"":""meisje op catwalk""}","","../img/tt/507tt.jpg","",""
"null","../img/gs/507gs.jpg","null","reveal","image-keyboard-response","325","1153571","0.0-6.0-4.45","3187095","co37945","norming","","","","","","",""
"null","../img/tt/507tt.jpg","null","mooney2","image-keyboard-response","326","1155577","0.0-6.0-5.45","3187095","co37945","norming","","","","","","",""
"2554.104999999283","","","post_reveal_questions","survey-likert","327","1158134","0.0-6.0-6.45","3187095","co37945","norming","","","{""aha"":3}","[0]","../img/tt/507tt.jpg","",""
"null","<div style=""font-size:60px;""> </div>","null","fixation","html-keyboard-response","328","1158343","0.0-6.0-0.46","3187095","co37945","norming","","","","","","",""
"null","../img/tt/1143tt.jpg","null","mooney1","image-keyboard-response","329","1161345","0.0-6.0-1.46","3187095","co37945","norming","","","","","","",""
"3258.8649999999907","","","post_mooney1_questions","survey-likert","330","1164606","0.0-6.0-2.46","3187095","co37945","norming","","","{""curiosity"":4,""confidence"":3}","[0,1]","../img/tt/1143tt.jpg","",""
"2286.070000000065","","","recognition","survey-text","331","1166894","0.0-6.0-3.46","3187095","co37945","norming","","","{""guess"":""fitness""}","","../img/tt/1143tt.jpg","",""
"null","../img/gs/1143gs.jpg","null","reveal","image-keyboard-response","332","1168897","0.0-6.0-4.46","3187095","co37945","norming","","","","","","",""
"null","../img/tt/1143tt.jpg","null","mooney2","image-keyboard-response","333","1170907","0.0-6.0-5.46","3187095","co37945","norming","","","","","","",""
"3976.349999998929","","","post_reveal_questions","survey-likert","334","1174886","0.0-6.0-6.46","3187095","co37945","norming","","","{""aha"":0}","[0]","../img/tt/1143tt.jpg","",""
"null","<div style=""font-size:60px;""> </div>","null","fixation","html-keyboard-response","335","1175090","0.0-6.0-0.47","3187095","co37945","norming","","","","","","",""
"null","../img/tt/1061tt.jpg","null","mooney1","image-keyboard-response","336","1178098","0.0-6.0-1.47","3187095","co37945","norming","","","","","","",""
"5712.059999999823","","","post_mooney1_questions","survey-likert","337","1183814","0.0-6.0-2.47","3187095","co37945","norming","","","{""curiosity"":2,""confidence"":5}","[0,1]","../img/tt/1061tt.jpg","",""
"8565.82499999972","","","recognition","survey-text","338","1192382","0.0-6.0-3.47","3187095","co37945","norming","","","{""guess"":""stretchen ""}","","../img/tt/1061tt.jpg","",""
"null","../img/gs/1061gs.jpg","null","reveal","image-keyboard-response","339","1194389","0.0-6.0-4.47","3187095","co37945","norming","","","","","","",""
"null","../img/tt/1061tt.jpg","null","mooney2","image-keyboard-response","340","1196391","0.0-6.0-5.47","3187095","co37945","norming","","","","","","",""
"3508.7700000002515","","","post_reveal_questions","survey-likert","341","1199901","0.0-6.0-6.47","3187095","co37945","norming","","","{""aha"":4}","[0]","../img/tt/1061tt.jpg","",""
"null","<div style=""font-size:60px;""> </div>","null","fixation","html-keyboard-response","342","1200104","0.0-6.0-0.48","3187095","co37945","norming","","","","","","",""
"null","../img/tt/590tt.jpg","null","mooney1","image-keyboard-response","343","1203110","0.0-6.0-1.48","3187095","co37945","norming","","","","","","",""
"4941.844999999274","","","post_mooney1_questions","survey-likert","344","1208054","0.0-6.0-2.48","3187095","co37945","norming","","","{""curiosity"":4,""confidence"":3}","[0,1]","../img/tt/590tt.jpg","",""
"7750.199999998556","","","recognition","survey-text","345","1215806","0.0-6.0-3.48","3187095","co37945","norming","","","{""guess"":""iemand  aan schoolbank ""}","","../img/tt/590tt.jpg","",""
"null","../img/gs/590gs.jpg","null","reveal","image-keyboard-response","346","1217812","0.0-6.0-4.48","3187095","co37945","norming","","","","","","",""
"null","../img/tt/590tt.jpg","null","mooney2","image-keyboard-response","347","1219820","0.0-6.0-5.48","3187095","co37945","norming","","","","","","",""
"4943.110000000335","","","post_reveal_questions","survey-likert","348","1224766","0.0-6.0-6.48","3187095","co37945","norming","","","{""aha"":6}","[0]","../img/tt/590tt.jpg","",""
"null","<div style=""font-size:60px;""> </div>","null","fixation","html-keyboard-response","349","1224974","0.0-6.0-0.49","3187095","co37945","norming","","","","","","",""
"null","../img/tt/435tt.jpg","null","mooney1","image-keyboard-response","350","1227985","0.0-6.0-1.49","3187095","co37945","norming","","","","","","",""
"3777.319999999134","","","post_mooney1_questions","survey-likert","351","1231766","0.0-6.0-2.49","3187095","co37945","norming","","","{""curiosity"":4,""confidence"":4}","[0,1]","../img/tt/435tt.jpg","",""
"7142.010000001406","","","recognition","survey-text","352","1238910","0.0-6.0-3.49","3187095","co37945","norming","","","{""guess"":""poolen""}","","../img/tt/435tt.jpg","",""
"null","../img/gs/435gs.jpg","null","reveal","image-keyboard-response","353","1240917","0.0-6.0-4.49","3187095","co37945","norming","","","","","","",""
"null","../img/tt/435tt.jpg","null","mooney2","image-keyboard-response","354","1242926","0.0-6.0-5.49","3187095","co37945","norming","","","","","","",""
"5661.045000000857","","","post_reveal_questions","survey-likert","355","1248590","0.0-6.0-6.49","3187095","co37945","norming","","","{""aha"":1}","[0]","../img/tt/435tt.jpg","",""
"null","<div style=""font-size:60px;""> </div>","null","fixation","html-keyboard-response","356","1248794","0.0-6.0-0.50","3187095","co37945","norming","","","","","","",""
"null","../img/tt/121tt.jpg","null","mooney1","image-keyboard-response","357","1251800","0.0-6.0-1.50","3187095","co37945","norming","","","","","","",""
"5642.2249999996275","","","post_mooney1_questions","survey-likert","358","1257446","0.0-6.0-2.50","3187095","co37945","norming","","","{""curiosity"":4,""confidence"":2}","[0,1]","../img/tt/121tt.jpg","",""
"2966.024999999674","","","recognition","survey-text","359","1260414","0.0-6.0-3.50","3187095","co37945","norming","","","{""guess"":""zwemmen""}","","../img/tt/121tt.jpg","",""
"null","../img/gs/121gs.jpg","null","reveal","image-keyboard-response","360","1262422","0.0-6.0-4.50","3187095","co37945","norming","","","","","","",""
"null","../img/tt/121tt.jpg","null","mooney2","image-keyboard-response","361","1264433","0.0-6.0-5.50","3187095","co37945","norming","","","","","","",""
"5153.709999998566","","","post_reveal_questions","survey-likert","362","1269590","0.0-6.0-6.50","3187095","co37945","norming","","","{""aha"":3}","[0]","../img/tt/121tt.jpg","",""
"null","<div style=""font-size:60px;""> </div>","null","fixation","html-keyboard-response","363","1269791","0.0-6.0-0.51","3187095","co37945","norming","","","","","","",""
"null","../img/tt/1148tt.jpg","null","mooney1","image-keyboard-response","364","1272796","0.0-6.0-1.51","3187095","co37945","norming","","","","","","",""
"4583.674999999814","","","post_mooney1_questions","survey-likert","365","1277380","0.0-6.0-2.51","3187095","co37945","norming","","","{""curiosity"":4,""confidence"":0}","[0,1]","../img/tt/1148tt.jpg","",""
"2165.75","","","recognition","survey-text","366","1279548","0.0-6.0-3.51","3187095","co37945","norming","","","{""guess"":""""}","","../img/tt/1148tt.jpg","",""
"null","../img/gs/1148gs.jpg","null","reveal","image-keyboard-response","367","1281559","0.0-6.0-4.51","3187095","co37945","norming","","","","","","",""
"null","../img/tt/1148tt.jpg","null","mooney2","image-keyboard-response","368","1283564","0.0-6.0-5.51","3187095","co37945","norming","","","","","","",""
"3901.4950000001118","","","post_reveal_questions","survey-likert","369","1287468","0.0-6.0-6.51","3187095","co37945","norming","","","{""aha"":4}","[0]","../img/tt/1148tt.jpg","",""
"null","<div style=""font-size:60px;""> </div>","null","fixation","html-keyboard-response","370","1287673","0.0-6.0-0.52","3187095","co37945","norming","","","","","","",""
"null","../img/tt/1224tt.jpg","null","mooney1","image-keyboard-response","371","1290682","0.0-6.0-1.52","3187095","co37945","norming","","","","","","",""
"9337.690000000177","","","post_mooney1_questions","survey-likert","372","1300020","0.0-6.0-2.52","3187095","co37945","norming","","","{""curiosity"":6,""confidence"":1}","[0,1]","../img/tt/1224tt.jpg","",""
"3229.970000000205","","","recognition","survey-text","373","1303252","0.0-6.0-3.52","3187095","co37945","norming","","","{""guess"":""""}","","../img/tt/1224tt.jpg","",""
"null","../img/gs/1224gs.jpg","null","reveal","image-keyboard-response","374","1305263","0.0-6.0-4.52","3187095","co37945","norming","","","","","","",""
"null","../img/tt/1224tt.jpg","null","mooney2","image-keyboard-response","375","1307274","0.0-6.0-5.52","3187095","co37945","norming","","","","","","",""
"3815.399999999441","","","post_reveal_questions","survey-likert","376","1311092","0.0-6.0-6.52","3187095","co37945","norming","","","{""aha"":3}","[0]","../img/tt/1224tt.jpg","",""
"null","<div style=""font-size:60px;""> </div>","null","fixation","html-keyboard-response","377","1311294","0.0-6.0-0.53","3187095","co37945","norming","","","","","","",""
"null","../img/tt/1043tt.jpg","null","mooney1","image-keyboard-response","378","1314302","0.0-6.0-1.53","3187095","co37945","norming","","","","","","",""
"5002.974999999395","","","post_mooney1_questions","survey-likert","379","1319308","0.0-6.0-2.53","3187095","co37945","norming","","","{""curiosity"":6,""confidence"":1}","[0,1]","../img/tt/1043tt.jpg","",""
"7966.215000000317","","","recognition","survey-text","380","1327276","0.0-6.0-3.53","3187095","co37945","norming","","","{""guess"":""een stuur""}","","../img/tt/1043tt.jpg","",""
"null","../img/gs/1043gs.jpg","null","reveal","image-keyboard-response","381","1329284","0.0-6.0-4.53","3187095","co37945","norming","","","","","","",""
"null","../img/tt/1043tt.jpg","null","mooney2","image-keyboard-response","382","1331295","0.0-6.0-5.53","3187095","co37945","norming","","","","","","",""
"5009.599999999395","","","post_reveal_questions","survey-likert","383","1336308","0.0-6.0-6.53","3187095","co37945","norming","","","{""aha"":0}","[0]","../img/tt/1043tt.jpg","",""
"null","<div style=""font-size:60px;""> </div>","null","fixation","html-keyboard-response","384","1336514","0.0-6.0-0.54","3187095","co37945","norming","","","","","","",""
"null","../img/tt/1188tt.jpg","null","mooney1","image-keyboard-response","385","1339526","0.0-6.0-1.54","3187095","co37945","norming","","","","","","",""
"3754.1700000001583","","","post_mooney1_questions","survey-likert","386","1343284","0.0-6.0-2.54","3187095","co37945","norming","","","{""curiosity"":5,""confidence"":0}","[0,1]","../img/tt/1188tt.jpg","",""
"6964.850000000326","","","recognition","survey-text","387","1350252","0.0-6.0-3.54","3187095","co37945","norming","","","{""guess"":""persoon met helm""}","","../img/tt/1188tt.jpg","",""
"null","../img/gs/1188gs.jpg","null","reveal","image-keyboard-response","388","1352257","0.0-6.0-4.54","3187095","co37945","norming","","","","","","",""
"null","../img/tt/1188tt.jpg","null","mooney2","image-keyboard-response","389","1354262","0.0-6.0-5.54","3187095","co37945","norming","","","","","","",""
"3995.069999998901","","","post_reveal_questions","survey-likert","390","1358260","0.0-6.0-6.54","3187095","co37945","norming","","","{""aha"":2}","[0]","../img/tt/1188tt.jpg","",""
"null","<div style=""font-size:60px;""> </div>","null","fixation","html-keyboard-response","391","1358465","0.0-6.0-0.55","3187095","co37945","norming","","","","","","",""
"null","../img/tt/096tt.jpg","null","mooney1","image-keyboard-response","392","1361470","0.0-6.0-1.55","3187095","co37945","norming","","","","","","",""
"5378.964999999851","","","post_mooney1_questions","survey-likert","393","1366852","0.0-6.0-2.55","3187095","co37945","norming","","","{""curiosity"":5,""confidence"":2}","[0,1]","../img/tt/096tt.jpg","",""
"3574.1049999997485","","","recognition","survey-text","394","1370428","0.0-6.0-3.55","3187095","co37945","norming","","","{""guess"":""piano""}","","../img/tt/096tt.jpg","",""
"null","../img/gs/096gs.jpg","null","reveal","image-keyboard-response","395","1372431","0.0-6.0-4.55","3187095","co37945","norming","","","","","","",""
"null","../img/tt/096tt.jpg","null","mooney2","image-keyboard-response","396","1374439","0.0-6.0-5.55","3187095","co37945","norming","","","","","","",""
"4377.764999999199","","","post_reveal_questions","survey-likert","397","1378820","0.0-6.0-6.55","3187095","co37945","norming","","","{""aha"":1}","[0]","../img/tt/096tt.jpg","",""
"null","<div style=""font-size:60px;""> </div>","null","fixation","html-keyboard-response","398","1379030","0.0-6.0-0.56","3187095","co37945","norming","","","","","","",""
"null","../img/tt/598tt.jpg","null","mooney1","image-keyboard-response","399","1382034","0.0-6.0-1.56","3187095","co37945","norming","","","","","","",""
"3782.9999999995343","","","post_mooney1_questions","survey-likert","400","1385820","0.0-6.0-2.56","3187095","co37945","norming","","","{""curiosity"":4,""confidence"":2}","[0,1]","../img/tt/598tt.jpg","",""
"13038.020000000019","","","recognition","survey-text","401","1398865","0.0-6.0-3.56","3187095","co37945","norming","","","{""guess"":""iemand die zijn hand uitsteekt ""}","","../img/tt/598tt.jpg","",""
"null","../img/gs/598gs.jpg","null","reveal","image-keyboard-response","402","1400875","0.0-6.0-4.56","3187095","co37945","norming","","","","","","",""
"null","../img/tt/598tt.jpg","null","mooney2","image-keyboard-response","403","1402879","0.0-6.0-5.56","3187095","co37945","norming","","","","","","",""
"5263.634999999311","","","post_reveal_questions","survey-likert","404","1408145","0.0-6.0-6.56","3187095","co37945","norming","","","{""aha"":2}","[0]","../img/tt/598tt.jpg","",""
"null","<div style=""font-size:60px;""> </div>","null","fixation","html-keyboard-response","405","1408353","0.0-6.0-0.57","3187095","co37945","norming","","","","","","",""
"null","../img/tt/1250tt.jpg","null","mooney1","image-keyboard-response","406","1411360","0.0-6.0-1.57","3187095","co37945","norming","","","","","","",""
"4006.0649999994785","","","post_mooney1_questions","survey-likert","407","1415369","0.0-6.0-2.57","3187095","co37945","norming","","","{""curiosity"":4,""confidence"":3}","[0,1]","../img/tt/1250tt.jpg","",""
"7814.210000000428","","","recognition","survey-text","408","1423185","0.0-6.0-3.57","3187095","co37945","norming","","","{""guess"":""pinguins ""}","","../img/tt/1250tt.jpg","",""
"null","../img/gs/1250gs.jpg","null","reveal","image-keyboard-response","409","1425190","0.0-6.0-4.57","3187095","co37945","norming","","","","","","",""
"null","../img/tt/1250tt.jpg","null","mooney2","image-keyboard-response","410","1427201","0.0-6.0-5.57","3187095","co37945","norming","","","","","","",""
"3660.1399999998976","","","post_reveal_questions","survey-likert","411","1430865","0.0-6.0-6.57","3187095","co37945","norming","","","{""aha"":5}","[0]","../img/tt/1250tt.jpg","",""
"null","<div style=""font-size:60px;""> </div>","null","fixation","html-keyboard-response","412","1431069","0.0-6.0-0.58","3187095","co37945","norming","","","","","","",""
"null","../img/tt/1055tt.jpg","null","mooney1","image-keyboard-response","413","1434079","0.0-6.0-1.58","3187095","co37945","norming","","","","","","",""
"9063.744999999413","","","post_mooney1_questions","survey-likert","414","1443145","0.0-6.0-2.58","3187095","co37945","norming","","","{""curiosity"":4,""confidence"":3}","[0,1]","../img/tt/1055tt.jpg","",""
"10277.879999999655","","","recognition","survey-text","415","1453425","0.0-6.0-3.58","3187095","co37945","norming","","","{""guess"":""vrouw in zwembad""}","","../img/tt/1055tt.jpg","",""
"null","../img/gs/1055gs.jpg","null","reveal","image-keyboard-response","416","1455428","0.0-6.0-4.58","3187095","co37945","norming","","","","","","",""
"null","../img/tt/1055tt.jpg","null","mooney2","image-keyboard-response","417","1457438","0.0-6.0-5.58","3187095","co37945","norming","","","","","","",""
"5873.814999999013","","","post_reveal_questions","survey-likert","418","1463314","0.0-6.0-6.58","3187095","co37945","norming","","","{""aha"":5}","[0]","../img/tt/1055tt.jpg","",""
"null","<div style=""font-size:60px;""> </div>","null","fixation","html-keyboard-response","419","1463522","0.0-6.0-0.59","3187095","co37945","norming","","","","","","",""
"null","../img/tt/118tt.jpg","null","mooney1","image-keyboard-response","420","1466529","0.0-6.0-1.59","3187095","co37945","norming","","","","","","",""
"10958.179999999702","","","post_mooney1_questions","survey-likert","421","1477490","0.0-6.0-2.59","3187095","co37945","norming","","","{""curiosity"":1,""confidence"":0}","[0,1]","../img/tt/118tt.jpg","",""
"1821.8350000006612","","","recognition","survey-text","422","1479314","0.0-6.0-3.59","3187095","co37945","norming","","","{""guess"":""""}","","../img/tt/118tt.jpg","",""
"null","../img/gs/118gs.jpg","null","reveal","image-keyboard-response","423","1481320","0.0-6.0-4.59","3187095","co37945","norming","","","","","","",""
"null","../img/tt/118tt.jpg","null","mooney2","image-keyboard-response","424","1483326","0.0-6.0-5.59","3187095","co37945","norming","","","","","","",""
"6105.534999998752","","","post_reveal_questions","survey-likert","425","1489434","0.0-6.0-6.59","3187095","co37945","norming","","","{""aha"":3}","[0]","../img/tt/118tt.jpg","",""
"null","<div style=""font-size:60px;""> </div>","null","fixation","html-keyboard-response","426","1489642","0.0-6.0-0.60","3187095","co37945","norming","","","","","","",""
"null","../img/tt/001tt.jpg","null","mooney1","image-keyboard-response","427","1492647","0.0-6.0-1.60","3187095","co37945","norming","","","","","","",""
"6408.175000000279","","","post_mooney1_questions","survey-likert","428","1499058","0.0-6.0-2.60","3187095","co37945","norming","","","{""curiosity"":4,""confidence"":2}","[0,1]","../img/tt/001tt.jpg","",""
"1190.0099999983795","","","recognition","survey-text","429","1500250","0.0-6.0-3.60","3187095","co37945","norming","","","{""guess"":""""}","","../img/tt/001tt.jpg","",""
"null","../img/gs/001gs.jpg","null","reveal","image-keyboard-response","430","1502260","0.0-6.0-4.60","3187095","co37945","norming","","","","","","",""
"null","../img/tt/001tt.jpg","null","mooney2","image-keyboard-response","431","1504268","0.0-6.0-5.60","3187095","co37945","norming","","","","","","",""
"3659.1999999999534","","","post_reveal_questions","survey-likert","432","1507930","0.0-6.0-6.60","3187095","co37945","norming","","","{""aha"":1}","[0]","../img/tt/001tt.jpg","",""
"null","<div style=""font-size:60px;""> </div>","null","fixation","html-keyboard-response","433","1508133","0.0-6.0-0.61","3187095","co37945","norming","","","","","","",""
"null","../img/tt/1243tt.jpg","null","mooney1","image-keyboard-response","434","1511143","0.0-6.0-1.61","3187095","co37945","norming","","","","","","",""
"6368.044999999227","","","post_mooney1_questions","survey-likert","435","1517506","0.0-6.0-2.61","3187095","co37945","norming","","","{""curiosity"":4,""confidence"":0}","[0,1]","../img/tt/1243tt.jpg","",""
"2045.9800000009127","","","recognition","survey-text","436","1519554","0.0-6.0-3.61","3187095","co37945","norming","","","{""guess"":""""}","","../img/tt/1243tt.jpg","",""
"null","../img/gs/1243gs.jpg","null","reveal","image-keyboard-response","437","1521561","0.0-6.0-4.61","3187095","co37945","norming","","","","","","",""
"null","../img/tt/1243tt.jpg","null","mooney2","image-keyboard-response","438","1523571","0.0-6.0-5.61","3187095","co37945","norming","","","","","","",""
"4652.555000000633","","","post_reveal_questions","survey-likert","439","1528226","0.0-6.0-6.61","3187095","co37945","norming","","","{""aha"":3}","[0]","../img/tt/1243tt.jpg","",""
"null","<div style=""font-size:60px;""> </div>","null","fixation","html-keyboard-response","440","1528428","0.0-6.0-0.62","3187095","co37945","norming","","","","","","",""
"null","../img/tt/353tt.jpg","null","mooney1","image-keyboard-response","441","1531434","0.0-6.0-1.62","3187095","co37945","norming","","","","","","",""
"12260.954999999842","","","post_mooney1_questions","survey-likert","442","1543698","0.0-6.0-2.62","3187095","co37945","norming","","","{""curiosity"":6,""confidence"":0}","[0,1]","../img/tt/353tt.jpg","",""
"4422.029999999795","","","recognition","survey-text","443","1548122","0.0-6.0-3.62","3187095","co37945","norming","","","{""guess"":""pinguin ""}","","../img/tt/353tt.jpg","",""
"null","../img/gs/353gs.jpg","null","reveal","image-keyboard-response","444","1550129","0.0-6.0-4.62","3187095","co37945","norming","","","","","","",""
"null","../img/tt/353tt.jpg","null","mooney2","image-keyboard-response","445","1552138","0.0-6.0-5.62","3187095","co37945","norming","","","","","","",""
"4117.935000000289","","","post_reveal_questions","survey-likert","446","1556258","0.0-6.0-6.62","3187095","co37945","norming","","","{""aha"":4}","[0]","../img/tt/353tt.jpg","",""
"null","<div style=""font-size:60px;""> </div>","null","fixation","html-keyboard-response","447","1556465","0.0-6.0-0.63","3187095","co37945","norming","","","","","","",""
"null","../img/tt/1181tt.jpg","null","mooney1","image-keyboard-response","448","1559470","0.0-6.0-1.63","3187095","co37945","norming","","","","","","",""
"8592.455000000075","","","post_mooney1_questions","survey-likert","449","1568066","0.0-6.0-2.63","3187095","co37945","norming","","","{""curiosity"":2,""confidence"":4}","[0,1]","../img/tt/1181tt.jpg","",""
"3510.174999999348","","","recognition","survey-text","450","1571578","0.0-6.0-3.63","3187095","co37945","norming","","","{""guess"":""knuffelen""}","","../img/tt/1181tt.jpg","",""
"null","../img/gs/1181gs.jpg","null","reveal","image-keyboard-response","451","1573588","0.0-6.0-4.63","3187095","co37945","norming","","","","","","",""
"null","../img/tt/1181tt.jpg","null","mooney2","image-keyboard-response","452","1575598","0.0-6.0-5.63","3187095","co37945","norming","","","","","","",""
"12425.295000000857","","","post_reveal_questions","survey-likert","453","1588030","0.0-6.0-6.63","3187095","co37945","norming","","","{""aha"":2}","[0]","../img/tt/1181tt.jpg","",""
"null","<div style=""font-size:60px;""> </div>","null","fixation","html-keyboard-response","454","1588235","0.0-6.0-0.64","3187095","co37945","norming","","","","","","",""
"null","../img/tt/517tt.jpg","null","mooney1","image-keyboard-response","455","1591239","0.0-6.0-1.64","3187095","co37945","norming","","","","","","",""
"5100.300000000047","","","post_mooney1_questions","survey-likert","456","1596343","0.0-6.0-2.64","3187095","co37945","norming","","","{""curiosity"":3,""confidence"":0}","[0,1]","../img/tt/517tt.jpg","",""
"934.0800000010058","","","recognition","survey-text","457","1597278","0.0-6.0-3.64","3187095","co37945","norming","","","{""guess"":""""}","","../img/tt/517tt.jpg","",""
"null","../img/gs/517gs.jpg","null","reveal","image-keyboard-response","458","1599282","0.0-6.0-4.64","3187095","co37945","norming","","","","","","",""
"null","../img/tt/517tt.jpg","null","mooney2","image-keyboard-response","459","1601290","0.0-6.0-5.64","3187095","co37945","norming","","","","","","",""
"3401.2949999996927","","","post_reveal_questions","survey-likert","460","1604694","0.0-6.0-6.64","3187095","co37945","norming","","","{""aha"":6}","[0]","../img/tt/517tt.jpg","",""
"null","<div style=""font-size:60px;""> </div>","null","fixation","html-keyboard-response","461","1604900","0.0-6.0-0.65","3187095","co37945","norming","","","","","","",""
"null","../img/tt/1123tt.jpg","null","mooney1","image-keyboard-response","462","1607906","0.0-6.0-1.65","3187095","co37945","norming","","","","","","",""
"4193.4450000009965","","","post_mooney1_questions","survey-likert","463","1612103","0.0-6.0-2.65","3187095","co37945","norming","","","{""curiosity"":3,""confidence"":4}","[0,1]","../img/tt/1123tt.jpg","",""
"1638.1899999997113","","","recognition","survey-text","464","1613743","0.0-6.0-3.65","3187095","co37945","norming","","","{""guess"":""bal ""}","","../img/tt/1123tt.jpg","",""
"null","../img/gs/1123gs.jpg","null","reveal","image-keyboard-response","465","1615748","0.0-6.0-4.65","3187095","co37945","norming","","","","","","",""
"null","../img/tt/1123tt.jpg","null","mooney2","image-keyboard-response","466","1617757","0.0-6.0-5.65","3187095","co37945","norming","","","","","","",""
"7870.934999998892","","","post_reveal_questions","survey-likert","467","1625630","0.0-6.0-6.65","3187095","co37945","norming","","","{""aha"":0}","[0]","../img/tt/1123tt.jpg","",""
"null","<div style=""font-size:60px;""> </div>","null","fixation","html-keyboard-response","468","1625833","0.0-6.0-0.66","3187095","co37945","norming","","","","","","",""
"null","../img/tt/599tt.jpg","null","mooney1","image-keyboard-response","469","1628842","0.0-6.0-1.66","3187095","co37945","norming","","","","","","",""
"4441.590000000317","","","post_mooney1_questions","survey-likert","470","1633287","0.0-6.0-2.66","3187095","co37945","norming","","","{""curiosity"":3,""confidence"":3}","[0,1]","../img/tt/599tt.jpg","",""
"3030.0650000008754","","","recognition","survey-text","471","1636318","0.0-6.0-3.66","3187095","co37945","norming","","","{""guess"":""vrouw""}","","../img/tt/599tt.jpg","",""
"null","../img/gs/599gs.jpg","null","reveal","image-keyboard-response","472","1638323","0.0-6.0-4.66","3187095","co37945","norming","","","","","","",""
"null","../img/tt/599tt.jpg","null","mooney2","image-keyboard-response","473","1640337","0.0-6.0-5.66","3187095","co37945","norming","","","","","","",""
"7599.240000001388","","","post_reveal_questions","survey-likert","474","1647939","0.0-6.0-6.66","3187095","co37945","norming","","","{""aha"":1}","[0]","../img/tt/599tt.jpg","",""
"null","<div style=""font-size:60px;""> </div>","null","fixation","html-keyboard-response","475","1648146","0.0-6.0-0.67","3187095","co37945","norming","","","","","","",""
"null","../img/tt/273tt.jpg","null","mooney1","image-keyboard-response","476","1651158","0.0-6.0-1.67","3187095","co37945","norming","","","","","","",""
"5563.909999998985","","","post_mooney1_questions","survey-likert","477","1656723","0.0-6.0-2.67","3187095","co37945","norming","","","{""curiosity"":1,""confidence"":5}","[0,1]","../img/tt/273tt.jpg","",""
"3230.435000001453","","","recognition","survey-text","478","1659955","0.0-6.0-3.67","3187095","co37945","norming","","","{""guess"":""beugel""}","","../img/tt/273tt.jpg","",""
"null","../img/gs/273gs.jpg","null","reveal","image-keyboard-response","479","1661964","0.0-6.0-4.67","3187095","co37945","norming","","","","","","",""
"null","../img/tt/273tt.jpg","null","mooney2","image-keyboard-response","480","1663969","0.0-6.0-5.67","3187095","co37945","norming","","","","","","",""
"4711.730000000913","","","post_reveal_questions","survey-likert","481","1668683","0.0-6.0-6.67","3187095","co37945","norming","","","{""aha"":0}","[0]","../img/tt/273tt.jpg","",""
"null","<div style=""font-size:60px;""> </div>","null","fixation","html-keyboard-response","482","1668890","0.0-6.0-0.68","3187095","co37945","norming","","","","","","",""
"null","../img/tt/078tt.jpg","null","mooney1","image-keyboard-response","483","1671902","0.0-6.0-1.68","3187095","co37945","norming","","","","","","",""
"6618.04500000109","","","post_mooney1_questions","survey-likert","484","1678523","0.0-6.0-2.68","3187095","co37945","norming","","","{""curiosity"":5,""confidence"":1}","[0,1]","../img/tt/078tt.jpg","",""
"4518.10499999905","","","recognition","survey-text","485","1683043","0.0-6.0-3.68","3187095","co37945","norming","","","{""guess"":""piraat ""}","","../img/tt/078tt.jpg","",""
"null","../img/gs/078gs.jpg","null","reveal","image-keyboard-response","486","1685053","0.0-6.0-4.68","3187095","co37945","norming","","","","","","",""
"null","../img/tt/078tt.jpg","null","mooney2","image-keyboard-response","487","1687062","0.0-6.0-5.68","3187095","co37945","norming","","","","","","",""
"3170.1450000000186","","","post_reveal_questions","survey-likert","488","1690235","0.0-6.0-6.68","3187095","co37945","norming","","","{""aha"":2}","[0]","../img/tt/078tt.jpg","",""
"null","<div style=""font-size:60px;""> </div>","null","fixation","html-keyboard-response","489","1690444","0.0-6.0-0.69","3187095","co37945","norming","","","","","","",""
"null","../img/tt/1353tt.jpg","null","mooney1","image-keyboard-response","490","1693449","0.0-6.0-1.69","3187095","co37945","norming","","","","","","",""
"8959.030000000028","","","post_mooney1_questions","survey-likert","491","1702410","0.0-6.0-2.69","3187095","co37945","norming","","","{""curiosity"":5,""confidence"":0}","[0,1]","../img/tt/1353tt.jpg","",""
"1773.7399999988265","","","recognition","survey-text","492","1704185","0.0-6.0-3.69","3187095","co37945","norming","","","{""guess"":""""}","","../img/tt/1353tt.jpg","",""
"null","../img/gs/1353gs.jpg","null","reveal","image-keyboard-response","493","1706191","0.0-6.0-4.69","3187095","co37945","norming","","","","","","",""
"null","../img/tt/1353tt.jpg","null","mooney2","image-keyboard-response","494","1708193","0.0-6.0-5.69","3187095","co37945","norming","","","","","","",""
"5085.859999999404","","","post_reveal_questions","survey-likert","495","1713281","0.0-6.0-6.69","3187095","co37945","norming","","","{""aha"":0}","[0]","../img/tt/1353tt.jpg","",""
"null","<div style=""font-size:60px;""> </div>","null","fixation","html-keyboard-response","496","1713491","0.0-6.0-0.70","3187095","co37945","norming","","","","","","",""
"null","../img/tt/380tt.jpg","null","mooney1","image-keyboard-response","497","1716497","0.0-6.0-1.70","3187095","co37945","norming","","","","","","",""
"11317.544999999925","","","post_mooney1_questions","survey-likert","498","1727818","0.0-6.0-2.70","3187095","co37945","norming","","","{""curiosity"":2,""confidence"":0}","[0,1]","../img/tt/380tt.jpg","",""
"869.5499999995809","","","recognition","survey-text","499","1728689","0.0-6.0-3.70","3187095","co37945","norming","","","{""guess"":""""}","","../img/tt/380tt.jpg","",""
"null","../img/gs/380gs.jpg","null","reveal","image-keyboard-response","500","1730695","0.0-6.0-4.70","3187095","co37945","norming","","","","","","",""
"null","../img/tt/380tt.jpg","null","mooney2","image-keyboard-response","501","1732698","0.0-6.0-5.70","3187095","co37945","norming","","","","","","",""
"3142.090000001248","","","post_reveal_questions","survey-likert","502","1735841","0.0-6.0-6.70","3187095","co37945","norming","","","{""aha"":0}","[0]","../img/tt/380tt.jpg","",""
"null","<div style=""font-size:60px;""> </div>","null","fixation","html-keyboard-response","503","1736047","0.0-6.0-0.71","3187095","co37945","norming","","","","","","",""
"null","../img/tt/496tt.jpg","null","mooney1","image-keyboard-response","504","1739053","0.0-6.0-1.71","3187095","co37945","norming","","","","","","",""
"3929.9049999990966","","","post_mooney1_questions","survey-likert","505","1742985","0.0-6.0-2.71","3187095","co37945","norming","","","{""curiosity"":4,""confidence"":1}","[0,1]","../img/tt/496tt.jpg","",""
"1717.8050000001676","","","recognition","survey-text","506","1744705","0.0-6.0-3.71","3187095","co37945","norming","","","{""guess"":""boom""}","","../img/tt/496tt.jpg","",""
"null","../img/gs/496gs.jpg","null","reveal","image-keyboard-response","507","1746712","0.0-6.0-4.71","3187095","co37945","norming","","","","","","",""
"null","../img/tt/496tt.jpg","null","mooney2","image-keyboard-response","508","1748714","0.0-6.0-5.71","3187095","co37945","norming","","","","","","",""
"3494.829999999609","","","post_reveal_questions","survey-likert","509","1752209","0.0-6.0-6.71","3187095","co37945","norming","","","{""aha"":2}","[0]","../img/tt/496tt.jpg","",""
"null","<div style=""font-size:60px;""> </div>","null","fixation","html-keyboard-response","510","1752412","0.0-6.0-0.72","3187095","co37945","norming","","","","","","",""
"null","../img/tt/559tt.jpg","null","mooney1","image-keyboard-response","511","1755421","0.0-6.0-1.72","3187095","co37945","norming","","","","","","",""
"2801.3749999990687","","","post_mooney1_questions","survey-likert","512","1758225","0.0-6.0-2.72","3187095","co37945","norming","","","{""curiosity"":4,""confidence"":3}","[0,1]","../img/tt/559tt.jpg","",""
"6558.274999999208","","","recognition","survey-text","513","1764786","0.0-6.0-3.72","3187095","co37945","norming","","","{""guess"":""naaimachine""}","","../img/tt/559tt.jpg","",""
"null","../img/gs/559gs.jpg","null","reveal","image-keyboard-response","514","1766787","0.0-6.0-4.72","3187095","co37945","norming","","","","","","",""
"null","../img/tt/559tt.jpg","null","mooney2","image-keyboard-response","515","1768792","0.0-6.0-5.72","3187095","co37945","norming","","","","","","",""
"2568.8449999997392","","","post_reveal_questions","survey-likert","516","1771362","0.0-6.0-6.72","3187095","co37945","norming","","","{""aha"":4}","[0]","../img/tt/559tt.jpg","",""
"null","<div style=""font-size:60px;""> </div>","null","fixation","html-keyboard-response","517","1771565","0.0-6.0-0.73","3187095","co37945","norming","","","","","","",""
"null","../img/tt/438tt.jpg","null","mooney1","image-keyboard-response","518","1774574","0.0-6.0-1.73","3187095","co37945","norming","","","","","","",""
"3457.1300000008196","","","post_mooney1_questions","survey-likert","519","1778034","0.0-6.0-2.73","3187095","co37945","norming","","","{""curiosity"":4,""confidence"":2}","[0,1]","../img/tt/438tt.jpg","",""
"2765.5150000010617","","","recognition","survey-text","520","1780801","0.0-6.0-3.73","3187095","co37945","norming","","","{""guess"":""uil""}","","../img/tt/438tt.jpg","",""
"null","../img/gs/438gs.jpg","null","reveal","image-keyboard-response","521","1782802","0.0-6.0-4.73","3187095","co37945","norming","","","","","","",""
"null","../img/tt/438tt.jpg","null","mooney2","image-keyboard-response","522","1784803","0.0-6.0-5.73","3187095","co37945","norming","","","","","","",""
"2756.769999999786","","","post_reveal_questions","survey-likert","523","1787561","0.0-6.0-6.73","3187095","co37945","norming","","","{""aha"":4}","[0]","../img/tt/438tt.jpg","",""
"null","<div style=""font-size:60px;""> </div>","null","fixation","html-keyboard-response","524","1787770","0.0-6.0-0.74","3187095","co37945","norming","","","","","","",""
"null","../img/tt/497tt.jpg","null","mooney1","image-keyboard-response","525","1790777","0.0-6.0-1.74","3187095","co37945","norming","","","","","","",""
"2920.1399999982677","","","post_mooney1_questions","survey-likert","526","1793698","0.0-6.0-2.74","3187095","co37945","norming","","","{""curiosity"":4,""confidence"":2}","[0,1]","../img/tt/497tt.jpg","",""
"3982.079999999609","","","recognition","survey-text","527","1797682","0.0-6.0-3.74","3187095","co37945","norming","","","{""guess"":""platendraaier ""}","","../img/tt/497tt.jpg","",""
"null","../img/gs/497gs.jpg","null","reveal","image-keyboard-response","528","1799686","0.0-6.0-4.74","3187095","co37945","norming","","","","","","",""
"null","../img/tt/497tt.jpg","null","mooney2","image-keyboard-response","529","1801688","0.0-6.0-5.74","3187095","co37945","norming","","","","","","",""
"5679.200000000419","","","post_reveal_questions","survey-likert","530","1807370","0.0-6.0-6.74","3187095","co37945","norming","","","{""aha"":3}","[0]","../img/tt/497tt.jpg","",""
"null","<div style=""font-size:60px;""> </div>","null","fixation","html-keyboard-response","531","1807572","0.0-6.0-0.75","3187095","co37945","norming","","","","","","",""
"null","../img/tt/124tt.jpg","null","mooney1","image-keyboard-response","532","1810578","0.0-6.0-1.75","3187095","co37945","norming","","","","","","",""
"5364.209999999497","","","post_mooney1_questions","survey-likert","533","1815946","0.0-6.0-2.75","3187095","co37945","norming","","","{""curiosity"":4,""confidence"":3}","[0,1]","../img/tt/124tt.jpg","",""
"9525.915000000037","","","recognition","survey-text","534","1825471","0.0-6.0-3.75","3187095","co37945","norming","","","{""guess"":""een varken ""}","","../img/tt/124tt.jpg","",""
"null","../img/gs/124gs.jpg","null","reveal","image-keyboard-response","535","1827477","0.0-6.0-4.75","3187095","co37945","norming","","","","","","",""
"null","../img/tt/124tt.jpg","null","mooney2","image-keyboard-response","536","1829482","0.0-6.0-5.75","3187095","co37945","norming","","","","","","",""
"3217.4500000001863","","","post_reveal_questions","survey-likert","537","1832703","0.0-6.0-6.75","3187095","co37945","norming","","","{""aha"":4}","[0]","../img/tt/124tt.jpg","",""
"null","<div style=""font-size:60px;""> </div>","null","fixation","html-keyboard-response","538","1832913","0.0-6.0-0.76","3187095","co37945","norming","","","","","","",""
"null","../img/tt/1217tt.jpg","null","mooney1","image-keyboard-response","539","1835924","0.0-6.0-1.76","3187095","co37945","norming","","","","","","",""
"4367.350000000326","","","post_mooney1_questions","survey-likert","540","1840295","0.0-6.0-2.76","3187095","co37945","norming","","","{""curiosity"":3,""confidence"":5}","[0,1]","../img/tt/1217tt.jpg","",""
"4246.015000000596","","","recognition","survey-text","541","1844543","0.0-6.0-3.76","3187095","co37945","norming","","","{""guess"":""ijshockey""}","","../img/tt/1217tt.jpg","",""
"null","../img/gs/1217gs.jpg","null","reveal","image-keyboard-response","542","1846546","0.0-6.0-4.76","3187095","co37945","norming","","","","","","",""
"null","../img/tt/1217tt.jpg","null","mooney2","image-keyboard-response","543","1848557","0.0-6.0-5.76","3187095","co37945","norming","","","","","","",""
"2319.6200000003446","","","post_reveal_questions","survey-likert","544","1850879","0.0-6.0-6.76","3187095","co37945","norming","","","{""aha"":4}","[0]","../img/tt/1217tt.jpg","",""
"null","<div style=""font-size:60px;""> </div>","null","fixation","html-keyboard-response","545","1851087","0.0-6.0-0.77","3187095","co37945","norming","","","","","","",""
"null","../img/tt/076tt.jpg","null","mooney1","image-keyboard-response","546","1854098","0.0-6.0-1.77","3187095","co37945","norming","","","","","","",""
"4929.705000000307","","","post_mooney1_questions","survey-likert","547","1859031","0.0-6.0-2.77","3187095","co37945","norming","","","{""curiosity"":3,""confidence"":2}","[0,1]","../img/tt/076tt.jpg","",""
"4726.085000000196","","","recognition","survey-text","548","1863759","0.0-6.0-3.77","3187095","co37945","norming","","","{""guess"":""schaatsen""}","","../img/tt/076tt.jpg","",""
"null","../img/gs/076gs.jpg","null","reveal","image-keyboard-response","549","1865765","0.0-6.0-4.77","3187095","co37945","norming","","","","","","",""
"null","../img/tt/076tt.jpg","null","mooney2","image-keyboard-response","550","1867776","0.0-6.0-5.77","3187095","co37945","norming","","","","","","",""
