"rt","stimulus","key_press","test_part","trial_type","trial_index","time_elapsed","internal_node_id","totalTime","subject","experiment_name","button_pressed","success","responses","question_order","currentStim","old","correct"
"182394.93500000006","Welcome to the experiment. This is an online experiment so please don't close the tab/window until we say goodbye.  Press any key to begin.","32","instructions","html-keyboard-response","0","182226","0.0-0.0","3314279","co37642","norming","","","","","","",""
"7629.585000000021","<div style='word-wrap: break-word; width: 900px'><h3>Please consider this information carefully before deciding whether to participate in this research</h3><ul style='text-align: left; font-size: .8em;'><li><b>Purpose of the research</b>: To examine how people process images.</li><li><b>What you will do in this research</b>:  Stimuli (images) will be presented on the computer and you will be asked different questions about them.</li><li><b>Time required</b>: Participation will take between 45 and 60 minutes to complete.</li><li><b>Risks</b>:  There are no anticipated risks associated with participating in this study. The effects of participating should be comparable to those you would experience from viewing a computer monitor for 30 minutes and using a mouse or keyboard.</li><li><b>Benefits</b>:  This study provides no benefits to you individually except for the credit. The study provides important information about the nature of perception and learning.</li><li><b>Confidentiality</b>:  Your participation in this study will remain confidential. No personally identifiable information will be associated with your data. Your de-identified data may be shared with other researchers and used in future projects.</li><li><b>Participation and withdrawal</b>:  Your participation in this study is completely voluntary and you may refuse to participate or you may choose to withdraw at any time without penalty.</li><li><b>How to contact the researchers</b>: If you have questions or concerns about your participation or payment, or want to request a summary of research findings, please contact Sander Van de Cruys (KU Leuven), at sander.vandecruys@kuleuven.be.</li></ul><p>The nature and purpose of this research have been sufficiently explained and I agree to participate in this study.  I understand that I am free to withdraw at any time without incurring any penalty.</p><p>Please consent by clicking the button below to continue. Otherwise, please exit the study at this time.</p></div>","","instructions","html-button-response","1","189859","0.0-1.0","3314279","co37642","norming","0","","","","","",""
"","","","instructions","fullscreen","2","203841","0.0-2.0","3314279","co37642","norming","","true","","","","",""
"41079.659999999974","","","sona","survey-html-form","3","244934","0.0-3.0","3314279","co37642","norming","","","[{""name"":""sonaid"",""value"":""37642""},{""name"":""debrief"",""value"":""no""},{""name"":""datajoin"",""value"":""yes""}]","","","",""
"84363.52999999997","<div style='word-wrap: break-word; width: 900px'><h3>Instructions</h3><p>This experiment will have 3 parts. In the first part you will see a series of distorted images like the one below on the left. As you can see in the righthand image, the distorted images are derived from actual photographs. In what follows, you will <strong>briefly</strong> be presented with <strong>only</strong> the distorted image.</p> <div style='float: left; margin-right: 20px;'><img src='../img/018tt.jpg' height='250' width='250'></img></div><div style='float: right; margin-left: 20px;'><img src='../img/018gs.jpg' height='250' width='250'></img></div><p>Subsequently you will be asked a few questions about the image: One question on how <strong>curious</strong> you are about the solution and one on how <strong>confident</strong> you are that you know the solution.</p>Next, we ask you to make a guess on what is in the image. Note that it is OK to name just the <strong>basic level category</strong>. For example when you see a parrot in the image, 'parrot' will obviously be a correct answer but also correct is 'bird'. However, 'animal' will <strong>not</strong> be counted as a correct response. For the example above, 'rose' would be correct or 'flower', but not 'plant'. When soccer players are depicted, 'soccer', 'football', 'soccer players' will be correct, but not 'humans', 'outdoors', or 'sports'. You do not need to describe the image in full, just name the main object in it <strong>in one or two words</strong>. All images depict objects from one of the following broad level categories: animals, inanimate objects, plants, sports, vehicles, and food. Recognizing means knowing <strong>more</strong> than these broad labels for a given image. But we always encourage you to <strong>make a guess</strong> if you can. Note that you are allowed to use <strong>Dutch and English</strong> in your answers, whatever comes easiest for you.</p><p>Press any key to continue.</p></div>","32","instructions","html-keyboard-response","4","329296","0.0-4.0","3314279","co37642","norming","","","","","","",""
"248334.01500000007","<div style='word-wrap: break-word; width: 900px'><h3>Instructions</h3> <p>Next, the solution image will be revealed to you and you'll be asked to indicate how strong your <strong>aha-experience</strong> was after seeing the solution. This describes the positive feeling of the 'click' you sometimes experience, when the pieces of the 'puzzle' fall together and you suddenly have 'insight' in the image.</p><img src='aha.jpg' height='188' width='250'></img><p>Note that there are no right or wrong answers. We are interested in what <strong>you</strong> see in the image and how <strong>you</strong> feel about it.</p><p>Press any key to start the experiment.</p></div>","32","instructions","html-keyboard-response","5","577629","0.0-5.0","3314279","co37642","norming","","","","","","",""
"null","<div style=""font-size:60px;""> </div>","null","fixation","html-keyboard-response","6","577840","0.0-6.0-0.0","3314279","co37642","norming","","","","","","",""
"null","../img/tt/318tt.jpg","null","mooney1","image-keyboard-response","7","580854","0.0-6.0-1.0","3314279","co37642","norming","","","","","","",""
"19018.75","","","post_mooney1_questions","survey-likert","8","599877","0.0-6.0-2.0","3314279","co37642","norming","","","{""curiosity"":0,""confidence"":6}","[0,1]","../img/tt/318tt.jpg","",""
"11077.39000000013","","","recognition","survey-text","9","610956","0.0-6.0-3.0","3314279","co37642","norming","","","{""guess"":""football player ""}","","../img/tt/318tt.jpg","",""
"null","../img/gs/318gs.jpg","null","reveal","image-keyboard-response","10","612961","0.0-6.0-4.0","3314279","co37642","norming","","","","","","",""
"null","../img/tt/318tt.jpg","null","mooney2","image-keyboard-response","11","614962","0.0-6.0-5.0","3314279","co37642","norming","","","","","","",""
"5647.520000000019","","","post_reveal_questions","survey-likert","12","620612","0.0-6.0-6.0","3314279","co37642","norming","","","{""aha"":0}","[0]","../img/tt/318tt.jpg","",""
"null","<div style=""font-size:60px;""> </div>","null","fixation","html-keyboard-response","13","620822","0.0-6.0-0.1","3314279","co37642","norming","","","","","","",""
"null","../img/tt/085tt.jpg","null","mooney1","image-keyboard-response","14","623827","0.0-6.0-1.1","3314279","co37642","norming","","","","","","",""
"8896.09999999986","","","post_mooney1_questions","survey-likert","15","632724","0.0-6.0-2.1","3314279","co37642","norming","","","{""curiosity"":5,""confidence"":0}","[0,1]","../img/tt/085tt.jpg","",""
"2789.835000000079","","","recognition","survey-text","16","635516","0.0-6.0-3.1","3314279","co37642","norming","","","{""guess"":""bird""}","","../img/tt/085tt.jpg","",""
"null","../img/gs/085gs.jpg","null","reveal","image-keyboard-response","17","637518","0.0-6.0-4.1","3314279","co37642","norming","","","","","","",""
"null","../img/tt/085tt.jpg","null","mooney2","image-keyboard-response","18","639529","0.0-6.0-5.1","3314279","co37642","norming","","","","","","",""
"4971.254999999888","","","post_reveal_questions","survey-likert","19","644501","0.0-6.0-6.1","3314279","co37642","norming","","","{""aha"":1}","[0]","../img/tt/085tt.jpg","",""
"null","<div style=""font-size:60px;""> </div>","null","fixation","html-keyboard-response","20","644706","0.0-6.0-0.2","3314279","co37642","norming","","","","","","",""
"null","../img/tt/1097tt.jpg","null","mooney1","image-keyboard-response","21","647712","0.0-6.0-1.2","3314279","co37642","norming","","","","","","",""
"12380.165000000037","","","post_mooney1_questions","survey-likert","22","660093","0.0-6.0-2.2","3314279","co37642","norming","","","{""curiosity"":5,""confidence"":2}","[0,1]","../img/tt/1097tt.jpg","",""
"7173.949999999953","","","recognition","survey-text","23","667269","0.0-6.0-3.2","3314279","co37642","norming","","","{""guess"":""vogelverschrikker ""}","","../img/tt/1097tt.jpg","",""
"null","../img/gs/1097gs.jpg","null","reveal","image-keyboard-response","24","669271","0.0-6.0-4.2","3314279","co37642","norming","","","","","","",""
"null","../img/tt/1097tt.jpg","null","mooney2","image-keyboard-response","25","671273","0.0-6.0-5.2","3314279","co37642","norming","","","","","","",""
"3235.0799999998417","","","post_reveal_questions","survey-likert","26","674509","0.0-6.0-6.2","3314279","co37642","norming","","","{""aha"":1}","[0]","../img/tt/1097tt.jpg","",""
"null","<div style=""font-size:60px;""> </div>","null","fixation","html-keyboard-response","27","674718","0.0-6.0-0.3","3314279","co37642","norming","","","","","","",""
"null","../img/tt/1173tt.jpg","null","mooney1","image-keyboard-response","28","677719","0.0-6.0-1.3","3314279","co37642","norming","","","","","","",""
"11188.834999999963","","","post_mooney1_questions","survey-likert","29","688909","0.0-6.0-2.3","3314279","co37642","norming","","","{""curiosity"":2,""confidence"":5}","[0,1]","../img/tt/1173tt.jpg","",""
"4646.1699999999255","","","recognition","survey-text","30","693557","0.0-6.0-3.3","3314279","co37642","norming","","","{""guess"":""rugby ""}","","../img/tt/1173tt.jpg","",""
"null","../img/gs/1173gs.jpg","null","reveal","image-keyboard-response","31","695565","0.0-6.0-4.3","3314279","co37642","norming","","","","","","",""
"null","../img/tt/1173tt.jpg","null","mooney2","image-keyboard-response","32","697568","0.0-6.0-5.3","3314279","co37642","norming","","","","","","",""
"5876.335000000079","","","post_reveal_questions","survey-likert","33","703442","0.0-6.0-6.3","3314279","co37642","norming","","","{""aha"":1}","[0]","../img/tt/1173tt.jpg","",""
"null","<div style=""font-size:60px;""> </div>","null","fixation","html-keyboard-response","34","703644","0.0-6.0-0.4","3314279","co37642","norming","","","","","","",""
"null","../img/tt/440tt.jpg","null","mooney1","image-keyboard-response","35","706651","0.0-6.0-1.4","3314279","co37642","norming","","","","","","",""
"8389.599999999977","","","post_mooney1_questions","survey-likert","36","715042","0.0-6.0-2.4","3314279","co37642","norming","","","{""curiosity"":1,""confidence"":1}","[0,1]","../img/tt/440tt.jpg","",""
"3278.0750000001863","","","recognition","survey-text","37","718322","0.0-6.0-3.4","3314279","co37642","norming","","","{""guess"":""cow""}","","../img/tt/440tt.jpg","",""
"null","../img/gs/440gs.jpg","null","reveal","image-keyboard-response","38","720327","0.0-6.0-4.4","3314279","co37642","norming","","","","","","",""
"null","../img/tt/440tt.jpg","null","mooney2","image-keyboard-response","39","722330","0.0-6.0-5.4","3314279","co37642","norming","","","","","","",""
"4879.074999999837","","","post_reveal_questions","survey-likert","40","727210","0.0-6.0-6.4","3314279","co37642","norming","","","{""aha"":1}","[0]","../img/tt/440tt.jpg","",""
"null","<div style=""font-size:60px;""> </div>","null","fixation","html-keyboard-response","41","727416","0.0-6.0-0.5","3314279","co37642","norming","","","","","","",""
"null","../img/tt/1243tt.jpg","null","mooney1","image-keyboard-response","42","730423","0.0-6.0-1.5","3314279","co37642","norming","","","","","","",""
"8328.555000000051","","","post_mooney1_questions","survey-likert","43","738754","0.0-6.0-2.5","3314279","co37642","norming","","","{""curiosity"":4,""confidence"":4}","[0,1]","../img/tt/1243tt.jpg","",""
"3294.07500000007","","","recognition","survey-text","44","742050","0.0-6.0-3.5","3314279","co37642","norming","","","{""guess"":""gorilla""}","","../img/tt/1243tt.jpg","",""
"null","../img/gs/1243gs.jpg","null","reveal","image-keyboard-response","45","744056","0.0-6.0-4.5","3314279","co37642","norming","","","","","","",""
"null","../img/tt/1243tt.jpg","null","mooney2","image-keyboard-response","46","746058","0.0-6.0-5.5","3314279","co37642","norming","","","","","","",""
"5853.945000000065","","","post_reveal_questions","survey-likert","47","751914","0.0-6.0-6.5","3314279","co37642","norming","","","{""aha"":3}","[0]","../img/tt/1243tt.jpg","",""
"null","<div style=""font-size:60px;""> </div>","null","fixation","html-keyboard-response","48","752115","0.0-6.0-0.6","3314279","co37642","norming","","","","","","",""
"null","../img/tt/013tt.jpg","null","mooney1","image-keyboard-response","49","755124","0.0-6.0-1.6","3314279","co37642","norming","","","","","","",""
"9067.61499999999","","","post_mooney1_questions","survey-likert","50","764191","0.0-6.0-2.6","3314279","co37642","norming","","","{""curiosity"":1,""confidence"":4}","[0,1]","../img/tt/013tt.jpg","",""
"3982.125","","","recognition","survey-text","51","768175","0.0-6.0-3.6","3314279","co37642","norming","","","{""guess"":""kameel ""}","","../img/tt/013tt.jpg","",""
"null","../img/gs/013gs.jpg","null","reveal","image-keyboard-response","52","770176","0.0-6.0-4.6","3314279","co37642","norming","","","","","","",""
"null","../img/tt/013tt.jpg","null","mooney2","image-keyboard-response","53","772180","0.0-6.0-5.6","3314279","co37642","norming","","","","","","",""
"3416.1049999999814","","","post_reveal_questions","survey-likert","54","775599","0.0-6.0-6.6","3314279","co37642","norming","","","{""aha"":0}","[0]","../img/tt/013tt.jpg","",""
"null","<div style=""font-size:60px;""> </div>","null","fixation","html-keyboard-response","55","775800","0.0-6.0-0.7","3314279","co37642","norming","","","","","","",""
"null","../img/tt/1084tt.jpg","null","mooney1","image-keyboard-response","56","778804","0.0-6.0-1.7","3314279","co37642","norming","","","","","","",""
"5375.489999999991","","","post_mooney1_questions","survey-likert","57","784183","0.0-6.0-2.7","3314279","co37642","norming","","","{""curiosity"":3,""confidence"":1}","[0,1]","../img/tt/1084tt.jpg","",""
"3014.3999999997905","","","recognition","survey-text","58","787199","0.0-6.0-3.7","3314279","co37642","norming","","","{""guess"":""pie""}","","../img/tt/1084tt.jpg","",""
"null","../img/gs/1084gs.jpg","null","reveal","image-keyboard-response","59","789206","0.0-6.0-4.7","3314279","co37642","norming","","","","","","",""
"null","../img/tt/1084tt.jpg","null","mooney2","image-keyboard-response","60","791211","0.0-6.0-5.7","3314279","co37642","norming","","","","","","",""
"2089.195000000065","","","post_reveal_questions","survey-likert","61","793303","0.0-6.0-6.7","3314279","co37642","norming","","","{""aha"":0}","[0]","../img/tt/1084tt.jpg","",""
"null","<div style=""font-size:60px;""> </div>","null","fixation","html-keyboard-response","62","793513","0.0-6.0-0.8","3314279","co37642","norming","","","","","","",""
"null","../img/tt/076tt.jpg","null","mooney1","image-keyboard-response","63","796521","0.0-6.0-1.8","3314279","co37642","norming","","","","","","",""
"4874.705000000191","","","post_mooney1_questions","survey-likert","64","801399","0.0-6.0-2.8","3314279","co37642","norming","","","{""curiosity"":0,""confidence"":6}","[0,1]","../img/tt/076tt.jpg","",""
"4981.974999999977","","","recognition","survey-text","65","806383","0.0-6.0-3.8","3314279","co37642","norming","","","{""guess"":""rollerskates ""}","","../img/tt/076tt.jpg","",""
"null","../img/gs/076gs.jpg","null","reveal","image-keyboard-response","66","808384","0.0-6.0-4.8","3314279","co37642","norming","","","","","","",""
"null","../img/tt/076tt.jpg","null","mooney2","image-keyboard-response","67","810387","0.0-6.0-5.8","3314279","co37642","norming","","","","","","",""
"3449.4049999999115","","","post_reveal_questions","survey-likert","68","813839","0.0-6.0-6.8","3314279","co37642","norming","","","{""aha"":0}","[0]","../img/tt/076tt.jpg","",""
"null","<div style=""font-size:60px;""> </div>","null","fixation","html-keyboard-response","69","814048","0.0-6.0-0.9","3314279","co37642","norming","","","","","","",""
"null","../img/tt/1226tt.jpg","null","mooney1","image-keyboard-response","70","817051","0.0-6.0-1.9","3314279","co37642","norming","","","","","","",""
"9049.195000000065","","","post_mooney1_questions","survey-likert","71","826104","0.0-6.0-2.9","3314279","co37642","norming","","","{""curiosity"":0,""confidence"":1}","[0,1]","../img/tt/1226tt.jpg","",""
"2774.0800000000745","","","recognition","survey-text","72","828880","0.0-6.0-3.9","3314279","co37642","norming","","","{""guess"":""child ""}","","../img/tt/1226tt.jpg","",""
"null","../img/gs/1226gs.jpg","null","reveal","image-keyboard-response","73","830884","0.0-6.0-4.9","3314279","co37642","norming","","","","","","",""
"null","../img/tt/1226tt.jpg","null","mooney2","image-keyboard-response","74","832887","0.0-6.0-5.9","3314279","co37642","norming","","","","","","",""
"4215.259999999893","","","post_reveal_questions","survey-likert","75","837104","0.0-6.0-6.9","3314279","co37642","norming","","","{""aha"":2}","[0]","../img/tt/1226tt.jpg","",""
"null","<div style=""font-size:60px;""> </div>","null","fixation","html-keyboard-response","76","837308","0.0-6.0-0.10","3314279","co37642","norming","","","","","","",""
"null","../img/tt/1070tt.jpg","null","mooney1","image-keyboard-response","77","840314","0.0-6.0-1.10","3314279","co37642","norming","","","","","","",""
"5843.77499999979","","","post_mooney1_questions","survey-likert","78","846160","0.0-6.0-2.10","3314279","co37642","norming","","","{""curiosity"":0,""confidence"":4}","[0,1]","../img/tt/1070tt.jpg","",""
"3550.304999999935","","","recognition","survey-text","79","849712","0.0-6.0-3.10","3314279","co37642","norming","","","{""guess"":""sandwich ""}","","../img/tt/1070tt.jpg","",""
"null","../img/gs/1070gs.jpg","null","reveal","image-keyboard-response","80","851714","0.0-6.0-4.10","3314279","co37642","norming","","","","","","",""
"null","../img/tt/1070tt.jpg","null","mooney2","image-keyboard-response","81","853717","0.0-6.0-5.10","3314279","co37642","norming","","","","","","",""
"3409.0599999999395","","","post_reveal_questions","survey-likert","82","857128","0.0-6.0-6.10","3314279","co37642","norming","","","{""aha"":2}","[0]","../img/tt/1070tt.jpg","",""
"null","<div style=""font-size:60px;""> </div>","null","fixation","html-keyboard-response","83","857333","0.0-6.0-0.11","3314279","co37642","norming","","","","","","",""
"null","../img/tt/1188tt.jpg","null","mooney1","image-keyboard-response","84","860341","0.0-6.0-1.11","3314279","co37642","norming","","","","","","",""
"14880.589999999967","","","post_mooney1_questions","survey-likert","85","875224","0.0-6.0-2.11","3314279","co37642","norming","","","{""curiosity"":1,""confidence"":4}","[0,1]","../img/tt/1188tt.jpg","",""
"3062.1600000000326","","","recognition","survey-text","86","878288","0.0-6.0-3.11","3314279","co37642","norming","","","{""guess"":""wielrenner""}","","../img/tt/1188tt.jpg","",""
"null","../img/gs/1188gs.jpg","null","reveal","image-keyboard-response","87","880290","0.0-6.0-4.11","3314279","co37642","norming","","","","","","",""
"null","../img/tt/1188tt.jpg","null","mooney2","image-keyboard-response","88","882292","0.0-6.0-5.11","3314279","co37642","norming","","","","","","",""
"2377.6750000002794","","","post_reveal_questions","survey-likert","89","884672","0.0-6.0-6.11","3314279","co37642","norming","","","{""aha"":1}","[0]","../img/tt/1188tt.jpg","",""
"null","<div style=""font-size:60px;""> </div>","null","fixation","html-keyboard-response","90","884873","0.0-6.0-0.12","3314279","co37642","norming","","","","","","",""
"null","../img/tt/1232tt.jpg","null","mooney1","image-keyboard-response","91","887884","0.0-6.0-1.12","3314279","co37642","norming","","","","","","",""
"6010.660000000149","","","post_mooney1_questions","survey-likert","92","893896","0.0-6.0-2.12","3314279","co37642","norming","","","{""curiosity"":0,""confidence"":5}","[0,1]","../img/tt/1232tt.jpg","",""
"3070.089999999851","","","recognition","survey-text","93","896968","0.0-6.0-3.12","3314279","co37642","norming","","","{""guess"":""pigeon ""}","","../img/tt/1232tt.jpg","",""
"null","../img/gs/1232gs.jpg","null","reveal","image-keyboard-response","94","898969","0.0-6.0-4.12","3314279","co37642","norming","","","","","","",""
"null","../img/tt/1232tt.jpg","null","mooney2","image-keyboard-response","95","900970","0.0-6.0-5.12","3314279","co37642","norming","","","","","","",""
"4444.429999999818","","","post_reveal_questions","survey-likert","96","905416","0.0-6.0-6.12","3314279","co37642","norming","","","{""aha"":0}","[0]","../img/tt/1232tt.jpg","",""
"null","<div style=""font-size:60px;""> </div>","null","fixation","html-keyboard-response","97","905625","0.0-6.0-0.13","3314279","co37642","norming","","","","","","",""
"null","../img/tt/1048tt.jpg","null","mooney1","image-keyboard-response","98","908633","0.0-6.0-1.13","3314279","co37642","norming","","","","","","",""
"5318.555000000051","","","post_mooney1_questions","survey-likert","99","913952","0.0-6.0-2.13","3314279","co37642","norming","","","{""curiosity"":0,""confidence"":0}","[0,1]","../img/tt/1048tt.jpg","",""
"3046.219999999972","","","recognition","survey-text","100","917000","0.0-6.0-3.13","3314279","co37642","norming","","","{""guess"":""crocodile ""}","","../img/tt/1048tt.jpg","",""
"null","../img/gs/1048gs.jpg","null","reveal","image-keyboard-response","101","919009","0.0-6.0-4.13","3314279","co37642","norming","","","","","","",""
"null","../img/tt/1048tt.jpg","null","mooney2","image-keyboard-response","102","921015","0.0-6.0-5.13","3314279","co37642","norming","","","","","","",""
"4520.160000000033","","","post_reveal_questions","survey-likert","103","925536","0.0-6.0-6.13","3314279","co37642","norming","","","{""aha"":2}","[0]","../img/tt/1048tt.jpg","",""
"null","<div style=""font-size:60px;""> </div>","null","fixation","html-keyboard-response","104","925743","0.0-6.0-0.14","3314279","co37642","norming","","","","","","",""
"null","../img/tt/078tt.jpg","null","mooney1","image-keyboard-response","105","928753","0.0-6.0-1.14","3314279","co37642","norming","","","","","","",""
"4012.3799999998882","","","post_mooney1_questions","survey-likert","106","932768","0.0-6.0-2.14","3314279","co37642","norming","","","{""curiosity"":0,""confidence"":5}","[0,1]","../img/tt/078tt.jpg","",""
"3510.734999999753","","","recognition","survey-text","107","936280","0.0-6.0-3.14","3314279","co37642","norming","","","{""guess"":""grapes ""}","","../img/tt/078tt.jpg","",""
"null","../img/gs/078gs.jpg","null","reveal","image-keyboard-response","108","938288","0.0-6.0-4.14","3314279","co37642","norming","","","","","","",""
"null","../img/tt/078tt.jpg","null","mooney2","image-keyboard-response","109","940292","0.0-6.0-5.14","3314279","co37642","norming","","","","","","",""
"3785.284999999916","","","post_reveal_questions","survey-likert","110","944080","0.0-6.0-6.14","3314279","co37642","norming","","","{""aha"":0}","[0]","../img/tt/078tt.jpg","",""
"null","<div style=""font-size:60px;""> </div>","null","fixation","html-keyboard-response","111","944285","0.0-6.0-0.15","3314279","co37642","norming","","","","","","",""
"null","../img/tt/517tt.jpg","null","mooney1","image-keyboard-response","112","947295","0.0-6.0-1.15","3314279","co37642","norming","","","","","","",""
"8140.475000000093","","","post_mooney1_questions","survey-likert","113","955431","0.0-6.0-2.15","3314279","co37642","norming","","","{""curiosity"":0,""confidence"":0}","[0,1]","../img/tt/517tt.jpg","",""
"2117.949999999837","","","recognition","survey-text","114","957551","0.0-6.0-3.15","3314279","co37642","norming","","","{""guess"":""dog ""}","","../img/tt/517tt.jpg","",""
"null","../img/gs/517gs.jpg","null","reveal","image-keyboard-response","115","959552","0.0-6.0-4.15","3314279","co37642","norming","","","","","","",""
"null","../img/tt/517tt.jpg","null","mooney2","image-keyboard-response","116","961558","0.0-6.0-5.15","3314279","co37642","norming","","","","","","",""
"2719.9000000001397","","","post_reveal_questions","survey-likert","117","964279","0.0-6.0-6.15","3314279","co37642","norming","","","{""aha"":0}","[0]","../img/tt/517tt.jpg","",""
"null","<div style=""font-size:60px;""> </div>","null","fixation","html-keyboard-response","118","964481","0.0-6.0-0.16","3314279","co37642","norming","","","","","","",""
"null","../img/tt/1004tt.jpg","null","mooney1","image-keyboard-response","119","967488","0.0-6.0-1.16","3314279","co37642","norming","","","","","","",""
"6196.67499999993","","","post_mooney1_questions","survey-likert","120","973687","0.0-6.0-2.16","3314279","co37642","norming","","","{""curiosity"":0,""confidence"":0}","[0,1]","../img/tt/1004tt.jpg","",""
"2150.04999999993","","","recognition","survey-text","121","975839","0.0-6.0-3.16","3314279","co37642","norming","","","{""guess"":""fox""}","","../img/tt/1004tt.jpg","",""
"null","../img/gs/1004gs.jpg","null","reveal","image-keyboard-response","122","977841","0.0-6.0-4.16","3314279","co37642","norming","","","","","","",""
"null","../img/tt/1004tt.jpg","null","mooney2","image-keyboard-response","123","979845","0.0-6.0-5.16","3314279","co37642","norming","","","","","","",""
"3903.9550000000745","","","post_reveal_questions","survey-likert","124","983751","0.0-6.0-6.16","3314279","co37642","norming","","","{""aha"":1}","[0]","../img/tt/1004tt.jpg","",""
"null","<div style=""font-size:60px;""> </div>","null","fixation","html-keyboard-response","125","983958","0.0-6.0-0.17","3314279","co37642","norming","","","","","","",""
"null","../img/tt/1024tt.jpg","null","mooney1","image-keyboard-response","126","986962","0.0-6.0-1.17","3314279","co37642","norming","","","","","","",""
"9954.4099999998","","","post_mooney1_questions","survey-likert","127","996919","0.0-6.0-2.17","3314279","co37642","norming","","","{""curiosity"":0,""confidence"":1}","[0,1]","../img/tt/1024tt.jpg","",""
"5685.850000000093","","","recognition","survey-text","128","1002607","0.0-6.0-3.17","3314279","co37642","norming","","","{""guess"":""girl""}","","../img/tt/1024tt.jpg","",""
"null","../img/gs/1024gs.jpg","null","reveal","image-keyboard-response","129","1004610","0.0-6.0-4.17","3314279","co37642","norming","","","","","","",""
"null","../img/tt/1024tt.jpg","null","mooney2","image-keyboard-response","130","1006620","0.0-6.0-5.17","3314279","co37642","norming","","","","","","",""
"5200.724999999977","","","post_reveal_questions","survey-likert","131","1011823","0.0-6.0-6.17","3314279","co37642","norming","","","{""aha"":0}","[0]","../img/tt/1024tt.jpg","",""
"null","<div style=""font-size:60px;""> </div>","null","fixation","html-keyboard-response","132","1012029","0.0-6.0-0.18","3314279","co37642","norming","","","","","","",""
"null","../img/tt/184tt.jpg","null","mooney1","image-keyboard-response","133","1015042","0.0-6.0-1.18","3314279","co37642","norming","","","","","","",""
"10266.76000000001","","","post_mooney1_questions","survey-likert","134","1025312","0.0-6.0-2.18","3314279","co37642","norming","","","{""curiosity"":2,""confidence"":1}","[0,1]","../img/tt/184tt.jpg","",""
"2886.304999999935","","","recognition","survey-text","135","1028200","0.0-6.0-3.18","3314279","co37642","norming","","","{""guess"":""hagedis ""}","","../img/tt/184tt.jpg","",""
"null","../img/gs/184gs.jpg","null","reveal","image-keyboard-response","136","1030201","0.0-6.0-4.18","3314279","co37642","norming","","","","","","",""
"null","../img/tt/184tt.jpg","null","mooney2","image-keyboard-response","137","1032203","0.0-6.0-5.18","3314279","co37642","norming","","","","","","",""
"3345.8999999997905","","","post_reveal_questions","survey-likert","138","1035551","0.0-6.0-6.18","3314279","co37642","norming","","","{""aha"":2}","[0]","../img/tt/184tt.jpg","",""
"null","<div style=""font-size:60px;""> </div>","null","fixation","html-keyboard-response","139","1035760","0.0-6.0-0.19","3314279","co37642","norming","","","","","","",""
"null","../img/tt/1012tt.jpg","null","mooney1","image-keyboard-response","140","1038769","0.0-6.0-1.19","3314279","co37642","norming","","","","","","",""
"6396.464999999967","","","post_mooney1_questions","survey-likert","141","1045168","0.0-6.0-2.19","3314279","co37642","norming","","","{""curiosity"":0,""confidence"":0}","[0,1]","../img/tt/1012tt.jpg","",""
"5253.995000000112","","","recognition","survey-text","142","1050424","0.0-6.0-3.19","3314279","co37642","norming","","","{""guess"":""blub""}","","../img/tt/1012tt.jpg","",""
"null","../img/gs/1012gs.jpg","null","reveal","image-keyboard-response","143","1052425","0.0-6.0-4.19","3314279","co37642","norming","","","","","","",""
"null","../img/tt/1012tt.jpg","null","mooney2","image-keyboard-response","144","1054429","0.0-6.0-5.19","3314279","co37642","norming","","","","","","",""
"5305.285000000149","","","post_reveal_questions","survey-likert","145","1059736","0.0-6.0-6.19","3314279","co37642","norming","","","{""aha"":3}","[0]","../img/tt/1012tt.jpg","",""
"null","<div style=""font-size:60px;""> </div>","null","fixation","html-keyboard-response","146","1059945","0.0-6.0-0.20","3314279","co37642","norming","","","","","","",""
"null","../img/tt/1242tt.jpg","null","mooney1","image-keyboard-response","147","1062949","0.0-6.0-1.20","3314279","co37642","norming","","","","","","",""
"6912.350000000093","","","post_mooney1_questions","survey-likert","148","1069864","0.0-6.0-2.20","3314279","co37642","norming","","","{""curiosity"":4,""confidence"":6}","[0,1]","../img/tt/1242tt.jpg","",""
"2270.1350000000093","","","recognition","survey-text","149","1072136","0.0-6.0-3.20","3314279","co37642","norming","","","{""guess"":""fox""}","","../img/tt/1242tt.jpg","",""
"null","../img/gs/1242gs.jpg","null","reveal","image-keyboard-response","150","1074138","0.0-6.0-4.20","3314279","co37642","norming","","","","","","",""
"null","../img/tt/1242tt.jpg","null","mooney2","image-keyboard-response","151","1076141","0.0-6.0-5.20","3314279","co37642","norming","","","","","","",""
"3215.755000000121","","","post_reveal_questions","survey-likert","152","1079360","0.0-6.0-6.20","3314279","co37642","norming","","","{""aha"":0}","[0]","../img/tt/1242tt.jpg","",""
"null","<div style=""font-size:60px;""> </div>","null","fixation","html-keyboard-response","153","1079570","0.0-6.0-0.21","3314279","co37642","norming","","","","","","",""
"null","../img/tt/1269tt.jpg","null","mooney1","image-keyboard-response","154","1082580","0.0-6.0-1.21","3314279","co37642","norming","","","","","","",""
"6400.64000000013","","","post_mooney1_questions","survey-likert","155","1088984","0.0-6.0-2.21","3314279","co37642","norming","","","{""curiosity"":1,""confidence"":0}","[0,1]","../img/tt/1269tt.jpg","",""
"2478.1049999999814","","","recognition","survey-text","156","1091464","0.0-6.0-3.21","3314279","co37642","norming","","","{""guess"":""dog ""}","","../img/tt/1269tt.jpg","",""
"null","../img/gs/1269gs.jpg","null","reveal","image-keyboard-response","157","1093465","0.0-6.0-4.21","3314279","co37642","norming","","","","","","",""
"null","../img/tt/1269tt.jpg","null","mooney2","image-keyboard-response","158","1095473","0.0-6.0-5.21","3314279","co37642","norming","","","","","","",""
"2876.179999999935","","","post_reveal_questions","survey-likert","159","1098351","0.0-6.0-6.21","3314279","co37642","norming","","","{""aha"":0}","[0]","../img/tt/1269tt.jpg","",""
"null","<div style=""font-size:60px;""> </div>","null","fixation","html-keyboard-response","160","1098557","0.0-6.0-0.22","3314279","co37642","norming","","","","","","",""
"null","../img/tt/1202tt.jpg","null","mooney1","image-keyboard-response","161","1101564","0.0-6.0-1.22","3314279","co37642","norming","","","","","","",""
"10435.159999999916","","","post_mooney1_questions","survey-likert","162","1112000","0.0-6.0-2.22","3314279","co37642","norming","","","{""curiosity"":1,""confidence"":0}","[0,1]","../img/tt/1202tt.jpg","",""
"3029.9499999999534","","","recognition","survey-text","163","1115031","0.0-6.0-3.22","3314279","co37642","norming","","","{""guess"":""zaaien""}","","../img/tt/1202tt.jpg","",""
"null","../img/gs/1202gs.jpg","null","reveal","image-keyboard-response","164","1117032","0.0-6.0-4.22","3314279","co37642","norming","","","","","","",""
"null","../img/tt/1202tt.jpg","null","mooney2","image-keyboard-response","165","1119036","0.0-6.0-5.22","3314279","co37642","norming","","","","","","",""
"3106.8499999998603","","","post_reveal_questions","survey-likert","166","1122144","0.0-6.0-6.22","3314279","co37642","norming","","","{""aha"":0}","[0]","../img/tt/1202tt.jpg","",""
"null","<div style=""font-size:60px;""> </div>","null","fixation","html-keyboard-response","167","1122347","0.0-6.0-0.23","3314279","co37642","norming","","","","","","",""
"null","../img/tt/126tt.jpg","null","mooney1","image-keyboard-response","168","1125359","0.0-6.0-1.23","3314279","co37642","norming","","","","","","",""
"5013.52500000014","","","post_mooney1_questions","survey-likert","169","1130376","0.0-6.0-2.23","3314279","co37642","norming","","","{""curiosity"":0,""confidence"":6}","[0,1]","../img/tt/126tt.jpg","",""
"2539.8350000001956","","","recognition","survey-text","170","1132920","0.0-6.0-3.23","3314279","co37642","norming","","","{""guess"":""cow""}","","../img/tt/126tt.jpg","",""
"null","../img/gs/126gs.jpg","null","reveal","image-keyboard-response","171","1134928","0.0-6.0-4.23","3314279","co37642","norming","","","","","","",""
"null","../img/tt/126tt.jpg","null","mooney2","image-keyboard-response","172","1136938","0.0-6.0-5.23","3314279","co37642","norming","","","","","","",""
"6227.449999999953","","","post_reveal_questions","survey-likert","173","1143168","0.0-6.0-6.23","3314279","co37642","norming","","","{""aha"":0}","[0]","../img/tt/126tt.jpg","",""
"null","<div style=""font-size:60px;""> </div>","null","fixation","html-keyboard-response","174","1143377","0.0-6.0-0.24","3314279","co37642","norming","","","","","","",""
"null","../img/tt/1002tt.jpg","null","mooney1","image-keyboard-response","175","1146381","0.0-6.0-1.24","3314279","co37642","norming","","","","","","",""
"3807.8299999998417","","","post_mooney1_questions","survey-likert","176","1150192","0.0-6.0-2.24","3314279","co37642","norming","","","{""curiosity"":0,""confidence"":6}","[0,1]","../img/tt/1002tt.jpg","",""
"5206.040000000037","","","recognition","survey-text","177","1155400","0.0-6.0-3.24","3314279","co37642","norming","","","{""guess"":""grizzlybear ""}","","../img/tt/1002tt.jpg","",""
"null","../img/gs/1002gs.jpg","null","reveal","image-keyboard-response","178","1157401","0.0-6.0-4.24","3314279","co37642","norming","","","","","","",""
"null","../img/tt/1002tt.jpg","null","mooney2","image-keyboard-response","179","1159405","0.0-6.0-5.24","3314279","co37642","norming","","","","","","",""
"3791.780000000028","","","post_reveal_questions","survey-likert","180","1163200","0.0-6.0-6.24","3314279","co37642","norming","","","{""aha"":0}","[0]","../img/tt/1002tt.jpg","",""
"null","<div style=""font-size:60px;""> </div>","null","fixation","html-keyboard-response","181","1163404","0.0-6.0-0.25","3314279","co37642","norming","","","","","","",""
"null","../img/tt/052tt.jpg","null","mooney1","image-keyboard-response","182","1166407","0.0-6.0-1.25","3314279","co37642","norming","","","","","","",""
"5701.554999999935","","","post_mooney1_questions","survey-likert","183","1172112","0.0-6.0-2.25","3314279","co37642","norming","","","{""curiosity"":0,""confidence"":4}","[0,1]","../img/tt/052tt.jpg","",""
"2246.2549999998882","","","recognition","survey-text","184","1174360","0.0-6.0-3.25","3314279","co37642","norming","","","{""guess"":""ring""}","","../img/tt/052tt.jpg","",""
"null","../img/gs/052gs.jpg","null","reveal","image-keyboard-response","185","1176363","0.0-6.0-4.25","3314279","co37642","norming","","","","","","",""
"null","../img/tt/052tt.jpg","null","mooney2","image-keyboard-response","186","1178366","0.0-6.0-5.25","3314279","co37642","norming","","","","","","",""
"2303.5049999998882","","","post_reveal_questions","survey-likert","187","1180672","0.0-6.0-6.25","3314279","co37642","norming","","","{""aha"":0}","[0]","../img/tt/052tt.jpg","",""
"null","<div style=""font-size:60px;""> </div>","null","fixation","html-keyboard-response","188","1180878","0.0-6.0-0.26","3314279","co37642","norming","","","","","","",""
"null","../img/tt/1205tt.jpg","null","mooney1","image-keyboard-response","189","1183881","0.0-6.0-1.26","3314279","co37642","norming","","","","","","",""
"6148.300000000047","","","post_mooney1_questions","survey-likert","190","1190032","0.0-6.0-2.26","3314279","co37642","norming","","","{""curiosity"":3,""confidence"":0}","[0,1]","../img/tt/1205tt.jpg","",""
"11238.084999999963","","","recognition","survey-text","191","1201264","0.0-6.0-3.26","3314279","co37642","norming","","","{""guess"":""blob""}","","../img/tt/1205tt.jpg","",""
"null","../img/gs/1205gs.jpg","null","reveal","image-keyboard-response","192","1203266","0.0-6.0-4.26","3314279","co37642","norming","","","","","","",""
"null","../img/tt/1205tt.jpg","null","mooney2","image-keyboard-response","193","1205274","0.0-6.0-5.26","3314279","co37642","norming","","","","","","",""
"4683.925000000047","","","post_reveal_questions","survey-likert","194","1209960","0.0-6.0-6.26","3314279","co37642","norming","","","{""aha"":3}","[0]","../img/tt/1205tt.jpg","",""
"null","<div style=""font-size:60px;""> </div>","null","fixation","html-keyboard-response","195","1210167","0.0-6.0-0.27","3314279","co37642","norming","","","","","","",""
"null","../img/tt/1200tt.jpg","null","mooney1","image-keyboard-response","196","1213170","0.0-6.0-1.27","3314279","co37642","norming","","","","","","",""
"6067.755000000121","","","post_mooney1_questions","survey-likert","197","1219241","0.0-6.0-2.27","3314279","co37642","norming","","","{""curiosity"":0,""confidence"":5}","[0,1]","../img/tt/1200tt.jpg","",""
"3493.910000000149","","","recognition","survey-text","198","1222736","0.0-6.0-3.27","3314279","co37642","norming","","","{""guess"":""kayak ""}","","../img/tt/1200tt.jpg","",""
"null","../img/gs/1200gs.jpg","null","reveal","image-keyboard-response","199","1224743","0.0-6.0-4.27","3314279","co37642","norming","","","","","","",""
"null","../img/tt/1200tt.jpg","null","mooney2","image-keyboard-response","200","1226745","0.0-6.0-5.27","3314279","co37642","norming","","","","","","",""
"3276.755000000121","","","post_reveal_questions","survey-likert","201","1230024","0.0-6.0-6.27","3314279","co37642","norming","","","{""aha"":1}","[0]","../img/tt/1200tt.jpg","",""
"null","<div style=""font-size:60px;""> </div>","null","fixation","html-keyboard-response","202","1230230","0.0-6.0-0.28","3314279","co37642","norming","","","","","","",""
"null","../img/tt/603tt.jpg","null","mooney1","image-keyboard-response","203","1233235","0.0-6.0-1.28","3314279","co37642","norming","","","","","","",""
"5723.195000000065","","","post_mooney1_questions","survey-likert","204","1238961","0.0-6.0-2.28","3314279","co37642","norming","","","{""curiosity"":2,""confidence"":3}","[0,1]","../img/tt/603tt.jpg","",""
"2429.9249999998137","","","recognition","survey-text","205","1241392","0.0-6.0-3.28","3314279","co37642","norming","","","{""guess"":""cat ""}","","../img/tt/603tt.jpg","",""
"null","../img/gs/603gs.jpg","null","reveal","image-keyboard-response","206","1243395","0.0-6.0-4.28","3314279","co37642","norming","","","","","","",""
"null","../img/tt/603tt.jpg","null","mooney2","image-keyboard-response","207","1245404","0.0-6.0-5.28","3314279","co37642","norming","","","","","","",""
"2386.304999999935","","","post_reveal_questions","survey-likert","208","1247792","0.0-6.0-6.28","3314279","co37642","norming","","","{""aha"":1}","[0]","../img/tt/603tt.jpg","",""
"null","<div style=""font-size:60px;""> </div>","null","fixation","html-keyboard-response","209","1247997","0.0-6.0-0.29","3314279","co37642","norming","","","","","","",""
"null","../img/tt/515tt.jpg","null","mooney1","image-keyboard-response","210","1251008","0.0-6.0-1.29","3314279","co37642","norming","","","","","","",""
"4229.300000000047","","","post_mooney1_questions","survey-likert","211","1255240","0.0-6.0-2.29","3314279","co37642","norming","","","{""curiosity"":0,""confidence"":1}","[0,1]","../img/tt/515tt.jpg","",""
"2357.7649999998976","","","recognition","survey-text","212","1257600","0.0-6.0-3.29","3314279","co37642","norming","","","{""guess"":""banana""}","","../img/tt/515tt.jpg","",""
"null","../img/gs/515gs.jpg","null","reveal","image-keyboard-response","213","1259602","0.0-6.0-4.29","3314279","co37642","norming","","","","","","",""
"null","../img/tt/515tt.jpg","null","mooney2","image-keyboard-response","214","1261617","0.0-6.0-5.29","3314279","co37642","norming","","","","","","",""
"3325.554999999702","","","post_reveal_questions","survey-likert","215","1264944","0.0-6.0-6.29","3314279","co37642","norming","","","{""aha"":1}","[0]","../img/tt/515tt.jpg","",""
"null","<div style=""font-size:60px;""> </div>","null","fixation","html-keyboard-response","216","1265145","0.0-6.0-0.30","3314279","co37642","norming","","","","","","",""
"null","../img/tt/353tt.jpg","null","mooney1","image-keyboard-response","217","1268152","0.0-6.0-1.30","3314279","co37642","norming","","","","","","",""
"4492.534999999683","","","post_mooney1_questions","survey-likert","218","1272648","0.0-6.0-2.30","3314279","co37642","norming","","","{""curiosity"":1,""confidence"":5}","[0,1]","../img/tt/353tt.jpg","",""
"2974.1399999998976","","","recognition","survey-text","219","1275623","0.0-6.0-3.30","3314279","co37642","norming","","","{""guess"":""pinguin""}","","../img/tt/353tt.jpg","",""
"null","../img/gs/353gs.jpg","null","reveal","image-keyboard-response","220","1277629","0.0-6.0-4.30","3314279","co37642","norming","","","","","","",""
"null","../img/tt/353tt.jpg","null","mooney2","image-keyboard-response","221","1279634","0.0-6.0-5.30","3314279","co37642","norming","","","","","","",""
"2844.315000000177","","","post_reveal_questions","survey-likert","222","1282479","0.0-6.0-6.30","3314279","co37642","norming","","","{""aha"":0}","[0]","../img/tt/353tt.jpg","",""
"null","<div style=""font-size:60px;""> </div>","null","fixation","html-keyboard-response","223","1282689","0.0-6.0-0.31","3314279","co37642","norming","","","","","","",""
"null","../img/tt/1125tt.jpg","null","mooney1","image-keyboard-response","224","1285692","0.0-6.0-1.31","3314279","co37642","norming","","","","","","",""
"3921.565000000177","","","post_mooney1_questions","survey-likert","225","1289616","0.0-6.0-2.31","3314279","co37642","norming","","","{""curiosity"":0,""confidence"":0}","[0,1]","../img/tt/1125tt.jpg","",""
"1973.4299999999348","","","recognition","survey-text","226","1291591","0.0-6.0-3.31","3314279","co37642","norming","","","{""guess"":""car""}","","../img/tt/1125tt.jpg","",""
"null","../img/gs/1125gs.jpg","null","reveal","image-keyboard-response","227","1293592","0.0-6.0-4.31","3314279","co37642","norming","","","","","","",""
"null","../img/tt/1125tt.jpg","null","mooney2","image-keyboard-response","228","1295597","0.0-6.0-5.31","3314279","co37642","norming","","","","","","",""
"2161.659999999916","","","post_reveal_questions","survey-likert","229","1297760","0.0-6.0-6.31","3314279","co37642","norming","","","{""aha"":0}","[0]","../img/tt/1125tt.jpg","",""
"null","<div style=""font-size:60px;""> </div>","null","fixation","html-keyboard-response","230","1297970","0.0-6.0-0.32","3314279","co37642","norming","","","","","","",""
"null","../img/tt/1159tt.jpg","null","mooney1","image-keyboard-response","231","1300974","0.0-6.0-1.32","3314279","co37642","norming","","","","","","",""
"5311.090000000084","","","post_mooney1_questions","survey-likert","232","1306288","0.0-6.0-2.32","3314279","co37642","norming","","","{""curiosity"":0,""confidence"":1}","[0,1]","../img/tt/1159tt.jpg","",""
"2182.125","","","recognition","survey-text","233","1308472","0.0-6.0-3.32","3314279","co37642","norming","","","{""guess"":""bird ""}","","../img/tt/1159tt.jpg","",""
"null","../img/gs/1159gs.jpg","null","reveal","image-keyboard-response","234","1310476","0.0-6.0-4.32","3314279","co37642","norming","","","","","","",""
"null","../img/tt/1159tt.jpg","null","mooney2","image-keyboard-response","235","1312478","0.0-6.0-5.32","3314279","co37642","norming","","","","","","",""
"3599.439999999944","","","post_reveal_questions","survey-likert","236","1316080","0.0-6.0-6.32","3314279","co37642","norming","","","{""aha"":2}","[0]","../img/tt/1159tt.jpg","",""
"null","<div style=""font-size:60px;""> </div>","null","fixation","html-keyboard-response","237","1316289","0.0-6.0-0.33","3314279","co37642","norming","","","","","","",""
"null","../img/tt/091tt.jpg","null","mooney1","image-keyboard-response","238","1319297","0.0-6.0-1.33","3314279","co37642","norming","","","","","","",""
"3595.9050000002608","","","post_mooney1_questions","survey-likert","239","1322890","0.0-6.0-2.33","3314279","co37642","norming","","","{""curiosity"":0,""confidence"":0}","[0,1]","../img/tt/091tt.jpg","",""
"2357.975000000093","","","recognition","survey-text","240","1325250","0.0-6.0-3.33","3314279","co37642","norming","","","{""guess"":""shoe ""}","","../img/tt/091tt.jpg","",""
"null","../img/gs/091gs.jpg","null","reveal","image-keyboard-response","241","1327257","0.0-6.0-4.33","3314279","co37642","norming","","","","","","",""
"null","../img/tt/091tt.jpg","null","mooney2","image-keyboard-response","242","1329263","0.0-6.0-5.33","3314279","co37642","norming","","","","","","",""
"3120.219999999972","","","post_reveal_questions","survey-likert","243","1332386","0.0-6.0-6.33","3314279","co37642","norming","","","{""aha"":0}","[0]","../img/tt/091tt.jpg","",""
"null","<div style=""font-size:60px;""> </div>","null","fixation","html-keyboard-response","244","1332589","0.0-6.0-0.34","3314279","co37642","norming","","","","","","",""
"null","../img/tt/1227tt.jpg","null","mooney1","image-keyboard-response","245","1335593","0.0-6.0-1.34","3314279","co37642","norming","","","","","","",""
"5055.639999999665","","","post_mooney1_questions","survey-likert","246","1340650","0.0-6.0-2.34","3314279","co37642","norming","","","{""curiosity"":0,""confidence"":5}","[0,1]","../img/tt/1227tt.jpg","",""
"4966.2050000000745","","","recognition","survey-text","247","1345618","0.0-6.0-3.34","3314279","co37642","norming","","","{""guess"":""chickens""}","","../img/tt/1227tt.jpg","",""
"null","../img/gs/1227gs.jpg","null","reveal","image-keyboard-response","248","1347620","0.0-6.0-4.34","3314279","co37642","norming","","","","","","",""
"null","../img/tt/1227tt.jpg","null","mooney2","image-keyboard-response","249","1349624","0.0-6.0-5.34","3314279","co37642","norming","","","","","","",""
"3136.5450000001583","","","post_reveal_questions","survey-likert","250","1352761","0.0-6.0-6.34","3314279","co37642","norming","","","{""aha"":0}","[0]","../img/tt/1227tt.jpg","",""
"null","<div style=""font-size:60px;""> </div>","null","fixation","html-keyboard-response","251","1352969","0.0-6.0-0.35","3314279","co37642","norming","","","","","","",""
"null","../img/tt/1239tt.jpg","null","mooney1","image-keyboard-response","252","1355976","0.0-6.0-1.35","3314279","co37642","norming","","","","","","",""
"6806.589999999851","","","post_mooney1_questions","survey-likert","253","1362786","0.0-6.0-2.35","3314279","co37642","norming","","","{""curiosity"":2,""confidence"":6}","[0,1]","../img/tt/1239tt.jpg","",""
"2350.225000000093","","","recognition","survey-text","254","1365138","0.0-6.0-3.35","3314279","co37642","norming","","","{""guess"":""husky""}","","../img/tt/1239tt.jpg","",""
"null","../img/gs/1239gs.jpg","null","reveal","image-keyboard-response","255","1367142","0.0-6.0-4.35","3314279","co37642","norming","","","","","","",""
"null","../img/tt/1239tt.jpg","null","mooney2","image-keyboard-response","256","1369146","0.0-6.0-5.35","3314279","co37642","norming","","","","","","",""
"2381.4600000001956","","","post_reveal_questions","survey-likert","257","1371529","0.0-6.0-6.35","3314279","co37642","norming","","","{""aha"":1}","[0]","../img/tt/1239tt.jpg","",""
"null","<div style=""font-size:60px;""> </div>","null","fixation","html-keyboard-response","258","1371737","0.0-6.0-0.36","3314279","co37642","norming","","","","","","",""
"null","../img/tt/1044tt.jpg","null","mooney1","image-keyboard-response","259","1374740","0.0-6.0-1.36","3314279","co37642","norming","","","","","","",""
"5875.570000000065","","","post_mooney1_questions","survey-likert","260","1380618","0.0-6.0-2.36","3314279","co37642","norming","","","{""curiosity"":2,""confidence"":0}","[0,1]","../img/tt/1044tt.jpg","",""
"3493.8349999999627","","","recognition","survey-text","261","1384110","0.0-6.0-3.36","3314279","co37642","norming","","","{""guess"":""skeleton""}","","../img/tt/1044tt.jpg","",""
"null","../img/gs/1044gs.jpg","null","reveal","image-keyboard-response","262","1386118","0.0-6.0-4.36","3314279","co37642","norming","","","","","","",""
"null","../img/tt/1044tt.jpg","null","mooney2","image-keyboard-response","263","1388126","0.0-6.0-5.36","3314279","co37642","norming","","","","","","",""
"2949.2099999999627","","","post_reveal_questions","survey-likert","264","1391078","0.0-6.0-6.36","3314279","co37642","norming","","","{""aha"":2}","[0]","../img/tt/1044tt.jpg","",""
"null","<div style=""font-size:60px;""> </div>","null","fixation","html-keyboard-response","265","1391287","0.0-6.0-0.37","3314279","co37642","norming","","","","","","",""
"null","../img/tt/1130tt.jpg","null","mooney1","image-keyboard-response","266","1394291","0.0-6.0-1.37","3314279","co37642","norming","","","","","","",""
"4056.4850000001024","","","post_mooney1_questions","survey-likert","267","1398350","0.0-6.0-2.37","3314279","co37642","norming","","","{""curiosity"":0,""confidence"":0}","[0,1]","../img/tt/1130tt.jpg","",""
"4446.040000000037","","","recognition","survey-text","268","1402798","0.0-6.0-3.37","3314279","co37642","norming","","","{""guess"":""baseball""}","","../img/tt/1130tt.jpg","",""
"null","../img/gs/1130gs.jpg","null","reveal","image-keyboard-response","269","1404808","0.0-6.0-4.37","3314279","co37642","norming","","","","","","",""
"null","../img/tt/1130tt.jpg","null","mooney2","image-keyboard-response","270","1406817","0.0-6.0-5.37","3314279","co37642","norming","","","","","","",""
"2178.469999999972","","","post_reveal_questions","survey-likert","271","1408998","0.0-6.0-6.37","3314279","co37642","norming","","","{""aha"":1}","[0]","../img/tt/1130tt.jpg","",""
"null","<div style=""font-size:60px;""> </div>","null","fixation","html-keyboard-response","272","1409205","0.0-6.0-0.38","3314279","co37642","norming","","","","","","",""
"null","../img/tt/273tt.jpg","null","mooney1","image-keyboard-response","273","1412212","0.0-6.0-1.38","3314279","co37642","norming","","","","","","",""
"5287.510000000242","","","post_mooney1_questions","survey-likert","274","1417502","0.0-6.0-2.38","3314279","co37642","norming","","","{""curiosity"":0,""confidence"":2}","[0,1]","../img/tt/273tt.jpg","",""
"4670.189999999944","","","recognition","survey-text","275","1422174","0.0-6.0-3.38","3314279","co37642","norming","","","{""guess"":""coffeemug""}","","../img/tt/273tt.jpg","",""
"null","../img/gs/273gs.jpg","null","reveal","image-keyboard-response","276","1424177","0.0-6.0-4.38","3314279","co37642","norming","","","","","","",""
"null","../img/tt/273tt.jpg","null","mooney2","image-keyboard-response","277","1426179","0.0-6.0-5.38","3314279","co37642","norming","","","","","","",""
"2736.3300000000745","","","post_reveal_questions","survey-likert","278","1428918","0.0-6.0-6.38","3314279","co37642","norming","","","{""aha"":1}","[0]","../img/tt/273tt.jpg","",""
"null","<div style=""font-size:60px;""> </div>","null","fixation","html-keyboard-response","279","1429124","0.0-6.0-0.39","3314279","co37642","norming","","","","","","",""
"null","../img/tt/358tt.jpg","null","mooney1","image-keyboard-response","280","1432136","0.0-6.0-1.39","3314279","co37642","norming","","","","","","",""
"8619.380000000121","","","post_mooney1_questions","survey-likert","281","1440758","0.0-6.0-2.39","3314279","co37642","norming","","","{""curiosity"":2,""confidence"":0}","[0,1]","../img/tt/358tt.jpg","",""
"3126.0749999999534","","","recognition","survey-text","282","1443887","0.0-6.0-3.39","3314279","co37642","norming","","","{""guess"":""blab""}","","../img/tt/358tt.jpg","",""
"null","../img/gs/358gs.jpg","null","reveal","image-keyboard-response","283","1445898","0.0-6.0-4.39","3314279","co37642","norming","","","","","","",""
"null","../img/tt/358tt.jpg","null","mooney2","image-keyboard-response","284","1447908","0.0-6.0-5.39","3314279","co37642","norming","","","","","","",""
"2680.8850000000093","","","post_reveal_questions","survey-likert","285","1450591","0.0-6.0-6.39","3314279","co37642","norming","","","{""aha"":0}","[0]","../img/tt/358tt.jpg","",""
"null","<div style=""font-size:60px;""> </div>","null","fixation","html-keyboard-response","286","1450797","0.0-6.0-0.40","3314279","co37642","norming","","","","","","",""
"null","../img/tt/1046tt.jpg","null","mooney1","image-keyboard-response","287","1453804","0.0-6.0-1.40","3314279","co37642","norming","","","","","","",""
"5063.989999999991","","","post_mooney1_questions","survey-likert","288","1458871","0.0-6.0-2.40","3314279","co37642","norming","","","{""curiosity"":1,""confidence"":3}","[0,1]","../img/tt/1046tt.jpg","",""
"2422.195000000065","","","recognition","survey-text","289","1461295","0.0-6.0-3.40","3314279","co37642","norming","","","{""guess"":""taco""}","","../img/tt/1046tt.jpg","",""
"null","../img/gs/1046gs.jpg","null","reveal","image-keyboard-response","290","1463297","0.0-6.0-4.40","3314279","co37642","norming","","","","","","",""
"null","../img/tt/1046tt.jpg","null","mooney2","image-keyboard-response","291","1465299","0.0-6.0-5.40","3314279","co37642","norming","","","","","","",""
"2602.2050000003073","","","post_reveal_questions","survey-likert","292","1467903","0.0-6.0-6.40","3314279","co37642","norming","","","{""aha"":1}","[0]","../img/tt/1046tt.jpg","",""
"null","<div style=""font-size:60px;""> </div>","null","fixation","html-keyboard-response","293","1468114","0.0-6.0-0.41","3314279","co37642","norming","","","","","","",""
"null","../img/tt/194tt.jpg","null","mooney1","image-keyboard-response","294","1471120","0.0-6.0-1.41","3314279","co37642","norming","","","","","","",""
"6412.004999999655","","","post_mooney1_questions","survey-likert","295","1477535","0.0-6.0-2.41","3314279","co37642","norming","","","{""curiosity"":1,""confidence"":4}","[0,1]","../img/tt/194tt.jpg","",""
"2350.1700000001583","","","recognition","survey-text","296","1479887","0.0-6.0-3.41","3314279","co37642","norming","","","{""guess"":""cello""}","","../img/tt/194tt.jpg","",""
"null","../img/gs/194gs.jpg","null","reveal","image-keyboard-response","297","1481893","0.0-6.0-4.41","3314279","co37642","norming","","","","","","",""
"null","../img/tt/194tt.jpg","null","mooney2","image-keyboard-response","298","1483902","0.0-6.0-5.41","3314279","co37642","norming","","","","","","",""
"3414.2999999998137","","","post_reveal_questions","survey-likert","299","1487319","0.0-6.0-6.41","3314279","co37642","norming","","","{""aha"":2}","[0]","../img/tt/194tt.jpg","",""
"null","<div style=""font-size:60px;""> </div>","null","fixation","html-keyboard-response","300","1487523","0.0-6.0-0.42","3314279","co37642","norming","","","","","","",""
"null","../img/tt/1261tt.jpg","null","mooney1","image-keyboard-response","301","1490528","0.0-6.0-1.42","3314279","co37642","norming","","","","","","",""
"9619.729999999981","","","post_mooney1_questions","survey-likert","302","1500151","0.0-6.0-2.42","3314279","co37642","norming","","","{""curiosity"":4,""confidence"":2}","[0,1]","../img/tt/1261tt.jpg","",""
"2630.244999999879","","","recognition","survey-text","303","1502791","0.0-6.0-3.42","3314279","co37642","norming","","","{""guess"":""horse""}","","../img/tt/1261tt.jpg","",""
"null","../img/gs/1261gs.jpg","null","reveal","image-keyboard-response","304","1504800","0.0-6.0-4.42","3314279","co37642","norming","","","","","","",""
"null","../img/tt/1261tt.jpg","null","mooney2","image-keyboard-response","305","1506805","0.0-6.0-5.42","3314279","co37642","norming","","","","","","",""
"3764.8549999999814","","","post_reveal_questions","survey-likert","306","1510575","0.0-6.0-6.42","3314279","co37642","norming","","","{""aha"":2}","[0]","../img/tt/1261tt.jpg","",""
"null","<div style=""font-size:60px;""> </div>","null","fixation","html-keyboard-response","307","1510780","0.0-6.0-0.43","3314279","co37642","norming","","","","","","",""
"null","../img/tt/1078tt.jpg","null","mooney1","image-keyboard-response","308","1513787","0.0-6.0-1.43","3314279","co37642","norming","","","","","","",""
"8024.7299999997485","","","post_mooney1_questions","survey-likert","309","1521815","0.0-6.0-2.43","3314279","co37642","norming","","","{""curiosity"":1,""confidence"":3}","[0,1]","../img/tt/1078tt.jpg","",""
"3422.2650000001304","","","recognition","survey-text","310","1525239","0.0-6.0-3.43","3314279","co37642","norming","","","{""guess"":""iceskater ""}","","../img/tt/1078tt.jpg","",""
"null","../img/gs/1078gs.jpg","null","reveal","image-keyboard-response","311","1527241","0.0-6.0-4.43","3314279","co37642","norming","","","","","","",""
"null","../img/tt/1078tt.jpg","null","mooney2","image-keyboard-response","312","1529251","0.0-6.0-5.43","3314279","co37642","norming","","","","","","",""
"4096.39000000013","","","post_reveal_questions","survey-likert","313","1533351","0.0-6.0-6.43","3314279","co37642","norming","","","{""aha"":2}","[0]","../img/tt/1078tt.jpg","",""
"null","<div style=""font-size:60px;""> </div>","null","fixation","html-keyboard-response","314","1533561","0.0-6.0-0.44","3314279","co37642","norming","","","","","","",""
"null","../img/tt/1268tt.jpg","null","mooney1","image-keyboard-response","315","1536570","0.0-6.0-1.44","3314279","co37642","norming","","","","","","",""
"5201.914999999572","","","post_mooney1_questions","survey-likert","316","1541775","0.0-6.0-2.44","3314279","co37642","norming","","","{""curiosity"":1,""confidence"":2}","[0,1]","../img/tt/1268tt.jpg","",""
"2310.0200000000186","","","recognition","survey-text","317","1544087","0.0-6.0-3.44","3314279","co37642","norming","","","{""guess"":""baviaan""}","","../img/tt/1268tt.jpg","",""
"null","../img/gs/1268gs.jpg","null","reveal","image-keyboard-response","318","1546088","0.0-6.0-4.44","3314279","co37642","norming","","","","","","",""
"null","../img/tt/1268tt.jpg","null","mooney2","image-keyboard-response","319","1548094","0.0-6.0-5.44","3314279","co37642","norming","","","","","","",""
"2190.1999999999534","","","post_reveal_questions","survey-likert","320","1550287","0.0-6.0-6.44","3314279","co37642","norming","","","{""aha"":1}","[0]","../img/tt/1268tt.jpg","",""
"null","<div style=""font-size:60px;""> </div>","null","fixation","html-keyboard-response","321","1550492","0.0-6.0-0.45","3314279","co37642","norming","","","","","","",""
"null","../img/tt/189tt.jpg","null","mooney1","image-keyboard-response","322","1553500","0.0-6.0-1.45","3314279","co37642","norming","","","","","","",""
"5535.949999999953","","","post_mooney1_questions","survey-likert","323","1559039","0.0-6.0-2.45","3314279","co37642","norming","","","{""curiosity"":2,""confidence"":0}","[0,1]","../img/tt/189tt.jpg","",""
"3270.1299999998882","","","recognition","survey-text","324","1562311","0.0-6.0-3.45","3314279","co37642","norming","","","{""guess"":""blib""}","","../img/tt/189tt.jpg","",""
"null","../img/gs/189gs.jpg","null","reveal","image-keyboard-response","325","1564314","0.0-6.0-4.45","3314279","co37642","norming","","","","","","",""
"null","../img/tt/189tt.jpg","null","mooney2","image-keyboard-response","326","1566324","0.0-6.0-5.45","3314279","co37642","norming","","","","","","",""
"2562.869999999646","","","post_reveal_questions","survey-likert","327","1568889","0.0-6.0-6.45","3314279","co37642","norming","","","{""aha"":2}","[0]","../img/tt/189tt.jpg","",""
"null","<div style=""font-size:60px;""> </div>","null","fixation","html-keyboard-response","328","1569096","0.0-6.0-0.46","3314279","co37642","norming","","","","","","",""
"null","../img/tt/032tt.jpg","null","mooney1","image-keyboard-response","329","1572107","0.0-6.0-1.46","3314279","co37642","norming","","","","","","",""
"6915.039999999804","","","post_mooney1_questions","survey-likert","330","1579025","0.0-6.0-2.46","3314279","co37642","norming","","","{""curiosity"":1,""confidence"":1}","[0,1]","../img/tt/032tt.jpg","",""
"4758.309999999823","","","recognition","survey-text","331","1583785","0.0-6.0-3.46","3314279","co37642","norming","","","{""guess"":""cowboy""}","","../img/tt/032tt.jpg","",""
"null","../img/gs/032gs.jpg","null","reveal","image-keyboard-response","332","1585793","0.0-6.0-4.46","3314279","co37642","norming","","","","","","",""
"null","../img/tt/032tt.jpg","null","mooney2","image-keyboard-response","333","1587803","0.0-6.0-5.46","3314279","co37642","norming","","","","","","",""
"2851.5850000004284","","","post_reveal_questions","survey-likert","334","1590657","0.0-6.0-6.46","3314279","co37642","norming","","","{""aha"":2}","[0]","../img/tt/032tt.jpg","",""
"null","<div style=""font-size:60px;""> </div>","null","fixation","html-keyboard-response","335","1590868","0.0-6.0-0.47","3314279","co37642","norming","","","","","","",""
"null","../img/tt/279tt.jpg","null","mooney1","image-keyboard-response","336","1593874","0.0-6.0-1.47","3314279","co37642","norming","","","","","","",""
"6179.860000000102","","","post_mooney1_questions","survey-likert","337","1600057","0.0-6.0-2.47","3314279","co37642","norming","","","{""curiosity"":3,""confidence"":6}","[0,1]","../img/tt/279tt.jpg","",""
"2045.505000000121","","","recognition","survey-text","338","1602105","0.0-6.0-3.47","3314279","co37642","norming","","","{""guess"":""koala""}","","../img/tt/279tt.jpg","",""
"null","../img/gs/279gs.jpg","null","reveal","image-keyboard-response","339","1604106","0.0-6.0-4.47","3314279","co37642","norming","","","","","","",""
"null","../img/tt/279tt.jpg","null","mooney2","image-keyboard-response","340","1606117","0.0-6.0-5.47","3314279","co37642","norming","","","","","","",""
"2545.6500000001397","","","post_reveal_questions","survey-likert","341","1608665","0.0-6.0-6.47","3314279","co37642","norming","","","{""aha"":1}","[0]","../img/tt/279tt.jpg","",""
"null","<div style=""font-size:60px;""> </div>","null","fixation","html-keyboard-response","342","1608869","0.0-6.0-0.48","3314279","co37642","norming","","","","","","",""
"null","../img/tt/010tt.jpg","null","mooney1","image-keyboard-response","343","1611878","0.0-6.0-1.48","3314279","co37642","norming","","","","","","",""
"4544.200000000186","","","post_mooney1_questions","survey-likert","344","1616425","0.0-6.0-2.48","3314279","co37642","norming","","","{""curiosity"":1,""confidence"":2}","[0,1]","../img/tt/010tt.jpg","",""
"2861.8000000000466","","","recognition","survey-text","345","1619289","0.0-6.0-3.48","3314279","co37642","norming","","","{""guess"":""flower""}","","../img/tt/010tt.jpg","",""
"null","../img/gs/010gs.jpg","null","reveal","image-keyboard-response","346","1621299","0.0-6.0-4.48","3314279","co37642","norming","","","","","","",""
"null","../img/tt/010tt.jpg","null","mooney2","image-keyboard-response","347","1623309","0.0-6.0-5.48","3314279","co37642","norming","","","","","","",""
"4264.66500000027","","","post_reveal_questions","survey-likert","348","1627575","0.0-6.0-6.48","3314279","co37642","norming","","","{""aha"":1}","[0]","../img/tt/010tt.jpg","",""
"null","<div style=""font-size:60px;""> </div>","null","fixation","html-keyboard-response","349","1627782","0.0-6.0-0.49","3314279","co37642","norming","","","","","","",""
"null","../img/tt/1027tt.jpg","null","mooney1","image-keyboard-response","350","1630786","0.0-6.0-1.49","3314279","co37642","norming","","","","","","",""
"4257.7700000002515","","","post_mooney1_questions","survey-likert","351","1635047","0.0-6.0-2.49","3314279","co37642","norming","","","{""curiosity"":0,""confidence"":6}","[0,1]","../img/tt/1027tt.jpg","",""
"1742.1649999998044","","","recognition","survey-text","352","1636791","0.0-6.0-3.49","3314279","co37642","norming","","","{""guess"":""cow""}","","../img/tt/1027tt.jpg","",""
"null","../img/gs/1027gs.jpg","null","reveal","image-keyboard-response","353","1638797","0.0-6.0-4.49","3314279","co37642","norming","","","","","","",""
"null","../img/tt/1027tt.jpg","null","mooney2","image-keyboard-response","354","1640806","0.0-6.0-5.49","3314279","co37642","norming","","","","","","",""
"1983.4099999999162","","","post_reveal_questions","survey-likert","355","1642791","0.0-6.0-6.49","3314279","co37642","norming","","","{""aha"":1}","[0]","../img/tt/1027tt.jpg","",""
"null","<div style=""font-size:60px;""> </div>","null","fixation","html-keyboard-response","356","1642994","0.0-6.0-0.50","3314279","co37642","norming","","","","","","",""
"null","../img/tt/001tt.jpg","null","mooney1","image-keyboard-response","357","1646000","0.0-6.0-1.50","3314279","co37642","norming","","","","","","",""
"6628.004999999655","","","post_mooney1_questions","survey-likert","358","1652631","0.0-6.0-2.50","3314279","co37642","norming","","","{""curiosity"":1,""confidence"":3}","[0,1]","../img/tt/001tt.jpg","",""
"2461.9699999997392","","","recognition","survey-text","359","1655095","0.0-6.0-3.50","3314279","co37642","norming","","","{""guess"":""bird""}","","../img/tt/001tt.jpg","",""
"null","../img/gs/001gs.jpg","null","reveal","image-keyboard-response","360","1657096","0.0-6.0-4.50","3314279","co37642","norming","","","","","","",""
"null","../img/tt/001tt.jpg","null","mooney2","image-keyboard-response","361","1659105","0.0-6.0-5.50","3314279","co37642","norming","","","","","","",""
"2170.909999999916","","","post_reveal_questions","survey-likert","362","1661279","0.0-6.0-6.50","3314279","co37642","norming","","","{""aha"":1}","[0]","../img/tt/001tt.jpg","",""
"null","<div style=""font-size:60px;""> </div>","null","fixation","html-keyboard-response","363","1661485","0.0-6.0-0.51","3314279","co37642","norming","","","","","","",""
"null","../img/tt/1055tt.jpg","null","mooney1","image-keyboard-response","364","1664490","0.0-6.0-1.51","3314279","co37642","norming","","","","","","",""
"4673.804999999935","","","post_mooney1_questions","survey-likert","365","1669167","0.0-6.0-2.51","3314279","co37642","norming","","","{""curiosity"":0,""confidence"":0}","[0,1]","../img/tt/1055tt.jpg","",""
"3798.0100000000093","","","recognition","survey-text","366","1672967","0.0-6.0-3.51","3314279","co37642","norming","","","{""guess"":""sailboat""}","","../img/tt/1055tt.jpg","",""
"null","../img/gs/1055gs.jpg","null","reveal","image-keyboard-response","367","1674971","0.0-6.0-4.51","3314279","co37642","norming","","","","","","",""
"null","../img/tt/1055tt.jpg","null","mooney2","image-keyboard-response","368","1676975","0.0-6.0-5.51","3314279","co37642","norming","","","","","","",""
"4004.8149999997113","","","post_reveal_questions","survey-likert","369","1680983","0.0-6.0-6.51","3314279","co37642","norming","","","{""aha"":3}","[0]","../img/tt/1055tt.jpg","",""
"null","<div style=""font-size:60px;""> </div>","null","fixation","html-keyboard-response","370","1681189","0.0-6.0-0.52","3314279","co37642","norming","","","","","","",""
"null","../img/tt/497tt.jpg","null","mooney1","image-keyboard-response","371","1684192","0.0-6.0-1.52","3314279","co37642","norming","","","","","","",""
"4299.834999999963","","","post_mooney1_questions","survey-likert","372","1688500","0.0-6.0-2.52","3314279","co37642","norming","","","{""curiosity"":1,""confidence"":4}","[0,1]","../img/tt/497tt.jpg","",""
"2374.1649999998044","","","recognition","survey-text","373","1690876","0.0-6.0-3.52","3314279","co37642","norming","","","{""guess"":""kompas""}","","../img/tt/497tt.jpg","",""
"null","../img/gs/497gs.jpg","null","reveal","image-keyboard-response","374","1692881","0.0-6.0-4.52","3314279","co37642","norming","","","","","","",""
"null","../img/tt/497tt.jpg","null","mooney2","image-keyboard-response","375","1694883","0.0-6.0-5.52","3314279","co37642","norming","","","","","","",""
"2878.090000000084","","","post_reveal_questions","survey-likert","376","1697764","0.0-6.0-6.52","3314279","co37642","norming","","","{""aha"":1}","[0]","../img/tt/497tt.jpg","",""
"null","<div style=""font-size:60px;""> </div>","null","fixation","html-keyboard-response","377","1697965","0.0-6.0-0.53","3314279","co37642","norming","","","","","","",""
"null","../img/tt/124tt.jpg","null","mooney1","image-keyboard-response","378","1700968","0.0-6.0-1.53","3314279","co37642","norming","","","","","","",""
"3937.090000000084","","","post_mooney1_questions","survey-likert","379","1704908","0.0-6.0-2.53","3314279","co37642","norming","","","{""curiosity"":1,""confidence"":2}","[0,1]","../img/tt/124tt.jpg","",""
"3374.220000000205","","","recognition","survey-text","380","1708284","0.0-6.0-3.53","3314279","co37642","norming","","","{""guess"":""monkey""}","","../img/tt/124tt.jpg","",""
"null","../img/gs/124gs.jpg","null","reveal","image-keyboard-response","381","1710288","0.0-6.0-4.53","3314279","co37642","norming","","","","","","",""
"null","../img/tt/124tt.jpg","null","mooney2","image-keyboard-response","382","1712292","0.0-6.0-5.53","3314279","co37642","norming","","","","","","",""
"2884.6500000001397","","","post_reveal_questions","survey-likert","383","1715180","0.0-6.0-6.53","3314279","co37642","norming","","","{""aha"":1}","[0]","../img/tt/124tt.jpg","",""
"null","<div style=""font-size:60px;""> </div>","null","fixation","html-keyboard-response","384","1715381","0.0-6.0-0.54","3314279","co37642","norming","","","","","","",""
"null","../img/tt/080tt.jpg","null","mooney1","image-keyboard-response","385","1718389","0.0-6.0-1.54","3314279","co37642","norming","","","","","","",""
"5594.795000000158","","","post_mooney1_questions","survey-likert","386","1723988","0.0-6.0-2.54","3314279","co37642","norming","","","{""curiosity"":3,""confidence"":3}","[0,1]","../img/tt/080tt.jpg","",""
"4053.9150000000373","","","recognition","survey-text","387","1728044","0.0-6.0-3.54","3314279","co37642","norming","","","{""guess"":""mushroom""}","","../img/tt/080tt.jpg","",""
"null","../img/gs/080gs.jpg","null","reveal","image-keyboard-response","388","1730045","0.0-6.0-4.54","3314279","co37642","norming","","","","","","",""
"null","../img/tt/080tt.jpg","null","mooney2","image-keyboard-response","389","1732058","0.0-6.0-5.54","3314279","co37642","norming","","","","","","",""
"3030.9749999998603","","","post_reveal_questions","survey-likert","390","1735092","0.0-6.0-6.54","3314279","co37642","norming","","","{""aha"":1}","[0]","../img/tt/080tt.jpg","",""
"null","<div style=""font-size:60px;""> </div>","null","fixation","html-keyboard-response","391","1735299","0.0-6.0-0.55","3314279","co37642","norming","","","","","","",""
"null","../img/tt/1061tt.jpg","null","mooney1","image-keyboard-response","392","1738311","0.0-6.0-1.55","3314279","co37642","norming","","","","","","",""
"5129.125","","","post_mooney1_questions","survey-likert","393","1743444","0.0-6.0-2.55","3314279","co37642","norming","","","{""curiosity"":1,""confidence"":3}","[0,1]","../img/tt/1061tt.jpg","",""
"4374.135000000009","","","recognition","survey-text","394","1747815","0.0-6.0-3.55","3314279","co37642","norming","","","{""guess"":""bowling""}","","../img/tt/1061tt.jpg","",""
"null","../img/gs/1061gs.jpg","null","reveal","image-keyboard-response","395","1749817","0.0-6.0-4.55","3314279","co37642","norming","","","","","","",""
"null","../img/tt/1061tt.jpg","null","mooney2","image-keyboard-response","396","1751820","0.0-6.0-5.55","3314279","co37642","norming","","","","","","",""
"2080.1999999999534","","","post_reveal_questions","survey-likert","397","1753903","0.0-6.0-6.55","3314279","co37642","norming","","","{""aha"":1}","[0]","../img/tt/1061tt.jpg","",""
"null","<div style=""font-size:60px;""> </div>","null","fixation","html-keyboard-response","398","1754110","0.0-6.0-0.56","3314279","co37642","norming","","","","","","",""
"null","../img/tt/1199tt.jpg","null","mooney1","image-keyboard-response","399","1757120","0.0-6.0-1.56","3314279","co37642","norming","","","","","","",""
"4188.399999999907","","","post_mooney1_questions","survey-likert","400","1761311","0.0-6.0-2.56","3314279","co37642","norming","","","{""curiosity"":0,""confidence"":1}","[0,1]","../img/tt/1199tt.jpg","",""
"6966.164999999804","","","recognition","survey-text","401","1768279","0.0-6.0-3.56","3314279","co37642","norming","","","{""guess"":""man in the train""}","","../img/tt/1199tt.jpg","",""
"null","../img/gs/1199gs.jpg","null","reveal","image-keyboard-response","402","1770283","0.0-6.0-4.56","3314279","co37642","norming","","","","","","",""
"null","../img/tt/1199tt.jpg","null","mooney2","image-keyboard-response","403","1772291","0.0-6.0-5.56","3314279","co37642","norming","","","","","","",""
"3193.589999999851","","","post_reveal_questions","survey-likert","404","1775487","0.0-6.0-6.56","3314279","co37642","norming","","","{""aha"":0}","[0]","../img/tt/1199tt.jpg","",""
"null","<div style=""font-size:60px;""> </div>","null","fixation","html-keyboard-response","405","1775691","0.0-6.0-0.57","3314279","co37642","norming","","","","","","",""
"null","../img/tt/405tt.jpg","null","mooney1","image-keyboard-response","406","1778692","0.0-6.0-1.57","3314279","co37642","norming","","","","","","",""
"4519.165000000037","","","post_mooney1_questions","survey-likert","407","1783215","0.0-6.0-2.57","3314279","co37642","norming","","","{""curiosity"":0,""confidence"":6}","[0,1]","../img/tt/405tt.jpg","",""
"2598.065000000177","","","recognition","survey-text","408","1785815","0.0-6.0-3.57","3314279","co37642","norming","","","{""guess"":""koala""}","","../img/tt/405tt.jpg","",""
"null","../img/gs/405gs.jpg","null","reveal","image-keyboard-response","409","1787821","0.0-6.0-4.57","3314279","co37642","norming","","","","","","",""
"null","../img/tt/405tt.jpg","null","mooney2","image-keyboard-response","410","1789833","0.0-6.0-5.57","3314279","co37642","norming","","","","","","",""
"3315.535000000149","","","post_reveal_questions","survey-likert","411","1793151","0.0-6.0-6.57","3314279","co37642","norming","","","{""aha"":1}","[0]","../img/tt/405tt.jpg","",""
"null","<div style=""font-size:60px;""> </div>","null","fixation","html-keyboard-response","412","1793359","0.0-6.0-0.58","3314279","co37642","norming","","","","","","",""
"null","../img/tt/507tt.jpg","null","mooney1","image-keyboard-response","413","1796371","0.0-6.0-1.58","3314279","co37642","norming","","","","","","",""
"5425.210000000196","","","post_mooney1_questions","survey-likert","414","1801799","0.0-6.0-2.58","3314279","co37642","norming","","","{""curiosity"":2,""confidence"":1}","[0,1]","../img/tt/507tt.jpg","",""
"2493.9300000001676","","","recognition","survey-text","415","1804295","0.0-6.0-3.58","3314279","co37642","norming","","","{""guess"":""dansers""}","","../img/tt/507tt.jpg","",""
"null","../img/gs/507gs.jpg","null","reveal","image-keyboard-response","416","1806302","0.0-6.0-4.58","3314279","co37642","norming","","","","","","",""
"null","../img/tt/507tt.jpg","null","mooney2","image-keyboard-response","417","1808320","0.0-6.0-5.58","3314279","co37642","norming","","","","","","",""
"3179.755000000121","","","post_reveal_questions","survey-likert","418","1811503","0.0-6.0-6.58","3314279","co37642","norming","","","{""aha"":1}","[0]","../img/tt/507tt.jpg","",""
"null","<div style=""font-size:60px;""> </div>","null","fixation","html-keyboard-response","419","1811709","0.0-6.0-0.59","3314279","co37642","norming","","","","","","",""
"null","../img/tt/1228tt.jpg","null","mooney1","image-keyboard-response","420","1814715","0.0-6.0-1.59","3314279","co37642","norming","","","","","","",""
"3608.410000000382","","","post_mooney1_questions","survey-likert","421","1818327","0.0-6.0-2.59","3314279","co37642","norming","","","{""curiosity"":0,""confidence"":2}","[0,1]","../img/tt/1228tt.jpg","",""
"2149.8299999998417","","","recognition","survey-text","422","1820479","0.0-6.0-3.59","3314279","co37642","norming","","","{""guess"":""swan""}","","../img/tt/1228tt.jpg","",""
"null","../img/gs/1228gs.jpg","null","reveal","image-keyboard-response","423","1822484","0.0-6.0-4.59","3314279","co37642","norming","","","","","","",""
"null","../img/tt/1228tt.jpg","null","mooney2","image-keyboard-response","424","1824495","0.0-6.0-5.59","3314279","co37642","norming","","","","","","",""
"2356.149999999674","","","post_reveal_questions","survey-likert","425","1826854","0.0-6.0-6.59","3314279","co37642","norming","","","{""aha"":2}","[0]","../img/tt/1228tt.jpg","",""
"null","<div style=""font-size:60px;""> </div>","null","fixation","html-keyboard-response","426","1827057","0.0-6.0-0.60","3314279","co37642","norming","","","","","","",""
"null","../img/tt/436tt.jpg","null","mooney1","image-keyboard-response","427","1830060","0.0-6.0-1.60","3314279","co37642","norming","","","","","","",""
"4143.540000000037","","","post_mooney1_questions","survey-likert","428","1834207","0.0-6.0-2.60","3314279","co37642","norming","","","{""curiosity"":1,""confidence"":5}","[0,1]","../img/tt/436tt.jpg","",""
"2350.1399999998976","","","recognition","survey-text","429","1836559","0.0-6.0-3.60","3314279","co37642","norming","","","{""guess"":""hagedis""}","","../img/tt/436tt.jpg","",""
"null","../img/gs/436gs.jpg","null","reveal","image-keyboard-response","430","1838560","0.0-6.0-4.60","3314279","co37642","norming","","","","","","",""
"null","../img/tt/436tt.jpg","null","mooney2","image-keyboard-response","431","1840569","0.0-6.0-5.60","3314279","co37642","norming","","","","","","",""
"2011.0700000000652","","","post_reveal_questions","survey-likert","432","1842583","0.0-6.0-6.60","3314279","co37642","norming","","","{""aha"":1}","[0]","../img/tt/436tt.jpg","",""
"null","<div style=""font-size:60px;""> </div>","null","fixation","html-keyboard-response","433","1842793","0.0-6.0-0.61","3314279","co37642","norming","","","","","","",""
"null","../img/tt/1127tt.jpg","null","mooney1","image-keyboard-response","434","1845802","0.0-6.0-1.61","3314279","co37642","norming","","","","","","",""
"4937.01500000013","","","post_mooney1_questions","survey-likert","435","1850743","0.0-6.0-2.61","3314279","co37642","norming","","","{""curiosity"":1,""confidence"":0}","[0,1]","../img/tt/1127tt.jpg","",""
"4213.985000000335","","","recognition","survey-text","436","1854959","0.0-6.0-3.61","3314279","co37642","norming","","","{""guess"":""swimming pool""}","","../img/tt/1127tt.jpg","",""
"null","../img/gs/1127gs.jpg","null","reveal","image-keyboard-response","437","1856961","0.0-6.0-4.61","3314279","co37642","norming","","","","","","",""
"null","../img/tt/1127tt.jpg","null","mooney2","image-keyboard-response","438","1858965","0.0-6.0-5.61","3314279","co37642","norming","","","","","","",""
"3966.7249999998603","","","post_reveal_questions","survey-likert","439","1862935","0.0-6.0-6.61","3314279","co37642","norming","","","{""aha"":2}","[0]","../img/tt/1127tt.jpg","",""
"null","<div style=""font-size:60px;""> </div>","null","fixation","html-keyboard-response","440","1863136","0.0-6.0-0.62","3314279","co37642","norming","","","","","","",""
"null","../img/tt/053tt.jpg","null","mooney1","image-keyboard-response","441","1866140","0.0-6.0-1.62","3314279","co37642","norming","","","","","","",""
"5070.495000000345","","","post_mooney1_questions","survey-likert","442","1871206","0.0-6.0-2.62","3314279","co37642","norming","","","{""curiosity"":0,""confidence"":2}","[0,1]","../img/tt/053tt.jpg","",""
"2782.064999999944","","","recognition","survey-text","443","1873990","0.0-6.0-3.62","3314279","co37642","norming","","","{""guess"":""surfers""}","","../img/tt/053tt.jpg","",""
"null","../img/gs/053gs.jpg","null","reveal","image-keyboard-response","444","1876001","0.0-6.0-4.62","3314279","co37642","norming","","","","","","",""
"null","../img/tt/053tt.jpg","null","mooney2","image-keyboard-response","445","1878003","0.0-6.0-5.62","3314279","co37642","norming","","","","","","",""
"1944.190000000177","","","post_reveal_questions","survey-likert","446","1879950","0.0-6.0-6.62","3314279","co37642","norming","","","{""aha"":1}","[0]","../img/tt/053tt.jpg","",""
"null","<div style=""font-size:60px;""> </div>","null","fixation","html-keyboard-response","447","1880160","0.0-6.0-0.63","3314279","co37642","norming","","","","","","",""
"null","../img/tt/416tt.jpg","null","mooney1","image-keyboard-response","448","1883172","0.0-6.0-1.63","3314279","co37642","norming","","","","","","",""
"3686.4550000000745","","","post_mooney1_questions","survey-likert","449","1886862","0.0-6.0-2.63","3314279","co37642","norming","","","{""curiosity"":1,""confidence"":4}","[0,1]","../img/tt/416tt.jpg","",""
"4837.910000000149","","","recognition","survey-text","450","1891702","0.0-6.0-3.63","3314279","co37642","norming","","","{""guess"":""struisvogels""}","","../img/tt/416tt.jpg","",""
"null","../img/gs/416gs.jpg","null","reveal","image-keyboard-response","451","1893707","0.0-6.0-4.63","3314279","co37642","norming","","","","","","",""
"null","../img/tt/416tt.jpg","null","mooney2","image-keyboard-response","452","1895716","0.0-6.0-5.63","3314279","co37642","norming","","","","","","",""
"3456.4449999998324","","","post_reveal_questions","survey-likert","453","1899174","0.0-6.0-6.63","3314279","co37642","norming","","","{""aha"":2}","[0]","../img/tt/416tt.jpg","",""
"null","<div style=""font-size:60px;""> </div>","null","fixation","html-keyboard-response","454","1899379","0.0-6.0-0.64","3314279","co37642","norming","","","","","","",""
"null","../img/tt/418tt.jpg","null","mooney1","image-keyboard-response","455","1902391","0.0-6.0-1.64","3314279","co37642","norming","","","","","","",""
"4643.864999999991","","","post_mooney1_questions","survey-likert","456","1907038","0.0-6.0-2.64","3314279","co37642","norming","","","{""curiosity"":1,""confidence"":2}","[0,1]","../img/tt/418tt.jpg","",""
"3509.969999999972","","","recognition","survey-text","457","1910550","0.0-6.0-3.64","3314279","co37642","norming","","","{""guess"":""schildpadden""}","","../img/tt/418tt.jpg","",""
"null","../img/gs/418gs.jpg","null","reveal","image-keyboard-response","458","1912558","0.0-6.0-4.64","3314279","co37642","norming","","","","","","",""
"null","../img/tt/418tt.jpg","null","mooney2","image-keyboard-response","459","1914567","0.0-6.0-5.64","3314279","co37642","norming","","","","","","",""
"3444.4549999998417","","","post_reveal_questions","survey-likert","460","1918014","0.0-6.0-6.64","3314279","co37642","norming","","","{""aha"":1}","[0]","../img/tt/418tt.jpg","",""
"null","<div style=""font-size:60px;""> </div>","null","fixation","html-keyboard-response","461","1918225","0.0-6.0-0.65","3314279","co37642","norming","","","","","","",""
"null","../img/tt/081tt.jpg","null","mooney1","image-keyboard-response","462","1921229","0.0-6.0-1.65","3314279","co37642","norming","","","","","","",""
"4557.41500000027","","","post_mooney1_questions","survey-likert","463","1925790","0.0-6.0-2.65","3314279","co37642","norming","","","{""curiosity"":2,""confidence"":6}","[0,1]","../img/tt/081tt.jpg","",""
"1381.9650000000838","","","recognition","survey-text","464","1927174","0.0-6.0-3.65","3314279","co37642","norming","","","{""guess"":""frog""}","","../img/tt/081tt.jpg","",""
"null","../img/gs/081gs.jpg","null","reveal","image-keyboard-response","465","1929184","0.0-6.0-4.65","3314279","co37642","norming","","","","","","",""
"null","../img/tt/081tt.jpg","null","mooney2","image-keyboard-response","466","1931187","0.0-6.0-5.65","3314279","co37642","norming","","","","","","",""
"2977.4000000001397","","","post_reveal_questions","survey-likert","467","1934167","0.0-6.0-6.65","3314279","co37642","norming","","","{""aha"":1}","[0]","../img/tt/081tt.jpg","",""
"null","<div style=""font-size:60px;""> </div>","null","fixation","html-keyboard-response","468","1934374","0.0-6.0-0.66","3314279","co37642","norming","","","","","","",""
"null","../img/tt/1049tt.jpg","null","mooney1","image-keyboard-response","469","1937380","0.0-6.0-1.66","3314279","co37642","norming","","","","","","",""
"3398.9599999999627","","","post_mooney1_questions","survey-likert","470","1940783","0.0-6.0-2.66","3314279","co37642","norming","","","{""curiosity"":0,""confidence"":0}","[0,1]","../img/tt/1049tt.jpg","",""
"4109.925000000279","","","recognition","survey-text","471","1944895","0.0-6.0-3.66","3314279","co37642","norming","","","{""guess"":""bleb""}","","../img/tt/1049tt.jpg","",""
"null","../img/gs/1049gs.jpg","null","reveal","image-keyboard-response","472","1946901","0.0-6.0-4.66","3314279","co37642","norming","","","","","","",""
"null","../img/tt/1049tt.jpg","null","mooney2","image-keyboard-response","473","1948904","0.0-6.0-5.66","3314279","co37642","norming","","","","","","",""
"3284.195000000065","","","post_reveal_questions","survey-likert","474","1952191","0.0-6.0-6.66","3314279","co37642","norming","","","{""aha"":0}","[0]","../img/tt/1049tt.jpg","",""
"null","<div style=""font-size:60px;""> </div>","null","fixation","html-keyboard-response","475","1952397","0.0-6.0-0.67","3314279","co37642","norming","","","","","","",""
"null","../img/tt/1236tt.jpg","null","mooney1","image-keyboard-response","476","1955402","0.0-6.0-1.67","3314279","co37642","norming","","","","","","",""
"7449.744999999879","","","post_mooney1_questions","survey-likert","477","1962855","0.0-6.0-2.67","3314279","co37642","norming","","","{""curiosity"":1,""confidence"":0}","[0,1]","../img/tt/1236tt.jpg","",""
"2165.9500000001863","","","recognition","survey-text","478","1965023","0.0-6.0-3.67","3314279","co37642","norming","","","{""guess"":""vogel""}","","../img/tt/1236tt.jpg","",""
"null","../img/gs/1236gs.jpg","null","reveal","image-keyboard-response","479","1967024","0.0-6.0-4.67","3314279","co37642","norming","","","","","","",""
"null","../img/tt/1236tt.jpg","null","mooney2","image-keyboard-response","480","1969029","0.0-6.0-5.67","3314279","co37642","norming","","","","","","",""
"3638.785000000149","","","post_reveal_questions","survey-likert","481","1972671","0.0-6.0-6.67","3314279","co37642","norming","","","{""aha"":2}","[0]","../img/tt/1236tt.jpg","",""
"null","<div style=""font-size:60px;""> </div>","null","fixation","html-keyboard-response","482","1972877","0.0-6.0-0.68","3314279","co37642","norming","","","","","","",""
"null","../img/tt/380tt.jpg","null","mooney1","image-keyboard-response","483","1975886","0.0-6.0-1.68","3314279","co37642","norming","","","","","","",""
"4171.985000000335","","","post_mooney1_questions","survey-likert","484","1980063","0.0-6.0-2.68","3314279","co37642","norming","","","{""curiosity"":1,""confidence"":2}","[0,1]","../img/tt/380tt.jpg","",""
"5037.899999999907","","","recognition","survey-text","485","1985103","0.0-6.0-3.68","3314279","co37642","norming","","","{""guess"":""gans""}","","../img/tt/380tt.jpg","",""
"null","../img/gs/380gs.jpg","null","reveal","image-keyboard-response","486","1987107","0.0-6.0-4.68","3314279","co37642","norming","","","","","","",""
"null","../img/tt/380tt.jpg","null","mooney2","image-keyboard-response","487","1989109","0.0-6.0-5.68","3314279","co37642","norming","","","","","","",""
"2382.939999999944","","","post_reveal_questions","survey-likert","488","1991489","0.0-6.0-6.68","3314279","co37642","norming","","","{""aha"":0}","[0]","../img/tt/380tt.jpg","",""
"null","<div style=""font-size:60px;""> </div>","null","fixation","html-keyboard-response","489","1991691","0.0-6.0-0.69","3314279","co37642","norming","","","","","","",""
"null","../img/tt/064tt.jpg","null","mooney1","image-keyboard-response","490","1994701","0.0-6.0-1.69","3314279","co37642","norming","","","","","","",""
"4664.180000000168","","","post_mooney1_questions","survey-likert","491","1999369","0.0-6.0-2.69","3314279","co37642","norming","","","{""curiosity"":1,""confidence"":1}","[0,1]","../img/tt/064tt.jpg","",""
"6702.279999999795","","","recognition","survey-text","492","2006073","0.0-6.0-3.69","3314279","co37642","norming","","","{""guess"":""schildpad""}","","../img/tt/064tt.jpg","",""
"null","../img/gs/064gs.jpg","null","reveal","image-keyboard-response","493","2008076","0.0-6.0-4.69","3314279","co37642","norming","","","","","","",""
"null","../img/tt/064tt.jpg","null","mooney2","image-keyboard-response","494","2010080","0.0-6.0-5.69","3314279","co37642","norming","","","","","","",""
"2229.774999999907","","","post_reveal_questions","survey-likert","495","2012313","0.0-6.0-6.69","3314279","co37642","norming","","","{""aha"":1}","[0]","../img/tt/064tt.jpg","",""
"null","<div style=""font-size:60px;""> </div>","null","fixation","html-keyboard-response","496","2012517","0.0-6.0-0.70","3314279","co37642","norming","","","","","","",""
"null","../img/tt/1307tt.jpg","null","mooney1","image-keyboard-response","497","2015529","0.0-6.0-1.70","3314279","co37642","norming","","","","","","",""
"5964.050000000047","","","post_mooney1_questions","survey-likert","498","2021497","0.0-6.0-2.70","3314279","co37642","norming","","","{""curiosity"":1,""confidence"":5}","[0,1]","../img/tt/1307tt.jpg","",""
"3582.0649999994785","","","recognition","survey-text","499","2025081","0.0-6.0-3.70","3314279","co37642","norming","","","{""guess"":""dartboard""}","","../img/tt/1307tt.jpg","",""
"null","../img/gs/1307gs.jpg","null","reveal","image-keyboard-response","500","2027091","0.0-6.0-4.70","3314279","co37642","norming","","","","","","",""
"null","../img/tt/1307tt.jpg","null","mooney2","image-keyboard-response","501","2029093","0.0-6.0-5.70","3314279","co37642","norming","","","","","","",""
"4025.1550000002608","","","post_reveal_questions","survey-likert","502","2033121","0.0-6.0-6.70","3314279","co37642","norming","","","{""aha"":0}","[0]","../img/tt/1307tt.jpg","",""
"null","<div style=""font-size:60px;""> </div>","null","fixation","html-keyboard-response","503","2033332","0.0-6.0-0.71","3314279","co37642","norming","","","","","","",""
"null","../img/tt/1237tt.jpg","null","mooney1","image-keyboard-response","504","2036344","0.0-6.0-1.71","3314279","co37642","norming","","","","","","",""
"6525","","","post_mooney1_questions","survey-likert","505","2042873","0.0-6.0-2.71","3314279","co37642","norming","","","{""curiosity"":0,""confidence"":4}","[0,1]","../img/tt/1237tt.jpg","",""
"2030.0600000002887","","","recognition","survey-text","506","2044905","0.0-6.0-3.71","3314279","co37642","norming","","","{""guess"":""goose""}","","../img/tt/1237tt.jpg","",""
"null","../img/gs/1237gs.jpg","null","reveal","image-keyboard-response","507","2046909","0.0-6.0-4.71","3314279","co37642","norming","","","","","","",""
"null","../img/tt/1237tt.jpg","null","mooney2","image-keyboard-response","508","2048914","0.0-6.0-5.71","3314279","co37642","norming","","","","","","",""
"2724.3600000001024","","","post_reveal_questions","survey-likert","509","2051646","0.0-6.0-6.71","3314279","co37642","norming","","","{""aha"":1}","[0]","../img/tt/1237tt.jpg","",""
"null","<div style=""font-size:60px;""> </div>","null","fixation","html-keyboard-response","510","2051853","0.0-6.0-0.72","3314279","co37642","norming","","","","","","",""
"null","../img/tt/1309tt.jpg","null","mooney1","image-keyboard-response","511","2054863","0.0-6.0-1.72","3314279","co37642","norming","","","","","","",""
"3698.8950000004843","","","post_mooney1_questions","survey-likert","512","2058566","0.0-6.0-2.72","3314279","co37642","norming","","","{""curiosity"":1,""confidence"":1}","[0,1]","../img/tt/1309tt.jpg","",""
"1573.8999999994412","","","recognition","survey-text","513","2060142","0.0-6.0-3.72","3314279","co37642","norming","","","{""guess"":""car""}","","../img/tt/1309tt.jpg","",""
"null","../img/gs/1309gs.jpg","null","reveal","image-keyboard-response","514","2062145","0.0-6.0-4.72","3314279","co37642","norming","","","","","","",""
"null","../img/tt/1309tt.jpg","null","mooney2","image-keyboard-response","515","2064156","0.0-6.0-5.72","3314279","co37642","norming","","","","","","",""
"3151.8100000002887","","","post_reveal_questions","survey-likert","516","2067310","0.0-6.0-6.72","3314279","co37642","norming","","","{""aha"":1}","[0]","../img/tt/1309tt.jpg","",""
"null","<div style=""font-size:60px;""> </div>","null","fixation","html-keyboard-response","517","2067514","0.0-6.0-0.73","3314279","co37642","norming","","","","","","",""
"null","../img/tt/1063tt.jpg","null","mooney1","image-keyboard-response","518","2070518","0.0-6.0-1.73","3314279","co37642","norming","","","","","","",""
"4636.6349999997765","","","post_mooney1_questions","survey-likert","519","2075158","0.0-6.0-2.73","3314279","co37642","norming","","","{""curiosity"":1,""confidence"":4}","[0,1]","../img/tt/1063tt.jpg","",""
"2326.135000000242","","","recognition","survey-text","520","2077486","0.0-6.0-3.73","3314279","co37642","norming","","","{""guess"":""horses""}","","../img/tt/1063tt.jpg","",""
"null","../img/gs/1063gs.jpg","null","reveal","image-keyboard-response","521","2079488","0.0-6.0-4.73","3314279","co37642","norming","","","","","","",""
"null","../img/tt/1063tt.jpg","null","mooney2","image-keyboard-response","522","2081499","0.0-6.0-5.73","3314279","co37642","norming","","","","","","",""
"2808.3050000004005","","","post_reveal_questions","survey-likert","523","2084310","0.0-6.0-6.73","3314279","co37642","norming","","","{""aha"":1}","[0]","../img/tt/1063tt.jpg","",""
"null","<div style=""font-size:60px;""> </div>","null","fixation","html-keyboard-response","524","2084512","0.0-6.0-0.74","3314279","co37642","norming","","","","","","",""
"null","../img/tt/1224tt.jpg","null","mooney1","image-keyboard-response","525","2087524","0.0-6.0-1.74","3314279","co37642","norming","","","","","","",""
"5295.22499999986","","","post_mooney1_questions","survey-likert","526","2092823","0.0-6.0-2.74","3314279","co37642","norming","","","{""curiosity"":0,""confidence"":1}","[0,1]","../img/tt/1224tt.jpg","",""
"2070.1000000007916","","","recognition","survey-text","527","2094894","0.0-6.0-3.74","3314279","co37642","norming","","","{""guess"":""people""}","","../img/tt/1224tt.jpg","",""
"null","../img/gs/1224gs.jpg","null","reveal","image-keyboard-response","528","2096902","0.0-6.0-4.74","3314279","co37642","norming","","","","","","",""
"null","../img/tt/1224tt.jpg","null","mooney2","image-keyboard-response","529","2098906","0.0-6.0-5.74","3314279","co37642","norming","","","","","","",""
"2161.7450000001118","","","post_reveal_questions","survey-likert","530","2101070","0.0-6.0-6.74","3314279","co37642","norming","","","{""aha"":1}","[0]","../img/tt/1224tt.jpg","",""
"null","<div style=""font-size:60px;""> </div>","null","fixation","html-keyboard-response","531","2101280","0.0-6.0-0.75","3314279","co37642","norming","","","","","","",""
"null","../img/tt/456tt.jpg","null","mooney1","image-keyboard-response","532","2104290","0.0-6.0-1.75","3314279","co37642","norming","","","","","","",""
"3739.255000000354","","","post_mooney1_questions","survey-likert","533","2108030","0.0-6.0-2.75","3314279","co37642","norming","","","{""curiosity"":0,""confidence"":1}","[0,1]","../img/tt/456tt.jpg","",""
"1422.0949999997392","","","recognition","survey-text","534","2109454","0.0-6.0-3.75","3314279","co37642","norming","","","{""guess"":""shoe""}","","../img/tt/456tt.jpg","",""
"null","../img/gs/456gs.jpg","null","reveal","image-keyboard-response","535","2111456","0.0-6.0-4.75","3314279","co37642","norming","","","","","","",""
"null","../img/tt/456tt.jpg","null","mooney2","image-keyboard-response","536","2113468","0.0-6.0-5.75","3314279","co37642","norming","","","","","","",""
"2319.9799999999814","","","post_reveal_questions","survey-likert","537","2115790","0.0-6.0-6.75","3314279","co37642","norming","","","{""aha"":1}","[0]","../img/tt/456tt.jpg","",""
"null","<div style=""font-size:60px;""> </div>","null","fixation","html-keyboard-response","538","2115992","0.0-6.0-0.76","3314279","co37642","norming","","","","","","",""
"null","../img/tt/301tt.jpg","null","mooney1","image-keyboard-response","539","2119001","0.0-6.0-1.76","3314279","co37642","norming","","","","","","",""
"5024.729999999981","","","post_mooney1_questions","survey-likert","540","2124031","0.0-6.0-2.76","3314279","co37642","norming","","","{""curiosity"":1,""confidence"":0}","[0,1]","../img/tt/301tt.jpg","",""
"2013.529999999795","","","recognition","survey-text","541","2126047","0.0-6.0-3.76","3314279","co37642","norming","","","{""guess"":""shoe""}","","../img/tt/301tt.jpg","",""
"null","../img/gs/301gs.jpg","null","reveal","image-keyboard-response","542","2128057","0.0-6.0-4.76","3314279","co37642","norming","","","","","","",""
"null","../img/tt/301tt.jpg","null","mooney2","image-keyboard-response","543","2130060","0.0-6.0-5.76","3314279","co37642","norming","","","","","","",""
"2279.1000000010245","","","post_reveal_questions","survey-likert","544","2132342","0.0-6.0-6.76","3314279","co37642","norming","","","{""aha"":1}","[0]","../img/tt/301tt.jpg","",""
"null","<div style=""font-size:60px;""> </div>","null","fixation","html-keyboard-response","545","2132552","0.0-6.0-0.77","3314279","co37642","norming","","","","","","",""
"null","../img/tt/524tt.jpg","null","mooney1","image-keyboard-response","546","2135558","0.0-6.0-1.77","3314279","co37642","norming","","","","","","",""
"5884.965000000317","","","post_mooney1_questions","survey-likert","547","2141447","0.0-6.0-2.77","3314279","co37642","norming","","","{""curiosity"":4,""confidence"":1}","[0,1]","../img/tt/524tt.jpg","",""
"2373.984999999404","","","recognition","survey-text","548","2143822","0.0-6.0-3.77","3314279","co37642","norming","","","{""guess"":""pauw""}","","../img/tt/524tt.jpg","",""
"null","../img/gs/524gs.jpg","null","reveal","image-keyboard-response","549","2145831","0.0-6.0-4.77","3314279","co37642","norming","","","","","","",""
"null","../img/tt/524tt.jpg","null","mooney2","image-keyboard-response","550","2147833","0.0-6.0-5.77","3314279","co37642","norming","","","","","","",""
