"rt","stimulus","key_press","test_part","trial_type","trial_index","time_elapsed","internal_node_id","totalTime","subject","experiment_name","button_pressed","success","responses","question_order","currentStim","old","correct"
"13325.929999999062","Welcome to the experiment. This is an online experiment so please don't close the tab/window until we say goodbye.  Press any key to begin.","32","instructions","html-keyboard-response","0","13339","0.0-0.0","3056321","co37609","norming","","","","","","",""
"64341.91500000088","<div style='word-wrap: break-word; width: 900px'><h3>Please consider this information carefully before deciding whether to participate in this research</h3><ul style='text-align: left; font-size: .8em;'><li><b>Purpose of the research</b>: To examine how people process images.</li><li><b>What you will do in this research</b>:  Stimuli (images) will be presented on the computer and you will be asked different questions about them.</li><li><b>Time required</b>: Participation will take between 45 and 60 minutes to complete.</li><li><b>Risks</b>:  There are no anticipated risks associated with participating in this study. The effects of participating should be comparable to those you would experience from viewing a computer monitor for 30 minutes and using a mouse or keyboard.</li><li><b>Benefits</b>:  This study provides no benefits to you individually except for the credit. The study provides important information about the nature of perception and learning.</li><li><b>Confidentiality</b>:  Your participation in this study will remain confidential. No personally identifiable information will be associated with your data. Your de-identified data may be shared with other researchers and used in future projects.</li><li><b>Participation and withdrawal</b>:  Your participation in this study is completely voluntary and you may refuse to participate or you may choose to withdraw at any time without penalty.</li><li><b>How to contact the researchers</b>: If you have questions or concerns about your participation or payment, or want to request a summary of research findings, please contact Sander Van de Cruys (KU Leuven), at sander.vandecruys@kuleuven.be.</li></ul><p>The nature and purpose of this research have been sufficiently explained and I agree to participate in this study.  I understand that I am free to withdraw at any time without incurring any penalty.</p><p>Please consent by clicking the button below to continue. Otherwise, please exit the study at this time.</p></div>","","instructions","html-button-response","1","77684","0.0-1.0","3056321","co37609","norming","0","","","","","",""
"","","","instructions","fullscreen","2","84973","0.0-2.0","3056321","co37609","norming","","true","","","","",""
"45171.75499999939","","","sona","survey-html-form","3","130152","0.0-3.0","3056321","co37609","norming","","","[{""name"":""sonaid"",""value"":""37609""},{""name"":""debrief"",""value"":""no""},{""name"":""datajoin"",""value"":""yes""}]","","","",""
"73475.83999999915","<div style='word-wrap: break-word; width: 900px'><h3>Instructions</h3><p>This experiment will have 3 parts. In the first part you will see a series of distorted images like the one below on the left. As you can see in the righthand image, the distorted images are derived from actual photographs. In what follows, you will <strong>briefly</strong> be presented with <strong>only</strong> the distorted image.</p> <div style='float: left; margin-right: 20px;'><img src='../img/018tt.jpg' height='250' width='250'></img></div><div style='float: right; margin-left: 20px;'><img src='../img/018gs.jpg' height='250' width='250'></img></div><p>Subsequently you will be asked a few questions about the image: One question on how <strong>curious</strong> you are about the solution and one on how <strong>confident</strong> you are that you know the solution.</p>Next, we ask you to make a guess on what is in the image. Note that it is OK to name just the <strong>basic level category</strong>. For example when you see a parrot in the image, 'parrot' will obviously be a correct answer but also correct is 'bird'. However, 'animal' will <strong>not</strong> be counted as a correct response. For the example above, 'rose' would be correct or 'flower', but not 'plant'. When soccer players are depicted, 'soccer', 'football', 'soccer players' will be correct, but not 'humans', 'outdoors', or 'sports'. You do not need to describe the image in full, just name the main object in it <strong>in one or two words</strong>. All images depict objects from one of the following broad level categories: animals, inanimate objects, plants, sports, vehicles, and food. Recognizing means knowing <strong>more</strong> than these broad labels for a given image. But we always encourage you to <strong>make a guess</strong> if you can. Note that you are allowed to use <strong>Dutch and English</strong> in your answers, whatever comes easiest for you.</p><p>Press any key to continue.</p></div>","32","instructions","html-keyboard-response","4","203632","0.0-4.0","3056321","co37609","norming","","","","","","",""
"15310.394999996788","<div style='word-wrap: break-word; width: 900px'><h3>Instructions</h3> <p>Next, the solution image will be revealed to you and you'll be asked to indicate how strong your <strong>aha-experience</strong> was after seeing the solution. This describes the positive feeling of the 'click' you sometimes experience, when the pieces of the 'puzzle' fall together and you suddenly have 'insight' in the image.</p><img src='aha.jpg' height='188' width='250'></img><p>Note that there are no right or wrong answers. We are interested in what <strong>you</strong> see in the image and how <strong>you</strong> feel about it.</p><p>Press any key to start the experiment.</p></div>","32","instructions","html-keyboard-response","5","218944","0.0-5.0","3056321","co37609","norming","","","","","","",""
"null","<div style=""font-size:60px;""> </div>","null","fixation","html-keyboard-response","6","219152","0.0-6.0-0.0","3056321","co37609","norming","","","","","","",""
"null","../img/tt/091tt.jpg","null","mooney1","image-keyboard-response","7","222157","0.0-6.0-1.0","3056321","co37609","norming","","","","","","",""
"17184.535000000324","","","post_mooney1_questions","survey-likert","8","239343","0.0-6.0-2.0","3056321","co37609","norming","","","{""curiosity"":5,""confidence"":0}","[0,1]","../img/tt/091tt.jpg","",""
"6853.5050000027695","","","recognition","survey-text","9","246198","0.0-6.0-3.0","3056321","co37609","norming","","","{""guess"":""""}","","../img/tt/091tt.jpg","",""
"null","../img/gs/091gs.jpg","null","reveal","image-keyboard-response","10","248204","0.0-6.0-4.0","3056321","co37609","norming","","","","","","",""
"null","../img/tt/091tt.jpg","null","mooney2","image-keyboard-response","11","250212","0.0-6.0-5.0","3056321","co37609","norming","","","","","","",""
"5575.55499999944","","","post_reveal_questions","survey-likert","12","255790","0.0-6.0-6.0","3056321","co37609","norming","","","{""aha"":5}","[0]","../img/tt/091tt.jpg","",""
"null","<div style=""font-size:60px;""> </div>","null","fixation","html-keyboard-response","13","255998","0.0-6.0-0.1","3056321","co37609","norming","","","","","","",""
"null","../img/tt/517tt.jpg","null","mooney1","image-keyboard-response","14","259004","0.0-6.0-1.1","3056321","co37609","norming","","","","","","",""
"7089.2299999977695","","","post_mooney1_questions","survey-likert","15","266093","0.0-6.0-2.1","3056321","co37609","norming","","","{""curiosity"":5,""confidence"":2}","[0,1]","../img/tt/517tt.jpg","",""
"3500.8299999972223","","","recognition","survey-text","16","269596","0.0-6.0-3.1","3056321","co37609","norming","","","{""guess"":""pig""}","","../img/tt/517tt.jpg","",""
"null","../img/gs/517gs.jpg","null","reveal","image-keyboard-response","17","271599","0.0-6.0-4.1","3056321","co37609","norming","","","","","","",""
"null","../img/tt/517tt.jpg","null","mooney2","image-keyboard-response","18","273607","0.0-6.0-5.1","3056321","co37609","norming","","","","","","",""
"5090.775000000547","","","post_reveal_questions","survey-likert","19","278700","0.0-6.0-6.1","3056321","co37609","norming","","","{""aha"":3}","[0]","../img/tt/517tt.jpg","",""
"null","<div style=""font-size:60px;""> </div>","null","fixation","html-keyboard-response","20","278908","0.0-6.0-0.2","3056321","co37609","norming","","","","","","",""
"null","../img/tt/507tt.jpg","null","mooney1","image-keyboard-response","21","281919","0.0-6.0-1.2","3056321","co37609","norming","","","","","","",""
"5971.349999999802","","","post_mooney1_questions","survey-likert","22","287893","0.0-6.0-2.2","3056321","co37609","norming","","","{""curiosity"":5,""confidence"":1}","[0,1]","../img/tt/507tt.jpg","",""
"4734.169999999693","","","recognition","survey-text","23","292628","0.0-6.0-3.2","3056321","co37609","norming","","","{""guess"":""women""}","","../img/tt/507tt.jpg","",""
"null","../img/gs/507gs.jpg","null","reveal","image-keyboard-response","24","294632","0.0-6.0-4.2","3056321","co37609","norming","","","","","","",""
"null","../img/tt/507tt.jpg","null","mooney2","image-keyboard-response","25","296634","0.0-6.0-5.2","3056321","co37609","norming","","","","","","",""
"4624.69499999861","","","post_reveal_questions","survey-likert","26","301260","0.0-6.0-6.2","3056321","co37609","norming","","","{""aha"":1}","[0]","../img/tt/507tt.jpg","",""
"null","<div style=""font-size:60px;""> </div>","null","fixation","html-keyboard-response","27","301464","0.0-6.0-0.3","3056321","co37609","norming","","","","","","",""
"null","../img/tt/1126tt.jpg","null","mooney1","image-keyboard-response","28","304475","0.0-6.0-1.3","3056321","co37609","norming","","","","","","",""
"13502.560000000813","","","post_mooney1_questions","survey-likert","29","317981","0.0-6.0-2.3","3056321","co37609","norming","","","{""curiosity"":4,""confidence"":0}","[0,1]","../img/tt/1126tt.jpg","",""
"1870.0549999994691","","","recognition","survey-text","30","319852","0.0-6.0-3.3","3056321","co37609","norming","","","{""guess"":""""}","","../img/tt/1126tt.jpg","",""
"null","../img/gs/1126gs.jpg","null","reveal","image-keyboard-response","31","321854","0.0-6.0-4.3","3056321","co37609","norming","","","","","","",""
"null","../img/tt/1126tt.jpg","null","mooney2","image-keyboard-response","32","323856","0.0-6.0-5.3","3056321","co37609","norming","","","","","","",""
"2098.5099999998347","","","post_reveal_questions","survey-likert","33","325959","0.0-6.0-6.3","3056321","co37609","norming","","","{""aha"":5}","[0]","../img/tt/1126tt.jpg","",""
"null","<div style=""font-size:60px;""> </div>","null","fixation","html-keyboard-response","34","326168","0.0-6.0-0.4","3056321","co37609","norming","","","","","","",""
"null","../img/tt/078tt.jpg","null","mooney1","image-keyboard-response","35","329174","0.0-6.0-1.4","3056321","co37609","norming","","","","","","",""
"6622.239999996964","","","post_mooney1_questions","survey-likert","36","335799","0.0-6.0-2.4","3056321","co37609","norming","","","{""curiosity"":4,""confidence"":3}","[0,1]","../img/tt/078tt.jpg","",""
"7693.999999999534","","","recognition","survey-text","37","343495","0.0-6.0-3.4","3056321","co37609","norming","","","{""guess"":""raisin""}","","../img/tt/078tt.jpg","",""
"null","../img/gs/078gs.jpg","null","reveal","image-keyboard-response","38","345496","0.0-6.0-4.4","3056321","co37609","norming","","","","","","",""
"null","../img/tt/078tt.jpg","null","mooney2","image-keyboard-response","39","347502","0.0-6.0-5.4","3056321","co37609","norming","","","","","","",""
"3014.900000001886","","","post_reveal_questions","survey-likert","40","350519","0.0-6.0-6.4","3056321","co37609","norming","","","{""aha"":0}","[0]","../img/tt/078tt.jpg","",""
"null","<div style=""font-size:60px;""> </div>","null","fixation","html-keyboard-response","41","350725","0.0-6.0-0.5","3056321","co37609","norming","","","","","","",""
"null","../img/tt/273tt.jpg","null","mooney1","image-keyboard-response","42","353731","0.0-6.0-1.5","3056321","co37609","norming","","","","","","",""
"6793.194999998377","","","post_mooney1_questions","survey-likert","43","360527","0.0-6.0-2.5","3056321","co37609","norming","","","{""curiosity"":3,""confidence"":5}","[0,1]","../img/tt/273tt.jpg","",""
"7158.299999999115","","","recognition","survey-text","44","367687","0.0-6.0-3.5","3056321","co37609","norming","","","{""guess"":""weird face""}","","../img/tt/273tt.jpg","",""
"null","../img/gs/273gs.jpg","null","reveal","image-keyboard-response","45","369691","0.0-6.0-4.5","3056321","co37609","norming","","","","","","",""
"null","../img/tt/273tt.jpg","null","mooney2","image-keyboard-response","46","371694","0.0-6.0-5.5","3056321","co37609","norming","","","","","","",""
"1534.7599999986705","","","post_reveal_questions","survey-likert","47","373231","0.0-6.0-6.5","3056321","co37609","norming","","","{""aha"":0}","[0]","../img/tt/273tt.jpg","",""
"null","<div style=""font-size:60px;""> </div>","null","fixation","html-keyboard-response","48","373441","0.0-6.0-0.6","3056321","co37609","norming","","","","","","",""
"null","../img/tt/052tt.jpg","null","mooney1","image-keyboard-response","49","376445","0.0-6.0-1.6","3056321","co37609","norming","","","","","","",""
"5423.885000000184","","","post_mooney1_questions","survey-likert","50","381871","0.0-6.0-2.6","3056321","co37609","norming","","","{""curiosity"":3,""confidence"":4}","[0,1]","../img/tt/052tt.jpg","",""
"3398.170000000391","","","recognition","survey-text","51","385271","0.0-6.0-3.6","3056321","co37609","norming","","","{""guess"":""biscuit""}","","../img/tt/052tt.jpg","",""
"null","../img/gs/052gs.jpg","null","reveal","image-keyboard-response","52","387275","0.0-6.0-4.6","3056321","co37609","norming","","","","","","",""
"null","../img/tt/052tt.jpg","null","mooney2","image-keyboard-response","53","389283","0.0-6.0-5.6","3056321","co37609","norming","","","","","","",""
"1868.6500000003725","","","post_reveal_questions","survey-likert","54","391154","0.0-6.0-6.6","3056321","co37609","norming","","","{""aha"":4}","[0]","../img/tt/052tt.jpg","",""
"null","<div style=""font-size:60px;""> </div>","null","fixation","html-keyboard-response","55","391356","0.0-6.0-0.7","3056321","co37609","norming","","","","","","",""
"null","../img/tt/1260tt.jpg","null","mooney1","image-keyboard-response","56","394366","0.0-6.0-1.7","3056321","co37609","norming","","","","","","",""
"5329.0649999980815","","","post_mooney1_questions","survey-likert","57","399698","0.0-6.0-2.7","3056321","co37609","norming","","","{""curiosity"":5,""confidence"":2}","[0,1]","../img/tt/1260tt.jpg","",""
"4085.8950000001932","","","recognition","survey-text","58","403786","0.0-6.0-3.7","3056321","co37609","norming","","","{""guess"":""mountains""}","","../img/tt/1260tt.jpg","",""
"null","../img/gs/1260gs.jpg","null","reveal","image-keyboard-response","59","405788","0.0-6.0-4.7","3056321","co37609","norming","","","","","","",""
"null","../img/tt/1260tt.jpg","null","mooney2","image-keyboard-response","60","407789","0.0-6.0-5.7","3056321","co37609","norming","","","","","","",""
"1722.6950000003562","","","post_reveal_questions","survey-likert","61","409514","0.0-6.0-6.7","3056321","co37609","norming","","","{""aha"":5}","[0]","../img/tt/1260tt.jpg","",""
"null","<div style=""font-size:60px;""> </div>","null","fixation","html-keyboard-response","62","409715","0.0-6.0-0.8","3056321","co37609","norming","","","","","","",""
"null","../img/tt/1205tt.jpg","null","mooney1","image-keyboard-response","63","412717","0.0-6.0-1.8","3056321","co37609","norming","","","","","","",""
"4650.445000002917","","","post_mooney1_questions","survey-likert","64","417370","0.0-6.0-2.8","3056321","co37609","norming","","","{""curiosity"":6,""confidence"":0}","[0,1]","../img/tt/1205tt.jpg","",""
"958.0600000008126","","","recognition","survey-text","65","418330","0.0-6.0-3.8","3056321","co37609","norming","","","{""guess"":""""}","","../img/tt/1205tt.jpg","",""
"null","../img/gs/1205gs.jpg","null","reveal","image-keyboard-response","66","420339","0.0-6.0-4.8","3056321","co37609","norming","","","","","","",""
"null","../img/tt/1205tt.jpg","null","mooney2","image-keyboard-response","67","422347","0.0-6.0-5.8","3056321","co37609","norming","","","","","","",""
"2788.9350000005215","","","post_reveal_questions","survey-likert","68","425138","0.0-6.0-6.8","3056321","co37609","norming","","","{""aha"":5}","[0]","../img/tt/1205tt.jpg","",""
"null","<div style=""font-size:60px;""> </div>","null","fixation","html-keyboard-response","69","425344","0.0-6.0-0.9","3056321","co37609","norming","","","","","","",""
"null","../img/tt/1046tt.jpg","null","mooney1","image-keyboard-response","70","428349","0.0-6.0-1.9","3056321","co37609","norming","","","","","","",""
"16897.965000000142","","","post_mooney1_questions","survey-likert","71","445250","0.0-6.0-2.9","3056321","co37609","norming","","","{""curiosity"":5,""confidence"":1}","[0,1]","../img/tt/1046tt.jpg","",""
"5590.025000001362","","","recognition","survey-text","72","450837","0.0-6.0-3.9","3056321","co37609","norming","","","{""guess"":""tree""}","","../img/tt/1046tt.jpg","",""
"null","../img/gs/1046gs.jpg","null","reveal","image-keyboard-response","73","452838","0.0-6.0-4.9","3056321","co37609","norming","","","","","","",""
"null","../img/tt/1046tt.jpg","null","mooney2","image-keyboard-response","74","454840","0.0-6.0-5.9","3056321","co37609","norming","","","","","","",""
"3490.3699999995297","","","post_reveal_questions","survey-likert","75","458333","0.0-6.0-6.9","3056321","co37609","norming","","","{""aha"":5}","[0]","../img/tt/1046tt.jpg","",""
"null","<div style=""font-size:60px;""> </div>","null","fixation","html-keyboard-response","76","458540","0.0-6.0-0.10","3056321","co37609","norming","","","","","","",""
"null","../img/tt/306tt.jpg","null","mooney1","image-keyboard-response","77","461544","0.0-6.0-1.10","3056321","co37609","norming","","","","","","",""
"4610.645000000659","","","post_mooney1_questions","survey-likert","78","466157","0.0-6.0-2.10","3056321","co37609","norming","","","{""curiosity"":5,""confidence"":1}","[0,1]","../img/tt/306tt.jpg","",""
"3430.125000002561","","","recognition","survey-text","79","469589","0.0-6.0-3.10","3056321","co37609","norming","","","{""guess"":""shoe""}","","../img/tt/306tt.jpg","",""
"null","../img/gs/306gs.jpg","null","reveal","image-keyboard-response","80","471590","0.0-6.0-4.10","3056321","co37609","norming","","","","","","",""
"null","../img/tt/306tt.jpg","null","mooney2","image-keyboard-response","81","473599","0.0-6.0-5.10","3056321","co37609","norming","","","","","","",""
"1811.5250000010128","","","post_reveal_questions","survey-likert","82","475413","0.0-6.0-6.10","3056321","co37609","norming","","","{""aha"":5}","[0]","../img/tt/306tt.jpg","",""
"null","<div style=""font-size:60px;""> </div>","null","fixation","html-keyboard-response","83","475615","0.0-6.0-0.11","3056321","co37609","norming","","","","","","",""
"null","../img/tt/189tt.jpg","null","mooney1","image-keyboard-response","84","478622","0.0-6.0-1.11","3056321","co37609","norming","","","","","","",""
"4686.215000001481","","","post_mooney1_questions","survey-likert","85","483309","0.0-6.0-2.11","3056321","co37609","norming","","","{""curiosity"":5,""confidence"":2}","[0,1]","../img/tt/189tt.jpg","",""
"6997.769999998098","","","recognition","survey-text","86","490309","0.0-6.0-3.11","3056321","co37609","norming","","","{""guess"":""someone laying""}","","../img/tt/189tt.jpg","",""
"null","../img/gs/189gs.jpg","null","reveal","image-keyboard-response","87","492317","0.0-6.0-4.11","3056321","co37609","norming","","","","","","",""
"null","../img/tt/189tt.jpg","null","mooney2","image-keyboard-response","88","494320","0.0-6.0-5.11","3056321","co37609","norming","","","","","","",""
"1659.1300000000047","","","post_reveal_questions","survey-likert","89","495981","0.0-6.0-6.11","3056321","co37609","norming","","","{""aha"":3}","[0]","../img/tt/189tt.jpg","",""
"null","<div style=""font-size:60px;""> </div>","null","fixation","html-keyboard-response","90","496184","0.0-6.0-0.12","3056321","co37609","norming","","","","","","",""
"null","../img/tt/405tt.jpg","null","mooney1","image-keyboard-response","91","499190","0.0-6.0-1.12","3056321","co37609","norming","","","","","","",""
"7292.099999998813","","","post_mooney1_questions","survey-likert","92","506485","0.0-6.0-2.12","3056321","co37609","norming","","","{""curiosity"":4,""confidence"":2}","[0,1]","../img/tt/405tt.jpg","",""
"3110.160000000207","","","recognition","survey-text","93","509600","0.0-6.0-3.12","3056321","co37609","norming","","","{""guess"":""food""}","","../img/tt/405tt.jpg","",""
"null","../img/gs/405gs.jpg","null","reveal","image-keyboard-response","94","511610","0.0-6.0-4.12","3056321","co37609","norming","","","","","","",""
"null","../img/tt/405tt.jpg","null","mooney2","image-keyboard-response","95","513612","0.0-6.0-5.12","3056321","co37609","norming","","","","","","",""
"1378.484999997425","","","post_reveal_questions","survey-likert","96","514992","0.0-6.0-6.12","3056321","co37609","norming","","","{""aha"":4}","[0]","../img/tt/405tt.jpg","",""
"null","<div style=""font-size:60px;""> </div>","null","fixation","html-keyboard-response","97","515201","0.0-6.0-0.13","3056321","co37609","norming","","","","","","",""
"null","../img/tt/076tt.jpg","null","mooney1","image-keyboard-response","98","518211","0.0-6.0-1.13","3056321","co37609","norming","","","","","","",""
"4139.180000001914","","","post_mooney1_questions","survey-likert","99","522352","0.0-6.0-2.13","3056321","co37609","norming","","","{""curiosity"":5,""confidence"":1}","[0,1]","../img/tt/076tt.jpg","",""
"6557.9799999977695","","","recognition","survey-text","100","528912","0.0-6.0-3.13","3056321","co37609","norming","","","{""guess"":""shoes""}","","../img/tt/076tt.jpg","",""
"null","../img/gs/076gs.jpg","null","reveal","image-keyboard-response","101","530914","0.0-6.0-4.13","3056321","co37609","norming","","","","","","",""
"null","../img/tt/076tt.jpg","null","mooney2","image-keyboard-response","102","532921","0.0-6.0-5.13","3056321","co37609","norming","","","","","","",""
"5693.139999999432","","","post_reveal_questions","survey-likert","103","538616","0.0-6.0-6.13","3056321","co37609","norming","","","{""aha"":1}","[0]","../img/tt/076tt.jpg","",""
"null","<div style=""font-size:60px;""> </div>","null","fixation","html-keyboard-response","104","538820","0.0-6.0-0.14","3056321","co37609","norming","","","","","","",""
"null","../img/tt/010tt.jpg","null","mooney1","image-keyboard-response","105","541827","0.0-6.0-1.14","3056321","co37609","norming","","","","","","",""
"4802.414999998175","","","post_mooney1_questions","survey-likert","106","546632","0.0-6.0-2.14","3056321","co37609","norming","","","{""curiosity"":4,""confidence"":3}","[0,1]","../img/tt/010tt.jpg","",""
"2670.279999998398","","","recognition","survey-text","107","549304","0.0-6.0-3.14","3056321","co37609","norming","","","{""guess"":""fish""}","","../img/tt/010tt.jpg","",""
"null","../img/gs/010gs.jpg","null","reveal","image-keyboard-response","108","551307","0.0-6.0-4.14","3056321","co37609","norming","","","","","","",""
"null","../img/tt/010tt.jpg","null","mooney2","image-keyboard-response","109","553309","0.0-6.0-5.14","3056321","co37609","norming","","","","","","",""
"5368.555000000866","","","post_reveal_questions","survey-likert","110","558680","0.0-6.0-6.14","3056321","co37609","norming","","","{""aha"":3}","[0]","../img/tt/010tt.jpg","",""
"null","<div style=""font-size:60px;""> </div>","null","fixation","html-keyboard-response","111","558890","0.0-6.0-0.15","3056321","co37609","norming","","","","","","",""
"null","../img/tt/319tt.jpg","null","mooney1","image-keyboard-response","112","561893","0.0-6.0-1.15","3056321","co37609","norming","","","","","","",""
"6153.2699999988545","","","post_mooney1_questions","survey-likert","113","568048","0.0-6.0-2.15","3056321","co37609","norming","","","{""curiosity"":2,""confidence"":5}","[0,1]","../img/tt/319tt.jpg","",""
"5077.2849999994505","","","recognition","survey-text","114","573122","0.0-6.0-3.15","3056321","co37609","norming","","","{""guess"":""horses""}","","../img/tt/319tt.jpg","",""
"null","../img/gs/319gs.jpg","null","reveal","image-keyboard-response","115","575124","0.0-6.0-4.15","3056321","co37609","norming","","","","","","",""
"null","../img/tt/319tt.jpg","null","mooney2","image-keyboard-response","116","577126","0.0-6.0-5.15","3056321","co37609","norming","","","","","","",""
"2937.9149999986403","","","post_reveal_questions","survey-likert","117","580066","0.0-6.0-6.15","3056321","co37609","norming","","","{""aha"":2}","[0]","../img/tt/319tt.jpg","",""
"null","<div style=""font-size:60px;""> </div>","null","fixation","html-keyboard-response","118","580272","0.0-6.0-0.16","3056321","co37609","norming","","","","","","",""
"null","../img/tt/1290tt.jpg","null","mooney1","image-keyboard-response","119","583284","0.0-6.0-1.16","3056321","co37609","norming","","","","","","",""
"5771.260000001406","","","post_mooney1_questions","survey-likert","120","589058","0.0-6.0-2.16","3056321","co37609","norming","","","{""curiosity"":3,""confidence"":3}","[0,1]","../img/tt/1290tt.jpg","",""
"4438.1700000013225","","","recognition","survey-text","121","593498","0.0-6.0-3.16","3056321","co37609","norming","","","{""guess"":""skilift""}","","../img/tt/1290tt.jpg","",""
"null","../img/gs/1290gs.jpg","null","reveal","image-keyboard-response","122","595504","0.0-6.0-4.16","3056321","co37609","norming","","","","","","",""
"null","../img/tt/1290tt.jpg","null","mooney2","image-keyboard-response","123","597510","0.0-6.0-5.16","3056321","co37609","norming","","","","","","",""
"1369.4499999983236","","","post_reveal_questions","survey-likert","124","598882","0.0-6.0-6.16","3056321","co37609","norming","","","{""aha"":0}","[0]","../img/tt/1290tt.jpg","",""
"null","<div style=""font-size:60px;""> </div>","null","fixation","html-keyboard-response","125","599084","0.0-6.0-0.17","3056321","co37609","norming","","","","","","",""
"null","../img/tt/380tt.jpg","null","mooney1","image-keyboard-response","126","602095","0.0-6.0-1.17","3056321","co37609","norming","","","","","","",""
"3960.289999999106","","","post_mooney1_questions","survey-likert","127","606058","0.0-6.0-2.17","3056321","co37609","norming","","","{""curiosity"":5,""confidence"":0}","[0,1]","../img/tt/380tt.jpg","",""
"678.169999999227","","","recognition","survey-text","128","606738","0.0-6.0-3.17","3056321","co37609","norming","","","{""guess"":""""}","","../img/tt/380tt.jpg","",""
"null","../img/gs/380gs.jpg","null","reveal","image-keyboard-response","129","608739","0.0-6.0-4.17","3056321","co37609","norming","","","","","","",""
"null","../img/tt/380tt.jpg","null","mooney2","image-keyboard-response","130","610741","0.0-6.0-5.17","3056321","co37609","norming","","","","","","",""
"1970.5749999994878","","","post_reveal_questions","survey-likert","131","612714","0.0-6.0-6.17","3056321","co37609","norming","","","{""aha"":5}","[0]","../img/tt/380tt.jpg","",""
"null","<div style=""font-size:60px;""> </div>","null","fixation","html-keyboard-response","132","612920","0.0-6.0-0.18","3056321","co37609","norming","","","","","","",""
"null","../img/tt/329tt.jpg","null","mooney1","image-keyboard-response","133","615928","0.0-6.0-1.18","3056321","co37609","norming","","","","","","",""
"5327.134999999544","","","post_mooney1_questions","survey-likert","134","621258","0.0-6.0-2.18","3056321","co37609","norming","","","{""curiosity"":5,""confidence"":1}","[0,1]","../img/tt/329tt.jpg","",""
"11966.019999999786","","","recognition","survey-text","135","633230","0.0-6.0-3.18","3056321","co37609","norming","","","{""guess"":""playground""}","","../img/tt/329tt.jpg","",""
"null","../img/gs/329gs.jpg","null","reveal","image-keyboard-response","136","635232","0.0-6.0-4.18","3056321","co37609","norming","","","","","","",""
"null","../img/tt/329tt.jpg","null","mooney2","image-keyboard-response","137","637240","0.0-6.0-5.18","3056321","co37609","norming","","","","","","",""
"2602.9899999994086","","","post_reveal_questions","survey-likert","138","639846","0.0-6.0-6.18","3056321","co37609","norming","","","{""aha"":5}","[0]","../img/tt/329tt.jpg","",""
"null","<div style=""font-size:60px;""> </div>","null","fixation","html-keyboard-response","139","640051","0.0-6.0-0.19","3056321","co37609","norming","","","","","","",""
"null","../img/tt/524tt.jpg","null","mooney1","image-keyboard-response","140","643061","0.0-6.0-1.19","3056321","co37609","norming","","","","","","",""
"5022.120000001392","","","post_mooney1_questions","survey-likert","141","648086","0.0-6.0-2.19","3056321","co37609","norming","","","{""curiosity"":2,""confidence"":5}","[0,1]","../img/tt/524tt.jpg","",""
"3126.125000002561","","","recognition","survey-text","142","651213","0.0-6.0-3.19","3056321","co37609","norming","","","{""guess"":""elephant""}","","../img/tt/524tt.jpg","",""
"null","../img/gs/524gs.jpg","null","reveal","image-keyboard-response","143","653221","0.0-6.0-4.19","3056321","co37609","norming","","","","","","",""
"null","../img/tt/524tt.jpg","null","mooney2","image-keyboard-response","144","655227","0.0-6.0-5.19","3056321","co37609","norming","","","","","","",""
"1679.8100000014529","","","post_reveal_questions","survey-likert","145","656909","0.0-6.0-6.19","3056321","co37609","norming","","","{""aha"":4}","[0]","../img/tt/524tt.jpg","",""
"null","<div style=""font-size:60px;""> </div>","null","fixation","html-keyboard-response","146","657111","0.0-6.0-0.20","3056321","co37609","norming","","","","","","",""
"null","../img/tt/135tt.jpg","null","mooney1","image-keyboard-response","147","660113","0.0-6.0-1.20","3056321","co37609","norming","","","","","","",""
"4081.265000000829","","","post_mooney1_questions","survey-likert","148","664198","0.0-6.0-2.20","3056321","co37609","norming","","","{""curiosity"":4,""confidence"":4}","[0,1]","../img/tt/135tt.jpg","",""
"2918.2550000004703","","","recognition","survey-text","149","667118","0.0-6.0-3.20","3056321","co37609","norming","","","{""guess"":""toilet""}","","../img/tt/135tt.jpg","",""
"null","../img/gs/135gs.jpg","null","reveal","image-keyboard-response","150","669119","0.0-6.0-4.20","3056321","co37609","norming","","","","","","",""
"null","../img/tt/135tt.jpg","null","mooney2","image-keyboard-response","151","671123","0.0-6.0-5.20","3056321","co37609","norming","","","","","","",""
"2168.170000000857","","","post_reveal_questions","survey-likert","152","673294","0.0-6.0-6.20","3056321","co37609","norming","","","{""aha"":0}","[0]","../img/tt/135tt.jpg","",""
"null","<div style=""font-size:60px;""> </div>","null","fixation","html-keyboard-response","153","673495","0.0-6.0-0.21","3056321","co37609","norming","","","","","","",""
"null","../img/tt/1226tt.jpg","null","mooney1","image-keyboard-response","154","676500","0.0-6.0-1.21","3056321","co37609","norming","","","","","","",""
"4647.045000001555","","","post_mooney1_questions","survey-likert","155","681150","0.0-6.0-2.21","3056321","co37609","norming","","","{""curiosity"":5,""confidence"":2}","[0,1]","../img/tt/1226tt.jpg","",""
"2758.495000001858","","","recognition","survey-text","156","683910","0.0-6.0-3.21","3056321","co37609","norming","","","{""guess"":""wizard""}","","../img/tt/1226tt.jpg","",""
"null","../img/gs/1226gs.jpg","null","reveal","image-keyboard-response","157","685912","0.0-6.0-4.21","3056321","co37609","norming","","","","","","",""
"null","../img/tt/1226tt.jpg","null","mooney2","image-keyboard-response","158","687914","0.0-6.0-5.21","3056321","co37609","norming","","","","","","",""
"3337.225000002887","","","post_reveal_questions","survey-likert","159","691255","0.0-6.0-6.21","3056321","co37609","norming","","","{""aha"":5}","[0]","../img/tt/1226tt.jpg","",""
"null","<div style=""font-size:60px;""> </div>","null","fixation","html-keyboard-response","160","691464","0.0-6.0-0.22","3056321","co37609","norming","","","","","","",""
"null","../img/tt/1237tt.jpg","null","mooney1","image-keyboard-response","161","694467","0.0-6.0-1.22","3056321","co37609","norming","","","","","","",""
"7297.300000002026","","","post_mooney1_questions","survey-likert","162","701768","0.0-6.0-2.22","3056321","co37609","norming","","","{""curiosity"":2,""confidence"":4}","[0,1]","../img/tt/1237tt.jpg","",""
"3566.17499999993","","","recognition","survey-text","163","705335","0.0-6.0-3.22","3056321","co37609","norming","","","{""guess"":""duck""}","","../img/tt/1237tt.jpg","",""
"null","../img/gs/1237gs.jpg","null","reveal","image-keyboard-response","164","707342","0.0-6.0-4.22","3056321","co37609","norming","","","","","","",""
"null","../img/tt/1237tt.jpg","null","mooney2","image-keyboard-response","165","709344","0.0-6.0-5.22","3056321","co37609","norming","","","","","","",""
"2117.5250000014203","","","post_reveal_questions","survey-likert","166","711463","0.0-6.0-6.22","3056321","co37609","norming","","","{""aha"":0}","[0]","../img/tt/1237tt.jpg","",""
"null","<div style=""font-size:60px;""> </div>","null","fixation","html-keyboard-response","167","711668","0.0-6.0-0.23","3056321","co37609","norming","","","","","","",""
"null","../img/tt/1033tt.jpg","null","mooney1","image-keyboard-response","168","714679","0.0-6.0-1.23","3056321","co37609","norming","","","","","","",""
"5454.24500000081","","","post_mooney1_questions","survey-likert","169","720136","0.0-6.0-2.23","3056321","co37609","norming","","","{""curiosity"":5,""confidence"":2}","[0,1]","../img/tt/1033tt.jpg","",""
"3006.1449999994365","","","recognition","survey-text","170","723143","0.0-6.0-3.23","3056321","co37609","norming","","","{""guess"":""violin""}","","../img/tt/1033tt.jpg","",""
"null","../img/gs/1033gs.jpg","null","reveal","image-keyboard-response","171","725146","0.0-6.0-4.23","3056321","co37609","norming","","","","","","",""
"null","../img/tt/1033tt.jpg","null","mooney2","image-keyboard-response","172","727151","0.0-6.0-5.23","3056321","co37609","norming","","","","","","",""
"1966.0800000019372","","","post_reveal_questions","survey-likert","173","729119","0.0-6.0-6.23","3056321","co37609","norming","","","{""aha"":5}","[0]","../img/tt/1033tt.jpg","",""
"null","<div style=""font-size:60px;""> </div>","null","fixation","html-keyboard-response","174","729328","0.0-6.0-0.24","3056321","co37609","norming","","","","","","",""
"null","../img/tt/296tt.jpg","null","mooney1","image-keyboard-response","175","732335","0.0-6.0-1.24","3056321","co37609","norming","","","","","","",""
"6277.845000000438","","","post_mooney1_questions","survey-likert","176","738615","0.0-6.0-2.24","3056321","co37609","norming","","","{""curiosity"":5,""confidence"":0}","[0,1]","../img/tt/296tt.jpg","",""
"710.159999998752","","","recognition","survey-text","177","739327","0.0-6.0-3.24","3056321","co37609","norming","","","{""guess"":""""}","","../img/tt/296tt.jpg","",""
"null","../img/gs/296gs.jpg","null","reveal","image-keyboard-response","178","741330","0.0-6.0-4.24","3056321","co37609","norming","","","","","","",""
"null","../img/tt/296tt.jpg","null","mooney2","image-keyboard-response","179","743335","0.0-6.0-5.24","3056321","co37609","norming","","","","","","",""
"2861.7400000002235","","","post_reveal_questions","survey-likert","180","746199","0.0-6.0-6.24","3056321","co37609","norming","","","{""aha"":6}","[0]","../img/tt/296tt.jpg","",""
"null","<div style=""font-size:60px;""> </div>","null","fixation","html-keyboard-response","181","746403","0.0-6.0-0.25","3056321","co37609","norming","","","","","","",""
"null","../img/tt/301tt.jpg","null","mooney1","image-keyboard-response","182","749407","0.0-6.0-1.25","3056321","co37609","norming","","","","","","",""
"6685.665000000852","","","post_mooney1_questions","survey-likert","183","756095","0.0-6.0-2.25","3056321","co37609","norming","","","{""curiosity"":5,""confidence"":1}","[0,1]","../img/tt/301tt.jpg","",""
"6126.275000002352","","","recognition","survey-text","184","762222","0.0-6.0-3.25","3056321","co37609","norming","","","{""guess"":""gun""}","","../img/tt/301tt.jpg","",""
"null","../img/gs/301gs.jpg","null","reveal","image-keyboard-response","185","764230","0.0-6.0-4.25","3056321","co37609","norming","","","","","","",""
"null","../img/tt/301tt.jpg","null","mooney2","image-keyboard-response","186","766241","0.0-6.0-5.25","3056321","co37609","norming","","","","","","",""
"2162.999999996857","","","post_reveal_questions","survey-likert","187","768406","0.0-6.0-6.25","3056321","co37609","norming","","","{""aha"":5}","[0]","../img/tt/301tt.jpg","",""
"null","<div style=""font-size:60px;""> </div>","null","fixation","html-keyboard-response","188","768614","0.0-6.0-0.26","3056321","co37609","norming","","","","","","",""
"null","../img/tt/121tt.jpg","null","mooney1","image-keyboard-response","189","771623","0.0-6.0-1.26","3056321","co37609","norming","","","","","","",""
"4948.4100000008475","","","post_mooney1_questions","survey-likert","190","776574","0.0-6.0-2.26","3056321","co37609","norming","","","{""curiosity"":5,""confidence"":3}","[0,1]","../img/tt/121tt.jpg","",""
"4374.2249999996275","","","recognition","survey-text","191","780950","0.0-6.0-3.26","3056321","co37609","norming","","","{""guess"":""kangoeroe""}","","../img/tt/121tt.jpg","",""
"null","../img/gs/121gs.jpg","null","reveal","image-keyboard-response","192","782955","0.0-6.0-4.26","3056321","co37609","norming","","","","","","",""
"null","../img/tt/121tt.jpg","null","mooney2","image-keyboard-response","193","784956","0.0-6.0-5.26","3056321","co37609","norming","","","","","","",""
"1575.3900000017602","","","post_reveal_questions","survey-likert","194","786534","0.0-6.0-6.26","3056321","co37609","norming","","","{""aha"":0}","[0]","../img/tt/121tt.jpg","",""
"null","<div style=""font-size:60px;""> </div>","null","fixation","html-keyboard-response","195","786741","0.0-6.0-0.27","3056321","co37609","norming","","","","","","",""
"null","../img/tt/1143tt.jpg","null","mooney1","image-keyboard-response","196","789751","0.0-6.0-1.27","3056321","co37609","norming","","","","","","",""
"4420.66999999946","","","post_mooney1_questions","survey-likert","197","794175","0.0-6.0-2.27","3056321","co37609","norming","","","{""curiosity"":3,""confidence"":5}","[0,1]","../img/tt/1143tt.jpg","",""
"2958.0750000022817","","","recognition","survey-text","198","797134","0.0-6.0-3.27","3056321","co37609","norming","","","{""guess"":""fitness""}","","../img/tt/1143tt.jpg","",""
"null","../img/gs/1143gs.jpg","null","reveal","image-keyboard-response","199","799136","0.0-6.0-4.27","3056321","co37609","norming","","","","","","",""
"null","../img/tt/1143tt.jpg","null","mooney2","image-keyboard-response","200","801141","0.0-6.0-5.27","3056321","co37609","norming","","","","","","",""
"2286.4899999985937","","","post_reveal_questions","survey-likert","201","803431","0.0-6.0-6.27","3056321","co37609","norming","","","{""aha"":0}","[0]","../img/tt/1143tt.jpg","",""
"null","<div style=""font-size:60px;""> </div>","null","fixation","html-keyboard-response","202","803632","0.0-6.0-0.28","3056321","co37609","norming","","","","","","",""
"null","../img/tt/438tt.jpg","null","mooney1","image-keyboard-response","203","806634","0.0-6.0-1.28","3056321","co37609","norming","","","","","","",""
"5387.170000001788","","","post_mooney1_questions","survey-likert","204","812023","0.0-6.0-2.28","3056321","co37609","norming","","","{""curiosity"":4,""confidence"":4}","[0,1]","../img/tt/438tt.jpg","",""
"2717.9700000014855","","","recognition","survey-text","205","814746","0.0-6.0-3.28","3056321","co37609","norming","","","{""guess"":""bird""}","","../img/tt/438tt.jpg","",""
"null","../img/gs/438gs.jpg","null","reveal","image-keyboard-response","206","816755","0.0-6.0-4.28","3056321","co37609","norming","","","","","","",""
"null","../img/tt/438tt.jpg","null","mooney2","image-keyboard-response","207","818766","0.0-6.0-5.28","3056321","co37609","norming","","","","","","",""
"2817.4700000018347","","","post_reveal_questions","survey-likert","208","821586","0.0-6.0-6.28","3056321","co37609","norming","","","{""aha"":4}","[0]","../img/tt/438tt.jpg","",""
"null","<div style=""font-size:60px;""> </div>","null","fixation","html-keyboard-response","209","821793","0.0-6.0-0.29","3056321","co37609","norming","","","","","","",""
"null","../img/tt/1102tt.jpg","null","mooney1","image-keyboard-response","210","824795","0.0-6.0-1.29","3056321","co37609","norming","","","","","","",""
"4891.950000001001","","","post_mooney1_questions","survey-likert","211","829690","0.0-6.0-2.29","3056321","co37609","norming","","","{""curiosity"":4,""confidence"":1}","[0,1]","../img/tt/1102tt.jpg","",""
"2245.910000001546","","","recognition","survey-text","212","831938","0.0-6.0-3.29","3056321","co37609","norming","","","{""guess"":""tree""}","","../img/tt/1102tt.jpg","",""
"null","../img/gs/1102gs.jpg","null","reveal","image-keyboard-response","213","833939","0.0-6.0-4.29","3056321","co37609","norming","","","","","","",""
"null","../img/tt/1102tt.jpg","null","mooney2","image-keyboard-response","214","835949","0.0-6.0-5.29","3056321","co37609","norming","","","","","","",""
"2714.28499999817","","","post_reveal_questions","survey-likert","215","838666","0.0-6.0-6.29","3056321","co37609","norming","","","{""aha"":4}","[0]","../img/tt/1102tt.jpg","",""
"null","<div style=""font-size:60px;""> </div>","null","fixation","html-keyboard-response","216","838870","0.0-6.0-0.30","3056321","co37609","norming","","","","","","",""
"null","../img/tt/435tt.jpg","null","mooney1","image-keyboard-response","217","841874","0.0-6.0-1.30","3056321","co37609","norming","","","","","","",""
"5373.335000000196","","","post_mooney1_questions","survey-likert","218","847250","0.0-6.0-2.30","3056321","co37609","norming","","","{""curiosity"":6,""confidence"":0}","[0,1]","../img/tt/435tt.jpg","",""
"974.0050000001211","","","recognition","survey-text","219","848226","0.0-6.0-3.30","3056321","co37609","norming","","","{""guess"":""""}","","../img/tt/435tt.jpg","",""
"null","../img/gs/435gs.jpg","null","reveal","image-keyboard-response","220","850230","0.0-6.0-4.30","3056321","co37609","norming","","","","","","",""
"null","../img/tt/435tt.jpg","null","mooney2","image-keyboard-response","221","852232","0.0-6.0-5.30","3056321","co37609","norming","","","","","","",""
"2383.684999997029","","","post_reveal_questions","survey-likert","222","854618","0.0-6.0-6.30","3056321","co37609","norming","","","{""aha"":6}","[0]","../img/tt/435tt.jpg","",""
"null","<div style=""font-size:60px;""> </div>","null","fixation","html-keyboard-response","223","854829","0.0-6.0-0.31","3056321","co37609","norming","","","","","","",""
"null","../img/tt/599tt.jpg","null","mooney1","image-keyboard-response","224","857837","0.0-6.0-1.31","3056321","co37609","norming","","","","","","",""
"4593.56000000122","","","post_mooney1_questions","survey-likert","225","862434","0.0-6.0-2.31","3056321","co37609","norming","","","{""curiosity"":5,""confidence"":1}","[0,1]","../img/tt/599tt.jpg","",""
"3302.0199999992037","","","recognition","survey-text","226","865738","0.0-6.0-3.31","3056321","co37609","norming","","","{""guess"":""serpent""}","","../img/tt/599tt.jpg","",""
"null","../img/gs/599gs.jpg","null","reveal","image-keyboard-response","227","867743","0.0-6.0-4.31","3056321","co37609","norming","","","","","","",""
"null","../img/tt/599tt.jpg","null","mooney2","image-keyboard-response","228","869755","0.0-6.0-5.31","3056321","co37609","norming","","","","","","",""
"2236.730000000447","","","post_reveal_questions","survey-likert","229","871994","0.0-6.0-6.31","3056321","co37609","norming","","","{""aha"":5}","[0]","../img/tt/599tt.jpg","",""
"null","<div style=""font-size:60px;""> </div>","null","fixation","html-keyboard-response","230","872205","0.0-6.0-0.32","3056321","co37609","norming","","","","","","",""
"null","../img/tt/1200tt.jpg","null","mooney1","image-keyboard-response","231","875217","0.0-6.0-1.32","3056321","co37609","norming","","","","","","",""
"5110.610000003362","","","post_mooney1_questions","survey-likert","232","880330","0.0-6.0-2.32","3056321","co37609","norming","","","{""curiosity"":5,""confidence"":2}","[0,1]","../img/tt/1200tt.jpg","",""
"2805.8199999978533","","","recognition","survey-text","233","883138","0.0-6.0-3.32","3056321","co37609","norming","","","{""guess"":""bank""}","","../img/tt/1200tt.jpg","",""
"null","../img/gs/1200gs.jpg","null","reveal","image-keyboard-response","234","885140","0.0-6.0-4.32","3056321","co37609","norming","","","","","","",""
"null","../img/tt/1200tt.jpg","null","mooney2","image-keyboard-response","235","887142","0.0-6.0-5.32","3056321","co37609","norming","","","","","","",""
"2145.875000001979","","","post_reveal_questions","survey-likert","236","889290","0.0-6.0-6.32","3056321","co37609","norming","","","{""aha"":5}","[0]","../img/tt/1200tt.jpg","",""
"null","<div style=""font-size:60px;""> </div>","null","fixation","html-keyboard-response","237","889501","0.0-6.0-0.33","3056321","co37609","norming","","","","","","",""
"null","../img/tt/184tt.jpg","null","mooney1","image-keyboard-response","238","892507","0.0-6.0-1.33","3056321","co37609","norming","","","","","","",""
"7276.419999998296","","","post_mooney1_questions","survey-likert","239","899786","0.0-6.0-2.33","3056321","co37609","norming","","","{""curiosity"":6,""confidence"":0}","[0,1]","../img/tt/184tt.jpg","",""
"1133.9950000002282","","","recognition","survey-text","240","900922","0.0-6.0-3.33","3056321","co37609","norming","","","{""guess"":""""}","","../img/tt/184tt.jpg","",""
"null","../img/gs/184gs.jpg","null","reveal","image-keyboard-response","241","902930","0.0-6.0-4.33","3056321","co37609","norming","","","","","","",""
"null","../img/tt/184tt.jpg","null","mooney2","image-keyboard-response","242","904932","0.0-6.0-5.33","3056321","co37609","norming","","","","","","",""
"1619.4849999991711","","","post_reveal_questions","survey-likert","243","906554","0.0-6.0-6.33","3056321","co37609","norming","","","{""aha"":6}","[0]","../img/tt/184tt.jpg","",""
"null","<div style=""font-size:60px;""> </div>","null","fixation","html-keyboard-response","244","906755","0.0-6.0-0.34","3056321","co37609","norming","","","","","","",""
"null","../img/tt/1279tt.jpg","null","mooney1","image-keyboard-response","245","909762","0.0-6.0-1.34","3056321","co37609","norming","","","","","","",""
"4764.96499999857","","","post_mooney1_questions","survey-likert","246","914530","0.0-6.0-2.34","3056321","co37609","norming","","","{""curiosity"":4,""confidence"":5}","[0,1]","../img/tt/1279tt.jpg","",""
"2669.7850000018952","","","recognition","survey-text","247","917202","0.0-6.0-3.34","3056321","co37609","norming","","","{""guess"":""cow""}","","../img/tt/1279tt.jpg","",""
"null","../img/gs/1279gs.jpg","null","reveal","image-keyboard-response","248","919211","0.0-6.0-4.34","3056321","co37609","norming","","","","","","",""
"null","../img/tt/1279tt.jpg","null","mooney2","image-keyboard-response","249","921215","0.0-6.0-5.34","3056321","co37609","norming","","","","","","",""
"3010.3000000016764","","","post_reveal_questions","survey-likert","250","924226","0.0-6.0-6.34","3056321","co37609","norming","","","{""aha"":4}","[0]","../img/tt/1279tt.jpg","",""
"null","<div style=""font-size:60px;""> </div>","null","fixation","html-keyboard-response","251","924435","0.0-6.0-0.35","3056321","co37609","norming","","","","","","",""
"null","../img/tt/559tt.jpg","null","mooney1","image-keyboard-response","252","927441","0.0-6.0-1.35","3056321","co37609","norming","","","","","","",""
"6535.609999998938","","","post_mooney1_questions","survey-likert","253","933978","0.0-6.0-2.35","3056321","co37609","norming","","","{""curiosity"":4,""confidence"":1}","[0,1]","../img/tt/559tt.jpg","",""
"6053.680000000866","","","recognition","survey-text","254","940032","0.0-6.0-3.35","3056321","co37609","norming","","","{""guess"":""cowboy""}","","../img/tt/559tt.jpg","",""
"null","../img/gs/559gs.jpg","null","reveal","image-keyboard-response","255","942034","0.0-6.0-4.35","3056321","co37609","norming","","","","","","",""
"null","../img/tt/559tt.jpg","null","mooney2","image-keyboard-response","256","944038","0.0-6.0-5.35","3056321","co37609","norming","","","","","","",""
"2313.2299999997485","","","post_reveal_questions","survey-likert","257","946352","0.0-6.0-6.35","3056321","co37609","norming","","","{""aha"":5}","[0]","../img/tt/559tt.jpg","",""
"null","<div style=""font-size:60px;""> </div>","null","fixation","html-keyboard-response","258","946562","0.0-6.0-0.36","3056321","co37609","norming","","","","","","",""
"null","../img/tt/481tt.jpg","null","mooney1","image-keyboard-response","259","949565","0.0-6.0-1.36","3056321","co37609","norming","","","","","","",""
"6034.265000001993","","","post_mooney1_questions","survey-likert","260","955600","0.0-6.0-2.36","3056321","co37609","norming","","","{""curiosity"":5,""confidence"":2}","[0,1]","../img/tt/481tt.jpg","",""
"2390.080000001006","","","recognition","survey-text","261","957992","0.0-6.0-3.36","3056321","co37609","norming","","","{""guess"":""man""}","","../img/tt/481tt.jpg","",""
"null","../img/gs/481gs.jpg","null","reveal","image-keyboard-response","262","959994","0.0-6.0-4.36","3056321","co37609","norming","","","","","","",""
"null","../img/tt/481tt.jpg","null","mooney2","image-keyboard-response","263","961997","0.0-6.0-5.36","3056321","co37609","norming","","","","","","",""
"3737.134999999311","","","post_reveal_questions","survey-likert","264","965736","0.0-6.0-6.36","3056321","co37609","norming","","","{""aha"":5}","[0]","../img/tt/481tt.jpg","",""
"null","<div style=""font-size:60px;""> </div>","null","fixation","html-keyboard-response","265","965947","0.0-6.0-0.37","3056321","co37609","norming","","","","","","",""
"null","../img/tt/140tt.jpg","null","mooney1","image-keyboard-response","266","968951","0.0-6.0-1.37","3056321","co37609","norming","","","","","","",""
"3566.060000000987","","","post_mooney1_questions","survey-likert","267","972520","0.0-6.0-2.37","3056321","co37609","norming","","","{""curiosity"":4,""confidence"":5}","[0,1]","../img/tt/140tt.jpg","",""
"7942.06000000122","","","recognition","survey-text","268","980464","0.0-6.0-3.37","3056321","co37609","norming","","","{""guess"":""2 forks""}","","../img/tt/140tt.jpg","",""
"null","../img/gs/140gs.jpg","null","reveal","image-keyboard-response","269","982470","0.0-6.0-4.37","3056321","co37609","norming","","","","","","",""
"null","../img/tt/140tt.jpg","null","mooney2","image-keyboard-response","270","984472","0.0-6.0-5.37","3056321","co37609","norming","","","","","","",""
"1886.3700000002282","","","post_reveal_questions","survey-likert","271","986360","0.0-6.0-6.37","3056321","co37609","norming","","","{""aha"":0}","[0]","../img/tt/140tt.jpg","",""
"null","<div style=""font-size:60px;""> </div>","null","fixation","html-keyboard-response","272","986565","0.0-6.0-0.38","3056321","co37609","norming","","","","","","",""
"null","../img/tt/084tt.jpg","null","mooney1","image-keyboard-response","273","989567","0.0-6.0-1.38","3056321","co37609","norming","","","","","","",""
"3884.9850000006845","","","post_mooney1_questions","survey-likert","274","993457","0.0-6.0-2.38","3056321","co37609","norming","","","{""curiosity"":4,""confidence"":4}","[0,1]","../img/tt/084tt.jpg","",""
"2437.9750000007916","","","recognition","survey-text","275","995896","0.0-6.0-3.38","3056321","co37609","norming","","","{""guess"":""duck""}","","../img/tt/084tt.jpg","",""
"null","../img/gs/084gs.jpg","null","reveal","image-keyboard-response","276","997905","0.0-6.0-4.38","3056321","co37609","norming","","","","","","",""
"null","../img/tt/084tt.jpg","null","mooney2","image-keyboard-response","277","999915","0.0-6.0-5.38","3056321","co37609","norming","","","","","","",""
"2140.9500000008848","","","post_reveal_questions","survey-likert","278","1002058","0.0-6.0-6.38","3056321","co37609","norming","","","{""aha"":0}","[0]","../img/tt/084tt.jpg","",""
"null","<div style=""font-size:60px;""> </div>","null","fixation","html-keyboard-response","279","1002266","0.0-6.0-0.39","3056321","co37609","norming","","","","","","",""
"null","../img/tt/1096tt.jpg","null","mooney1","image-keyboard-response","280","1005272","0.0-6.0-1.39","3056321","co37609","norming","","","","","","",""
"4414.990000001155","","","post_mooney1_questions","survey-likert","281","1009690","0.0-6.0-2.39","3056321","co37609","norming","","","{""curiosity"":5,""confidence"":3}","[0,1]","../img/tt/1096tt.jpg","",""
"3262.0050000004703","","","recognition","survey-text","282","1012954","0.0-6.0-3.39","3056321","co37609","norming","","","{""guess"":""cow""}","","../img/tt/1096tt.jpg","",""
"null","../img/gs/1096gs.jpg","null","reveal","image-keyboard-response","283","1014959","0.0-6.0-4.39","3056321","co37609","norming","","","","","","",""
"null","../img/tt/1096tt.jpg","null","mooney2","image-keyboard-response","284","1016961","0.0-6.0-5.39","3056321","co37609","norming","","","","","","",""
"1614.354999997886","","","post_reveal_questions","survey-likert","285","1018578","0.0-6.0-6.39","3056321","co37609","norming","","","{""aha"":4}","[0]","../img/tt/1096tt.jpg","",""
"null","<div style=""font-size:60px;""> </div>","null","fixation","html-keyboard-response","286","1018788","0.0-6.0-0.40","3056321","co37609","norming","","","","","","",""
"null","../img/tt/222tt.jpg","null","mooney1","image-keyboard-response","287","1021798","0.0-6.0-1.40","3056321","co37609","norming","","","","","","",""
"3595.020000000717","","","post_mooney1_questions","survey-likert","288","1025394","0.0-6.0-2.40","3056321","co37609","norming","","","{""curiosity"":6,""confidence"":0}","[0,1]","../img/tt/222tt.jpg","",""
"534.1200000002282","","","recognition","survey-text","289","1025930","0.0-6.0-3.40","3056321","co37609","norming","","","{""guess"":""""}","","../img/tt/222tt.jpg","",""
"null","../img/gs/222gs.jpg","null","reveal","image-keyboard-response","290","1027933","0.0-6.0-4.40","3056321","co37609","norming","","","","","","",""
"null","../img/tt/222tt.jpg","null","mooney2","image-keyboard-response","291","1029940","0.0-6.0-5.40","3056321","co37609","norming","","","","","","",""
"3483.509999998263","","","post_reveal_questions","survey-likert","292","1033426","0.0-6.0-6.40","3056321","co37609","norming","","","{""aha"":6}","[0]","../img/tt/222tt.jpg","",""
"null","<div style=""font-size:60px;""> </div>","null","fixation","html-keyboard-response","293","1033630","0.0-6.0-0.41","3056321","co37609","norming","","","","","","",""
"null","../img/tt/098tt.jpg","null","mooney1","image-keyboard-response","294","1036638","0.0-6.0-1.41","3056321","co37609","norming","","","","","","",""
"5938.9550000014715","","","post_mooney1_questions","survey-likert","295","1042578","0.0-6.0-2.41","3056321","co37609","norming","","","{""curiosity"":5,""confidence"":1}","[0,1]","../img/tt/098tt.jpg","",""
"3798.109999999637","","","recognition","survey-text","296","1046378","0.0-6.0-3.41","3056321","co37609","norming","","","{""guess"":""animal""}","","../img/tt/098tt.jpg","",""
"null","../img/gs/098gs.jpg","null","reveal","image-keyboard-response","297","1048386","0.0-6.0-4.41","3056321","co37609","norming","","","","","","",""
"null","../img/tt/098tt.jpg","null","mooney2","image-keyboard-response","298","1050388","0.0-6.0-5.41","3056321","co37609","norming","","","","","","",""
"1738.9599999985658","","","post_reveal_questions","survey-likert","299","1052130","0.0-6.0-6.41","3056321","co37609","norming","","","{""aha"":5}","[0]","../img/tt/098tt.jpg","",""
"null","<div style=""font-size:60px;""> </div>","null","fixation","html-keyboard-response","300","1052332","0.0-6.0-0.42","3056321","co37609","norming","","","","","","",""
"null","../img/tt/1242tt.jpg","null","mooney1","image-keyboard-response","301","1055340","0.0-6.0-1.42","3056321","co37609","norming","","","","","","",""
"5850.82500000135","","","post_mooney1_questions","survey-likert","302","1061189","0.0-6.0-2.42","3056321","co37609","norming","","","{""curiosity"":5,""confidence"":1}","[0,1]","../img/tt/1242tt.jpg","",""
"24709.965000001714","","","recognition","survey-text","303","1085900","0.0-6.0-3.42","3056321","co37609","norming","","","{""guess"":""house""}","","../img/tt/1242tt.jpg","",""
"null","../img/gs/1242gs.jpg","null","reveal","image-keyboard-response","304","1087902","0.0-6.0-4.42","3056321","co37609","norming","","","","","","",""
"null","../img/tt/1242tt.jpg","null","mooney2","image-keyboard-response","305","1089905","0.0-6.0-5.42","3056321","co37609","norming","","","","","","",""
"2967.0650000008754","","","post_reveal_questions","survey-likert","306","1092877","0.0-6.0-6.42","3056321","co37609","norming","","","{""aha"":6}","[0]","../img/tt/1242tt.jpg","",""
"null","<div style=""font-size:60px;""> </div>","null","fixation","html-keyboard-response","307","1093083","0.0-6.0-0.43","3056321","co37609","norming","","","","","","",""
"null","../img/tt/1269tt.jpg","null","mooney1","image-keyboard-response","308","1096085","0.0-6.0-1.43","3056321","co37609","norming","","","","","","",""
"3892.0949999990407","","","post_mooney1_questions","survey-likert","309","1099981","0.0-6.0-2.43","3056321","co37609","norming","","","{""curiosity"":5,""confidence"":3}","[0,1]","../img/tt/1269tt.jpg","",""
"2382.040000000503","","","recognition","survey-text","310","1102364","0.0-6.0-3.43","3056321","co37609","norming","","","{""guess"":""cat""}","","../img/tt/1269tt.jpg","",""
"null","../img/gs/1269gs.jpg","null","reveal","image-keyboard-response","311","1104371","0.0-6.0-4.43","3056321","co37609","norming","","","","","","",""
"null","../img/tt/1269tt.jpg","null","mooney2","image-keyboard-response","312","1106373","0.0-6.0-5.43","3056321","co37609","norming","","","","","","",""
"2244.974999997765","","","post_reveal_questions","survey-likert","313","1108620","0.0-6.0-6.43","3056321","co37609","norming","","","{""aha"":4}","[0]","../img/tt/1269tt.jpg","",""
"null","<div style=""font-size:60px;""> </div>","null","fixation","html-keyboard-response","314","1108825","0.0-6.0-0.44","3056321","co37609","norming","","","","","","",""
"null","../img/tt/1004tt.jpg","null","mooney1","image-keyboard-response","315","1111836","0.0-6.0-1.44","3056321","co37609","norming","","","","","","",""
"5044.079999999609","","","post_mooney1_questions","survey-likert","316","1116885","0.0-6.0-2.44","3056321","co37609","norming","","","{""curiosity"":5,""confidence"":2}","[0,1]","../img/tt/1004tt.jpg","",""
"4942.015000000363","","","recognition","survey-text","317","1121833","0.0-6.0-3.44","3056321","co37609","norming","","","{""guess"":""hert""}","","../img/tt/1004tt.jpg","",""
"null","../img/gs/1004gs.jpg","null","reveal","image-keyboard-response","318","1123835","0.0-6.0-4.44","3056321","co37609","norming","","","","","","",""
"null","../img/tt/1004tt.jpg","null","mooney2","image-keyboard-response","319","1125838","0.0-6.0-5.44","3056321","co37609","norming","","","","","","",""
"1728.2999999988824","","","post_reveal_questions","survey-likert","320","1127569","0.0-6.0-6.44","3056321","co37609","norming","","","{""aha"":5}","[0]","../img/tt/1004tt.jpg","",""
"null","<div style=""font-size:60px;""> </div>","null","fixation","html-keyboard-response","321","1127772","0.0-6.0-0.45","3056321","co37609","norming","","","","","","",""
"null","../img/tt/279tt.jpg","null","mooney1","image-keyboard-response","322","1130774","0.0-6.0-1.45","3056321","co37609","norming","","","","","","",""
"5775.9399999994785","","","post_mooney1_questions","survey-likert","323","1136553","0.0-6.0-2.45","3056321","co37609","norming","","","{""curiosity"":1,""confidence"":6}","[0,1]","../img/tt/279tt.jpg","",""
"4606.295000001555","","","recognition","survey-text","324","1141161","0.0-6.0-3.45","3056321","co37609","norming","","","{""guess"":""coala""}","","../img/tt/279tt.jpg","",""
"null","../img/gs/279gs.jpg","null","reveal","image-keyboard-response","325","1143170","0.0-6.0-4.45","3056321","co37609","norming","","","","","","",""
"null","../img/tt/279tt.jpg","null","mooney2","image-keyboard-response","326","1145180","0.0-6.0-5.45","3056321","co37609","norming","","","","","","",""
"2179.0150000015274","","","post_reveal_questions","survey-likert","327","1147361","0.0-6.0-6.45","3056321","co37609","norming","","","{""aha"":0}","[0]","../img/tt/279tt.jpg","",""
"null","<div style=""font-size:60px;""> </div>","null","fixation","html-keyboard-response","328","1147568","0.0-6.0-0.46","3056321","co37609","norming","","","","","","",""
"null","../img/tt/318tt.jpg","null","mooney1","image-keyboard-response","329","1150573","0.0-6.0-1.46","3056321","co37609","norming","","","","","","",""
"4419.145000000019","","","post_mooney1_questions","survey-likert","330","1154993","0.0-6.0-2.46","3056321","co37609","norming","","","{""curiosity"":3,""confidence"":5}","[0,1]","../img/tt/318tt.jpg","",""
"2165.9050000016578","","","recognition","survey-text","331","1157161","0.0-6.0-3.46","3056321","co37609","norming","","","{""guess"":""car""}","","../img/tt/318tt.jpg","",""
"null","../img/gs/318gs.jpg","null","reveal","image-keyboard-response","332","1159171","0.0-6.0-4.46","3056321","co37609","norming","","","","","","",""
"null","../img/tt/318tt.jpg","null","mooney2","image-keyboard-response","333","1161182","0.0-6.0-5.46","3056321","co37609","norming","","","","","","",""
"1575.8449999995064","","","post_reveal_questions","survey-likert","334","1162761","0.0-6.0-6.46","3056321","co37609","norming","","","{""aha"":0}","[0]","../img/tt/318tt.jpg","",""
"null","<div style=""font-size:60px;""> </div>","null","fixation","html-keyboard-response","335","1162966","0.0-6.0-0.47","3056321","co37609","norming","","","","","","",""
"null","../img/tt/1024tt.jpg","null","mooney1","image-keyboard-response","336","1165974","0.0-6.0-1.47","3056321","co37609","norming","","","","","","",""
"4111.434999998892","","","post_mooney1_questions","survey-likert","337","1170089","0.0-6.0-2.47","3056321","co37609","norming","","","{""curiosity"":5,""confidence"":2}","[0,1]","../img/tt/1024tt.jpg","",""
"9989.615000002319","","","recognition","survey-text","338","1180081","0.0-6.0-3.47","3056321","co37609","norming","","","{""guess"":""bicycle""}","","../img/tt/1024tt.jpg","",""
"null","../img/gs/1024gs.jpg","null","reveal","image-keyboard-response","339","1182084","0.0-6.0-4.47","3056321","co37609","norming","","","","","","",""
"null","../img/tt/1024tt.jpg","null","mooney2","image-keyboard-response","340","1184090","0.0-6.0-5.47","3056321","co37609","norming","","","","","","",""
"1421.7050000005402","","","post_reveal_questions","survey-likert","341","1185515","0.0-6.0-6.47","3056321","co37609","norming","","","{""aha"":5}","[0]","../img/tt/1024tt.jpg","",""
"null","<div style=""font-size:60px;""> </div>","null","fixation","html-keyboard-response","342","1185717","0.0-6.0-0.48","3056321","co37609","norming","","","","","","",""
"null","../img/tt/1116tt.jpg","null","mooney1","image-keyboard-response","343","1188724","0.0-6.0-1.48","3056321","co37609","norming","","","","","","",""
"5580.814999997383","","","post_mooney1_questions","survey-likert","344","1194307","0.0-6.0-2.48","3056321","co37609","norming","","","{""curiosity"":4,""confidence"":4}","[0,1]","../img/tt/1116tt.jpg","",""
"6574.020000000019","","","recognition","survey-text","345","1200882","0.0-6.0-3.48","3056321","co37609","norming","","","{""guess"":""boat""}","","../img/tt/1116tt.jpg","",""
"null","../img/gs/1116gs.jpg","null","reveal","image-keyboard-response","346","1202889","0.0-6.0-4.48","3056321","co37609","norming","","","","","","",""
"null","../img/tt/1116tt.jpg","null","mooney2","image-keyboard-response","347","1204890","0.0-6.0-5.48","3056321","co37609","norming","","","","","","",""
"1853.6099999982398","","","post_reveal_questions","survey-likert","348","1206747","0.0-6.0-6.48","3056321","co37609","norming","","","{""aha"":4}","[0]","../img/tt/1116tt.jpg","",""
"null","<div style=""font-size:60px;""> </div>","null","fixation","html-keyboard-response","349","1206955","0.0-6.0-0.49","3056321","co37609","norming","","","","","","",""
"null","../img/tt/085tt.jpg","null","mooney1","image-keyboard-response","350","1209965","0.0-6.0-1.49","3056321","co37609","norming","","","","","","",""
"6946.029999999097","","","post_mooney1_questions","survey-likert","351","1216915","0.0-6.0-2.49","3056321","co37609","norming","","","{""curiosity"":5,""confidence"":1}","[0,1]","../img/tt/085tt.jpg","",""
"3374.0350000006147","","","recognition","survey-text","352","1220290","0.0-6.0-3.49","3056321","co37609","norming","","","{""guess"":""music""}","","../img/tt/085tt.jpg","",""
"null","../img/gs/085gs.jpg","null","reveal","image-keyboard-response","353","1222298","0.0-6.0-4.49","3056321","co37609","norming","","","","","","",""
"null","../img/tt/085tt.jpg","null","mooney2","image-keyboard-response","354","1224303","0.0-6.0-5.49","3056321","co37609","norming","","","","","","",""
"1392.6499999980442","","","post_reveal_questions","survey-likert","355","1225699","0.0-6.0-6.49","3056321","co37609","norming","","","{""aha"":4}","[0]","../img/tt/085tt.jpg","",""
"null","<div style=""font-size:60px;""> </div>","null","fixation","html-keyboard-response","356","1225905","0.0-6.0-0.50","3056321","co37609","norming","","","","","","",""
"null","../img/tt/1211tt.jpg","null","mooney1","image-keyboard-response","357","1228910","0.0-6.0-1.50","3056321","co37609","norming","","","","","","",""
"5497.214999999385","","","post_mooney1_questions","survey-likert","358","1234411","0.0-6.0-2.50","3056321","co37609","norming","","","{""curiosity"":6,""confidence"":1}","[0,1]","../img/tt/1211tt.jpg","",""
"3165.885000002105","","","recognition","survey-text","359","1237578","0.0-6.0-3.50","3056321","co37609","norming","","","{""guess"":""animal""}","","../img/tt/1211tt.jpg","",""
"null","../img/gs/1211gs.jpg","null","reveal","image-keyboard-response","360","1239583","0.0-6.0-4.50","3056321","co37609","norming","","","","","","",""
"null","../img/tt/1211tt.jpg","null","mooney2","image-keyboard-response","361","1241585","0.0-6.0-5.50","3056321","co37609","norming","","","","","","",""
"1766.940000001341","","","post_reveal_questions","survey-likert","362","1243354","0.0-6.0-6.50","3056321","co37609","norming","","","{""aha"":6}","[0]","../img/tt/1211tt.jpg","",""
"null","<div style=""font-size:60px;""> </div>","null","fixation","html-keyboard-response","363","1243564","0.0-6.0-0.51","3056321","co37609","norming","","","","","","",""
"null","../img/tt/1049tt.jpg","null","mooney1","image-keyboard-response","364","1246567","0.0-6.0-1.51","3056321","co37609","norming","","","","","","",""
"5873.640000001527","","","post_mooney1_questions","survey-likert","365","1252442","0.0-6.0-2.51","3056321","co37609","norming","","","{""curiosity"":5,""confidence"":1}","[0,1]","../img/tt/1049tt.jpg","",""
"11533.974999998463","","","recognition","survey-text","366","1263978","0.0-6.0-3.51","3056321","co37609","norming","","","{""guess"":""fish""}","","../img/tt/1049tt.jpg","",""
"null","../img/gs/1049gs.jpg","null","reveal","image-keyboard-response","367","1265984","0.0-6.0-4.51","3056321","co37609","norming","","","","","","",""
"null","../img/tt/1049tt.jpg","null","mooney2","image-keyboard-response","368","1267995","0.0-6.0-5.51","3056321","co37609","norming","","","","","","",""
"1924.5900000024121","","","post_reveal_questions","survey-likert","369","1269922","0.0-6.0-6.51","3056321","co37609","norming","","","{""aha"":5}","[0]","../img/tt/1049tt.jpg","",""
"null","<div style=""font-size:60px;""> </div>","null","fixation","html-keyboard-response","370","1270124","0.0-6.0-0.52","3056321","co37609","norming","","","","","","",""
"null","../img/tt/497tt.jpg","null","mooney1","image-keyboard-response","371","1273134","0.0-6.0-1.52","3056321","co37609","norming","","","","","","",""
"3377.199999999022","","","post_mooney1_questions","survey-likert","372","1276514","0.0-6.0-2.52","3056321","co37609","norming","","","{""curiosity"":5,""confidence"":2}","[0,1]","../img/tt/497tt.jpg","",""
"2773.975000000093","","","recognition","survey-text","373","1279290","0.0-6.0-3.52","3056321","co37609","norming","","","{""guess"":""banana""}","","../img/tt/497tt.jpg","",""
"null","../img/gs/497gs.jpg","null","reveal","image-keyboard-response","374","1281300","0.0-6.0-4.52","3056321","co37609","norming","","","","","","",""
"null","../img/tt/497tt.jpg","null","mooney2","image-keyboard-response","375","1283301","0.0-6.0-5.52","3056321","co37609","norming","","","","","","",""
"1417.83000000217","","","post_reveal_questions","survey-likert","376","1284722","0.0-6.0-6.52","3056321","co37609","norming","","","{""aha"":5}","[0]","../img/tt/497tt.jpg","",""
"null","<div style=""font-size:60px;""> </div>","null","fixation","html-keyboard-response","377","1284929","0.0-6.0-0.53","3056321","co37609","norming","","","","","","",""
"null","../img/tt/567tt.jpg","null","mooney1","image-keyboard-response","378","1287936","0.0-6.0-1.53","3056321","co37609","norming","","","","","","",""
"6750.294999998063","","","post_mooney1_questions","survey-likert","379","1294690","0.0-6.0-2.53","3056321","co37609","norming","","","{""curiosity"":5,""confidence"":2}","[0,1]","../img/tt/567tt.jpg","",""
"7637.849999999162","","","recognition","survey-text","380","1302330","0.0-6.0-3.53","3056321","co37609","norming","","","{""guess"":""instrument""}","","../img/tt/567tt.jpg","",""
"null","../img/gs/567gs.jpg","null","reveal","image-keyboard-response","381","1304338","0.0-6.0-4.53","3056321","co37609","norming","","","","","","",""
"null","../img/tt/567tt.jpg","null","mooney2","image-keyboard-response","382","1306342","0.0-6.0-5.53","3056321","co37609","norming","","","","","","",""
"1913.3049999980722","","","post_reveal_questions","survey-likert","383","1308258","0.0-6.0-6.53","3056321","co37609","norming","","","{""aha"":5}","[0]","../img/tt/567tt.jpg","",""
"null","<div style=""font-size:60px;""> </div>","null","fixation","html-keyboard-response","384","1308463","0.0-6.0-0.54","3056321","co37609","norming","","","","","","",""
"null","../img/tt/584tt.jpg","null","mooney1","image-keyboard-response","385","1311474","0.0-6.0-1.54","3056321","co37609","norming","","","","","","",""
"5109.3199999995995","","","post_mooney1_questions","survey-likert","386","1316586","0.0-6.0-2.54","3056321","co37609","norming","","","{""curiosity"":5,""confidence"":3}","[0,1]","../img/tt/584tt.jpg","",""
"6198.15000000014","","","recognition","survey-text","387","1322786","0.0-6.0-3.54","3056321","co37609","norming","","","{""guess"":""working material""}","","../img/tt/584tt.jpg","",""
"null","../img/gs/584gs.jpg","null","reveal","image-keyboard-response","388","1324793","0.0-6.0-4.54","3056321","co37609","norming","","","","","","",""
"null","../img/tt/584tt.jpg","null","mooney2","image-keyboard-response","389","1326800","0.0-6.0-5.54","3056321","co37609","norming","","","","","","",""
"1590.3399999986868","","","post_reveal_questions","survey-likert","390","1328394","0.0-6.0-6.54","3056321","co37609","norming","","","{""aha"":1}","[0]","../img/tt/584tt.jpg","",""
"null","<div style=""font-size:60px;""> </div>","null","fixation","html-keyboard-response","391","1328602","0.0-6.0-0.55","3056321","co37609","norming","","","","","","",""
"null","../img/tt/307tt.jpg","null","mooney1","image-keyboard-response","392","1331612","0.0-6.0-1.55","3056321","co37609","norming","","","","","","",""
"3003.3000000002794","","","post_mooney1_questions","survey-likert","393","1334618","0.0-6.0-2.55","3056321","co37609","norming","","","{""curiosity"":6,""confidence"":0}","[0,1]","../img/tt/307tt.jpg","",""
"518.3099999995902","","","recognition","survey-text","394","1335138","0.0-6.0-3.55","3056321","co37609","norming","","","{""guess"":""""}","","../img/tt/307tt.jpg","",""
"null","../img/gs/307gs.jpg","null","reveal","image-keyboard-response","395","1337142","0.0-6.0-4.55","3056321","co37609","norming","","","","","","",""
"null","../img/tt/307tt.jpg","null","mooney2","image-keyboard-response","396","1339153","0.0-6.0-5.55","3056321","co37609","norming","","","","","","",""
"1848.6949999968056","","","post_reveal_questions","survey-likert","397","1341002","0.0-6.0-6.55","3056321","co37609","norming","","","{""aha"":6}","[0]","../img/tt/307tt.jpg","",""
"null","<div style=""font-size:60px;""> </div>","null","fixation","html-keyboard-response","398","1341212","0.0-6.0-0.56","3056321","co37609","norming","","","","","","",""
"null","../img/tt/1084tt.jpg","null","mooney1","image-keyboard-response","399","1344215","0.0-6.0-1.56","3056321","co37609","norming","","","","","","",""
"3527.939999999944","","","post_mooney1_questions","survey-likert","400","1347747","0.0-6.0-2.56","3056321","co37609","norming","","","{""curiosity"":3,""confidence"":6}","[0,1]","../img/tt/1084tt.jpg","",""
"2997.9149999998044","","","recognition","survey-text","401","1350746","0.0-6.0-3.56","3056321","co37609","norming","","","{""guess"":""pie""}","","../img/tt/1084tt.jpg","",""
"null","../img/gs/1084gs.jpg","null","reveal","image-keyboard-response","402","1352748","0.0-6.0-4.56","3056321","co37609","norming","","","","","","",""
"null","../img/tt/1084tt.jpg","null","mooney2","image-keyboard-response","403","1354750","0.0-6.0-5.56","3056321","co37609","norming","","","","","","",""
"1297.8299999996088","","","post_reveal_questions","survey-likert","404","1356050","0.0-6.0-6.56","3056321","co37609","norming","","","{""aha"":0}","[0]","../img/tt/1084tt.jpg","",""
"null","<div style=""font-size:60px;""> </div>","null","fixation","html-keyboard-response","405","1356252","0.0-6.0-0.57","3056321","co37609","norming","","","","","","",""
"null","../img/tt/044tt.jpg","null","mooney1","image-keyboard-response","406","1359257","0.0-6.0-1.57","3056321","co37609","norming","","","","","","",""
"6845.590000000782","","","post_mooney1_questions","survey-likert","407","1366106","0.0-6.0-2.57","3056321","co37609","norming","","","{""curiosity"":6,""confidence"":1}","[0,1]","../img/tt/044tt.jpg","",""
"13566.105000001611","","","recognition","survey-text","408","1379674","0.0-6.0-3.57","3056321","co37609","norming","","","{""guess"":""some water""}","","../img/tt/044tt.jpg","",""
"null","../img/gs/044gs.jpg","null","reveal","image-keyboard-response","409","1381676","0.0-6.0-4.57","3056321","co37609","norming","","","","","","",""
"null","../img/tt/044tt.jpg","null","mooney2","image-keyboard-response","410","1383679","0.0-6.0-5.57","3056321","co37609","norming","","","","","","",""
"2760.6549999981653","","","post_reveal_questions","survey-likert","411","1386442","0.0-6.0-6.57","3056321","co37609","norming","","","{""aha"":5}","[0]","../img/tt/044tt.jpg","",""
"null","<div style=""font-size:60px;""> </div>","null","fixation","html-keyboard-response","412","1386646","0.0-6.0-0.58","3056321","co37609","norming","","","","","","",""
"null","../img/tt/353tt.jpg","null","mooney1","image-keyboard-response","413","1389656","0.0-6.0-1.58","3056321","co37609","norming","","","","","","",""
"4998.770000001881","","","post_mooney1_questions","survey-likert","414","1394658","0.0-6.0-2.58","3056321","co37609","norming","","","{""curiosity"":3,""confidence"":5}","[0,1]","../img/tt/353tt.jpg","",""
"3990.4050000004936","","","recognition","survey-text","415","1398650","0.0-6.0-3.58","3056321","co37609","norming","","","{""guess"":""pinguin""}","","../img/tt/353tt.jpg","",""
"null","../img/gs/353gs.jpg","null","reveal","image-keyboard-response","416","1400652","0.0-6.0-4.58","3056321","co37609","norming","","","","","","",""
"null","../img/tt/353tt.jpg","null","mooney2","image-keyboard-response","417","1402653","0.0-6.0-5.58","3056321","co37609","norming","","","","","","",""
"1459.8450000011362","","","post_reveal_questions","survey-likert","418","1404114","0.0-6.0-6.58","3056321","co37609","norming","","","{""aha"":0}","[0]","../img/tt/353tt.jpg","",""
"null","<div style=""font-size:60px;""> </div>","null","fixation","html-keyboard-response","419","1404324","0.0-6.0-0.59","3056321","co37609","norming","","","","","","",""
"null","../img/tt/1055tt.jpg","null","mooney1","image-keyboard-response","420","1407328","0.0-6.0-1.59","3056321","co37609","norming","","","","","","",""
"3790.6750000000466","","","post_mooney1_questions","survey-likert","421","1411122","0.0-6.0-2.59","3056321","co37609","norming","","","{""curiosity"":5,""confidence"":3}","[0,1]","../img/tt/1055tt.jpg","",""
"6934.259999998147","","","recognition","survey-text","422","1418058","0.0-6.0-3.59","3056321","co37609","norming","","","{""guess"":""sinking boat""}","","../img/tt/1055tt.jpg","",""
"null","../img/gs/1055gs.jpg","null","reveal","image-keyboard-response","423","1420064","0.0-6.0-4.59","3056321","co37609","norming","","","","","","",""
"null","../img/tt/1055tt.jpg","null","mooney2","image-keyboard-response","424","1422066","0.0-6.0-5.59","3056321","co37609","norming","","","","","","",""
"1821.5500000005122","","","post_reveal_questions","survey-likert","425","1423890","0.0-6.0-6.59","3056321","co37609","norming","","","{""aha"":3}","[0]","../img/tt/1055tt.jpg","",""
"null","<div style=""font-size:60px;""> </div>","null","fixation","html-keyboard-response","426","1424094","0.0-6.0-0.60","3056321","co37609","norming","","","","","","",""
"null","../img/tt/096tt.jpg","null","mooney1","image-keyboard-response","427","1427104","0.0-6.0-1.60","3056321","co37609","norming","","","","","","",""
"3135.3150000032037","","","post_mooney1_questions","survey-likert","428","1430242","0.0-6.0-2.60","3056321","co37609","norming","","","{""curiosity"":5,""confidence"":3}","[0,1]","../img/tt/096tt.jpg","",""
"2349.8450000004377","","","recognition","survey-text","429","1432594","0.0-6.0-3.60","3056321","co37609","norming","","","{""guess"":""knife""}","","../img/tt/096tt.jpg","",""
"null","../img/gs/096gs.jpg","null","reveal","image-keyboard-response","430","1434603","0.0-6.0-4.60","3056321","co37609","norming","","","","","","",""
"null","../img/tt/096tt.jpg","null","mooney2","image-keyboard-response","431","1436605","0.0-6.0-5.60","3056321","co37609","norming","","","","","","",""
"1796.0999999996275","","","post_reveal_questions","survey-likert","432","1438402","0.0-6.0-6.60","3056321","co37609","norming","","","{""aha"":4}","[0]","../img/tt/096tt.jpg","",""
"null","<div style=""font-size:60px;""> </div>","null","fixation","html-keyboard-response","433","1438608","0.0-6.0-0.61","3056321","co37609","norming","","","","","","",""
"null","../img/tt/1154tt.jpg","null","mooney1","image-keyboard-response","434","1441613","0.0-6.0-1.61","3056321","co37609","norming","","","","","","",""
"4850.890000001527","","","post_mooney1_questions","survey-likert","435","1446467","0.0-6.0-2.61","3056321","co37609","norming","","","{""curiosity"":5,""confidence"":2}","[0,1]","../img/tt/1154tt.jpg","",""
"7821.3949999988545","","","recognition","survey-text","436","1454290","0.0-6.0-3.61","3056321","co37609","norming","","","{""guess"":""kajakking""}","","../img/tt/1154tt.jpg","",""
"null","../img/gs/1154gs.jpg","null","reveal","image-keyboard-response","437","1456301","0.0-6.0-4.61","3056321","co37609","norming","","","","","","",""
"null","../img/tt/1154tt.jpg","null","mooney2","image-keyboard-response","438","1458304","0.0-6.0-5.61","3056321","co37609","norming","","","","","","",""
"2567.2149999991525","","","post_reveal_questions","survey-likert","439","1460874","0.0-6.0-6.61","3056321","co37609","norming","","","{""aha"":0}","[0]","../img/tt/1154tt.jpg","",""
"null","<div style=""font-size:60px;""> </div>","null","fixation","html-keyboard-response","440","1461081","0.0-6.0-0.62","3056321","co37609","norming","","","","","","",""
"null","../img/tt/1270tt.jpg","null","mooney1","image-keyboard-response","441","1464084","0.0-6.0-1.62","3056321","co37609","norming","","","","","","",""
"3827.14499999932","","","post_mooney1_questions","survey-likert","442","1467915","0.0-6.0-2.62","3056321","co37609","norming","","","{""curiosity"":6,""confidence"":0}","[0,1]","../img/tt/1270tt.jpg","",""
"1077.9999999976717","","","recognition","survey-text","443","1468994","0.0-6.0-3.62","3056321","co37609","norming","","","{""guess"":""""}","","../img/tt/1270tt.jpg","",""
"null","../img/gs/1270gs.jpg","null","reveal","image-keyboard-response","444","1471004","0.0-6.0-4.62","3056321","co37609","norming","","","","","","",""
"null","../img/tt/1270tt.jpg","null","mooney2","image-keyboard-response","445","1473010","0.0-6.0-5.62","3056321","co37609","norming","","","","","","",""
"1861.1100000014994","","","post_reveal_questions","survey-likert","446","1474874","0.0-6.0-6.62","3056321","co37609","norming","","","{""aha"":6}","[0]","../img/tt/1270tt.jpg","",""
"null","<div style=""font-size:60px;""> </div>","null","fixation","html-keyboard-response","447","1475077","0.0-6.0-0.63","3056321","co37609","norming","","","","","","",""
"null","../img/tt/1196tt.jpg","null","mooney1","image-keyboard-response","448","1478081","0.0-6.0-1.63","3056321","co37609","norming","","","","","","",""
"5734.005000001984","","","post_mooney1_questions","survey-likert","449","1483819","0.0-6.0-2.63","3056321","co37609","norming","","","{""curiosity"":6,""confidence"":1}","[0,1]","../img/tt/1196tt.jpg","",""
"2989.9799999983516","","","recognition","survey-text","450","1486810","0.0-6.0-3.63","3056321","co37609","norming","","","{""guess"":""people""}","","../img/tt/1196tt.jpg","",""
"null","../img/gs/1196gs.jpg","null","reveal","image-keyboard-response","451","1488813","0.0-6.0-4.63","3056321","co37609","norming","","","","","","",""
"null","../img/tt/1196tt.jpg","null","mooney2","image-keyboard-response","452","1490815","0.0-6.0-5.63","3056321","co37609","norming","","","","","","",""
"3792.3300000003073","","","post_reveal_questions","survey-likert","453","1494610","0.0-6.0-6.63","3056321","co37609","norming","","","{""aha"":4}","[0]","../img/tt/1196tt.jpg","",""
"null","<div style=""font-size:60px;""> </div>","null","fixation","html-keyboard-response","454","1494815","0.0-6.0-0.64","3056321","co37609","norming","","","","","","",""
"null","../img/tt/496tt.jpg","null","mooney1","image-keyboard-response","455","1497828","0.0-6.0-1.64","3056321","co37609","norming","","","","","","",""
"6500.244999999413","","","post_mooney1_questions","survey-likert","456","1504330","0.0-6.0-2.64","3056321","co37609","norming","","","{""curiosity"":5,""confidence"":0}","[0,1]","../img/tt/496tt.jpg","",""
"622.1500000027008","","","recognition","survey-text","457","1504954","0.0-6.0-3.64","3056321","co37609","norming","","","{""guess"":""""}","","../img/tt/496tt.jpg","",""
"null","../img/gs/496gs.jpg","null","reveal","image-keyboard-response","458","1506958","0.0-6.0-4.64","3056321","co37609","norming","","","","","","",""
"null","../img/tt/496tt.jpg","null","mooney2","image-keyboard-response","459","1508965","0.0-6.0-5.64","3056321","co37609","norming","","","","","","",""
"2562.9850000003353","","","post_reveal_questions","survey-likert","460","1511530","0.0-6.0-6.64","3056321","co37609","norming","","","{""aha"":6}","[0]","../img/tt/496tt.jpg","",""
"null","<div style=""font-size:60px;""> </div>","null","fixation","html-keyboard-response","461","1511738","0.0-6.0-0.65","3056321","co37609","norming","","","","","","",""
"null","../img/tt/1362tt.jpg","null","mooney1","image-keyboard-response","462","1514745","0.0-6.0-1.65","3056321","co37609","norming","","","","","","",""
"3814.580000001937","","","post_mooney1_questions","survey-likert","463","1518563","0.0-6.0-2.65","3056321","co37609","norming","","","{""curiosity"":5,""confidence"":3}","[0,1]","../img/tt/1362tt.jpg","",""
"4662.0449999971315","","","recognition","survey-text","464","1523226","0.0-6.0-3.65","3056321","co37609","norming","","","{""guess"":""drum""}","","../img/tt/1362tt.jpg","",""
"null","../img/gs/1362gs.jpg","null","reveal","image-keyboard-response","465","1525237","0.0-6.0-4.65","3056321","co37609","norming","","","","","","",""
"null","../img/tt/1362tt.jpg","null","mooney2","image-keyboard-response","466","1527239","0.0-6.0-5.65","3056321","co37609","norming","","","","","","",""
"1888.2349999984726","","","post_reveal_questions","survey-likert","467","1529130","0.0-6.0-6.65","3056321","co37609","norming","","","{""aha"":3}","[0]","../img/tt/1362tt.jpg","",""
"null","<div style=""font-size:60px;""> </div>","null","fixation","html-keyboard-response","468","1529332","0.0-6.0-0.66","3056321","co37609","norming","","","","","","",""
"null","../img/tt/357tt.jpg","null","mooney1","image-keyboard-response","469","1532336","0.0-6.0-1.66","3056321","co37609","norming","","","","","","",""
"9239.424999999814","","","post_mooney1_questions","survey-likert","470","1541579","0.0-6.0-2.66","3056321","co37609","norming","","","{""curiosity"":2,""confidence"":0}","[0,1]","../img/tt/357tt.jpg","",""
"1037.7399999997579","","","recognition","survey-text","471","1542618","0.0-6.0-3.66","3056321","co37609","norming","","","{""guess"":""""}","","../img/tt/357tt.jpg","",""
"null","../img/gs/357gs.jpg","null","reveal","image-keyboard-response","472","1544619","0.0-6.0-4.66","3056321","co37609","norming","","","","","","",""
"null","../img/tt/357tt.jpg","null","mooney2","image-keyboard-response","473","1546621","0.0-6.0-5.66","3056321","co37609","norming","","","","","","",""
"3068.7649999998976","","","post_reveal_questions","survey-likert","474","1549691","0.0-6.0-6.66","3056321","co37609","norming","","","{""aha"":3}","[0]","../img/tt/357tt.jpg","",""
"null","<div style=""font-size:60px;""> </div>","null","fixation","html-keyboard-response","475","1549892","0.0-6.0-0.67","3056321","co37609","norming","","","","","","",""
"null","../img/tt/001tt.jpg","null","mooney1","image-keyboard-response","476","1552897","0.0-6.0-1.67","3056321","co37609","norming","","","","","","",""
"15230.625","","","post_mooney1_questions","survey-likert","477","1568131","0.0-6.0-2.67","3056321","co37609","norming","","","{""curiosity"":5,""confidence"":1}","[0,1]","../img/tt/001tt.jpg","",""
"2581.7850000020117","","","recognition","survey-text","478","1570714","0.0-6.0-3.67","3056321","co37609","norming","","","{""guess"":""tiger""}","","../img/tt/001tt.jpg","",""
"null","../img/gs/001gs.jpg","null","reveal","image-keyboard-response","479","1572718","0.0-6.0-4.67","3056321","co37609","norming","","","","","","",""
"null","../img/tt/001tt.jpg","null","mooney2","image-keyboard-response","480","1574725","0.0-6.0-5.67","3056321","co37609","norming","","","","","","",""
"3124.2100000018254","","","post_reveal_questions","survey-likert","481","1577851","0.0-6.0-6.67","3056321","co37609","norming","","","{""aha"":4}","[0]","../img/tt/001tt.jpg","",""
"null","<div style=""font-size:60px;""> </div>","null","fixation","html-keyboard-response","482","1578053","0.0-6.0-0.68","3056321","co37609","norming","","","","","","",""
"null","../img/tt/1199tt.jpg","null","mooney1","image-keyboard-response","483","1581066","0.0-6.0-1.68","3056321","co37609","norming","","","","","","",""
"7821.335000000661","","","post_mooney1_questions","survey-likert","484","1588891","0.0-6.0-2.68","3056321","co37609","norming","","","{""curiosity"":5,""confidence"":2}","[0,1]","../img/tt/1199tt.jpg","",""
"3621.655000002589","","","recognition","survey-text","485","1592514","0.0-6.0-3.68","3056321","co37609","norming","","","{""guess"":""in bed""}","","../img/tt/1199tt.jpg","",""
"null","../img/gs/1199gs.jpg","null","reveal","image-keyboard-response","486","1594523","0.0-6.0-4.68","3056321","co37609","norming","","","","","","",""
"null","../img/tt/1199tt.jpg","null","mooney2","image-keyboard-response","487","1596529","0.0-6.0-5.68","3056321","co37609","norming","","","","","","",""
"2422.7749999989755","","","post_reveal_questions","survey-likert","488","1598955","0.0-6.0-6.68","3056321","co37609","norming","","","{""aha"":6}","[0]","../img/tt/1199tt.jpg","",""
"null","<div style=""font-size:60px;""> </div>","null","fixation","html-keyboard-response","489","1599158","0.0-6.0-0.69","3056321","co37609","norming","","","","","","",""
"null","../img/tt/108tt.jpg","null","mooney1","image-keyboard-response","490","1602162","0.0-6.0-1.69","3056321","co37609","norming","","","","","","",""
"4476.985000001267","","","post_mooney1_questions","survey-likert","491","1606642","0.0-6.0-2.69","3056321","co37609","norming","","","{""curiosity"":5,""confidence"":2}","[0,1]","../img/tt/108tt.jpg","",""
"2606.189999998547","","","recognition","survey-text","492","1609247","0.0-6.0-3.69","3056321","co37609","norming","","","{""guess"":""cow""}","","../img/tt/108tt.jpg","",""
"null","../img/gs/108gs.jpg","null","reveal","image-keyboard-response","493","1611251","0.0-6.0-4.69","3056321","co37609","norming","","","","","","",""
"null","../img/tt/108tt.jpg","null","mooney2","image-keyboard-response","494","1613253","0.0-6.0-5.69","3056321","co37609","norming","","","","","","",""
"2391.6499999975786","","","post_reveal_questions","survey-likert","495","1615648","0.0-6.0-6.69","3056321","co37609","norming","","","{""aha"":3}","[0]","../img/tt/108tt.jpg","",""
"null","<div style=""font-size:60px;""> </div>","null","fixation","html-keyboard-response","496","1615858","0.0-6.0-0.70","3056321","co37609","norming","","","","","","",""
"null","../img/tt/549tt.jpg","null","mooney1","image-keyboard-response","497","1618867","0.0-6.0-1.70","3056321","co37609","norming","","","","","","",""
"9555.044999997364","","","post_mooney1_questions","survey-likert","498","1628423","0.0-6.0-2.70","3056321","co37609","norming","","","{""curiosity"":6,""confidence"":0}","[0,1]","../img/tt/549tt.jpg","",""
"1293.9250000016764","","","recognition","survey-text","499","1629719","0.0-6.0-3.70","3056321","co37609","norming","","","{""guess"":""""}","","../img/tt/549tt.jpg","",""
"null","../img/gs/549gs.jpg","null","reveal","image-keyboard-response","500","1631730","0.0-6.0-4.70","3056321","co37609","norming","","","","","","",""
"null","../img/tt/549tt.jpg","null","mooney2","image-keyboard-response","501","1633732","0.0-6.0-5.70","3056321","co37609","norming","","","","","","",""
"2368.354999998817","","","post_reveal_questions","survey-likert","502","1636103","0.0-6.0-6.70","3056321","co37609","norming","","","{""aha"":5}","[0]","../img/tt/549tt.jpg","",""
"null","<div style=""font-size:60px;""> </div>","null","fixation","html-keyboard-response","503","1636308","0.0-6.0-0.71","3056321","co37609","norming","","","","","","",""
"null","../img/tt/1091tt.jpg","null","mooney1","image-keyboard-response","504","1639311","0.0-6.0-1.71","3056321","co37609","norming","","","","","","",""
"4475.840000002878","","","post_mooney1_questions","survey-likert","505","1643791","0.0-6.0-2.71","3056321","co37609","norming","","","{""curiosity"":1,""confidence"":6}","[0,1]","../img/tt/1091tt.jpg","",""
"2845.975000000093","","","recognition","survey-text","506","1646639","0.0-6.0-3.71","3056321","co37609","norming","","","{""guess"":""horse""}","","../img/tt/1091tt.jpg","",""
"null","../img/gs/1091gs.jpg","null","reveal","image-keyboard-response","507","1648650","0.0-6.0-4.71","3056321","co37609","norming","","","","","","",""
"null","../img/tt/1091tt.jpg","null","mooney2","image-keyboard-response","508","1650650","0.0-6.0-5.71","3056321","co37609","norming","","","","","","",""
"2035.6799999971408","","","post_reveal_questions","survey-likert","509","1652687","0.0-6.0-6.71","3056321","co37609","norming","","","{""aha"":0}","[0]","../img/tt/1091tt.jpg","",""
"null","<div style=""font-size:60px;""> </div>","null","fixation","html-keyboard-response","510","1652891","0.0-6.0-0.72","3056321","co37609","norming","","","","","","",""
"null","../img/tt/1087tt.jpg","null","mooney1","image-keyboard-response","511","1655900","0.0-6.0-1.72","3056321","co37609","norming","","","","","","",""
"4455.529999999329","","","post_mooney1_questions","survey-likert","512","1660359","0.0-6.0-2.72","3056321","co37609","norming","","","{""curiosity"":4,""confidence"":3}","[0,1]","../img/tt/1087tt.jpg","",""
"2869.78500000271","","","recognition","survey-text","513","1663231","0.0-6.0-3.72","3056321","co37609","norming","","","{""guess"":""sheep""}","","../img/tt/1087tt.jpg","",""
"null","../img/gs/1087gs.jpg","null","reveal","image-keyboard-response","514","1665234","0.0-6.0-4.72","3056321","co37609","norming","","","","","","",""
"null","../img/tt/1087tt.jpg","null","mooney2","image-keyboard-response","515","1667237","0.0-6.0-5.72","3056321","co37609","norming","","","","","","",""
"1503.6450000007171","","","post_reveal_questions","survey-likert","516","1668743","0.0-6.0-6.72","3056321","co37609","norming","","","{""aha"":0}","[0]","../img/tt/1087tt.jpg","",""
"null","<div style=""font-size:60px;""> </div>","null","fixation","html-keyboard-response","517","1668951","0.0-6.0-0.73","3056321","co37609","norming","","","","","","",""
"null","../img/tt/1243tt.jpg","null","mooney1","image-keyboard-response","518","1671960","0.0-6.0-1.73","3056321","co37609","norming","","","","","","",""
"5262.379999999888","","","post_mooney1_questions","survey-likert","519","1677226","0.0-6.0-2.73","3056321","co37609","norming","","","{""curiosity"":4,""confidence"":5}","[0,1]","../img/tt/1243tt.jpg","",""
"2965.895000001183","","","recognition","survey-text","520","1680194","0.0-6.0-3.73","3056321","co37609","norming","","","{""guess"":""monkey""}","","../img/tt/1243tt.jpg","",""
"null","../img/gs/1243gs.jpg","null","reveal","image-keyboard-response","521","1682196","0.0-6.0-4.73","3056321","co37609","norming","","","","","","",""
"null","../img/tt/1243tt.jpg","null","mooney2","image-keyboard-response","522","1684198","0.0-6.0-5.73","3056321","co37609","norming","","","","","","",""
"2025.9450000012293","","","post_reveal_questions","survey-likert","523","1686226","0.0-6.0-6.73","3056321","co37609","norming","","","{""aha"":4}","[0]","../img/tt/1243tt.jpg","",""
"null","<div style=""font-size:60px;""> </div>","null","fixation","html-keyboard-response","524","1686428","0.0-6.0-0.74","3056321","co37609","norming","","","","","","",""
"null","../img/tt/080tt.jpg","null","mooney1","image-keyboard-response","525","1689431","0.0-6.0-1.74","3056321","co37609","norming","","","","","","",""
"6001.195000000764","","","post_mooney1_questions","survey-likert","526","1695435","0.0-6.0-2.74","3056321","co37609","norming","","","{""curiosity"":4,""confidence"":3}","[0,1]","../img/tt/080tt.jpg","",""
"3149.7049999998417","","","recognition","survey-text","527","1698586","0.0-6.0-3.74","3056321","co37609","norming","","","{""guess"":""hut""}","","../img/tt/080tt.jpg","",""
"null","../img/gs/080gs.jpg","null","reveal","image-keyboard-response","528","1700593","0.0-6.0-4.74","3056321","co37609","norming","","","","","","",""
"null","../img/tt/080tt.jpg","null","mooney2","image-keyboard-response","529","1702600","0.0-6.0-5.74","3056321","co37609","norming","","","","","","",""
"1745.4049999976996","","","post_reveal_questions","survey-likert","530","1704346","0.0-6.0-6.74","3056321","co37609","norming","","","{""aha"":5}","[0]","../img/tt/080tt.jpg","",""
"null","<div style=""font-size:60px;""> </div>","null","fixation","html-keyboard-response","531","1704555","0.0-6.0-0.75","3056321","co37609","norming","","","","","","",""
"null","../img/tt/079tt.jpg","null","mooney1","image-keyboard-response","532","1707566","0.0-6.0-1.75","3056321","co37609","norming","","","","","","",""
"7984.925000000745","","","post_mooney1_questions","survey-likert","533","1715554","0.0-6.0-2.75","3056321","co37609","norming","","","{""curiosity"":3,""confidence"":5}","[0,1]","../img/tt/079tt.jpg","",""
"4253.520000002114","","","recognition","survey-text","534","1719810","0.0-6.0-3.75","3056321","co37609","norming","","","{""guess"":""beer""}","","../img/tt/079tt.jpg","",""
"null","../img/gs/079gs.jpg","null","reveal","image-keyboard-response","535","1721819","0.0-6.0-4.75","3056321","co37609","norming","","","","","","",""
"null","../img/tt/079tt.jpg","null","mooney2","image-keyboard-response","536","1723827","0.0-6.0-5.75","3056321","co37609","norming","","","","","","",""
"2516.384999998845","","","post_reveal_questions","survey-likert","537","1726346","0.0-6.0-6.75","3056321","co37609","norming","","","{""aha"":0}","[0]","../img/tt/079tt.jpg","",""
"null","<div style=""font-size:60px;""> </div>","null","fixation","html-keyboard-response","538","1726548","0.0-6.0-0.76","3056321","co37609","norming","","","","","","",""
"null","../img/tt/1175tt.jpg","null","mooney1","image-keyboard-response","539","1729553","0.0-6.0-1.76","3056321","co37609","norming","","","","","","",""
"2718.47500000149","","","post_mooney1_questions","survey-likert","540","1732272","0.0-6.0-2.76","3056321","co37609","norming","","","{""curiosity"":6,""confidence"":0}","[0,1]","../img/tt/1175tt.jpg","",""
"581.3600000001024","","","recognition","survey-text","541","1732855","0.0-6.0-3.76","3056321","co37609","norming","","","{""guess"":""""}","","../img/tt/1175tt.jpg","",""
"null","../img/gs/1175gs.jpg","null","reveal","image-keyboard-response","542","1734857","0.0-6.0-4.76","3056321","co37609","norming","","","","","","",""
"null","../img/tt/1175tt.jpg","null","mooney2","image-keyboard-response","543","1736860","0.0-6.0-5.76","3056321","co37609","norming","","","","","","",""
"2000.9799999969546","","","post_reveal_questions","survey-likert","544","1738864","0.0-6.0-6.76","3056321","co37609","norming","","","{""aha"":6}","[0]","../img/tt/1175tt.jpg","",""
"null","<div style=""font-size:60px;""> </div>","null","fixation","html-keyboard-response","545","1739071","0.0-6.0-0.77","3056321","co37609","norming","","","","","","",""
"null","../img/tt/1190tt.jpg","null","mooney1","image-keyboard-response","546","1742079","0.0-6.0-1.77","3056321","co37609","norming","","","","","","",""
"4621.100000000326","","","post_mooney1_questions","survey-likert","547","1746704","0.0-6.0-2.77","3056321","co37609","norming","","","{""curiosity"":6,""confidence"":0}","[0,1]","../img/tt/1190tt.jpg","",""
"710.244999998482","","","recognition","survey-text","548","1747416","0.0-6.0-3.77","3056321","co37609","norming","","","{""guess"":""""}","","../img/tt/1190tt.jpg","",""
"null","../img/gs/1190gs.jpg","null","reveal","image-keyboard-response","549","1749420","0.0-6.0-4.77","3056321","co37609","norming","","","","","","",""
"null","../img/tt/1190tt.jpg","null","mooney2","image-keyboard-response","550","1751423","0.0-6.0-5.77","3056321","co37609","norming","","","","","","",""
"1517.960000000894","","","post_reveal_questions","survey-likert","551","1752944","0.0-6.0-6.77","3056321","co37609","norming","","","{""aha"":5}","[0]","../img/tt/1190tt.jpg","",""
"null","<div style=""font-size:60px;""> </div>","null","fixation","html-keyboard-response","552","1753151","0.0-6.0-0.78","3056321","co37609","norming","","","","","","",""
