"rt","stimulus","key_press","test_part","trial_type","trial_index","time_elapsed","internal_node_id","totalTime","subject","experiment_name","button_pressed","success","responses","question_order","currentStim","old","correct"
"5942.815000000337","Welcome to the experiment. This is an online experiment so please don't close the tab/window until we say goodbye.  Press any key to begin.","13","instructions","html-keyboard-response","0","5956","0.0-0.0","2821009","co37663","norming","","","","","","",""
"38758.624999998574","<div style='word-wrap: break-word; width: 900px'><h3>Please consider this information carefully before deciding whether to participate in this research</h3><ul style='text-align: left; font-size: .8em;'><li><b>Purpose of the research</b>: To examine how people process images.</li><li><b>What you will do in this research</b>:  Stimuli (images) will be presented on the computer and you will be asked different questions about them.</li><li><b>Time required</b>: Participation will take between 45 and 60 minutes to complete.</li><li><b>Risks</b>:  There are no anticipated risks associated with participating in this study. The effects of participating should be comparable to those you would experience from viewing a computer monitor for 30 minutes and using a mouse or keyboard.</li><li><b>Benefits</b>:  This study provides no benefits to you individually except for the credit. The study provides important information about the nature of perception and learning.</li><li><b>Confidentiality</b>:  Your participation in this study will remain confidential. No personally identifiable information will be associated with your data. Your de-identified data may be shared with other researchers and used in future projects.</li><li><b>Participation and withdrawal</b>:  Your participation in this study is completely voluntary and you may refuse to participate or you may choose to withdraw at any time without penalty.</li><li><b>How to contact the researchers</b>: If you have questions or concerns about your participation or payment, or want to request a summary of research findings, please contact Sander Van de Cruys (KU Leuven), at sander.vandecruys@kuleuven.be.</li></ul><p>The nature and purpose of this research have been sufficiently explained and I agree to participate in this study.  I understand that I am free to withdraw at any time without incurring any penalty.</p><p>Please consent by clicking the button below to continue. Otherwise, please exit the study at this time.</p></div>","","instructions","html-button-response","1","44714","0.0-1.0","2821009","co37663","norming","0","","","","","",""
"","","","instructions","fullscreen","2","49361","0.0-2.0","2821009","co37663","norming","","true","","","","",""
"83718.12499999942","","","sona","survey-html-form","3","133091","0.0-3.0","2821009","co37663","norming","","","[{""name"":""sonaid"",""value"":""37663""},{""name"":""debrief"",""value"":""yes""},{""name"":""datajoin"",""value"":""yes""}]","","","",""
"78786.87999999966","<div style='word-wrap: break-word; width: 900px'><h3>Instructions</h3><p>This experiment will have 3 parts. In the first part you will see a series of distorted images like the one below on the left. As you can see in the righthand image, the distorted images are derived from actual photographs. In what follows, you will <strong>briefly</strong> be presented with <strong>only</strong> the distorted image.</p> <div style='float: left; margin-right: 20px;'><img src='../img/018tt.jpg' height='250' width='250'></img></div><div style='float: right; margin-left: 20px;'><img src='../img/018gs.jpg' height='250' width='250'></img></div><p>Subsequently you will be asked a few questions about the image: One question on how <strong>curious</strong> you are about the solution and one on how <strong>confident</strong> you are that you know the solution.</p>Next, we ask you to make a guess on what is in the image. Note that it is OK to name just the <strong>basic level category</strong>. For example when you see a parrot in the image, 'parrot' will obviously be a correct answer but also correct is 'bird'. However, 'animal' will <strong>not</strong> be counted as a correct response. For the example above, 'rose' would be correct or 'flower', but not 'plant'. When soccer players are depicted, 'soccer', 'football', 'soccer players' will be correct, but not 'humans', 'outdoors', or 'sports'. You do not need to describe the image in full, just name the main object in it <strong>in one or two words</strong>. All images depict objects from one of the following broad level categories: animals, inanimate objects, plants, sports, vehicles, and food. Recognizing means knowing <strong>more</strong> than these broad labels for a given image. But we always encourage you to <strong>make a guess</strong> if you can. Note that you are allowed to use <strong>Dutch and English</strong> in your answers, whatever comes easiest for you.</p><p>Press any key to continue.</p></div>","13","instructions","html-keyboard-response","4","211885","0.0-4.0","2821009","co37663","norming","","","","","","",""
"52863.43999999919","<div style='word-wrap: break-word; width: 900px'><h3>Instructions</h3> <p>Next, the solution image will be revealed to you and you'll be asked to indicate how strong your <strong>aha-experience</strong> was after seeing the solution. This describes the positive feeling of the 'click' you sometimes experience, when the pieces of the 'puzzle' fall together and you suddenly have 'insight' in the image.</p><img src='aha.jpg' height='188' width='250'></img><p>Note that there are no right or wrong answers. We are interested in what <strong>you</strong> see in the image and how <strong>you</strong> feel about it.</p><p>Press any key to start the experiment.</p></div>","13","instructions","html-keyboard-response","5","264749","0.0-5.0","2821009","co37663","norming","","","","","","",""
"null","<div style=""font-size:60px;""> </div>","null","fixation","html-keyboard-response","6","264953","0.0-6.0-0.0","2821009","co37663","norming","","","","","","",""
"null","../img/tt/194tt.jpg","null","mooney1","image-keyboard-response","7","267961","0.0-6.0-1.0","2821009","co37663","norming","","","","","","",""
"21417.094999998924","","","post_mooney1_questions","survey-likert","8","289377","0.0-6.0-2.0","2821009","co37663","norming","","","{""curiosity"":5,""confidence"":0}","[0,1]","../img/tt/194tt.jpg","",""
"5165.494999999297","","","recognition","survey-text","9","294545","0.0-6.0-3.0","2821009","co37663","norming","","","{""guess"":""""}","","../img/tt/194tt.jpg","",""
"null","../img/gs/194gs.jpg","null","reveal","image-keyboard-response","10","296555","0.0-6.0-4.0","2821009","co37663","norming","","","","","","",""
"null","../img/tt/194tt.jpg","null","mooney2","image-keyboard-response","11","298563","0.0-6.0-5.0","2821009","co37663","norming","","","","","","",""
"5725.130000000703","","","post_reveal_questions","survey-likert","12","304289","0.0-6.0-6.0","2821009","co37663","norming","","","{""aha"":4}","[0]","../img/tt/194tt.jpg","",""
"null","<div style=""font-size:60px;""> </div>","null","fixation","html-keyboard-response","13","304493","0.0-6.0-0.1","2821009","co37663","norming","","","","","","",""
"null","../img/tt/496tt.jpg","null","mooney1","image-keyboard-response","14","307504","0.0-6.0-1.1","2821009","co37663","norming","","","","","","",""
"6328.129999999888","","","post_mooney1_questions","survey-likert","15","313833","0.0-6.0-2.1","2821009","co37663","norming","","","{""curiosity"":5,""confidence"":1}","[0,1]","../img/tt/496tt.jpg","",""
"10182.0349999998","","","recognition","survey-text","16","324017","0.0-6.0-3.1","2821009","co37663","norming","","","{""guess"":""""}","","../img/tt/496tt.jpg","",""
"null","../img/gs/496gs.jpg","null","reveal","image-keyboard-response","17","326025","0.0-6.0-4.1","2821009","co37663","norming","","","","","","",""
"null","../img/tt/496tt.jpg","null","mooney2","image-keyboard-response","18","328036","0.0-6.0-5.1","2821009","co37663","norming","","","","","","",""
"2922.9849999992293","","","post_reveal_questions","survey-likert","19","330961","0.0-6.0-6.1","2821009","co37663","norming","","","{""aha"":6}","[0]","../img/tt/496tt.jpg","",""
"null","<div style=""font-size:60px;""> </div>","null","fixation","html-keyboard-response","20","331164","0.0-6.0-0.2","2821009","co37663","norming","","","","","","",""
"null","../img/tt/1049tt.jpg","null","mooney1","image-keyboard-response","21","334167","0.0-6.0-1.2","2821009","co37663","norming","","","","","","",""
"8744.27999999898","","","post_mooney1_questions","survey-likert","22","342909","0.0-6.0-2.2","2821009","co37663","norming","","","{""curiosity"":5,""confidence"":1}","[0,1]","../img/tt/1049tt.jpg","",""
"6382.0350000005565","","","recognition","survey-text","23","349293","0.0-6.0-3.2","2821009","co37663","norming","","","{""guess"":""vlinder""}","","../img/tt/1049tt.jpg","",""
"null","../img/gs/1049gs.jpg","null","reveal","image-keyboard-response","24","351302","0.0-6.0-4.2","2821009","co37663","norming","","","","","","",""
"null","../img/tt/1049tt.jpg","null","mooney2","image-keyboard-response","25","353303","0.0-6.0-5.2","2821009","co37663","norming","","","","","","",""
"3211.5099999991944","","","post_reveal_questions","survey-likert","26","356517","0.0-6.0-6.2","2821009","co37663","norming","","","{""aha"":4}","[0]","../img/tt/1049tt.jpg","",""
"null","<div style=""font-size:60px;""> </div>","null","fixation","html-keyboard-response","27","356718","0.0-6.0-0.3","2821009","co37663","norming","","","","","","",""
"null","../img/tt/456tt.jpg","null","mooney1","image-keyboard-response","28","359727","0.0-6.0-1.3","2821009","co37663","norming","","","","","","",""
"4507.960000000836","","","post_mooney1_questions","survey-likert","29","364237","0.0-6.0-2.3","2821009","co37663","norming","","","{""curiosity"":5,""confidence"":2}","[0,1]","../img/tt/456tt.jpg","",""
"4966.0050000002375","","","recognition","survey-text","30","369205","0.0-6.0-3.3","2821009","co37663","norming","","","{""guess"":""schoen""}","","../img/tt/456tt.jpg","",""
"null","../img/gs/456gs.jpg","null","reveal","image-keyboard-response","31","371209","0.0-6.0-4.3","2821009","co37663","norming","","","","","","",""
"null","../img/tt/456tt.jpg","null","mooney2","image-keyboard-response","32","373218","0.0-6.0-5.3","2821009","co37663","norming","","","","","","",""
"2385.280000000377","","","post_reveal_questions","survey-likert","33","375605","0.0-6.0-6.3","2821009","co37663","norming","","","{""aha"":4}","[0]","../img/tt/456tt.jpg","",""
"null","<div style=""font-size:60px;""> </div>","null","fixation","html-keyboard-response","34","375813","0.0-6.0-0.4","2821009","co37663","norming","","","","","","",""
"null","../img/tt/096tt.jpg","null","mooney1","image-keyboard-response","35","378821","0.0-6.0-1.4","2821009","co37663","norming","","","","","","",""
"3958.0649999988964","","","post_mooney1_questions","survey-likert","36","382781","0.0-6.0-2.4","2821009","co37663","norming","","","{""curiosity"":4,""confidence"":0}","[0,1]","../img/tt/096tt.jpg","",""
"2350.015000000014","","","recognition","survey-text","37","385133","0.0-6.0-3.4","2821009","co37663","norming","","","{""guess"":""""}","","../img/tt/096tt.jpg","",""
"null","../img/gs/096gs.jpg","null","reveal","image-keyboard-response","38","387137","0.0-6.0-4.4","2821009","co37663","norming","","","","","","",""
"null","../img/tt/096tt.jpg","null","mooney2","image-keyboard-response","39","389146","0.0-6.0-5.4","2821009","co37663","norming","","","","","","",""
"3064.7950000002165","","","post_reveal_questions","survey-likert","40","392213","0.0-6.0-6.4","2821009","co37663","norming","","","{""aha"":5}","[0]","../img/tt/096tt.jpg","",""
"null","<div style=""font-size:60px;""> </div>","null","fixation","html-keyboard-response","41","392420","0.0-6.0-0.5","2821009","co37663","norming","","","","","","",""
"null","../img/tt/085tt.jpg","null","mooney1","image-keyboard-response","42","395423","0.0-6.0-1.5","2821009","co37663","norming","","","","","","",""
"5180.065000000468","","","post_mooney1_questions","survey-likert","43","400607","0.0-6.0-2.5","2821009","co37663","norming","","","{""curiosity"":4,""confidence"":0}","[0,1]","../img/tt/085tt.jpg","",""
"1550.1249999997672","","","recognition","survey-text","44","402159","0.0-6.0-3.5","2821009","co37663","norming","","","{""guess"":""""}","","../img/tt/085tt.jpg","",""
"null","../img/gs/085gs.jpg","null","reveal","image-keyboard-response","45","404160","0.0-6.0-4.5","2821009","co37663","norming","","","","","","",""
"null","../img/tt/085tt.jpg","null","mooney2","image-keyboard-response","46","406170","0.0-6.0-5.5","2821009","co37663","norming","","","","","","",""
"2570.784999999916","","","post_reveal_questions","survey-likert","47","408743","0.0-6.0-6.5","2821009","co37663","norming","","","{""aha"":4}","[0]","../img/tt/085tt.jpg","",""
"null","<div style=""font-size:60px;""> </div>","null","fixation","html-keyboard-response","48","408944","0.0-6.0-0.6","2821009","co37663","norming","","","","","","",""
"null","../img/tt/098tt.jpg","null","mooney1","image-keyboard-response","49","411954","0.0-6.0-1.6","2821009","co37663","norming","","","","","","",""
"5697.850000000442","","","post_mooney1_questions","survey-likert","50","417655","0.0-6.0-2.6","2821009","co37663","norming","","","{""curiosity"":4,""confidence"":0}","[0,1]","../img/tt/098tt.jpg","",""
"2614.0450000002747","","","recognition","survey-text","51","420271","0.0-6.0-3.6","2821009","co37663","norming","","","{""guess"":""""}","","../img/tt/098tt.jpg","",""
"null","../img/gs/098gs.jpg","null","reveal","image-keyboard-response","52","422273","0.0-6.0-4.6","2821009","co37663","norming","","","","","","",""
"null","../img/tt/098tt.jpg","null","mooney2","image-keyboard-response","53","424274","0.0-6.0-5.6","2821009","co37663","norming","","","","","","",""
"3386.1550000001444","","","post_reveal_questions","survey-likert","54","427663","0.0-6.0-6.6","2821009","co37663","norming","","","{""aha"":2}","[0]","../img/tt/098tt.jpg","",""
"null","<div style=""font-size:60px;""> </div>","null","fixation","html-keyboard-response","55","427874","0.0-6.0-0.7","2821009","co37663","norming","","","","","","",""
"null","../img/tt/584tt.jpg","null","mooney1","image-keyboard-response","56","430880","0.0-6.0-1.7","2821009","co37663","norming","","","","","","",""
"4788.585000000196","","","post_mooney1_questions","survey-likert","57","435671","0.0-6.0-2.7","2821009","co37663","norming","","","{""curiosity"":6,""confidence"":0}","[0,1]","../img/tt/584tt.jpg","",""
"1174.2950000007404","","","recognition","survey-text","58","436847","0.0-6.0-3.7","2821009","co37663","norming","","","{""guess"":""""}","","../img/tt/584tt.jpg","",""
"null","../img/gs/584gs.jpg","null","reveal","image-keyboard-response","59","438848","0.0-6.0-4.7","2821009","co37663","norming","","","","","","",""
"null","../img/tt/584tt.jpg","null","mooney2","image-keyboard-response","60","440850","0.0-6.0-5.7","2821009","co37663","norming","","","","","","",""
"1970.2550000001793","","","post_reveal_questions","survey-likert","61","442823","0.0-6.0-6.7","2821009","co37663","norming","","","{""aha"":5}","[0]","../img/tt/584tt.jpg","",""
"null","<div style=""font-size:60px;""> </div>","null","fixation","html-keyboard-response","62","443027","0.0-6.0-0.8","2821009","co37663","norming","","","","","","",""
"null","../img/tt/442tt.jpg","null","mooney1","image-keyboard-response","63","446035","0.0-6.0-1.8","2821009","co37663","norming","","","","","","",""
"5800.86000000115","","","post_mooney1_questions","survey-likert","64","451839","0.0-6.0-2.8","2821009","co37663","norming","","","{""curiosity"":4,""confidence"":0}","[0,1]","../img/tt/442tt.jpg","",""
"814.1949999990175","","","recognition","survey-text","65","452655","0.0-6.0-3.8","2821009","co37663","norming","","","{""guess"":""""}","","../img/tt/442tt.jpg","",""
"null","../img/gs/442gs.jpg","null","reveal","image-keyboard-response","66","454665","0.0-6.0-4.8","2821009","co37663","norming","","","","","","",""
"null","../img/tt/442tt.jpg","null","mooney2","image-keyboard-response","67","456676","0.0-6.0-5.8","2821009","co37663","norming","","","","","","",""
"1840.7950000001001","","","post_reveal_questions","survey-likert","68","458522","0.0-6.0-6.8","2821009","co37663","norming","","","{""aha"":3}","[0]","../img/tt/442tt.jpg","",""
"null","<div style=""font-size:60px;""> </div>","null","fixation","html-keyboard-response","69","458731","0.0-6.0-0.9","2821009","co37663","norming","","","","","","",""
"null","../img/tt/296tt.jpg","null","mooney1","image-keyboard-response","70","461736","0.0-6.0-1.9","2821009","co37663","norming","","","","","","",""
"5112.310000000405","","","post_mooney1_questions","survey-likert","71","466851","0.0-6.0-2.9","2821009","co37663","norming","","","{""curiosity"":6,""confidence"":0}","[0,1]","../img/tt/296tt.jpg","",""
"790.0250000002561","","","recognition","survey-text","72","467642","0.0-6.0-3.9","2821009","co37663","norming","","","{""guess"":""""}","","../img/tt/296tt.jpg","",""
"null","../img/gs/296gs.jpg","null","reveal","image-keyboard-response","73","469644","0.0-6.0-4.9","2821009","co37663","norming","","","","","","",""
"null","../img/tt/296tt.jpg","null","mooney2","image-keyboard-response","74","471650","0.0-6.0-5.9","2821009","co37663","norming","","","","","","",""
"2830.3049999995274","","","post_reveal_questions","survey-likert","75","474483","0.0-6.0-6.9","2821009","co37663","norming","","","{""aha"":4}","[0]","../img/tt/296tt.jpg","",""
"null","<div style=""font-size:60px;""> </div>","null","fixation","html-keyboard-response","76","474694","0.0-6.0-0.10","2821009","co37663","norming","","","","","","",""
"null","../img/tt/307tt.jpg","null","mooney1","image-keyboard-response","77","477697","0.0-6.0-1.10","2821009","co37663","norming","","","","","","",""
"5014.934999999241","","","post_mooney1_questions","survey-likert","78","482715","0.0-6.0-2.10","2821009","co37663","norming","","","{""curiosity"":3,""confidence"":0}","[0,1]","../img/tt/307tt.jpg","",""
"950.0250000001397","","","recognition","survey-text","79","483666","0.0-6.0-3.10","2821009","co37663","norming","","","{""guess"":""""}","","../img/tt/307tt.jpg","",""
"null","../img/gs/307gs.jpg","null","reveal","image-keyboard-response","80","485672","0.0-6.0-4.10","2821009","co37663","norming","","","","","","",""
"null","../img/tt/307tt.jpg","null","mooney2","image-keyboard-response","81","487674","0.0-6.0-5.10","2821009","co37663","norming","","","","","","",""
"2374.8599999998696","","","post_reveal_questions","survey-likert","82","490051","0.0-6.0-6.10","2821009","co37663","norming","","","{""aha"":4}","[0]","../img/tt/307tt.jpg","",""
"null","<div style=""font-size:60px;""> </div>","null","fixation","html-keyboard-response","83","490254","0.0-6.0-0.11","2821009","co37663","norming","","","","","","",""
"null","../img/tt/1278tt.jpg","null","mooney1","image-keyboard-response","84","493262","0.0-6.0-1.11","2821009","co37663","norming","","","","","","",""
"4794.1050000008545","","","post_mooney1_questions","survey-likert","85","498059","0.0-6.0-2.11","2821009","co37663","norming","","","{""curiosity"":4,""confidence"":0}","[0,1]","../img/tt/1278tt.jpg","",""
"558.3249999999534","","","recognition","survey-text","86","498618","0.0-6.0-3.11","2821009","co37663","norming","","","{""guess"":""""}","","../img/tt/1278tt.jpg","",""
"null","../img/gs/1278gs.jpg","null","reveal","image-keyboard-response","87","500620","0.0-6.0-4.11","2821009","co37663","norming","","","","","","",""
"null","../img/tt/1278tt.jpg","null","mooney2","image-keyboard-response","88","502622","0.0-6.0-5.11","2821009","co37663","norming","","","","","","",""
"2251.094999999623","","","post_reveal_questions","survey-likert","89","504875","0.0-6.0-6.11","2821009","co37663","norming","","","{""aha"":0}","[0]","../img/tt/1278tt.jpg","",""
"null","<div style=""font-size:60px;""> </div>","null","fixation","html-keyboard-response","90","505076","0.0-6.0-0.12","2821009","co37663","norming","","","","","","",""
"null","../img/tt/435tt.jpg","null","mooney1","image-keyboard-response","91","508088","0.0-6.0-1.12","2821009","co37663","norming","","","","","","",""
"3656.485000001325","","","post_mooney1_questions","survey-likert","92","511747","0.0-6.0-2.12","2821009","co37663","norming","","","{""curiosity"":6,""confidence"":0}","[0,1]","../img/tt/435tt.jpg","",""
"1014.1100000000442","","","recognition","survey-text","93","512763","0.0-6.0-3.12","2821009","co37663","norming","","","{""guess"":""""}","","../img/tt/435tt.jpg","",""
"null","../img/gs/435gs.jpg","null","reveal","image-keyboard-response","94","514764","0.0-6.0-4.12","2821009","co37663","norming","","","","","","",""
"null","../img/tt/435tt.jpg","null","mooney2","image-keyboard-response","95","516768","0.0-6.0-5.12","2821009","co37663","norming","","","","","","",""
"1896.3949999997276","","","post_reveal_questions","survey-likert","96","518671","0.0-6.0-6.12","2821009","co37663","norming","","","{""aha"":6}","[0]","../img/tt/435tt.jpg","",""
"null","<div style=""font-size:60px;""> </div>","null","fixation","html-keyboard-response","97","518881","0.0-6.0-0.13","2821009","co37663","norming","","","","","","",""
"null","../img/tt/1227tt.jpg","null","mooney1","image-keyboard-response","98","521887","0.0-6.0-1.13","2821009","co37663","norming","","","","","","",""
"4765.214999999385","","","post_mooney1_questions","survey-likert","99","526655","0.0-6.0-2.13","2821009","co37663","norming","","","{""curiosity"":4,""confidence"":2}","[0,1]","../img/tt/1227tt.jpg","",""
"2853.865000000922","","","recognition","survey-text","100","529511","0.0-6.0-3.13","2821009","co37663","norming","","","{""guess"":""schaap""}","","../img/tt/1227tt.jpg","",""
"null","../img/gs/1227gs.jpg","null","reveal","image-keyboard-response","101","531515","0.0-6.0-4.13","2821009","co37663","norming","","","","","","",""
"null","../img/tt/1227tt.jpg","null","mooney2","image-keyboard-response","102","533525","0.0-6.0-5.13","2821009","co37663","norming","","","","","","",""
"2841.325000001234","","","post_reveal_questions","survey-likert","103","536367","0.0-6.0-6.13","2821009","co37663","norming","","","{""aha"":2}","[0]","../img/tt/1227tt.jpg","",""
"null","<div style=""font-size:60px;""> </div>","null","fixation","html-keyboard-response","104","536571","0.0-6.0-0.14","2821009","co37663","norming","","","","","","",""
"null","../img/tt/052tt.jpg","null","mooney1","image-keyboard-response","105","539580","0.0-6.0-1.14","2821009","co37663","norming","","","","","","",""
"8681.844999999157","","","post_mooney1_questions","survey-likert","106","548263","0.0-6.0-2.14","2821009","co37663","norming","","","{""curiosity"":5,""confidence"":4}","[0,1]","../img/tt/052tt.jpg","",""
"3349.9550000014715","","","recognition","survey-text","107","551615","0.0-6.0-3.14","2821009","co37663","norming","","","{""guess"":""trommel""}","","../img/tt/052tt.jpg","",""
"null","../img/gs/052gs.jpg","null","reveal","image-keyboard-response","108","553620","0.0-6.0-4.14","2821009","co37663","norming","","","","","","",""
"null","../img/tt/052tt.jpg","null","mooney2","image-keyboard-response","109","555621","0.0-6.0-5.14","2821009","co37663","norming","","","","","","",""
"1656.0750000007683","","","post_reveal_questions","survey-likert","110","557279","0.0-6.0-6.14","2821009","co37663","norming","","","{""aha"":2}","[0]","../img/tt/052tt.jpg","",""
"null","<div style=""font-size:60px;""> </div>","null","fixation","html-keyboard-response","111","557485","0.0-6.0-0.15","2821009","co37663","norming","","","","","","",""
"null","../img/tt/380tt.jpg","null","mooney1","image-keyboard-response","112","560490","0.0-6.0-1.15","2821009","co37663","norming","","","","","","",""
"4674.790000000969","","","post_mooney1_questions","survey-likert","113","565167","0.0-6.0-2.15","2821009","co37663","norming","","","{""curiosity"":5,""confidence"":4}","[0,1]","../img/tt/380tt.jpg","",""
"4005.930000001099","","","recognition","survey-text","114","569175","0.0-6.0-3.15","2821009","co37663","norming","","","{""guess"":""koala""}","","../img/tt/380tt.jpg","",""
"null","../img/gs/380gs.jpg","null","reveal","image-keyboard-response","115","571186","0.0-6.0-4.15","2821009","co37663","norming","","","","","","",""
"null","../img/tt/380tt.jpg","null","mooney2","image-keyboard-response","116","573188","0.0-6.0-5.15","2821009","co37663","norming","","","","","","",""
"2432.824999999837","","","post_reveal_questions","survey-likert","117","575623","0.0-6.0-6.15","2821009","co37663","norming","","","{""aha"":4}","[0]","../img/tt/380tt.jpg","",""
"null","<div style=""font-size:60px;""> </div>","null","fixation","html-keyboard-response","118","575826","0.0-6.0-0.16","2821009","co37663","norming","","","","","","",""
"null","../img/tt/315tt.jpg","null","mooney1","image-keyboard-response","119","578830","0.0-6.0-1.16","2821009","co37663","norming","","","","","","",""
"5229.290000001085","","","post_mooney1_questions","survey-likert","120","584064","0.0-6.0-2.16","2821009","co37663","norming","","","{""curiosity"":2,""confidence"":2}","[0,1]","../img/tt/315tt.jpg","",""
"6438.139999998384","","","recognition","survey-text","121","590504","0.0-6.0-3.16","2821009","co37663","norming","","","{""guess"":""vogel""}","","../img/tt/315tt.jpg","",""
"null","../img/gs/315gs.jpg","null","reveal","image-keyboard-response","122","592508","0.0-6.0-4.16","2821009","co37663","norming","","","","","","",""
"null","../img/tt/315tt.jpg","null","mooney2","image-keyboard-response","123","594510","0.0-6.0-5.16","2821009","co37663","norming","","","","","","",""
"1815.0900000000838","","","post_reveal_questions","survey-likert","124","596328","0.0-6.0-6.16","2821009","co37663","norming","","","{""aha"":0}","[0]","../img/tt/315tt.jpg","",""
"null","<div style=""font-size:60px;""> </div>","null","fixation","html-keyboard-response","125","596530","0.0-6.0-0.17","2821009","co37663","norming","","","","","","",""
"null","../img/tt/1128tt.jpg","null","mooney1","image-keyboard-response","126","599535","0.0-6.0-1.17","2821009","co37663","norming","","","","","","",""
"4151.605000000913","","","post_mooney1_questions","survey-likert","127","603688","0.0-6.0-2.17","2821009","co37663","norming","","","{""curiosity"":5,""confidence"":0}","[0,1]","../img/tt/1128tt.jpg","",""
"582.139999998617","","","recognition","survey-text","128","604272","0.0-6.0-3.17","2821009","co37663","norming","","","{""guess"":""""}","","../img/tt/1128tt.jpg","",""
"null","../img/gs/1128gs.jpg","null","reveal","image-keyboard-response","129","606282","0.0-6.0-4.17","2821009","co37663","norming","","","","","","",""
"null","../img/tt/1128tt.jpg","null","mooney2","image-keyboard-response","130","608284","0.0-6.0-5.17","2821009","co37663","norming","","","","","","",""
"2449.13999999885","","","post_reveal_questions","survey-likert","131","610736","0.0-6.0-6.17","2821009","co37663","norming","","","{""aha"":4}","[0]","../img/tt/1128tt.jpg","",""
"null","<div style=""font-size:60px;""> </div>","null","fixation","html-keyboard-response","132","610944","0.0-6.0-0.18","2821009","co37663","norming","","","","","","",""
"null","../img/tt/1202tt.jpg","null","mooney1","image-keyboard-response","133","613952","0.0-6.0-1.18","2821009","co37663","norming","","","","","","",""
"4613.339999999851","","","post_mooney1_questions","survey-likert","134","618568","0.0-6.0-2.18","2821009","co37663","norming","","","{""curiosity"":1,""confidence"":0}","[0,1]","../img/tt/1202tt.jpg","",""
"853.849999999511","","","recognition","survey-text","135","619423","0.0-6.0-3.18","2821009","co37663","norming","","","{""guess"":""""}","","../img/tt/1202tt.jpg","",""
"null","../img/gs/1202gs.jpg","null","reveal","image-keyboard-response","136","621424","0.0-6.0-4.18","2821009","co37663","norming","","","","","","",""
"null","../img/tt/1202tt.jpg","null","mooney2","image-keyboard-response","137","623427","0.0-6.0-5.18","2821009","co37663","norming","","","","","","",""
"1610.5299999999115","","","post_reveal_questions","survey-likert","138","625040","0.0-6.0-6.18","2821009","co37663","norming","","","{""aha"":0}","[0]","../img/tt/1202tt.jpg","",""
"null","<div style=""font-size:60px;""> </div>","null","fixation","html-keyboard-response","139","625248","0.0-6.0-0.19","2821009","co37663","norming","","","","","","",""
"null","../img/tt/378tt.jpg","null","mooney1","image-keyboard-response","140","628253","0.0-6.0-1.19","2821009","co37663","norming","","","","","","",""
"3784.004999999539","","","post_mooney1_questions","survey-likert","141","632040","0.0-6.0-2.19","2821009","co37663","norming","","","{""curiosity"":1,""confidence"":0}","[0,1]","../img/tt/378tt.jpg","",""
"917.9850000001024","","","recognition","survey-text","142","632960","0.0-6.0-3.19","2821009","co37663","norming","","","{""guess"":""""}","","../img/tt/378tt.jpg","",""
"null","../img/gs/378gs.jpg","null","reveal","image-keyboard-response","143","634963","0.0-6.0-4.19","2821009","co37663","norming","","","","","","",""
"null","../img/tt/378tt.jpg","null","mooney2","image-keyboard-response","144","636973","0.0-6.0-5.19","2821009","co37663","norming","","","","","","",""
"1456.8200000012293","","","post_reveal_questions","survey-likert","145","638432","0.0-6.0-6.19","2821009","co37663","norming","","","{""aha"":4}","[0]","../img/tt/378tt.jpg","",""
"null","<div style=""font-size:60px;""> </div>","null","fixation","html-keyboard-response","146","638638","0.0-6.0-0.20","2821009","co37663","norming","","","","","","",""
"null","../img/tt/1276tt.jpg","null","mooney1","image-keyboard-response","147","641645","0.0-6.0-1.20","2821009","co37663","norming","","","","","","",""
"3721.349999999744","","","post_mooney1_questions","survey-likert","148","645368","0.0-6.0-2.20","2821009","co37663","norming","","","{""curiosity"":4,""confidence"":0}","[0,1]","../img/tt/1276tt.jpg","",""
"726.0949999999721","","","recognition","survey-text","149","646096","0.0-6.0-3.20","2821009","co37663","norming","","","{""guess"":""""}","","../img/tt/1276tt.jpg","",""
"null","../img/gs/1276gs.jpg","null","reveal","image-keyboard-response","150","648103","0.0-6.0-4.20","2821009","co37663","norming","","","","","","",""
"null","../img/tt/1276tt.jpg","null","mooney2","image-keyboard-response","151","650105","0.0-6.0-5.20","2821009","co37663","norming","","","","","","",""
"1836.735000000801","","","post_reveal_questions","survey-likert","152","651944","0.0-6.0-6.20","2821009","co37663","norming","","","{""aha"":1}","[0]","../img/tt/1276tt.jpg","",""
"null","<div style=""font-size:60px;""> </div>","null","fixation","html-keyboard-response","153","652152","0.0-6.0-0.21","2821009","co37663","norming","","","","","","",""
"null","../img/tt/1251tt.jpg","null","mooney1","image-keyboard-response","154","655159","0.0-6.0-1.21","2821009","co37663","norming","","","","","","",""
"6398.540000000154","","","post_mooney1_questions","survey-likert","155","661560","0.0-6.0-2.21","2821009","co37663","norming","","","{""curiosity"":5,""confidence"":1}","[0,1]","../img/tt/1251tt.jpg","",""
"3037.920000000624","","","recognition","survey-text","156","664600","0.0-6.0-3.21","2821009","co37663","norming","","","{""guess"":""panda""}","","../img/tt/1251tt.jpg","",""
"null","../img/gs/1251gs.jpg","null","reveal","image-keyboard-response","157","666602","0.0-6.0-4.21","2821009","co37663","norming","","","","","","",""
"null","../img/tt/1251tt.jpg","null","mooney2","image-keyboard-response","158","668605","0.0-6.0-5.21","2821009","co37663","norming","","","","","","",""
"4041.2299999989336","","","post_reveal_questions","survey-likert","159","672648","0.0-6.0-6.21","2821009","co37663","norming","","","{""aha"":2}","[0]","../img/tt/1251tt.jpg","",""
"null","<div style=""font-size:60px;""> </div>","null","fixation","html-keyboard-response","160","672852","0.0-6.0-0.22","2821009","co37663","norming","","","","","","",""
"null","../img/tt/1078tt.jpg","null","mooney1","image-keyboard-response","161","675855","0.0-6.0-1.22","2821009","co37663","norming","","","","","","",""
"5175.769999999902","","","post_mooney1_questions","survey-likert","162","681032","0.0-6.0-2.22","2821009","co37663","norming","","","{""curiosity"":6,""confidence"":1}","[0,1]","../img/tt/1078tt.jpg","",""
"4334.109999999753","","","recognition","survey-text","163","685368","0.0-6.0-3.22","2821009","co37663","norming","","","{""guess"":""voetbal""}","","../img/tt/1078tt.jpg","",""
"null","../img/gs/1078gs.jpg","null","reveal","image-keyboard-response","164","687373","0.0-6.0-4.22","2821009","co37663","norming","","","","","","",""
"null","../img/tt/1078tt.jpg","null","mooney2","image-keyboard-response","165","689381","0.0-6.0-5.22","2821009","co37663","norming","","","","","","",""
"1976.4500000000698","","","post_reveal_questions","survey-likert","166","691360","0.0-6.0-6.22","2821009","co37663","norming","","","{""aha"":4}","[0]","../img/tt/1078tt.jpg","",""
"null","<div style=""font-size:60px;""> </div>","null","fixation","html-keyboard-response","167","691564","0.0-6.0-0.23","2821009","co37663","norming","","","","","","",""
"null","../img/tt/580tt.jpg","null","mooney1","image-keyboard-response","168","694566","0.0-6.0-1.23","2821009","co37663","norming","","","","","","",""
"4159.030000000726","","","post_mooney1_questions","survey-likert","169","698728","0.0-6.0-2.23","2821009","co37663","norming","","","{""curiosity"":4,""confidence"":0}","[0,1]","../img/tt/580tt.jpg","",""
"630.1400000010617","","","recognition","survey-text","170","699360","0.0-6.0-3.23","2821009","co37663","norming","","","{""guess"":""""}","","../img/tt/580tt.jpg","",""
"null","../img/gs/580gs.jpg","null","reveal","image-keyboard-response","171","701367","0.0-6.0-4.23","2821009","co37663","norming","","","","","","",""
"null","../img/tt/580tt.jpg","null","mooney2","image-keyboard-response","172","703378","0.0-6.0-5.23","2821009","co37663","norming","","","","","","",""
"3276.2150000017136","","","post_reveal_questions","survey-likert","173","706656","0.0-6.0-6.23","2821009","co37663","norming","","","{""aha"":1}","[0]","../img/tt/580tt.jpg","",""
"null","<div style=""font-size:60px;""> </div>","null","fixation","html-keyboard-response","174","706865","0.0-6.0-0.24","2821009","co37663","norming","","","","","","",""
"null","../img/tt/1142tt.jpg","null","mooney1","image-keyboard-response","175","709872","0.0-6.0-1.24","2821009","co37663","norming","","","","","","",""
"3781.915000001318","","","post_mooney1_questions","survey-likert","176","713656","0.0-6.0-2.24","2821009","co37663","norming","","","{""curiosity"":5,""confidence"":1}","[0,1]","../img/tt/1142tt.jpg","",""
"7454.109999998822","","","recognition","survey-text","177","721112","0.0-6.0-3.24","2821009","co37663","norming","","","{""guess"":""""}","","../img/tt/1142tt.jpg","",""
"null","../img/gs/1142gs.jpg","null","reveal","image-keyboard-response","178","723116","0.0-6.0-4.24","2821009","co37663","norming","","","","","","",""
"null","../img/tt/1142tt.jpg","null","mooney2","image-keyboard-response","179","725118","0.0-6.0-5.24","2821009","co37663","norming","","","","","","",""
"2886.2850000004983","","","post_reveal_questions","survey-likert","180","728008","0.0-6.0-6.24","2821009","co37663","norming","","","{""aha"":4}","[0]","../img/tt/1142tt.jpg","",""
"null","<div style=""font-size:60px;""> </div>","null","fixation","html-keyboard-response","181","728211","0.0-6.0-0.25","2821009","co37663","norming","","","","","","",""
"null","../img/tt/329tt.jpg","null","mooney1","image-keyboard-response","182","731216","0.0-6.0-1.25","2821009","co37663","norming","","","","","","",""
"5669.894999999087","","","post_mooney1_questions","survey-likert","183","736888","0.0-6.0-2.25","2821009","co37663","norming","","","{""curiosity"":4,""confidence"":1}","[0,1]","../img/tt/329tt.jpg","",""
"5214.205000000191","","","recognition","survey-text","184","742104","0.0-6.0-3.25","2821009","co37663","norming","","","{""guess"":""kreeft""}","","../img/tt/329tt.jpg","",""
"null","../img/gs/329gs.jpg","null","reveal","image-keyboard-response","185","744105","0.0-6.0-4.25","2821009","co37663","norming","","","","","","",""
"null","../img/tt/329tt.jpg","null","mooney2","image-keyboard-response","186","746116","0.0-6.0-5.25","2821009","co37663","norming","","","","","","",""
"2314.130000000703","","","post_reveal_questions","survey-likert","187","748432","0.0-6.0-6.25","2821009","co37663","norming","","","{""aha"":4}","[0]","../img/tt/329tt.jpg","",""
"null","<div style=""font-size:60px;""> </div>","null","fixation","html-keyboard-response","188","748636","0.0-6.0-0.26","2821009","co37663","norming","","","","","","",""
"null","../img/tt/094tt.jpg","null","mooney1","image-keyboard-response","189","751646","0.0-6.0-1.26","2821009","co37663","norming","","","","","","",""
"4624.429999999935","","","post_mooney1_questions","survey-likert","190","756272","0.0-6.0-2.26","2821009","co37663","norming","","","{""curiosity"":4,""confidence"":2}","[0,1]","../img/tt/094tt.jpg","",""
"2550.22000000102","","","recognition","survey-text","191","758824","0.0-6.0-3.26","2821009","co37663","norming","","","{""guess"":""koe""}","","../img/tt/094tt.jpg","",""
"null","../img/gs/094gs.jpg","null","reveal","image-keyboard-response","192","760830","0.0-6.0-4.26","2821009","co37663","norming","","","","","","",""
"null","../img/tt/094tt.jpg","null","mooney2","image-keyboard-response","193","762832","0.0-6.0-5.26","2821009","co37663","norming","","","","","","",""
"2598.3250000008848","","","post_reveal_questions","survey-likert","194","765426","0.0-6.0-6.26","2821009","co37663","norming","","","{""aha"":1}","[0]","../img/tt/094tt.jpg","",""
"null","<div style=""font-size:60px;""> </div>","null","fixation","html-keyboard-response","195","765631","0.0-6.0-0.27","2821009","co37663","norming","","","","","","",""
"null","../img/tt/1190tt.jpg","null","mooney1","image-keyboard-response","196","768641","0.0-6.0-1.27","2821009","co37663","norming","","","","","","",""
"4350.039999999339","","","post_mooney1_questions","survey-likert","197","772994","0.0-6.0-2.27","2821009","co37663","norming","","","{""curiosity"":1,""confidence"":0}","[0,1]","../img/tt/1190tt.jpg","",""
"750.0950000012526","","","recognition","survey-text","198","773746","0.0-6.0-3.27","2821009","co37663","norming","","","{""guess"":""""}","","../img/tt/1190tt.jpg","",""
"null","../img/gs/1190gs.jpg","null","reveal","image-keyboard-response","199","775752","0.0-6.0-4.27","2821009","co37663","norming","","","","","","",""
"null","../img/tt/1190tt.jpg","null","mooney2","image-keyboard-response","200","777760","0.0-6.0-5.27","2821009","co37663","norming","","","","","","",""
"2695.4949999999953","","","post_reveal_questions","survey-likert","201","780458","0.0-6.0-6.27","2821009","co37663","norming","","","{""aha"":2}","[0]","../img/tt/1190tt.jpg","",""
"null","<div style=""font-size:60px;""> </div>","null","fixation","html-keyboard-response","202","780666","0.0-6.0-0.28","2821009","co37663","norming","","","","","","",""
"null","../img/tt/124tt.jpg","null","mooney1","image-keyboard-response","203","783678","0.0-6.0-1.28","2821009","co37663","norming","","","","","","",""
"3688.729999999865","","","post_mooney1_questions","survey-likert","204","787370","0.0-6.0-2.28","2821009","co37663","norming","","","{""curiosity"":5,""confidence"":4}","[0,1]","../img/tt/124tt.jpg","",""
"2718.4249999991152","","","recognition","survey-text","205","790090","0.0-6.0-3.28","2821009","co37663","norming","","","{""guess"":""panda""}","","../img/tt/124tt.jpg","",""
"null","../img/gs/124gs.jpg","null","reveal","image-keyboard-response","206","792098","0.0-6.0-4.28","2821009","co37663","norming","","","","","","",""
"null","../img/tt/124tt.jpg","null","mooney2","image-keyboard-response","207","794109","0.0-6.0-5.28","2821009","co37663","norming","","","","","","",""
"3698.534999999567","","","post_reveal_questions","survey-likert","208","797810","0.0-6.0-6.28","2821009","co37663","norming","","","{""aha"":1}","[0]","../img/tt/124tt.jpg","",""
"null","<div style=""font-size:60px;""> </div>","null","fixation","html-keyboard-response","209","798019","0.0-6.0-0.29","2821009","co37663","norming","","","","","","",""
"null","../img/tt/1012tt.jpg","null","mooney1","image-keyboard-response","210","801024","0.0-6.0-1.29","2821009","co37663","norming","","","","","","",""
"3383.5899999993853","","","post_mooney1_questions","survey-likert","211","804410","0.0-6.0-2.29","2821009","co37663","norming","","","{""curiosity"":4,""confidence"":1}","[0,1]","../img/tt/1012tt.jpg","",""
"2558.385000000242","","","recognition","survey-text","212","806970","0.0-6.0-3.29","2821009","co37663","norming","","","{""guess"":""paard""}","","../img/tt/1012tt.jpg","",""
"null","../img/gs/1012gs.jpg","null","reveal","image-keyboard-response","213","808980","0.0-6.0-4.29","2821009","co37663","norming","","","","","","",""
"null","../img/tt/1012tt.jpg","null","mooney2","image-keyboard-response","214","810983","0.0-6.0-5.29","2821009","co37663","norming","","","","","","",""
"2000.879999999539","","","post_reveal_questions","survey-likert","215","812986","0.0-6.0-6.29","2821009","co37663","norming","","","{""aha"":2}","[0]","../img/tt/1012tt.jpg","",""
"null","<div style=""font-size:60px;""> </div>","null","fixation","html-keyboard-response","216","813192","0.0-6.0-0.30","2821009","co37663","norming","","","","","","",""
"null","../img/tt/306tt.jpg","null","mooney1","image-keyboard-response","217","816201","0.0-6.0-1.30","2821009","co37663","norming","","","","","","",""
"5863.924999999581","","","post_mooney1_questions","survey-likert","218","822066","0.0-6.0-2.30","2821009","co37663","norming","","","{""curiosity"":1,""confidence"":0}","[0,1]","../img/tt/306tt.jpg","",""
"733.9900000005728","","","recognition","survey-text","219","822802","0.0-6.0-3.30","2821009","co37663","norming","","","{""guess"":""""}","","../img/tt/306tt.jpg","",""
"null","../img/gs/306gs.jpg","null","reveal","image-keyboard-response","220","824810","0.0-6.0-4.30","2821009","co37663","norming","","","","","","",""
"null","../img/tt/306tt.jpg","null","mooney2","image-keyboard-response","221","826812","0.0-6.0-5.30","2821009","co37663","norming","","","","","","",""
"1873.870000001276","","","post_reveal_questions","survey-likert","222","828688","0.0-6.0-6.30","2821009","co37663","norming","","","{""aha"":2}","[0]","../img/tt/306tt.jpg","",""
"null","<div style=""font-size:60px;""> </div>","null","fixation","html-keyboard-response","223","828899","0.0-6.0-0.31","2821009","co37663","norming","","","","","","",""
"null","../img/tt/438tt.jpg","null","mooney1","image-keyboard-response","224","831903","0.0-6.0-1.31","2821009","co37663","norming","","","","","","",""
"4431.264999999199","","","post_mooney1_questions","survey-likert","225","836337","0.0-6.0-2.31","2821009","co37663","norming","","","{""curiosity"":4,""confidence"":0}","[0,1]","../img/tt/438tt.jpg","",""
"741.9050000007264","","","recognition","survey-text","226","837080","0.0-6.0-3.31","2821009","co37663","norming","","","{""guess"":""""}","","../img/tt/438tt.jpg","",""
"null","../img/gs/438gs.jpg","null","reveal","image-keyboard-response","227","839087","0.0-6.0-4.31","2821009","co37663","norming","","","","","","",""
"null","../img/tt/438tt.jpg","null","mooney2","image-keyboard-response","228","841091","0.0-6.0-5.31","2821009","co37663","norming","","","","","","",""
"3098.744999999297","","","post_reveal_questions","survey-likert","229","844193","0.0-6.0-6.31","2821009","co37663","norming","","","{""aha"":4}","[0]","../img/tt/438tt.jpg","",""
"null","<div style=""font-size:60px;""> </div>","null","fixation","html-keyboard-response","230","844397","0.0-6.0-0.32","2821009","co37663","norming","","","","","","",""
"null","../img/tt/507tt.jpg","null","mooney1","image-keyboard-response","231","847406","0.0-6.0-1.32","2821009","co37663","norming","","","","","","",""
"3822.455000001355","","","post_mooney1_questions","survey-likert","232","851233","0.0-6.0-2.32","2821009","co37663","norming","","","{""curiosity"":4,""confidence"":2}","[0,1]","../img/tt/507tt.jpg","",""
"2317.9450000006473","","","recognition","survey-text","233","853552","0.0-6.0-3.32","2821009","co37663","norming","","","{""guess"":""dansen""}","","../img/tt/507tt.jpg","",""
"null","../img/gs/507gs.jpg","null","reveal","image-keyboard-response","234","855555","0.0-6.0-4.32","2821009","co37663","norming","","","","","","",""
"null","../img/tt/507tt.jpg","null","mooney2","image-keyboard-response","235","857562","0.0-6.0-5.32","2821009","co37663","norming","","","","","","",""
"3622.199999999837","","","post_reveal_questions","survey-likert","236","861185","0.0-6.0-6.32","2821009","co37663","norming","","","{""aha"":2}","[0]","../img/tt/507tt.jpg","",""
"null","<div style=""font-size:60px;""> </div>","null","fixation","html-keyboard-response","237","861390","0.0-6.0-0.33","2821009","co37663","norming","","","","","","",""
"null","../img/tt/1070tt.jpg","null","mooney1","image-keyboard-response","238","864397","0.0-6.0-1.33","2821009","co37663","norming","","","","","","",""
"3552.7099999999627","","","post_mooney1_questions","survey-likert","239","867953","0.0-6.0-2.33","2821009","co37663","norming","","","{""curiosity"":5,""confidence"":0}","[0,1]","../img/tt/1070tt.jpg","",""
"637.9500000003027","","","recognition","survey-text","240","868593","0.0-6.0-3.33","2821009","co37663","norming","","","{""guess"":""""}","","../img/tt/1070tt.jpg","",""
"null","../img/gs/1070gs.jpg","null","reveal","image-keyboard-response","241","870596","0.0-6.0-4.33","2821009","co37663","norming","","","","","","",""
"null","../img/tt/1070tt.jpg","null","mooney2","image-keyboard-response","242","872600","0.0-6.0-5.33","2821009","co37663","norming","","","","","","",""
"3062.7750000003725","","","post_reveal_questions","survey-likert","243","875665","0.0-6.0-6.33","2821009","co37663","norming","","","{""aha"":4}","[0]","../img/tt/1070tt.jpg","",""
"null","<div style=""font-size:60px;""> </div>","null","fixation","html-keyboard-response","244","875871","0.0-6.0-0.34","2821009","co37663","norming","","","","","","",""
"null","../img/tt/1247tt.jpg","null","mooney1","image-keyboard-response","245","878882","0.0-6.0-1.34","2821009","co37663","norming","","","","","","",""
"7067.469999999972","","","post_mooney1_questions","survey-likert","246","885953","0.0-6.0-2.34","2821009","co37663","norming","","","{""curiosity"":3,""confidence"":0}","[0,1]","../img/tt/1247tt.jpg","",""
"621.9199999995762","","","recognition","survey-text","247","886576","0.0-6.0-3.34","2821009","co37663","norming","","","{""guess"":""""}","","../img/tt/1247tt.jpg","",""
"null","../img/gs/1247gs.jpg","null","reveal","image-keyboard-response","248","888587","0.0-6.0-4.34","2821009","co37663","norming","","","","","","",""
"null","../img/tt/1247tt.jpg","null","mooney2","image-keyboard-response","249","890591","0.0-6.0-5.34","2821009","co37663","norming","","","","","","",""
"4407.615000000107","","","post_reveal_questions","survey-likert","250","895001","0.0-6.0-6.34","2821009","co37663","norming","","","{""aha"":0}","[0]","../img/tt/1247tt.jpg","",""
"null","<div style=""font-size:60px;""> </div>","null","fixation","html-keyboard-response","251","895207","0.0-6.0-0.35","2821009","co37663","norming","","","","","","",""
"null","../img/tt/1063tt.jpg","null","mooney1","image-keyboard-response","252","898218","0.0-6.0-1.35","2821009","co37663","norming","","","","","","",""
"5563.819999999483","","","post_mooney1_questions","survey-likert","253","903785","0.0-6.0-2.35","2821009","co37663","norming","","","{""curiosity"":4,""confidence"":0}","[0,1]","../img/tt/1063tt.jpg","",""
"813.7549999991897","","","recognition","survey-text","254","904600","0.0-6.0-3.35","2821009","co37663","norming","","","{""guess"":""""}","","../img/tt/1063tt.jpg","",""
"null","../img/gs/1063gs.jpg","null","reveal","image-keyboard-response","255","906603","0.0-6.0-4.35","2821009","co37663","norming","","","","","","",""
"null","../img/tt/1063tt.jpg","null","mooney2","image-keyboard-response","256","908605","0.0-6.0-5.35","2821009","co37663","norming","","","","","","",""
"3289.235000000219","","","post_reveal_questions","survey-likert","257","911896","0.0-6.0-6.35","2821009","co37663","norming","","","{""aha"":5}","[0]","../img/tt/1063tt.jpg","",""
"null","<div style=""font-size:60px;""> </div>","null","fixation","html-keyboard-response","258","912106","0.0-6.0-0.36","2821009","co37663","norming","","","","","","",""
"null","../img/tt/522tt.jpg","null","mooney1","image-keyboard-response","259","915115","0.0-6.0-1.36","2821009","co37663","norming","","","","","","",""
"6163.259999999427","","","post_mooney1_questions","survey-likert","260","921281","0.0-6.0-2.36","2821009","co37663","norming","","","{""curiosity"":5,""confidence"":1}","[0,1]","../img/tt/522tt.jpg","",""
"3173.820000000065","","","recognition","survey-text","261","924456","0.0-6.0-3.36","2821009","co37663","norming","","","{""guess"":""poes""}","","../img/tt/522tt.jpg","",""
"null","../img/gs/522gs.jpg","null","reveal","image-keyboard-response","262","926467","0.0-6.0-4.36","2821009","co37663","norming","","","","","","",""
"null","../img/tt/522tt.jpg","null","mooney2","image-keyboard-response","263","928477","0.0-6.0-5.36","2821009","co37663","norming","","","","","","",""
"2938.5950000014855","","","post_reveal_questions","survey-likert","264","931416","0.0-6.0-6.36","2821009","co37663","norming","","","{""aha"":3}","[0]","../img/tt/522tt.jpg","",""
"null","<div style=""font-size:60px;""> </div>","null","fixation","html-keyboard-response","265","931625","0.0-6.0-0.37","2821009","co37663","norming","","","","","","",""
"null","../img/tt/412tt.jpg","null","mooney1","image-keyboard-response","266","934626","0.0-6.0-1.37","2821009","co37663","norming","","","","","","",""
"4108.729999999981","","","post_mooney1_questions","survey-likert","267","938736","0.0-6.0-2.37","2821009","co37663","norming","","","{""curiosity"":4,""confidence"":0}","[0,1]","../img/tt/412tt.jpg","",""
"957.6100000012666","","","recognition","survey-text","268","939696","0.0-6.0-3.37","2821009","co37663","norming","","","{""guess"":""""}","","../img/tt/412tt.jpg","",""
"null","../img/gs/412gs.jpg","null","reveal","image-keyboard-response","269","941706","0.0-6.0-4.37","2821009","co37663","norming","","","","","","",""
"null","../img/tt/412tt.jpg","null","mooney2","image-keyboard-response","270","943708","0.0-6.0-5.37","2821009","co37663","norming","","","","","","",""
"2403.259999999078","","","post_reveal_questions","survey-likert","271","946109","0.0-6.0-6.37","2821009","co37663","norming","","","{""aha"":0}","[0]","../img/tt/412tt.jpg","",""
"null","<div style=""font-size:60px;""> </div>","null","fixation","html-keyboard-response","272","946319","0.0-6.0-0.38","2821009","co37663","norming","","","","","","",""
"null","../img/tt/273tt.jpg","null","mooney1","image-keyboard-response","273","949321","0.0-6.0-1.38","2821009","co37663","norming","","","","","","",""
"10859.135000000591","","","post_mooney1_questions","survey-likert","274","960181","0.0-6.0-2.38","2821009","co37663","norming","","","{""curiosity"":4,""confidence"":1}","[0,1]","../img/tt/273tt.jpg","",""
"8686.045000000391","","","recognition","survey-text","275","968869","0.0-6.0-3.38","2821009","co37663","norming","","","{""guess"":""jongen""}","","../img/tt/273tt.jpg","",""
"null","../img/gs/273gs.jpg","null","reveal","image-keyboard-response","276","970876","0.0-6.0-4.38","2821009","co37663","norming","","","","","","",""
"null","../img/tt/273tt.jpg","null","mooney2","image-keyboard-response","277","972878","0.0-6.0-5.38","2821009","co37663","norming","","","","","","",""
"5043.0449999985285","","","post_reveal_questions","survey-likert","278","977925","0.0-6.0-6.38","2821009","co37663","norming","","","{""aha"":1}","[0]","../img/tt/273tt.jpg","",""
"null","<div style=""font-size:60px;""> </div>","null","fixation","html-keyboard-response","279","978127","0.0-6.0-0.39","2821009","co37663","norming","","","","","","",""
"null","../img/tt/111tt.jpg","null","mooney1","image-keyboard-response","280","981138","0.0-6.0-1.39","2821009","co37663","norming","","","","","","",""
"6968.145000000717","","","post_mooney1_questions","survey-likert","281","988109","0.0-6.0-2.39","2821009","co37663","norming","","","{""curiosity"":4,""confidence"":4}","[0,1]","../img/tt/111tt.jpg","",""
"2222.1150000004563","","","recognition","survey-text","282","990333","0.0-6.0-3.39","2821009","co37663","norming","","","{""guess"":""telefoon""}","","../img/tt/111tt.jpg","",""
"null","../img/gs/111gs.jpg","null","reveal","image-keyboard-response","283","992340","0.0-6.0-4.39","2821009","co37663","norming","","","","","","",""
"null","../img/tt/111tt.jpg","null","mooney2","image-keyboard-response","284","994342","0.0-6.0-5.39","2821009","co37663","norming","","","","","","",""
"1741.029999999213","","","post_reveal_questions","survey-likert","285","996085","0.0-6.0-6.39","2821009","co37663","norming","","","{""aha"":4}","[0]","../img/tt/111tt.jpg","",""
"null","<div style=""font-size:60px;""> </div>","null","fixation","html-keyboard-response","286","996289","0.0-6.0-0.40","2821009","co37663","norming","","","","","","",""
"null","../img/tt/301tt.jpg","null","mooney1","image-keyboard-response","287","999300","0.0-6.0-1.40","2821009","co37663","norming","","","","","","",""
"3262.564999999129","","","post_mooney1_questions","survey-likert","288","1002565","0.0-6.0-2.40","2821009","co37663","norming","","","{""curiosity"":2,""confidence"":0}","[0,1]","../img/tt/301tt.jpg","",""
"862.0599999994738","","","recognition","survey-text","289","1003429","0.0-6.0-3.40","2821009","co37663","norming","","","{""guess"":""""}","","../img/tt/301tt.jpg","",""
"null","../img/gs/301gs.jpg","null","reveal","image-keyboard-response","290","1005433","0.0-6.0-4.40","2821009","co37663","norming","","","","","","",""
"null","../img/tt/301tt.jpg","null","mooney2","image-keyboard-response","291","1007440","0.0-6.0-5.40","2821009","co37663","norming","","","","","","",""
"3080.299999999581","","","post_reveal_questions","survey-likert","292","1010522","0.0-6.0-6.40","2821009","co37663","norming","","","{""aha"":2}","[0]","../img/tt/301tt.jpg","",""
"null","<div style=""font-size:60px;""> </div>","null","fixation","html-keyboard-response","293","1010731","0.0-6.0-0.41","2821009","co37663","norming","","","","","","",""
"null","../img/tt/1159tt.jpg","null","mooney1","image-keyboard-response","294","1013739","0.0-6.0-1.41","2821009","co37663","norming","","","","","","",""
"9181.044999999343","","","post_mooney1_questions","survey-likert","295","1022922","0.0-6.0-2.41","2821009","co37663","norming","","","{""curiosity"":4,""confidence"":0}","[0,1]","../img/tt/1159tt.jpg","",""
"1902.130000000354","","","recognition","survey-text","296","1024826","0.0-6.0-3.41","2821009","co37663","norming","","","{""guess"":""""}","","../img/tt/1159tt.jpg","",""
"null","../img/gs/1159gs.jpg","null","reveal","image-keyboard-response","297","1026829","0.0-6.0-4.41","2821009","co37663","norming","","","","","","",""
"null","../img/tt/1159tt.jpg","null","mooney2","image-keyboard-response","298","1028832","0.0-6.0-5.41","2821009","co37663","norming","","","","","","",""
"4040.0599999993574","","","post_reveal_questions","survey-likert","299","1032874","0.0-6.0-6.41","2821009","co37663","norming","","","{""aha"":1}","[0]","../img/tt/1159tt.jpg","",""
"null","<div style=""font-size:60px;""> </div>","null","fixation","html-keyboard-response","300","1033084","0.0-6.0-0.42","2821009","co37663","norming","","","","","","",""
"null","../img/tt/353tt.jpg","null","mooney1","image-keyboard-response","301","1036093","0.0-6.0-1.42","2821009","co37663","norming","","","","","","",""
"4658.789999999455","","","post_mooney1_questions","survey-likert","302","1040755","0.0-6.0-2.42","2821009","co37663","norming","","","{""curiosity"":4,""confidence"":2}","[0,1]","../img/tt/353tt.jpg","",""
"3005.914999999688","","","recognition","survey-text","303","1043762","0.0-6.0-3.42","2821009","co37663","norming","","","{""guess"":""konijn""}","","../img/tt/353tt.jpg","",""
"null","../img/gs/353gs.jpg","null","reveal","image-keyboard-response","304","1045770","0.0-6.0-4.42","2821009","co37663","norming","","","","","","",""
"null","../img/tt/353tt.jpg","null","mooney2","image-keyboard-response","305","1047772","0.0-6.0-5.42","2821009","co37663","norming","","","","","","",""
"3122.124999999767","","","post_reveal_questions","survey-likert","306","1050899","0.0-6.0-6.42","2821009","co37663","norming","","","{""aha"":5}","[0]","../img/tt/353tt.jpg","",""
"null","<div style=""font-size:60px;""> </div>","null","fixation","html-keyboard-response","307","1051107","0.0-6.0-0.43","2821009","co37663","norming","","","","","","",""
"null","../img/tt/1053tt.jpg","null","mooney1","image-keyboard-response","308","1054115","0.0-6.0-1.43","2821009","co37663","norming","","","","","","",""
"4652.110000000801","","","post_mooney1_questions","survey-likert","309","1058770","0.0-6.0-2.43","2821009","co37663","norming","","","{""curiosity"":1,""confidence"":0}","[0,1]","../img/tt/1053tt.jpg","",""
"1798.3700000005774","","","recognition","survey-text","310","1060570","0.0-6.0-3.43","2821009","co37663","norming","","","{""guess"":""""}","","../img/tt/1053tt.jpg","",""
"null","../img/gs/1053gs.jpg","null","reveal","image-keyboard-response","311","1062579","0.0-6.0-4.43","2821009","co37663","norming","","","","","","",""
"null","../img/tt/1053tt.jpg","null","mooney2","image-keyboard-response","312","1064587","0.0-6.0-5.43","2821009","co37663","norming","","","","","","",""
"2717.290000000503","","","post_reveal_questions","survey-likert","313","1067306","0.0-6.0-6.43","2821009","co37663","norming","","","{""aha"":0}","[0]","../img/tt/1053tt.jpg","",""
"null","<div style=""font-size:60px;""> </div>","null","fixation","html-keyboard-response","314","1067518","0.0-6.0-0.44","2821009","co37663","norming","","","","","","",""
"null","../img/tt/121tt.jpg","null","mooney1","image-keyboard-response","315","1070528","0.0-6.0-1.44","2821009","co37663","norming","","","","","","",""
"3976.725000000559","","","post_mooney1_questions","survey-likert","316","1074508","0.0-6.0-2.44","2821009","co37663","norming","","","{""curiosity"":1,""confidence"":0}","[0,1]","../img/tt/121tt.jpg","",""
"1173.9749999996275","","","recognition","survey-text","317","1075684","0.0-6.0-3.44","2821009","co37663","norming","","","{""guess"":""""}","","../img/tt/121tt.jpg","",""
"null","../img/gs/121gs.jpg","null","reveal","image-keyboard-response","318","1077693","0.0-6.0-4.44","2821009","co37663","norming","","","","","","",""
"null","../img/tt/121tt.jpg","null","mooney2","image-keyboard-response","319","1079695","0.0-6.0-5.44","2821009","co37663","norming","","","","","","",""
"2353.385000000242","","","post_reveal_questions","survey-likert","320","1082052","0.0-6.0-6.44","2821009","co37663","norming","","","{""aha"":0}","[0]","../img/tt/121tt.jpg","",""
"null","<div style=""font-size:60px;""> </div>","null","fixation","html-keyboard-response","321","1082257","0.0-6.0-0.45","2821009","co37663","norming","","","","","","",""
"null","../img/tt/108tt.jpg","null","mooney1","image-keyboard-response","322","1085260","0.0-6.0-1.45","2821009","co37663","norming","","","","","","",""
"4036.715000000084","","","post_mooney1_questions","survey-likert","323","1089300","0.0-6.0-2.45","2821009","co37663","norming","","","{""curiosity"":5,""confidence"":2}","[0,1]","../img/tt/108tt.jpg","",""
"2174.035000000149","","","recognition","survey-text","324","1091476","0.0-6.0-3.45","2821009","co37663","norming","","","{""guess"":""aap""}","","../img/tt/108tt.jpg","",""
"null","../img/gs/108gs.jpg","null","reveal","image-keyboard-response","325","1093478","0.0-6.0-4.45","2821009","co37663","norming","","","","","","",""
"null","../img/tt/108tt.jpg","null","mooney2","image-keyboard-response","326","1095487","0.0-6.0-5.45","2821009","co37663","norming","","","","","","",""
"2257.7249999996275","","","post_reveal_questions","survey-likert","327","1097748","0.0-6.0-6.45","2821009","co37663","norming","","","{""aha"":4}","[0]","../img/tt/108tt.jpg","",""
"null","<div style=""font-size:60px;""> </div>","null","fixation","html-keyboard-response","328","1097955","0.0-6.0-0.46","2821009","co37663","norming","","","","","","",""
"null","../img/tt/1084tt.jpg","null","mooney1","image-keyboard-response","329","1100958","0.0-6.0-1.46","2821009","co37663","norming","","","","","","",""
"4818.624999999767","","","post_mooney1_questions","survey-likert","330","1105780","0.0-6.0-2.46","2821009","co37663","norming","","","{""curiosity"":5,""confidence"":4}","[0,1]","../img/tt/1084tt.jpg","",""
"2542.3699999991804","","","recognition","survey-text","331","1108324","0.0-6.0-3.46","2821009","co37663","norming","","","{""guess"":""taart""}","","../img/tt/1084tt.jpg","",""
"null","../img/gs/1084gs.jpg","null","reveal","image-keyboard-response","332","1110326","0.0-6.0-4.46","2821009","co37663","norming","","","","","","",""
"null","../img/tt/1084tt.jpg","null","mooney2","image-keyboard-response","333","1112337","0.0-6.0-5.46","2821009","co37663","norming","","","","","","",""
"4368.124999999069","","","post_reveal_questions","survey-likert","334","1116708","0.0-6.0-6.46","2821009","co37663","norming","","","{""aha"":2}","[0]","../img/tt/1084tt.jpg","",""
"null","<div style=""font-size:60px;""> </div>","null","fixation","html-keyboard-response","335","1116917","0.0-6.0-0.47","2821009","co37663","norming","","","","","","",""
"null","../img/tt/049tt.jpg","null","mooney1","image-keyboard-response","336","1119920","0.0-6.0-1.47","2821009","co37663","norming","","","","","","",""
"4432.874999998603","","","post_mooney1_questions","survey-likert","337","1124356","0.0-6.0-2.47","2821009","co37663","norming","","","{""curiosity"":0,""confidence"":0}","[0,1]","../img/tt/049tt.jpg","",""
"2197.7899999984074","","","recognition","survey-text","338","1126556","0.0-6.0-3.47","2821009","co37663","norming","","","{""guess"":""""}","","../img/tt/049tt.jpg","",""
"null","../img/gs/049gs.jpg","null","reveal","image-keyboard-response","339","1128561","0.0-6.0-4.47","2821009","co37663","norming","","","","","","",""
"null","../img/tt/049tt.jpg","null","mooney2","image-keyboard-response","340","1130563","0.0-6.0-5.47","2821009","co37663","norming","","","","","","",""
"2902.3149999992456","","","post_reveal_questions","survey-likert","341","1133468","0.0-6.0-6.47","2821009","co37663","norming","","","{""aha"":1}","[0]","../img/tt/049tt.jpg","",""
"null","<div style=""font-size:60px;""> </div>","null","fixation","html-keyboard-response","342","1133670","0.0-6.0-0.48","2821009","co37663","norming","","","","","","",""
"null","../img/tt/406tt.jpg","null","mooney1","image-keyboard-response","343","1136677","0.0-6.0-1.48","2821009","co37663","norming","","","","","","",""
"6667.809999999125","","","post_mooney1_questions","survey-likert","344","1143348","0.0-6.0-2.48","2821009","co37663","norming","","","{""curiosity"":6,""confidence"":0}","[0,1]","../img/tt/406tt.jpg","",""
"1702.235000000568","","","recognition","survey-text","345","1145052","0.0-6.0-3.48","2821009","co37663","norming","","","{""guess"":""""}","","../img/tt/406tt.jpg","",""
"null","../img/gs/406gs.jpg","null","reveal","image-keyboard-response","346","1147054","0.0-6.0-4.48","2821009","co37663","norming","","","","","","",""
"null","../img/tt/406tt.jpg","null","mooney2","image-keyboard-response","347","1149057","0.0-6.0-5.48","2821009","co37663","norming","","","","","","",""
"3320.499999999767","","","post_reveal_questions","survey-likert","348","1152380","0.0-6.0-6.48","2821009","co37663","norming","","","{""aha"":0}","[0]","../img/tt/406tt.jpg","",""
"null","<div style=""font-size:60px;""> </div>","null","fixation","html-keyboard-response","349","1152586","0.0-6.0-0.49","2821009","co37663","norming","","","","","","",""
"null","../img/tt/123tt.jpg","null","mooney1","image-keyboard-response","350","1155596","0.0-6.0-1.49","2821009","co37663","norming","","","","","","",""
"5046.935000000289","","","post_mooney1_questions","survey-likert","351","1160645","0.0-6.0-2.49","2821009","co37663","norming","","","{""curiosity"":3,""confidence"":0}","[0,1]","../img/tt/123tt.jpg","",""
"734.0450000010896","","","recognition","survey-text","352","1161380","0.0-6.0-3.49","2821009","co37663","norming","","","{""guess"":""""}","","../img/tt/123tt.jpg","",""
"null","../img/gs/123gs.jpg","null","reveal","image-keyboard-response","353","1163383","0.0-6.0-4.49","2821009","co37663","norming","","","","","","",""
"null","../img/tt/123tt.jpg","null","mooney2","image-keyboard-response","354","1165386","0.0-6.0-5.49","2821009","co37663","norming","","","","","","",""
"2967.6899999994785","","","post_reveal_questions","survey-likert","355","1168356","0.0-6.0-6.49","2821009","co37663","norming","","","{""aha"":1}","[0]","../img/tt/123tt.jpg","",""
"null","<div style=""font-size:60px;""> </div>","null","fixation","html-keyboard-response","356","1168558","0.0-6.0-0.50","2821009","co37663","norming","","","","","","",""
"null","../img/tt/036tt.jpg","null","mooney1","image-keyboard-response","357","1171564","0.0-6.0-1.50","2821009","co37663","norming","","","","","","",""
"8254.735000000335","","","post_mooney1_questions","survey-likert","358","1179821","0.0-6.0-2.50","2821009","co37663","norming","","","{""curiosity"":4,""confidence"":1}","[0,1]","../img/tt/036tt.jpg","",""
"5077.844999999972","","","recognition","survey-text","359","1184900","0.0-6.0-3.50","2821009","co37663","norming","","","{""guess"":""spinnenweb""}","","../img/tt/036tt.jpg","",""
"null","../img/gs/036gs.jpg","null","reveal","image-keyboard-response","360","1186907","0.0-6.0-4.50","2821009","co37663","norming","","","","","","",""
"null","../img/tt/036tt.jpg","null","mooney2","image-keyboard-response","361","1188910","0.0-6.0-5.50","2821009","co37663","norming","","","","","","",""
"4076.5149999989662","","","post_reveal_questions","survey-likert","362","1192989","0.0-6.0-6.50","2821009","co37663","norming","","","{""aha"":4}","[0]","../img/tt/036tt.jpg","",""
"null","<div style=""font-size:60px;""> </div>","null","fixation","html-keyboard-response","363","1193190","0.0-6.0-0.51","2821009","co37663","norming","","","","","","",""
"null","../img/tt/189tt.jpg","null","mooney1","image-keyboard-response","364","1196193","0.0-6.0-1.51","2821009","co37663","norming","","","","","","",""
"6129.380000000354","","","post_mooney1_questions","survey-likert","365","1202325","0.0-6.0-2.51","2821009","co37663","norming","","","{""curiosity"":6,""confidence"":1}","[0,1]","../img/tt/189tt.jpg","",""
"1541.8749999990687","","","recognition","survey-text","366","1203869","0.0-6.0-3.51","2821009","co37663","norming","","","{""guess"":""""}","","../img/tt/189tt.jpg","",""
"null","../img/gs/189gs.jpg","null","reveal","image-keyboard-response","367","1205871","0.0-6.0-4.51","2821009","co37663","norming","","","","","","",""
"null","../img/tt/189tt.jpg","null","mooney2","image-keyboard-response","368","1207883","0.0-6.0-5.51","2821009","co37663","norming","","","","","","",""
"3497.4000000003725","","","post_reveal_questions","survey-likert","369","1211381","0.0-6.0-6.51","2821009","co37663","norming","","","{""aha"":0}","[0]","../img/tt/189tt.jpg","",""
"null","<div style=""font-size:60px;""> </div>","null","fixation","html-keyboard-response","370","1211588","0.0-6.0-0.52","2821009","co37663","norming","","","","","","",""
"null","../img/tt/598tt.jpg","null","mooney1","image-keyboard-response","371","1214595","0.0-6.0-1.52","2821009","co37663","norming","","","","","","",""
"8263.584999998799","","","post_mooney1_questions","survey-likert","372","1222862","0.0-6.0-2.52","2821009","co37663","norming","","","{""curiosity"":4,""confidence"":0}","[0,1]","../img/tt/598tt.jpg","",""
"1006.0000000011642","","","recognition","survey-text","373","1223869","0.0-6.0-3.52","2821009","co37663","norming","","","{""guess"":""""}","","../img/tt/598tt.jpg","",""
"null","../img/gs/598gs.jpg","null","reveal","image-keyboard-response","374","1225874","0.0-6.0-4.52","2821009","co37663","norming","","","","","","",""
"null","../img/tt/598tt.jpg","null","mooney2","image-keyboard-response","375","1227876","0.0-6.0-5.52","2821009","co37663","norming","","","","","","",""
"2319.005000001285","","","post_reveal_questions","survey-likert","376","1230197","0.0-6.0-6.52","2821009","co37663","norming","","","{""aha"":0}","[0]","../img/tt/598tt.jpg","",""
"null","<div style=""font-size:60px;""> </div>","null","fixation","html-keyboard-response","377","1230399","0.0-6.0-0.53","2821009","co37663","norming","","","","","","",""
"null","../img/tt/270tt.jpg","null","mooney1","image-keyboard-response","378","1233408","0.0-6.0-1.53","2821009","co37663","norming","","","","","","",""
"7890.419999999693","","","post_mooney1_questions","survey-likert","379","1241301","0.0-6.0-2.53","2821009","co37663","norming","","","{""curiosity"":6,""confidence"":0}","[0,1]","../img/tt/270tt.jpg","",""
"2622.274999999674","","","recognition","survey-text","380","1243925","0.0-6.0-3.53","2821009","co37663","norming","","","{""guess"":""""}","","../img/tt/270tt.jpg","",""
"null","../img/gs/270gs.jpg","null","reveal","image-keyboard-response","381","1245927","0.0-6.0-4.53","2821009","co37663","norming","","","","","","",""
"null","../img/tt/270tt.jpg","null","mooney2","image-keyboard-response","382","1247936","0.0-6.0-5.53","2821009","co37663","norming","","","","","","",""
"3290.970000000205","","","post_reveal_questions","survey-likert","383","1251221","0.0-6.0-6.53","2821009","co37663","norming","","","{""aha"":2}","[0]","../img/tt/270tt.jpg","",""
"null","<div style=""font-size:60px;""> </div>","null","fixation","html-keyboard-response","384","1251431","0.0-6.0-0.54","2821009","co37663","norming","","","","","","",""
"null","../img/tt/1260tt.jpg","null","mooney1","image-keyboard-response","385","1254441","0.0-6.0-1.54","2821009","co37663","norming","","","","","","",""
"7641.245000000577","","","post_mooney1_questions","survey-likert","386","1262085","0.0-6.0-2.54","2821009","co37663","norming","","","{""curiosity"":2,""confidence"":0}","[0,1]","../img/tt/1260tt.jpg","",""
"2782.0300000002608","","","recognition","survey-text","387","1264869","0.0-6.0-3.54","2821009","co37663","norming","","","{""guess"":""""}","","../img/tt/1260tt.jpg","",""
"null","../img/gs/1260gs.jpg","null","reveal","image-keyboard-response","388","1266872","0.0-6.0-4.54","2821009","co37663","norming","","","","","","",""
"null","../img/tt/1260tt.jpg","null","mooney2","image-keyboard-response","389","1268874","0.0-6.0-5.54","2821009","co37663","norming","","","","","","",""
"9360.530000000028","","","post_reveal_questions","survey-likert","390","1278237","0.0-6.0-6.54","2821009","co37663","norming","","","{""aha"":0}","[0]","../img/tt/1260tt.jpg","",""
"null","<div style=""font-size:60px;""> </div>","null","fixation","html-keyboard-response","391","1278445","0.0-6.0-0.55","2821009","co37663","norming","","","","","","",""
"null","../img/tt/1237tt.jpg","null","mooney1","image-keyboard-response","392","1281454","0.0-6.0-1.55","2821009","co37663","norming","","","","","","",""
"3963.4950000001118","","","post_mooney1_questions","survey-likert","393","1285422","0.0-6.0-2.55","2821009","co37663","norming","","","{""curiosity"":4,""confidence"":0}","[0,1]","../img/tt/1237tt.jpg","",""
"765.9199999999255","","","recognition","survey-text","394","1286189","0.0-6.0-3.55","2821009","co37663","norming","","","{""guess"":""""}","","../img/tt/1237tt.jpg","",""
"null","../img/gs/1237gs.jpg","null","reveal","image-keyboard-response","395","1288191","0.0-6.0-4.55","2821009","co37663","norming","","","","","","",""
"null","../img/tt/1237tt.jpg","null","mooney2","image-keyboard-response","396","1290199","0.0-6.0-5.55","2821009","co37663","norming","","","","","","",""
"2019.5349999994505","","","post_reveal_questions","survey-likert","397","1292221","0.0-6.0-6.55","2821009","co37663","norming","","","{""aha"":5}","[0]","../img/tt/1237tt.jpg","",""
"null","<div style=""font-size:60px;""> </div>","null","fixation","html-keyboard-response","398","1292425","0.0-6.0-0.56","2821009","co37663","norming","","","","","","",""
"null","../img/tt/222tt.jpg","null","mooney1","image-keyboard-response","399","1295438","0.0-6.0-1.56","2821009","co37663","norming","","","","","","",""
"3812.6099999989383","","","post_mooney1_questions","survey-likert","400","1299253","0.0-6.0-2.56","2821009","co37663","norming","","","{""curiosity"":6,""confidence"":0}","[0,1]","../img/tt/222tt.jpg","",""
"918.1699999989942","","","recognition","survey-text","401","1300173","0.0-6.0-3.56","2821009","co37663","norming","","","{""guess"":""""}","","../img/tt/222tt.jpg","",""
"null","../img/gs/222gs.jpg","null","reveal","image-keyboard-response","402","1302178","0.0-6.0-4.56","2821009","co37663","norming","","","","","","",""
"null","../img/tt/222tt.jpg","null","mooney2","image-keyboard-response","403","1304187","0.0-6.0-5.56","2821009","co37663","norming","","","","","","",""
"1919.3950000007171","","","post_reveal_questions","survey-likert","404","1306109","0.0-6.0-6.56","2821009","co37663","norming","","","{""aha"":5}","[0]","../img/tt/222tt.jpg","",""
"null","<div style=""font-size:60px;""> </div>","null","fixation","html-keyboard-response","405","1306316","0.0-6.0-0.57","2821009","co37663","norming","","","","","","",""
"null","../img/tt/007tt.jpg","null","mooney1","image-keyboard-response","406","1309325","0.0-6.0-1.57","2821009","co37663","norming","","","","","","",""
"6765.165000000736","","","post_mooney1_questions","survey-likert","407","1316100","0.0-6.0-2.57","2821009","co37663","norming","","","{""curiosity"":4,""confidence"":0}","[0,1]","../img/tt/007tt.jpg","",""
"821.8850000011735","","","recognition","survey-text","408","1316924","0.0-6.0-3.57","2821009","co37663","norming","","","{""guess"":""""}","","../img/tt/007tt.jpg","",""
"null","../img/gs/007gs.jpg","null","reveal","image-keyboard-response","409","1318930","0.0-6.0-4.57","2821009","co37663","norming","","","","","","",""
"null","../img/tt/007tt.jpg","null","mooney2","image-keyboard-response","410","1320932","0.0-6.0-5.57","2821009","co37663","norming","","","","","","",""
"1421.7299999999814","","","post_reveal_questions","survey-likert","411","1322356","0.0-6.0-6.57","2821009","co37663","norming","","","{""aha"":0}","[0]","../img/tt/007tt.jpg","",""
"null","<div style=""font-size:60px;""> </div>","null","fixation","html-keyboard-response","412","1322562","0.0-6.0-0.58","2821009","co37663","norming","","","","","","",""
"null","../img/tt/078tt.jpg","null","mooney1","image-keyboard-response","413","1325568","0.0-6.0-1.58","2821009","co37663","norming","","","","","","",""
"6138.75","","","post_mooney1_questions","survey-likert","414","1331708","0.0-6.0-2.58","2821009","co37663","norming","","","{""curiosity"":5,""confidence"":3}","[0,1]","../img/tt/078tt.jpg","",""
"3334.0549999992363","","","recognition","survey-text","415","1335044","0.0-6.0-3.58","2821009","co37663","norming","","","{""guess"":""vlinder""}","","../img/tt/078tt.jpg","",""
"null","../img/gs/078gs.jpg","null","reveal","image-keyboard-response","416","1337052","0.0-6.0-4.58","2821009","co37663","norming","","","","","","",""
"null","../img/tt/078tt.jpg","null","mooney2","image-keyboard-response","417","1339062","0.0-6.0-5.58","2821009","co37663","norming","","","","","","",""
"3234.7299999999814","","","post_reveal_questions","survey-likert","418","1342300","0.0-6.0-6.58","2821009","co37663","norming","","","{""aha"":1}","[0]","../img/tt/078tt.jpg","",""
"null","<div style=""font-size:60px;""> </div>","null","fixation","html-keyboard-response","419","1342504","0.0-6.0-0.59","2821009","co37663","norming","","","","","","",""
"null","../img/tt/1279tt.jpg","null","mooney1","image-keyboard-response","420","1345516","0.0-6.0-1.59","2821009","co37663","norming","","","","","","",""
"4308.994999999413","","","post_mooney1_questions","survey-likert","421","1349828","0.0-6.0-2.59","2821009","co37663","norming","","","{""curiosity"":4,""confidence"":0}","[0,1]","../img/tt/1279tt.jpg","",""
"1598.3149999994785","","","recognition","survey-text","422","1351428","0.0-6.0-3.59","2821009","co37663","norming","","","{""guess"":""""}","","../img/tt/1279tt.jpg","",""
"null","../img/gs/1279gs.jpg","null","reveal","image-keyboard-response","423","1353434","0.0-6.0-4.59","2821009","co37663","norming","","","","","","",""
"null","../img/tt/1279tt.jpg","null","mooney2","image-keyboard-response","424","1355440","0.0-6.0-5.59","2821009","co37663","norming","","","","","","",""
"2209.445000000298","","","post_reveal_questions","survey-likert","425","1357652","0.0-6.0-6.59","2821009","co37663","norming","","","{""aha"":2}","[0]","../img/tt/1279tt.jpg","",""
"null","<div style=""font-size:60px;""> </div>","null","fixation","html-keyboard-response","426","1357863","0.0-6.0-0.60","2821009","co37663","norming","","","","","","",""
"null","../img/tt/1228tt.jpg","null","mooney1","image-keyboard-response","427","1360866","0.0-6.0-1.60","2821009","co37663","norming","","","","","","",""
"4470.580000001239","","","post_mooney1_questions","survey-likert","428","1365340","0.0-6.0-2.60","2821009","co37663","norming","","","{""curiosity"":5,""confidence"":4}","[0,1]","../img/tt/1228tt.jpg","",""
"2933.905000000028","","","recognition","survey-text","429","1368276","0.0-6.0-3.60","2821009","co37663","norming","","","{""guess"":""vogel""}","","../img/tt/1228tt.jpg","",""
"null","../img/gs/1228gs.jpg","null","reveal","image-keyboard-response","430","1370279","0.0-6.0-4.60","2821009","co37663","norming","","","","","","",""
"null","../img/tt/1228tt.jpg","null","mooney2","image-keyboard-response","431","1372285","0.0-6.0-5.60","2821009","co37663","norming","","","","","","",""
"2783.975000000326","","","post_reveal_questions","survey-likert","432","1375072","0.0-6.0-6.60","2821009","co37663","norming","","","{""aha"":0}","[0]","../img/tt/1228tt.jpg","",""
"null","<div style=""font-size:60px;""> </div>","null","fixation","html-keyboard-response","433","1375279","0.0-6.0-0.61","2821009","co37663","norming","","","","","","",""
"null","../img/tt/1171tt.jpg","null","mooney1","image-keyboard-response","434","1378290","0.0-6.0-1.61","2821009","co37663","norming","","","","","","",""
"4130.129999999655","","","post_mooney1_questions","survey-likert","435","1382424","0.0-6.0-2.61","2821009","co37663","norming","","","{""curiosity"":1,""confidence"":0}","[0,1]","../img/tt/1171tt.jpg","",""
"1117.8300000010058","","","recognition","survey-text","436","1383543","0.0-6.0-3.61","2821009","co37663","norming","","","{""guess"":""""}","","../img/tt/1171tt.jpg","",""
"null","../img/gs/1171gs.jpg","null","reveal","image-keyboard-response","437","1385545","0.0-6.0-4.61","2821009","co37663","norming","","","","","","",""
"null","../img/tt/1171tt.jpg","null","mooney2","image-keyboard-response","438","1387550","0.0-6.0-5.61","2821009","co37663","norming","","","","","","",""
"1960.1449999990873","","","post_reveal_questions","survey-likert","439","1389512","0.0-6.0-6.61","2821009","co37663","norming","","","{""aha"":4}","[0]","../img/tt/1171tt.jpg","",""
"null","<div style=""font-size:60px;""> </div>","null","fixation","html-keyboard-response","440","1389720","0.0-6.0-0.62","2821009","co37663","norming","","","","","","",""
"null","../img/tt/112tt.jpg","null","mooney1","image-keyboard-response","441","1392725","0.0-6.0-1.62","2821009","co37663","norming","","","","","","",""
"7743.344999999041","","","post_mooney1_questions","survey-likert","442","1400472","0.0-6.0-2.62","2821009","co37663","norming","","","{""curiosity"":4,""confidence"":3}","[0,1]","../img/tt/112tt.jpg","",""
"6318.095000000671","","","recognition","survey-text","443","1406791","0.0-6.0-3.62","2821009","co37663","norming","","","{""guess"":""fles""}","","../img/tt/112tt.jpg","",""
"null","../img/gs/112gs.jpg","null","reveal","image-keyboard-response","444","1408801","0.0-6.0-4.62","2821009","co37663","norming","","","","","","",""
"null","../img/tt/112tt.jpg","null","mooney2","image-keyboard-response","445","1410805","0.0-6.0-5.62","2821009","co37663","norming","","","","","","",""
"2352.5650000011083","","","post_reveal_questions","survey-likert","446","1413159","0.0-6.0-6.62","2821009","co37663","norming","","","{""aha"":6}","[0]","../img/tt/112tt.jpg","",""
"null","<div style=""font-size:60px;""> </div>","null","fixation","html-keyboard-response","447","1413370","0.0-6.0-0.63","2821009","co37663","norming","","","","","","",""
"null","../img/tt/1154tt.jpg","null","mooney1","image-keyboard-response","448","1416377","0.0-6.0-1.63","2821009","co37663","norming","","","","","","",""
"9146.919999999227","","","post_mooney1_questions","survey-likert","449","1425528","0.0-6.0-2.63","2821009","co37663","norming","","","{""curiosity"":4,""confidence"":0}","[0,1]","../img/tt/1154tt.jpg","",""
"1238.1150000002235","","","recognition","survey-text","450","1426767","0.0-6.0-3.63","2821009","co37663","norming","","","{""guess"":""""}","","../img/tt/1154tt.jpg","",""
"null","../img/gs/1154gs.jpg","null","reveal","image-keyboard-response","451","1428775","0.0-6.0-4.63","2821009","co37663","norming","","","","","","",""
"null","../img/tt/1154tt.jpg","null","mooney2","image-keyboard-response","452","1430776","0.0-6.0-5.63","2821009","co37663","norming","","","","","","",""
"2956.2500000009313","","","post_reveal_questions","survey-likert","453","1433736","0.0-6.0-6.63","2821009","co37663","norming","","","{""aha"":1}","[0]","../img/tt/1154tt.jpg","",""
"null","<div style=""font-size:60px;""> </div>","null","fixation","html-keyboard-response","454","1433938","0.0-6.0-0.64","2821009","co37663","norming","","","","","","",""
"null","../img/tt/1006tt.jpg","null","mooney1","image-keyboard-response","455","1436948","0.0-6.0-1.64","2821009","co37663","norming","","","","","","",""
"4544.674999999115","","","post_mooney1_questions","survey-likert","456","1441496","0.0-6.0-2.64","2821009","co37663","norming","","","{""curiosity"":6,""confidence"":0}","[0,1]","../img/tt/1006tt.jpg","",""
"1045.804999999702","","","recognition","survey-text","457","1442544","0.0-6.0-3.64","2821009","co37663","norming","","","{""guess"":""""}","","../img/tt/1006tt.jpg","",""
"null","../img/gs/1006gs.jpg","null","reveal","image-keyboard-response","458","1444547","0.0-6.0-4.64","2821009","co37663","norming","","","","","","",""
"null","../img/tt/1006tt.jpg","null","mooney2","image-keyboard-response","459","1446558","0.0-6.0-5.64","2821009","co37663","norming","","","","","","",""
"5687.420000000391","","","post_reveal_questions","survey-likert","460","1452248","0.0-6.0-6.64","2821009","co37663","norming","","","{""aha"":0}","[0]","../img/tt/1006tt.jpg","",""
"null","<div style=""font-size:60px;""> </div>","null","fixation","html-keyboard-response","461","1452453","0.0-6.0-0.65","2821009","co37663","norming","","","","","","",""
"null","../img/tt/031tt.jpg","null","mooney1","image-keyboard-response","462","1455461","0.0-6.0-1.65","2821009","co37663","norming","","","","","","",""
"7368.159999999916","","","post_mooney1_questions","survey-likert","463","1462832","0.0-6.0-2.65","2821009","co37663","norming","","","{""curiosity"":6,""confidence"":0}","[0,1]","../img/tt/031tt.jpg","",""
"2438.064999998547","","","recognition","survey-text","464","1465272","0.0-6.0-3.65","2821009","co37663","norming","","","{""guess"":""""}","","../img/tt/031tt.jpg","",""
"null","../img/gs/031gs.jpg","null","reveal","image-keyboard-response","465","1467274","0.0-6.0-4.65","2821009","co37663","norming","","","","","","",""
"null","../img/tt/031tt.jpg","null","mooney2","image-keyboard-response","466","1469277","0.0-6.0-5.65","2821009","co37663","norming","","","","","","",""
"3480.7250000012573","","","post_reveal_questions","survey-likert","467","1472760","0.0-6.0-6.65","2821009","co37663","norming","","","{""aha"":4}","[0]","../img/tt/031tt.jpg","",""
"null","<div style=""font-size:60px;""> </div>","null","fixation","html-keyboard-response","468","1472963","0.0-6.0-0.66","2821009","co37663","norming","","","","","","",""
"null","../img/tt/1089tt.jpg","null","mooney1","image-keyboard-response","469","1475966","0.0-6.0-1.66","2821009","co37663","norming","","","","","","",""
"3614.4650000005495","","","post_mooney1_questions","survey-likert","470","1479584","0.0-6.0-2.66","2821009","co37663","norming","","","{""curiosity"":5,""confidence"":1}","[0,1]","../img/tt/1089tt.jpg","",""
"5814.440000000177","","","recognition","survey-text","471","1485400","0.0-6.0-3.66","2821009","co37663","norming","","","{""guess"":""olifanten""}","","../img/tt/1089tt.jpg","",""
"null","../img/gs/1089gs.jpg","null","reveal","image-keyboard-response","472","1487410","0.0-6.0-4.66","2821009","co37663","norming","","","","","","",""
"null","../img/tt/1089tt.jpg","null","mooney2","image-keyboard-response","473","1489414","0.0-6.0-5.66","2821009","co37663","norming","","","","","","",""
"3975.8250000013504","","","post_reveal_questions","survey-likert","474","1493391","0.0-6.0-6.66","2821009","co37663","norming","","","{""aha"":1}","[0]","../img/tt/1089tt.jpg","",""
"null","<div style=""font-size:60px;""> </div>","null","fixation","html-keyboard-response","475","1493599","0.0-6.0-0.67","2821009","co37663","norming","","","","","","",""
"null","../img/tt/497tt.jpg","null","mooney1","image-keyboard-response","476","1496608","0.0-6.0-1.67","2821009","co37663","norming","","","","","","",""
"9844.16499999864","","","post_mooney1_questions","survey-likert","477","1506455","0.0-6.0-2.67","2821009","co37663","norming","","","{""curiosity"":4,""confidence"":0}","[0,1]","../img/tt/497tt.jpg","",""
"1453.9800000002142","","","recognition","survey-text","478","1507911","0.0-6.0-3.67","2821009","co37663","norming","","","{""guess"":""""}","","../img/tt/497tt.jpg","",""
"null","../img/gs/497gs.jpg","null","reveal","image-keyboard-response","479","1509913","0.0-6.0-4.67","2821009","co37663","norming","","","","","","",""
"null","../img/tt/497tt.jpg","null","mooney2","image-keyboard-response","480","1511918","0.0-6.0-5.67","2821009","co37663","norming","","","","","","",""
"5007.154999999329","","","post_reveal_questions","survey-likert","481","1516927","0.0-6.0-6.67","2821009","co37663","norming","","","{""aha"":2}","[0]","../img/tt/497tt.jpg","",""
"null","<div style=""font-size:60px;""> </div>","null","fixation","html-keyboard-response","482","1517137","0.0-6.0-0.68","2821009","co37663","norming","","","","","","",""
"null","../img/tt/1234tt.jpg","null","mooney1","image-keyboard-response","483","1520147","0.0-6.0-1.68","2821009","co37663","norming","","","","","","",""
"5280.52500000014","","","post_mooney1_questions","survey-likert","484","1525431","0.0-6.0-2.68","2821009","co37663","norming","","","{""curiosity"":4,""confidence"":0}","[0,1]","../img/tt/1234tt.jpg","",""
"670.3749999995343","","","recognition","survey-text","485","1526103","0.0-6.0-3.68","2821009","co37663","norming","","","{""guess"":""""}","","../img/tt/1234tt.jpg","",""
"null","../img/gs/1234gs.jpg","null","reveal","image-keyboard-response","486","1528105","0.0-6.0-4.68","2821009","co37663","norming","","","","","","",""
"null","../img/tt/1234tt.jpg","null","mooney2","image-keyboard-response","487","1530107","0.0-6.0-5.68","2821009","co37663","norming","","","","","","",""
"2096.8299999984447","","","post_reveal_questions","survey-likert","488","1532207","0.0-6.0-6.68","2821009","co37663","norming","","","{""aha"":1}","[0]","../img/tt/1234tt.jpg","",""
"null","<div style=""font-size:60px;""> </div>","null","fixation","html-keyboard-response","489","1532410","0.0-6.0-0.69","2821009","co37663","norming","","","","","","",""
"null","../img/tt/1148tt.jpg","null","mooney1","image-keyboard-response","490","1535421","0.0-6.0-1.69","2821009","co37663","norming","","","","","","",""
"9110.995000001043","","","post_mooney1_questions","survey-likert","491","1544536","0.0-6.0-2.69","2821009","co37663","norming","","","{""curiosity"":4,""confidence"":0}","[0,1]","../img/tt/1148tt.jpg","",""
"781.5899999986868","","","recognition","survey-text","492","1545319","0.0-6.0-3.69","2821009","co37663","norming","","","{""guess"":""""}","","../img/tt/1148tt.jpg","",""
"null","../img/gs/1148gs.jpg","null","reveal","image-keyboard-response","493","1547328","0.0-6.0-4.69","2821009","co37663","norming","","","","","","",""
"null","../img/tt/1148tt.jpg","null","mooney2","image-keyboard-response","494","1549337","0.0-6.0-5.69","2821009","co37663","norming","","","","","","",""
"5043.574999999721","","","post_reveal_questions","survey-likert","495","1554376","0.0-6.0-6.69","2821009","co37663","norming","","","{""aha"":0}","[0]","../img/tt/1148tt.jpg","",""
"null","<div style=""font-size:60px;""> </div>","null","fixation","html-keyboard-response","496","1554579","0.0-6.0-0.70","2821009","co37663","norming","","","","","","",""
"null","../img/tt/060tt.jpg","null","mooney1","image-keyboard-response","497","1557591","0.0-6.0-1.70","2821009","co37663","norming","","","","","","",""
"8903.99000000069","","","post_mooney1_questions","survey-likert","498","1566496","0.0-6.0-2.70","2821009","co37663","norming","","","{""curiosity"":1,""confidence"":0}","[0,1]","../img/tt/060tt.jpg","",""
"805.9300000004005","","","recognition","survey-text","499","1567303","0.0-6.0-3.70","2821009","co37663","norming","","","{""guess"":""""}","","../img/tt/060tt.jpg","",""
"null","../img/gs/060gs.jpg","null","reveal","image-keyboard-response","500","1569304","0.0-6.0-4.70","2821009","co37663","norming","","","","","","",""
"null","../img/tt/060tt.jpg","null","mooney2","image-keyboard-response","501","1571307","0.0-6.0-5.70","2821009","co37663","norming","","","","","","",""
"3161.465000001015","","","post_reveal_questions","survey-likert","502","1574472","0.0-6.0-6.70","2821009","co37663","norming","","","{""aha"":2}","[0]","../img/tt/060tt.jpg","",""
"null","<div style=""font-size:60px;""> </div>","null","fixation","html-keyboard-response","503","1574676","0.0-6.0-0.71","2821009","co37663","norming","","","","","","",""
"null","../img/tt/1125tt.jpg","null","mooney1","image-keyboard-response","504","1577687","0.0-6.0-1.71","2821009","co37663","norming","","","","","","",""
"5383.1850000005215","","","post_mooney1_questions","survey-likert","505","1583072","0.0-6.0-2.71","2821009","co37663","norming","","","{""curiosity"":4,""confidence"":1}","[0,1]","../img/tt/1125tt.jpg","",""
"3518","","","recognition","survey-text","506","1586592","0.0-6.0-3.71","2821009","co37663","norming","","","{""guess"":""bus""}","","../img/tt/1125tt.jpg","",""
"null","../img/gs/1125gs.jpg","null","reveal","image-keyboard-response","507","1588598","0.0-6.0-4.71","2821009","co37663","norming","","","","","","",""
"null","../img/tt/1125tt.jpg","null","mooney2","image-keyboard-response","508","1590602","0.0-6.0-5.71","2821009","co37663","norming","","","","","","",""
"3683.1400000010617","","","post_reveal_questions","survey-likert","509","1594288","0.0-6.0-6.71","2821009","co37663","norming","","","{""aha"":1}","[0]","../img/tt/1125tt.jpg","",""
"null","<div style=""font-size:60px;""> </div>","null","fixation","html-keyboard-response","510","1594490","0.0-6.0-0.72","2821009","co37663","norming","","","","","","",""
"null","../img/tt/1191tt.jpg","null","mooney1","image-keyboard-response","511","1597496","0.0-6.0-1.72","2821009","co37663","norming","","","","","","",""
"4763.989999999525","","","post_mooney1_questions","survey-likert","512","1602264","0.0-6.0-2.72","2821009","co37663","norming","","","{""curiosity"":1,""confidence"":0}","[0,1]","../img/tt/1191tt.jpg","",""
"789.8750000004657","","","recognition","survey-text","513","1603055","0.0-6.0-3.72","2821009","co37663","norming","","","{""guess"":""""}","","../img/tt/1191tt.jpg","",""
"null","../img/gs/1191gs.jpg","null","reveal","image-keyboard-response","514","1605062","0.0-6.0-4.72","2821009","co37663","norming","","","","","","",""
"null","../img/tt/1191tt.jpg","null","mooney2","image-keyboard-response","515","1607067","0.0-6.0-5.72","2821009","co37663","norming","","","","","","",""
"7040.784999999218","","","post_reveal_questions","survey-likert","516","1614112","0.0-6.0-6.72","2821009","co37663","norming","","","{""aha"":5}","[0]","../img/tt/1191tt.jpg","",""
"null","<div style=""font-size:60px;""> </div>","null","fixation","html-keyboard-response","517","1614325","0.0-6.0-0.73","2821009","co37663","norming","","","","","","",""
"null","../img/tt/1107tt.jpg","null","mooney1","image-keyboard-response","518","1617333","0.0-6.0-1.73","2821009","co37663","norming","","","","","","",""
"5672.679999999469","","","post_mooney1_questions","survey-likert","519","1623009","0.0-6.0-2.73","2821009","co37663","norming","","","{""curiosity"":2,""confidence"":0}","[0,1]","../img/tt/1107tt.jpg","",""
"1702.0250000006054","","","recognition","survey-text","520","1624713","0.0-6.0-3.73","2821009","co37663","norming","","","{""guess"":""""}","","../img/tt/1107tt.jpg","",""
"null","../img/gs/1107gs.jpg","null","reveal","image-keyboard-response","521","1626722","0.0-6.0-4.73","2821009","co37663","norming","","","","","","",""
"null","../img/tt/1107tt.jpg","null","mooney2","image-keyboard-response","522","1628724","0.0-6.0-5.73","2821009","co37663","norming","","","","","","",""
"3290.2350000003353","","","post_reveal_questions","survey-likert","523","1632017","0.0-6.0-6.73","2821009","co37663","norming","","","{""aha"":2}","[0]","../img/tt/1107tt.jpg","",""
"null","<div style=""font-size:60px;""> </div>","null","fixation","html-keyboard-response","524","1632226","0.0-6.0-0.74","2821009","co37663","norming","","","","","","",""
"null","../img/tt/1122tt.jpg","null","mooney1","image-keyboard-response","525","1635229","0.0-6.0-1.74","2821009","co37663","norming","","","","","","",""
"10888.869999998715","","","post_mooney1_questions","survey-likert","526","1646121","0.0-6.0-2.74","2821009","co37663","norming","","","{""curiosity"":1,""confidence"":2}","[0,1]","../img/tt/1122tt.jpg","",""
"7246.054999999702","","","recognition","survey-text","527","1653369","0.0-6.0-3.74","2821009","co37663","norming","","","{""guess"":""viegtuig""}","","../img/tt/1122tt.jpg","",""
"null","../img/gs/1122gs.jpg","null","reveal","image-keyboard-response","528","1655374","0.0-6.0-4.74","2821009","co37663","norming","","","","","","",""
"null","../img/tt/1122tt.jpg","null","mooney2","image-keyboard-response","529","1657376","0.0-6.0-5.74","2821009","co37663","norming","","","","","","",""
"2598.319999999134","","","post_reveal_questions","survey-likert","530","1659977","0.0-6.0-6.74","2821009","co37663","norming","","","{""aha"":3}","[0]","../img/tt/1122tt.jpg","",""
"null","<div style=""font-size:60px;""> </div>","null","fixation","html-keyboard-response","531","1660179","0.0-6.0-0.75","2821009","co37663","norming","","","","","","",""
"null","../img/tt/1096tt.jpg","null","mooney1","image-keyboard-response","532","1663190","0.0-6.0-1.75","2821009","co37663","norming","","","","","","",""
"8727.815000000177","","","post_mooney1_questions","survey-likert","533","1671921","0.0-6.0-2.75","2821009","co37663","norming","","","{""curiosity"":4,""confidence"":0}","[0,1]","../img/tt/1096tt.jpg","",""
"814.0199999997858","","","recognition","survey-text","534","1672737","0.0-6.0-3.75","2821009","co37663","norming","","","{""guess"":""""}","","../img/tt/1096tt.jpg","",""
"null","../img/gs/1096gs.jpg","null","reveal","image-keyboard-response","535","1674745","0.0-6.0-4.75","2821009","co37663","norming","","","","","","",""
"null","../img/tt/1096tt.jpg","null","mooney2","image-keyboard-response","536","1676756","0.0-6.0-5.75","2821009","co37663","norming","","","","","","",""
"3322.609999999404","","","post_reveal_questions","survey-likert","537","1680081","0.0-6.0-6.75","2821009","co37663","norming","","","{""aha"":1}","[0]","../img/tt/1096tt.jpg","",""
"null","<div style=""font-size:60px;""> </div>","null","fixation","html-keyboard-response","538","1680283","0.0-6.0-0.76","2821009","co37663","norming","","","","","","",""
"null","../img/tt/1255tt.jpg","null","mooney1","image-keyboard-response","539","1683290","0.0-6.0-1.76","2821009","co37663","norming","","","","","","",""
"6531.715000001015","","","post_mooney1_questions","survey-likert","540","1689826","0.0-6.0-2.76","2821009","co37663","norming","","","{""curiosity"":2,""confidence"":0}","[0,1]","../img/tt/1255tt.jpg","",""
"837.929999999702","","","recognition","survey-text","541","1690665","0.0-6.0-3.76","2821009","co37663","norming","","","{""guess"":""""}","","../img/tt/1255tt.jpg","",""
"null","../img/gs/1255gs.jpg","null","reveal","image-keyboard-response","542","1692672","0.0-6.0-4.76","2821009","co37663","norming","","","","","","",""
"null","../img/tt/1255tt.jpg","null","mooney2","image-keyboard-response","543","1694678","0.0-6.0-5.76","2821009","co37663","norming","","","","","","",""
"3575.055000001099","","","post_reveal_questions","survey-likert","544","1698257","0.0-6.0-6.76","2821009","co37663","norming","","","{""aha"":1}","[0]","../img/tt/1255tt.jpg","",""
"null","<div style=""font-size:60px;""> </div>","null","fixation","html-keyboard-response","545","1698461","0.0-6.0-0.77","2821009","co37663","norming","","","","","","",""
"null","../img/tt/1181tt.jpg","null","mooney1","image-keyboard-response","546","1701466","0.0-6.0-1.77","2821009","co37663","norming","","","","","","",""
"4107.77499999851","","","post_mooney1_questions","survey-likert","547","1705577","0.0-6.0-2.77","2821009","co37663","norming","","","{""curiosity"":1,""confidence"":0}","[0,1]","../img/tt/1181tt.jpg","",""
"1838.1700000008568","","","recognition","survey-text","548","1707417","0.0-6.0-3.77","2821009","co37663","norming","","","{""guess"":""""}","","../img/tt/1181tt.jpg","",""
"null","../img/gs/1181gs.jpg","null","reveal","image-keyboard-response","549","1709425","0.0-6.0-4.77","2821009","co37663","norming","","","","","","",""
"null","../img/tt/1181tt.jpg","null","mooney2","image-keyboard-response","550","1711427","0.0-6.0-5.77","2821009","co37663","norming","","","","","","",""
"1675.7600000002421","","","post_reveal_questions","survey-likert","551","1713105","0.0-6.0-6.77","2821009","co37663","norming","","","{""aha"":2}","[0]","../img/tt/1181tt.jpg","",""
"null","<div style=""font-size:60px;""> </div>","null","fixation","html-keyboard-response","552","1713312","0.0-6.0-0.78","2821009","co37663","norming","","","","","","",""
"null","../img/tt/279tt.jpg","null","mooney1","image-keyboard-response","553","1716315","0.0-6.0-1.78","2821009","co37663","norming","","","","","","",""
