"rt","stimulus","key_press","test_part","trial_type","trial_index","time_elapsed","internal_node_id","totalTime","subject","experiment_name","button_pressed","success","responses","question_order","currentStim","old","correct"
"5733.679999999367","Welcome to the experiment. This is an online experiment so please don't close the tab/window until we say goodbye.  Press any key to begin.","32","instructions","html-keyboard-response","0","5751","0.0-0.0","2636537","co37681","norming","","","","","","",""
"55544.36999999962","<div style='word-wrap: break-word; width: 900px'><h3>Please consider this information carefully before deciding whether to participate in this research</h3><ul style='text-align: left; font-size: .8em;'><li><b>Purpose of the research</b>: To examine how people process images.</li><li><b>What you will do in this research</b>:  Stimuli (images) will be presented on the computer and you will be asked different questions about them.</li><li><b>Time required</b>: Participation will take between 45 and 60 minutes to complete.</li><li><b>Risks</b>:  There are no anticipated risks associated with participating in this study. The effects of participating should be comparable to those you would experience from viewing a computer monitor for 30 minutes and using a mouse or keyboard.</li><li><b>Benefits</b>:  This study provides no benefits to you individually except for the credit. The study provides important information about the nature of perception and learning.</li><li><b>Confidentiality</b>:  Your participation in this study will remain confidential. No personally identifiable information will be associated with your data. Your de-identified data may be shared with other researchers and used in future projects.</li><li><b>Participation and withdrawal</b>:  Your participation in this study is completely voluntary and you may refuse to participate or you may choose to withdraw at any time without penalty.</li><li><b>How to contact the researchers</b>: If you have questions or concerns about your participation or payment, or want to request a summary of research findings, please contact Sander Van de Cruys (KU Leuven), at sander.vandecruys@kuleuven.be.</li></ul><p>The nature and purpose of this research have been sufficiently explained and I agree to participate in this study.  I understand that I am free to withdraw at any time without incurring any penalty.</p><p>Please consent by clicking the button below to continue. Otherwise, please exit the study at this time.</p></div>","","instructions","html-button-response","1","61299","0.0-1.0","2636537","co37681","norming","0","","","","","",""
"","","","instructions","fullscreen","2","64563","0.0-2.0","2636537","co37681","norming","","true","","","","",""
"36142.55500000036","","","sona","survey-html-form","3","100711","0.0-3.0","2636537","co37681","norming","","","[{""name"":""sonaid"",""value"":""37681""},{""name"":""debrief"",""value"":""no""},{""name"":""datajoin"",""value"":""yes""}]","","","",""
"45963.7050000001","<div style='word-wrap: break-word; width: 900px'><h3>Instructions</h3><p>This experiment will have 3 parts. In the first part you will see a series of distorted images like the one below on the left. As you can see in the righthand image, the distorted images are derived from actual photographs. In what follows, you will <strong>briefly</strong> be presented with <strong>only</strong> the distorted image.</p> <div style='float: left; margin-right: 20px;'><img src='../img/018tt.jpg' height='250' width='250'></img></div><div style='float: right; margin-left: 20px;'><img src='../img/018gs.jpg' height='250' width='250'></img></div><p>Subsequently you will be asked a few questions about the image: One question on how <strong>curious</strong> you are about the solution and one on how <strong>confident</strong> you are that you know the solution.</p>Next, we ask you to make a guess on what is in the image. Note that it is OK to name just the <strong>basic level category</strong>. For example when you see a parrot in the image, 'parrot' will obviously be a correct answer but also correct is 'bird'. However, 'animal' will <strong>not</strong> be counted as a correct response. For the example above, 'rose' would be correct or 'flower', but not 'plant'. When soccer players are depicted, 'soccer', 'football', 'soccer players' will be correct, but not 'humans', 'outdoors', or 'sports'. You do not need to describe the image in full, just name the main object in it <strong>in one or two words</strong>. All images depict objects from one of the following broad level categories: animals, inanimate objects, plants, sports, vehicles, and food. Recognizing means knowing <strong>more</strong> than these broad labels for a given image. But we always encourage you to <strong>make a guess</strong> if you can. Note that you are allowed to use <strong>Dutch and English</strong> in your answers, whatever comes easiest for you.</p><p>Press any key to continue.</p></div>","32","instructions","html-keyboard-response","4","146670","0.0-4.0","2636537","co37681","norming","","","","","","",""
"27870.43999999878","<div style='word-wrap: break-word; width: 900px'><h3>Instructions</h3> <p>Next, the solution image will be revealed to you and you'll be asked to indicate how strong your <strong>aha-experience</strong> was after seeing the solution. This describes the positive feeling of the 'click' you sometimes experience, when the pieces of the 'puzzle' fall together and you suddenly have 'insight' in the image.</p><img src='aha.jpg' height='188' width='250'></img><p>Note that there are no right or wrong answers. We are interested in what <strong>you</strong> see in the image and how <strong>you</strong> feel about it.</p><p>Press any key to start the experiment.</p></div>","32","instructions","html-keyboard-response","5","174542","0.0-5.0","2636537","co37681","norming","","","","","","",""
"null","<div style=""font-size:60px;""> </div>","null","fixation","html-keyboard-response","6","174746","0.0-6.0-0.0","2636537","co37681","norming","","","","","","",""
"null","../img/tt/081tt.jpg","null","mooney1","image-keyboard-response","7","177752","0.0-6.0-1.0","2636537","co37681","norming","","","","","","",""
"14057.23000000036","","","post_mooney1_questions","survey-likert","8","191813","0.0-6.0-2.0","2636537","co37681","norming","","","{""curiosity"":4,""confidence"":2}","[0,1]","../img/tt/081tt.jpg","",""
"8053.695000000531","","","recognition","survey-text","9","199869","0.0-6.0-3.0","2636537","co37681","norming","","","{""guess"":""Cameleon""}","","../img/tt/081tt.jpg","",""
"null","../img/gs/081gs.jpg","null","reveal","image-keyboard-response","10","201871","0.0-6.0-4.0","2636537","co37681","norming","","","","","","",""
"null","../img/tt/081tt.jpg","null","mooney2","image-keyboard-response","11","203873","0.0-6.0-5.0","2636537","co37681","norming","","","","","","",""
"5689.480000000913","","","post_reveal_questions","survey-likert","12","209569","0.0-6.0-6.0","2636537","co37681","norming","","","{""aha"":1}","[0]","../img/tt/081tt.jpg","",""
"null","<div style=""font-size:60px;""> </div>","null","fixation","html-keyboard-response","13","209779","0.0-6.0-0.1","2636537","co37681","norming","","","","","","",""
"null","../img/tt/1027tt.jpg","null","mooney1","image-keyboard-response","14","212780","0.0-6.0-1.1","2636537","co37681","norming","","","","","","",""
"7171.125000000757","","","post_mooney1_questions","survey-likert","15","219954","0.0-6.0-2.1","2636537","co37681","norming","","","{""curiosity"":4,""confidence"":2}","[0,1]","../img/tt/1027tt.jpg","",""
"5158.015000000887","","","recognition","survey-text","16","225113","0.0-6.0-3.1","2636537","co37681","norming","","","{""guess"":""Horses""}","","../img/tt/1027tt.jpg","",""
"null","../img/gs/1027gs.jpg","null","reveal","image-keyboard-response","17","227116","0.0-6.0-4.1","2636537","co37681","norming","","","","","","",""
"null","../img/tt/1027tt.jpg","null","mooney2","image-keyboard-response","18","229119","0.0-6.0-5.1","2636537","co37681","norming","","","","","","",""
"5793.390000000742","","","post_reveal_questions","survey-likert","19","234913","0.0-6.0-6.1","2636537","co37681","norming","","","{""aha"":2}","[0]","../img/tt/1027tt.jpg","",""
"null","<div style=""font-size:60px;""> </div>","null","fixation","html-keyboard-response","20","235121","0.0-6.0-0.2","2636537","co37681","norming","","","","","","",""
"null","../img/tt/1151tt.jpg","null","mooney1","image-keyboard-response","21","238129","0.0-6.0-1.2","2636537","co37681","norming","","","","","","",""
"4966.404999999213","","","post_mooney1_questions","survey-likert","22","243098","0.0-6.0-2.2","2636537","co37681","norming","","","{""curiosity"":5,""confidence"":0}","[0,1]","../img/tt/1151tt.jpg","",""
"2798.0999999999767","","","recognition","survey-text","23","245897","0.0-6.0-3.2","2636537","co37681","norming","","","{""guess"":""""}","","../img/tt/1151tt.jpg","",""
"null","../img/gs/1151gs.jpg","null","reveal","image-keyboard-response","24","247904","0.0-6.0-4.2","2636537","co37681","norming","","","","","","",""
"null","../img/tt/1151tt.jpg","null","mooney2","image-keyboard-response","25","249906","0.0-6.0-5.2","2636537","co37681","norming","","","","","","",""
"6821.239999999321","","","post_reveal_questions","survey-likert","26","256729","0.0-6.0-6.2","2636537","co37681","norming","","","{""aha"":4}","[0]","../img/tt/1151tt.jpg","",""
"null","<div style=""font-size:60px;""> </div>","null","fixation","html-keyboard-response","27","256932","0.0-6.0-0.3","2636537","co37681","norming","","","","","","",""
"null","../img/tt/468tt.jpg","null","mooney1","image-keyboard-response","28","259938","0.0-6.0-1.3","2636537","co37681","norming","","","","","","",""
"6964.475000000675","","","post_mooney1_questions","survey-likert","29","266905","0.0-6.0-2.3","2636537","co37681","norming","","","{""curiosity"":5,""confidence"":1}","[0,1]","../img/tt/468tt.jpg","",""
"829.8850000009988","","","recognition","survey-text","30","267737","0.0-6.0-3.3","2636537","co37681","norming","","","{""guess"":""""}","","../img/tt/468tt.jpg","",""
"null","../img/gs/468gs.jpg","null","reveal","image-keyboard-response","31","269744","0.0-6.0-4.3","2636537","co37681","norming","","","","","","",""
"null","../img/tt/468tt.jpg","null","mooney2","image-keyboard-response","32","271752","0.0-6.0-5.3","2636537","co37681","norming","","","","","","",""
"3484.8950000014156","","","post_reveal_questions","survey-likert","33","275239","0.0-6.0-6.3","2636537","co37681","norming","","","{""aha"":4}","[0]","../img/tt/468tt.jpg","",""
"null","<div style=""font-size:60px;""> </div>","null","fixation","html-keyboard-response","34","275445","0.0-6.0-0.4","2636537","co37681","norming","","","","","","",""
"null","../img/tt/098tt.jpg","null","mooney1","image-keyboard-response","35","278449","0.0-6.0-1.4","2636537","co37681","norming","","","","","","",""
"4059.7749999997322","","","post_mooney1_questions","survey-likert","36","282511","0.0-6.0-2.4","2636537","co37681","norming","","","{""curiosity"":4,""confidence"":1}","[0,1]","../img/tt/098tt.jpg","",""
"886.1800000013318","","","recognition","survey-text","37","283399","0.0-6.0-3.4","2636537","co37681","norming","","","{""guess"":""""}","","../img/tt/098tt.jpg","",""
"null","../img/gs/098gs.jpg","null","reveal","image-keyboard-response","38","285407","0.0-6.0-4.4","2636537","co37681","norming","","","","","","",""
"null","../img/tt/098tt.jpg","null","mooney2","image-keyboard-response","39","287422","0.0-6.0-5.4","2636537","co37681","norming","","","","","","",""
"3375.5149999996647","","","post_reveal_questions","survey-likert","40","290799","0.0-6.0-6.4","2636537","co37681","norming","","","{""aha"":3}","[0]","../img/tt/098tt.jpg","",""
"null","<div style=""font-size:60px;""> </div>","null","fixation","html-keyboard-response","41","291005","0.0-6.0-0.5","2636537","co37681","norming","","","","","","",""
"null","../img/tt/1353tt.jpg","null","mooney1","image-keyboard-response","42","294010","0.0-6.0-1.5","2636537","co37681","norming","","","","","","",""
"7121.660000000731","","","post_mooney1_questions","survey-likert","43","301135","0.0-6.0-2.5","2636537","co37681","norming","","","{""curiosity"":5,""confidence"":1}","[0,1]","../img/tt/1353tt.jpg","",""
"989.8749999993015","","","recognition","survey-text","44","302126","0.0-6.0-3.5","2636537","co37681","norming","","","{""guess"":""""}","","../img/tt/1353tt.jpg","",""
"null","../img/gs/1353gs.jpg","null","reveal","image-keyboard-response","45","304131","0.0-6.0-4.5","2636537","co37681","norming","","","","","","",""
"null","../img/tt/1353tt.jpg","null","mooney2","image-keyboard-response","46","306141","0.0-6.0-5.5","2636537","co37681","norming","","","","","","",""
"2719.8600000010338","","","post_reveal_questions","survey-likert","47","308863","0.0-6.0-6.5","2636537","co37681","norming","","","{""aha"":4}","[0]","../img/tt/1353tt.jpg","",""
"null","<div style=""font-size:60px;""> </div>","null","fixation","html-keyboard-response","48","309071","0.0-6.0-0.6","2636537","co37681","norming","","","","","","",""
"null","../img/tt/1142tt.jpg","null","mooney1","image-keyboard-response","49","312074","0.0-6.0-1.6","2636537","co37681","norming","","","","","","",""
"13569.56499999977","","","post_mooney1_questions","survey-likert","50","325647","0.0-6.0-2.6","2636537","co37681","norming","","","{""curiosity"":4,""confidence"":1}","[0,1]","../img/tt/1142tt.jpg","",""
"3902.3200000010547","","","recognition","survey-text","51","329551","0.0-6.0-3.6","2636537","co37681","norming","","","{""guess"":""Dancer""}","","../img/tt/1142tt.jpg","",""
"null","../img/gs/1142gs.jpg","null","reveal","image-keyboard-response","52","331552","0.0-6.0-4.6","2636537","co37681","norming","","","","","","",""
"null","../img/tt/1142tt.jpg","null","mooney2","image-keyboard-response","53","333555","0.0-6.0-5.6","2636537","co37681","norming","","","","","","",""
"2865.3400000003166","","","post_reveal_questions","survey-likert","54","336423","0.0-6.0-6.6","2636537","co37681","norming","","","{""aha"":3}","[0]","../img/tt/1142tt.jpg","",""
"null","<div style=""font-size:60px;""> </div>","null","fixation","html-keyboard-response","55","336630","0.0-6.0-0.7","2636537","co37681","norming","","","","","","",""
"null","../img/tt/1096tt.jpg","null","mooney1","image-keyboard-response","56","339640","0.0-6.0-1.7","2636537","co37681","norming","","","","","","",""
"12996.869999999064","","","post_mooney1_questions","survey-likert","57","352639","0.0-6.0-2.7","2636537","co37681","norming","","","{""curiosity"":4,""confidence"":1}","[0,1]","../img/tt/1096tt.jpg","",""
"1246.1350000012317","","","recognition","survey-text","58","353887","0.0-6.0-3.7","2636537","co37681","norming","","","{""guess"":""""}","","../img/tt/1096tt.jpg","",""
"null","../img/gs/1096gs.jpg","null","reveal","image-keyboard-response","59","355894","0.0-6.0-4.7","2636537","co37681","norming","","","","","","",""
"null","../img/tt/1096tt.jpg","null","mooney2","image-keyboard-response","60","357897","0.0-6.0-5.7","2636537","co37681","norming","","","","","","",""
"5283.565000001574","","","post_reveal_questions","survey-likert","61","363183","0.0-6.0-6.7","2636537","co37681","norming","","","{""aha"":3}","[0]","../img/tt/1096tt.jpg","",""
"null","<div style=""font-size:60px;""> </div>","null","fixation","html-keyboard-response","62","363392","0.0-6.0-0.8","2636537","co37681","norming","","","","","","",""
"null","../img/tt/1107tt.jpg","null","mooney1","image-keyboard-response","63","366395","0.0-6.0-1.8","2636537","co37681","norming","","","","","","",""
"3297.514999998384","","","post_mooney1_questions","survey-likert","64","369695","0.0-6.0-2.8","2636537","co37681","norming","","","{""curiosity"":4,""confidence"":0}","[0,1]","../img/tt/1107tt.jpg","",""
"1013.9849999995786","","","recognition","survey-text","65","370711","0.0-6.0-3.8","2636537","co37681","norming","","","{""guess"":""""}","","../img/tt/1107tt.jpg","",""
"null","../img/gs/1107gs.jpg","null","reveal","image-keyboard-response","66","372717","0.0-6.0-4.8","2636537","co37681","norming","","","","","","",""
"null","../img/tt/1107tt.jpg","null","mooney2","image-keyboard-response","67","374728","0.0-6.0-5.8","2636537","co37681","norming","","","","","","",""
"2732.909999998752","","","post_reveal_questions","survey-likert","68","377463","0.0-6.0-6.8","2636537","co37681","norming","","","{""aha"":4}","[0]","../img/tt/1107tt.jpg","",""
"null","<div style=""font-size:60px;""> </div>","null","fixation","html-keyboard-response","69","377674","0.0-6.0-0.9","2636537","co37681","norming","","","","","","",""
"null","../img/tt/353tt.jpg","null","mooney1","image-keyboard-response","70","380678","0.0-6.0-1.9","2636537","co37681","norming","","","","","","",""
"6135.034999999334","","","post_mooney1_questions","survey-likert","71","386815","0.0-6.0-2.9","2636537","co37681","norming","","","{""curiosity"":4,""confidence"":1}","[0,1]","../img/tt/353tt.jpg","",""
"4142.089999999385","","","recognition","survey-text","72","390959","0.0-6.0-3.9","2636537","co37681","norming","","","{""guess"":""bird""}","","../img/tt/353tt.jpg","",""
"null","../img/gs/353gs.jpg","null","reveal","image-keyboard-response","73","392969","0.0-6.0-4.9","2636537","co37681","norming","","","","","","",""
"null","../img/tt/353tt.jpg","null","mooney2","image-keyboard-response","74","394972","0.0-6.0-5.9","2636537","co37681","norming","","","","","","",""
"2889.064999999362","","","post_reveal_questions","survey-likert","75","397864","0.0-6.0-6.9","2636537","co37681","norming","","","{""aha"":2}","[0]","../img/tt/353tt.jpg","",""
"null","<div style=""font-size:60px;""> </div>","null","fixation","html-keyboard-response","76","398067","0.0-6.0-0.10","2636537","co37681","norming","","","","","","",""
"null","../img/tt/1272tt.jpg","null","mooney1","image-keyboard-response","77","401078","0.0-6.0-1.10","2636537","co37681","norming","","","","","","",""
"5744.849999999162","","","post_mooney1_questions","survey-likert","78","406824","0.0-6.0-2.10","2636537","co37681","norming","","","{""curiosity"":4,""confidence"":1}","[0,1]","../img/tt/1272tt.jpg","",""
"3245.2150000008405","","","recognition","survey-text","79","410072","0.0-6.0-3.10","2636537","co37681","norming","","","{""guess"":""pig""}","","../img/tt/1272tt.jpg","",""
"null","../img/gs/1272gs.jpg","null","reveal","image-keyboard-response","80","412083","0.0-6.0-4.10","2636537","co37681","norming","","","","","","",""
"null","../img/tt/1272tt.jpg","null","mooney2","image-keyboard-response","81","414091","0.0-6.0-5.10","2636537","co37681","norming","","","","","","",""
"2170.060000000405","","","post_reveal_questions","survey-likert","82","416264","0.0-6.0-6.10","2636537","co37681","norming","","","{""aha"":2}","[0]","../img/tt/1272tt.jpg","",""
"null","<div style=""font-size:60px;""> </div>","null","fixation","html-keyboard-response","83","416472","0.0-6.0-0.11","2636537","co37681","norming","","","","","","",""
"null","../img/tt/1061tt.jpg","null","mooney1","image-keyboard-response","84","419480","0.0-6.0-1.11","2636537","co37681","norming","","","","","","",""
"13509.004999999888","","","post_mooney1_questions","survey-likert","85","432992","0.0-6.0-2.11","2636537","co37681","norming","","","{""curiosity"":4,""confidence"":1}","[0,1]","../img/tt/1061tt.jpg","",""
"725.9950000006938","","","recognition","survey-text","86","433719","0.0-6.0-3.11","2636537","co37681","norming","","","{""guess"":""""}","","../img/tt/1061tt.jpg","",""
"null","../img/gs/1061gs.jpg","null","reveal","image-keyboard-response","87","435729","0.0-6.0-4.11","2636537","co37681","norming","","","","","","",""
"null","../img/tt/1061tt.jpg","null","mooney2","image-keyboard-response","88","437731","0.0-6.0-5.11","2636537","co37681","norming","","","","","","",""
"3298.1249999993015","","","post_reveal_questions","survey-likert","89","441031","0.0-6.0-6.11","2636537","co37681","norming","","","{""aha"":1}","[0]","../img/tt/1061tt.jpg","",""
"null","<div style=""font-size:60px;""> </div>","null","fixation","html-keyboard-response","90","441234","0.0-6.0-0.12","2636537","co37681","norming","","","","","","",""
"null","../img/tt/1126tt.jpg","null","mooney1","image-keyboard-response","91","444243","0.0-6.0-1.12","2636537","co37681","norming","","","","","","",""
"4249.8950000008335","","","post_mooney1_questions","survey-likert","92","448496","0.0-6.0-2.12","2636537","co37681","norming","","","{""curiosity"":5,""confidence"":0}","[0,1]","../img/tt/1126tt.jpg","",""
"1238.1050000003888","","","recognition","survey-text","93","449735","0.0-6.0-3.12","2636537","co37681","norming","","","{""guess"":""""}","","../img/tt/1126tt.jpg","",""
"null","../img/gs/1126gs.jpg","null","reveal","image-keyboard-response","94","451737","0.0-6.0-4.12","2636537","co37681","norming","","","","","","",""
"null","../img/tt/1126tt.jpg","null","mooney2","image-keyboard-response","95","453747","0.0-6.0-5.12","2636537","co37681","norming","","","","","","",""
"4978.430000001041","","","post_reveal_questions","survey-likert","96","458728","0.0-6.0-6.12","2636537","co37681","norming","","","{""aha"":4}","[0]","../img/tt/1126tt.jpg","",""
"null","<div style=""font-size:60px;""> </div>","null","fixation","html-keyboard-response","97","458937","0.0-6.0-0.13","2636537","co37681","norming","","","","","","",""
"null","../img/tt/438tt.jpg","null","mooney1","image-keyboard-response","98","461944","0.0-6.0-1.13","2636537","co37681","norming","","","","","","",""
"4876.804999999877","","","post_mooney1_questions","survey-likert","99","466824","0.0-6.0-2.13","2636537","co37681","norming","","","{""curiosity"":5,""confidence"":0}","[0,1]","../img/tt/438tt.jpg","",""
"1198.1100000011502","","","recognition","survey-text","100","468024","0.0-6.0-3.13","2636537","co37681","norming","","","{""guess"":""""}","","../img/tt/438tt.jpg","",""
"null","../img/gs/438gs.jpg","null","reveal","image-keyboard-response","101","470030","0.0-6.0-4.13","2636537","co37681","norming","","","","","","",""
"null","../img/tt/438tt.jpg","null","mooney2","image-keyboard-response","102","472036","0.0-6.0-5.13","2636537","co37681","norming","","","","","","",""
"2361.495000001043","","","post_reveal_questions","survey-likert","103","474400","0.0-6.0-6.13","2636537","co37681","norming","","","{""aha"":4}","[0]","../img/tt/438tt.jpg","",""
"null","<div style=""font-size:60px;""> </div>","null","fixation","html-keyboard-response","104","474602","0.0-6.0-0.14","2636537","co37681","norming","","","","","","",""
"null","../img/tt/1362tt.jpg","null","mooney1","image-keyboard-response","105","477607","0.0-6.0-1.14","2636537","co37681","norming","","","","","","",""
"4806.164999999979","","","post_mooney1_questions","survey-likert","106","482416","0.0-6.0-2.14","2636537","co37681","norming","","","{""curiosity"":4,""confidence"":1}","[0,1]","../img/tt/1362tt.jpg","",""
"3565.909999999334","","","recognition","survey-text","107","485984","0.0-6.0-3.14","2636537","co37681","norming","","","{""guess"":""camera""}","","../img/tt/1362tt.jpg","",""
"null","../img/gs/1362gs.jpg","null","reveal","image-keyboard-response","108","487985","0.0-6.0-4.14","2636537","co37681","norming","","","","","","",""
"null","../img/tt/1362tt.jpg","null","mooney2","image-keyboard-response","109","489987","0.0-6.0-5.14","2636537","co37681","norming","","","","","","",""
"3186.1549999993877","","","post_reveal_questions","survey-likert","110","493176","0.0-6.0-6.14","2636537","co37681","norming","","","{""aha"":4}","[0]","../img/tt/1362tt.jpg","",""
"null","<div style=""font-size:60px;""> </div>","null","fixation","html-keyboard-response","111","493377","0.0-6.0-0.15","2636537","co37681","norming","","","","","","",""
"null","../img/tt/1173tt.jpg","null","mooney1","image-keyboard-response","112","496386","0.0-6.0-1.15","2636537","co37681","norming","","","","","","",""
"5603.5749999991385","","","post_mooney1_questions","survey-likert","113","501992","0.0-6.0-2.15","2636537","co37681","norming","","","{""curiosity"":3,""confidence"":1}","[0,1]","../img/tt/1173tt.jpg","",""
"5494.065000000817","","","recognition","survey-text","114","507488","0.0-6.0-3.15","2636537","co37681","norming","","","{""guess"":""cheerleading""}","","../img/tt/1173tt.jpg","",""
"null","../img/gs/1173gs.jpg","null","reveal","image-keyboard-response","115","509494","0.0-6.0-4.15","2636537","co37681","norming","","","","","","",""
"null","../img/tt/1173tt.jpg","null","mooney2","image-keyboard-response","116","511496","0.0-6.0-5.15","2636537","co37681","norming","","","","","","",""
"5190.020000000019","","","post_reveal_questions","survey-likert","117","516680","0.0-6.0-6.15","2636537","co37681","norming","","","{""aha"":1}","[0]","../img/tt/1173tt.jpg","",""
"null","<div style=""font-size:60px;""> </div>","null","fixation","html-keyboard-response","118","516884","0.0-6.0-0.16","2636537","co37681","norming","","","","","","",""
"null","../img/tt/1171tt.jpg","null","mooney1","image-keyboard-response","119","519888","0.0-6.0-1.16","2636537","co37681","norming","","","","","","",""
"4549.920000001264","","","post_mooney1_questions","survey-likert","120","524440","0.0-6.0-2.16","2636537","co37681","norming","","","{""curiosity"":5,""confidence"":0}","[0,1]","../img/tt/1171tt.jpg","",""
"1166.0799999991432","","","recognition","survey-text","121","525608","0.0-6.0-3.16","2636537","co37681","norming","","","{""guess"":""""}","","../img/tt/1171tt.jpg","",""
"null","../img/gs/1171gs.jpg","null","reveal","image-keyboard-response","122","527615","0.0-6.0-4.16","2636537","co37681","norming","","","","","","",""
"null","../img/tt/1171tt.jpg","null","mooney2","image-keyboard-response","123","529625","0.0-6.0-5.16","2636537","co37681","norming","","","","","","",""
"3260.7800000004936","","","post_reveal_questions","survey-likert","124","532888","0.0-6.0-6.16","2636537","co37681","norming","","","{""aha"":4}","[0]","../img/tt/1171tt.jpg","",""
"null","<div style=""font-size:60px;""> </div>","null","fixation","html-keyboard-response","125","533093","0.0-6.0-0.17","2636537","co37681","norming","","","","","","",""
"null","../img/tt/135tt.jpg","null","mooney1","image-keyboard-response","126","536103","0.0-6.0-1.17","2636537","co37681","norming","","","","","","",""
"5295.469999999157","","","post_mooney1_questions","survey-likert","127","541400","0.0-6.0-2.17","2636537","co37681","norming","","","{""curiosity"":5,""confidence"":0}","[0,1]","../img/tt/135tt.jpg","",""
"901.934999999823","","","recognition","survey-text","128","542304","0.0-6.0-3.17","2636537","co37681","norming","","","{""guess"":""""}","","../img/tt/135tt.jpg","",""
"null","../img/gs/135gs.jpg","null","reveal","image-keyboard-response","129","544312","0.0-6.0-4.17","2636537","co37681","norming","","","","","","",""
"null","../img/tt/135tt.jpg","null","mooney2","image-keyboard-response","130","546323","0.0-6.0-5.17","2636537","co37681","norming","","","","","","",""
"3507.070000001462","","","post_reveal_questions","survey-likert","131","549832","0.0-6.0-6.17","2636537","co37681","norming","","","{""aha"":4}","[0]","../img/tt/135tt.jpg","",""
"null","<div style=""font-size:60px;""> </div>","null","fixation","html-keyboard-response","132","550036","0.0-6.0-0.18","2636537","co37681","norming","","","","","","",""
"null","../img/tt/076tt.jpg","null","mooney1","image-keyboard-response","133","553042","0.0-6.0-1.18","2636537","co37681","norming","","","","","","",""
"11789.419999999227","","","post_mooney1_questions","survey-likert","134","564832","0.0-6.0-2.18","2636537","co37681","norming","","","{""curiosity"":2,""confidence"":1}","[0,1]","../img/tt/076tt.jpg","",""
"5678.079999999725","","","recognition","survey-text","135","570512","0.0-6.0-3.18","2636537","co37681","norming","","","{""guess"":""rollerskating""}","","../img/tt/076tt.jpg","",""
"null","../img/gs/076gs.jpg","null","reveal","image-keyboard-response","136","572513","0.0-6.0-4.18","2636537","co37681","norming","","","","","","",""
"null","../img/tt/076tt.jpg","null","mooney2","image-keyboard-response","137","574517","0.0-6.0-5.18","2636537","co37681","norming","","","","","","",""
"6320.454999999027","","","post_reveal_questions","survey-likert","138","580839","0.0-6.0-6.18","2636537","co37681","norming","","","{""aha"":0}","[0]","../img/tt/076tt.jpg","",""
"null","<div style=""font-size:60px;""> </div>","null","fixation","html-keyboard-response","139","581049","0.0-6.0-0.19","2636537","co37681","norming","","","","","","",""
"null","../img/tt/1125tt.jpg","null","mooney1","image-keyboard-response","140","584059","0.0-6.0-1.19","2636537","co37681","norming","","","","","","",""
"5898.554999999818","","","post_mooney1_questions","survey-likert","141","589959","0.0-6.0-2.19","2636537","co37681","norming","","","{""curiosity"":5,""confidence"":0}","[0,1]","../img/tt/1125tt.jpg","",""
"1382.1300000000047","","","recognition","survey-text","142","591343","0.0-6.0-3.19","2636537","co37681","norming","","","{""guess"":""""}","","../img/tt/1125tt.jpg","",""
"null","../img/gs/1125gs.jpg","null","reveal","image-keyboard-response","143","593352","0.0-6.0-4.19","2636537","co37681","norming","","","","","","",""
"null","../img/tt/1125tt.jpg","null","mooney2","image-keyboard-response","144","595363","0.0-6.0-5.19","2636537","co37681","norming","","","","","","",""
"2009.654999999795","","","post_reveal_questions","survey-likert","145","597375","0.0-6.0-6.19","2636537","co37681","norming","","","{""aha"":4}","[0]","../img/tt/1125tt.jpg","",""
"null","<div style=""font-size:60px;""> </div>","null","fixation","html-keyboard-response","146","597582","0.0-6.0-0.20","2636537","co37681","norming","","","","","","",""
"null","../img/tt/1186tt.jpg","null","mooney1","image-keyboard-response","147","600586","0.0-6.0-1.20","2636537","co37681","norming","","","","","","",""
"6170.750000001164","","","post_mooney1_questions","survey-likert","148","606759","0.0-6.0-2.20","2636537","co37681","norming","","","{""curiosity"":3,""confidence"":1}","[0,1]","../img/tt/1186tt.jpg","",""
"6070.19000000041","","","recognition","survey-text","149","612831","0.0-6.0-3.20","2636537","co37681","norming","","","{""guess"":""roller skating""}","","../img/tt/1186tt.jpg","",""
"null","../img/gs/1186gs.jpg","null","reveal","image-keyboard-response","150","614842","0.0-6.0-4.20","2636537","co37681","norming","","","","","","",""
"null","../img/tt/1186tt.jpg","null","mooney2","image-keyboard-response","151","616845","0.0-6.0-5.20","2636537","co37681","norming","","","","","","",""
"3351.8699999985984","","","post_reveal_questions","survey-likert","152","620199","0.0-6.0-6.20","2636537","co37681","norming","","","{""aha"":1}","[0]","../img/tt/1186tt.jpg","",""
"null","<div style=""font-size:60px;""> </div>","null","fixation","html-keyboard-response","153","620401","0.0-6.0-0.21","2636537","co37681","norming","","","","","","",""
"null","../img/tt/405tt.jpg","null","mooney1","image-keyboard-response","154","623405","0.0-6.0-1.21","2636537","co37681","norming","","","","","","",""
"4584.210000000894","","","post_mooney1_questions","survey-likert","155","627992","0.0-6.0-2.21","2636537","co37681","norming","","","{""curiosity"":5,""confidence"":0}","[0,1]","../img/tt/405tt.jpg","",""
"1150.0249999989755","","","recognition","survey-text","156","629143","0.0-6.0-3.21","2636537","co37681","norming","","","{""guess"":""""}","","../img/tt/405tt.jpg","",""
"null","../img/gs/405gs.jpg","null","reveal","image-keyboard-response","157","631147","0.0-6.0-4.21","2636537","co37681","norming","","","","","","",""
"null","../img/tt/405tt.jpg","null","mooney2","image-keyboard-response","158","633157","0.0-6.0-5.21","2636537","co37681","norming","","","","","","",""
"2641.859999999753","","","post_reveal_questions","survey-likert","159","635799","0.0-6.0-6.21","2636537","co37681","norming","","","{""aha"":4}","[0]","../img/tt/405tt.jpg","",""
"null","<div style=""font-size:60px;""> </div>","null","fixation","html-keyboard-response","160","636003","0.0-6.0-0.22","2636537","co37681","norming","","","","","","",""
"null","../img/tt/1211tt.jpg","null","mooney1","image-keyboard-response","161","639011","0.0-6.0-1.22","2636537","co37681","norming","","","","","","",""
"4978.105000000098","","","post_mooney1_questions","survey-likert","162","643998","0.0-6.0-2.22","2636537","co37681","norming","","","{""curiosity"":2,""confidence"":1}","[0,1]","../img/tt/1211tt.jpg","",""
"7430.075000000303","","","recognition","survey-text","163","651430","0.0-6.0-3.22","2636537","co37681","norming","","","{""guess"":""Mini golf""}","","../img/tt/1211tt.jpg","",""
"null","../img/gs/1211gs.jpg","null","reveal","image-keyboard-response","164","653432","0.0-6.0-4.22","2636537","co37681","norming","","","","","","",""
"null","../img/tt/1211tt.jpg","null","mooney2","image-keyboard-response","165","655434","0.0-6.0-5.22","2636537","co37681","norming","","","","","","",""
"2545.5600000005215","","","post_reveal_questions","survey-likert","166","657982","0.0-6.0-6.22","2636537","co37681","norming","","","{""aha"":0}","[0]","../img/tt/1211tt.jpg","",""
"null","<div style=""font-size:60px;""> </div>","null","fixation","html-keyboard-response","167","658188","0.0-6.0-0.23","2636537","co37681","norming","","","","","","",""
"null","../img/tt/1275tt.jpg","null","mooney1","image-keyboard-response","168","661197","0.0-6.0-1.23","2636537","co37681","norming","","","","","","",""
"4735.5200000002515","","","post_mooney1_questions","survey-likert","169","665934","0.0-6.0-2.23","2636537","co37681","norming","","","{""curiosity"":1,""confidence"":1}","[0,1]","../img/tt/1275tt.jpg","",""
"6901.99000000034","","","recognition","survey-text","170","672838","0.0-6.0-3.23","2636537","co37681","norming","","","{""guess"":""Koala""}","","../img/tt/1275tt.jpg","",""
"null","../img/gs/1275gs.jpg","null","reveal","image-keyboard-response","171","674848","0.0-6.0-4.23","2636537","co37681","norming","","","","","","",""
"null","../img/tt/1275tt.jpg","null","mooney2","image-keyboard-response","172","676855","0.0-6.0-5.23","2636537","co37681","norming","","","","","","",""
"2764.32500000007","","","post_reveal_questions","survey-likert","173","679622","0.0-6.0-6.23","2636537","co37681","norming","","","{""aha"":3}","[0]","../img/tt/1275tt.jpg","",""
"null","<div style=""font-size:60px;""> </div>","null","fixation","html-keyboard-response","174","679825","0.0-6.0-0.24","2636537","co37681","norming","","","","","","",""
"null","../img/tt/1199tt.jpg","null","mooney1","image-keyboard-response","175","682836","0.0-6.0-1.24","2636537","co37681","norming","","","","","","",""
"4766.66000000108","","","post_mooney1_questions","survey-likert","176","687606","0.0-6.0-2.24","2636537","co37681","norming","","","{""curiosity"":3,""confidence"":1}","[0,1]","../img/tt/1199tt.jpg","",""
"1805.6249999990687","","","recognition","survey-text","177","689414","0.0-6.0-3.24","2636537","co37681","norming","","","{""guess"":""""}","","../img/tt/1199tt.jpg","",""
"null","../img/gs/1199gs.jpg","null","reveal","image-keyboard-response","178","691419","0.0-6.0-4.24","2636537","co37681","norming","","","","","","",""
"null","../img/tt/1199tt.jpg","null","mooney2","image-keyboard-response","179","693420","0.0-6.0-5.24","2636537","co37681","norming","","","","","","",""
"3270.964999999618","","","post_reveal_questions","survey-likert","180","696694","0.0-6.0-6.24","2636537","co37681","norming","","","{""aha"":1}","[0]","../img/tt/1199tt.jpg","",""
"null","<div style=""font-size:60px;""> </div>","null","fixation","html-keyboard-response","181","696903","0.0-6.0-0.25","2636537","co37681","norming","","","","","","",""
"null","../img/tt/1080tt.jpg","null","mooney1","image-keyboard-response","182","699914","0.0-6.0-1.25","2636537","co37681","norming","","","","","","",""
"5465.330000000889","","","post_mooney1_questions","survey-likert","183","705379","0.0-6.0-2.25","2636537","co37681","norming","","","{""curiosity"":4,""confidence"":0}","[0,1]","../img/tt/1080tt.jpg","",""
"869.5699999990175","","","recognition","survey-text","184","706250","0.0-6.0-3.25","2636537","co37681","norming","","","{""guess"":""""}","","../img/tt/1080tt.jpg","",""
"null","../img/gs/1080gs.jpg","null","reveal","image-keyboard-response","185","708254","0.0-6.0-4.25","2636537","co37681","norming","","","","","","",""
"null","../img/tt/1080tt.jpg","null","mooney2","image-keyboard-response","186","710255","0.0-6.0-5.25","2636537","co37681","norming","","","","","","",""
"2544.6699999993434","","","post_reveal_questions","survey-likert","187","712802","0.0-6.0-6.25","2636537","co37681","norming","","","{""aha"":5}","[0]","../img/tt/1080tt.jpg","",""
"null","<div style=""font-size:60px;""> </div>","null","fixation","html-keyboard-response","188","713005","0.0-6.0-0.26","2636537","co37681","norming","","","","","","",""
"null","../img/tt/580tt.jpg","null","mooney1","image-keyboard-response","189","716015","0.0-6.0-1.26","2636537","co37681","norming","","","","","","",""
"4088.5450000005076","","","post_mooney1_questions","survey-likert","190","720107","0.0-6.0-2.26","2636537","co37681","norming","","","{""curiosity"":5,""confidence"":0}","[0,1]","../img/tt/580tt.jpg","",""
"1013.8999999999069","","","recognition","survey-text","191","721122","0.0-6.0-3.26","2636537","co37681","norming","","","{""guess"":""""}","","../img/tt/580tt.jpg","",""
"null","../img/gs/580gs.jpg","null","reveal","image-keyboard-response","192","723125","0.0-6.0-4.26","2636537","co37681","norming","","","","","","",""
"null","../img/tt/580tt.jpg","null","mooney2","image-keyboard-response","193","725126","0.0-6.0-5.26","2636537","co37681","norming","","","","","","",""
"2866.9750000007916","","","post_reveal_questions","survey-likert","194","727994","0.0-6.0-6.26","2636537","co37681","norming","","","{""aha"":3}","[0]","../img/tt/580tt.jpg","",""
"null","<div style=""font-size:60px;""> </div>","null","fixation","html-keyboard-response","195","728197","0.0-6.0-0.27","2636537","co37681","norming","","","","","","",""
"null","../img/tt/105tt.jpg","null","mooney1","image-keyboard-response","196","731207","0.0-6.0-1.27","2636537","co37681","norming","","","","","","",""
"3881.8800000008196","","","post_mooney1_questions","survey-likert","197","735090","0.0-6.0-2.27","2636537","co37681","norming","","","{""curiosity"":6,""confidence"":0}","[0,1]","../img/tt/105tt.jpg","",""
"886.2399999997579","","","recognition","survey-text","198","735978","0.0-6.0-3.27","2636537","co37681","norming","","","{""guess"":""""}","","../img/tt/105tt.jpg","",""
"null","../img/gs/105gs.jpg","null","reveal","image-keyboard-response","199","737981","0.0-6.0-4.27","2636537","co37681","norming","","","","","","",""
"null","../img/tt/105tt.jpg","null","mooney2","image-keyboard-response","200","739985","0.0-6.0-5.27","2636537","co37681","norming","","","","","","",""
"3182.9350000007544","","","post_reveal_questions","survey-likert","201","743170","0.0-6.0-6.27","2636537","co37681","norming","","","{""aha"":5}","[0]","../img/tt/105tt.jpg","",""
"null","<div style=""font-size:60px;""> </div>","null","fixation","html-keyboard-response","202","743379","0.0-6.0-0.28","2636537","co37681","norming","","","","","","",""
"null","../img/tt/1283tt.jpg","null","mooney1","image-keyboard-response","203","746386","0.0-6.0-1.28","2636537","co37681","norming","","","","","","",""
"3581.0399999992223","","","post_mooney1_questions","survey-likert","204","749970","0.0-6.0-2.28","2636537","co37681","norming","","","{""curiosity"":5,""confidence"":0}","[0,1]","../img/tt/1283tt.jpg","",""
"918.1800000006333","","","recognition","survey-text","205","750890","0.0-6.0-3.28","2636537","co37681","norming","","","{""guess"":""""}","","../img/tt/1283tt.jpg","",""
"null","../img/gs/1283gs.jpg","null","reveal","image-keyboard-response","206","752895","0.0-6.0-4.28","2636537","co37681","norming","","","","","","",""
"null","../img/tt/1283tt.jpg","null","mooney2","image-keyboard-response","207","754896","0.0-6.0-5.28","2636537","co37681","norming","","","","","","",""
"2415.7300000005635","","","post_reveal_questions","survey-likert","208","757315","0.0-6.0-6.28","2636537","co37681","norming","","","{""aha"":4}","[0]","../img/tt/1283tt.jpg","",""
"null","<div style=""font-size:60px;""> </div>","null","fixation","html-keyboard-response","209","757516","0.0-6.0-0.29","2636537","co37681","norming","","","","","","",""
"null","../img/tt/1072tt.jpg","null","mooney1","image-keyboard-response","210","760524","0.0-6.0-1.29","2636537","co37681","norming","","","","","","",""
"3813.149999999907","","","post_mooney1_questions","survey-likert","211","764345","0.0-6.0-2.29","2636537","co37681","norming","","","{""curiosity"":5,""confidence"":1}","[0,1]","../img/tt/1072tt.jpg","",""
"2878.1299999990733","","","recognition","survey-text","212","767224","0.0-6.0-3.29","2636537","co37681","norming","","","{""guess"":""dog""}","","../img/tt/1072tt.jpg","",""
"null","../img/gs/1072gs.jpg","null","reveal","image-keyboard-response","213","769225","0.0-6.0-4.29","2636537","co37681","norming","","","","","","",""
"null","../img/tt/1072tt.jpg","null","mooney2","image-keyboard-response","214","771235","0.0-6.0-5.29","2636537","co37681","norming","","","","","","",""
"3044.1100000006845","","","post_reveal_questions","survey-likert","215","774280","0.0-6.0-6.29","2636537","co37681","norming","","","{""aha"":1}","[0]","../img/tt/1072tt.jpg","",""
"null","<div style=""font-size:60px;""> </div>","null","fixation","html-keyboard-response","216","774489","0.0-6.0-0.30","2636537","co37681","norming","","","","","","",""
"null","../img/tt/140tt.jpg","null","mooney1","image-keyboard-response","217","777495","0.0-6.0-1.30","2636537","co37681","norming","","","","","","",""
"6615.085000001243","","","post_mooney1_questions","survey-likert","218","784113","0.0-6.0-2.30","2636537","co37681","norming","","","{""curiosity"":0,""confidence"":6}","[0,1]","../img/tt/140tt.jpg","",""
"5398.034999998403","","","recognition","survey-text","219","789513","0.0-6.0-3.30","2636537","co37681","norming","","","{""guess"":""fork""}","","../img/tt/140tt.jpg","",""
"null","../img/gs/140gs.jpg","null","reveal","image-keyboard-response","220","791521","0.0-6.0-4.30","2636537","co37681","norming","","","","","","",""
"null","../img/tt/140tt.jpg","null","mooney2","image-keyboard-response","221","793524","0.0-6.0-5.30","2636537","co37681","norming","","","","","","",""
"2265.4649999985704","","","post_reveal_questions","survey-likert","222","795792","0.0-6.0-6.30","2636537","co37681","norming","","","{""aha"":0}","[0]","../img/tt/140tt.jpg","",""
"null","<div style=""font-size:60px;""> </div>","null","fixation","html-keyboard-response","223","796003","0.0-6.0-0.31","2636537","co37681","norming","","","","","","",""
"null","../img/tt/315tt.jpg","null","mooney1","image-keyboard-response","224","799012","0.0-6.0-1.31","2636537","co37681","norming","","","","","","",""
"4786.56500000041","","","post_mooney1_questions","survey-likert","225","803801","0.0-6.0-2.31","2636537","co37681","norming","","","{""curiosity"":1,""confidence"":3}","[0,1]","../img/tt/315tt.jpg","",""
"3038.6400000007125","","","recognition","survey-text","226","806841","0.0-6.0-3.31","2636537","co37681","norming","","","{""guess"":""bird""}","","../img/tt/315tt.jpg","",""
"null","../img/gs/315gs.jpg","null","reveal","image-keyboard-response","227","808843","0.0-6.0-4.31","2636537","co37681","norming","","","","","","",""
"null","../img/tt/315tt.jpg","null","mooney2","image-keyboard-response","228","810852","0.0-6.0-5.31","2636537","co37681","norming","","","","","","",""
"2649.000000001164","","","post_reveal_questions","survey-likert","229","813504","0.0-6.0-6.31","2636537","co37681","norming","","","{""aha"":4}","[0]","../img/tt/315tt.jpg","",""
"null","<div style=""font-size:60px;""> </div>","null","fixation","html-keyboard-response","230","813711","0.0-6.0-0.32","2636537","co37681","norming","","","","","","",""
"null","../img/tt/044tt.jpg","null","mooney1","image-keyboard-response","231","816723","0.0-6.0-1.32","2636537","co37681","norming","","","","","","",""
"4482.695000000647","","","post_mooney1_questions","survey-likert","232","821208","0.0-6.0-2.32","2636537","co37681","norming","","","{""curiosity"":5,""confidence"":0}","[0,1]","../img/tt/044tt.jpg","",""
"910.4250000000466","","","recognition","survey-text","233","822120","0.0-6.0-3.32","2636537","co37681","norming","","","{""guess"":""""}","","../img/tt/044tt.jpg","",""
"null","../img/gs/044gs.jpg","null","reveal","image-keyboard-response","234","824128","0.0-6.0-4.32","2636537","co37681","norming","","","","","","",""
"null","../img/tt/044tt.jpg","null","mooney2","image-keyboard-response","235","826130","0.0-6.0-5.32","2636537","co37681","norming","","","","","","",""
"2669.694999998668","","","post_reveal_questions","survey-likert","236","828802","0.0-6.0-6.32","2636537","co37681","norming","","","{""aha"":5}","[0]","../img/tt/044tt.jpg","",""
"null","<div style=""font-size:60px;""> </div>","null","fixation","html-keyboard-response","237","829005","0.0-6.0-0.33","2636537","co37681","norming","","","","","","",""
"null","../img/tt/442tt.jpg","null","mooney1","image-keyboard-response","238","832010","0.0-6.0-1.33","2636537","co37681","norming","","","","","","",""
"5500.759999999078","","","post_mooney1_questions","survey-likert","239","837514","0.0-6.0-2.33","2636537","co37681","norming","","","{""curiosity"":4,""confidence"":1}","[0,1]","../img/tt/442tt.jpg","",""
"4094.109999999986","","","recognition","survey-text","240","841610","0.0-6.0-3.33","2636537","co37681","norming","","","{""guess"":""flowers""}","","../img/tt/442tt.jpg","",""
"null","../img/gs/442gs.jpg","null","reveal","image-keyboard-response","241","843616","0.0-6.0-4.33","2636537","co37681","norming","","","","","","",""
"null","../img/tt/442tt.jpg","null","mooney2","image-keyboard-response","242","845617","0.0-6.0-5.33","2636537","co37681","norming","","","","","","",""
"2311.3999999986263","","","post_reveal_questions","survey-likert","243","847930","0.0-6.0-6.33","2636537","co37681","norming","","","{""aha"":4}","[0]","../img/tt/442tt.jpg","",""
"null","<div style=""font-size:60px;""> </div>","null","fixation","html-keyboard-response","244","848136","0.0-6.0-0.34","2636537","co37681","norming","","","","","","",""
"null","../img/tt/1055tt.jpg","null","mooney1","image-keyboard-response","245","851148","0.0-6.0-1.34","2636537","co37681","norming","","","","","","",""
"3429.014999999781","","","post_mooney1_questions","survey-likert","246","854578","0.0-6.0-2.34","2636537","co37681","norming","","","{""curiosity"":5,""confidence"":0}","[0,1]","../img/tt/1055tt.jpg","",""
"1165.8900000002468","","","recognition","survey-text","247","855746","0.0-6.0-3.34","2636537","co37681","norming","","","{""guess"":""""}","","../img/tt/1055tt.jpg","",""
"null","../img/gs/1055gs.jpg","null","reveal","image-keyboard-response","248","857754","0.0-6.0-4.34","2636537","co37681","norming","","","","","","",""
"null","../img/tt/1055tt.jpg","null","mooney2","image-keyboard-response","249","859757","0.0-6.0-5.34","2636537","co37681","norming","","","","","","",""
"2266.4150000000373","","","post_reveal_questions","survey-likert","250","862026","0.0-6.0-6.34","2636537","co37681","norming","","","{""aha"":4}","[0]","../img/tt/1055tt.jpg","",""
"null","<div style=""font-size:60px;""> </div>","null","fixation","html-keyboard-response","251","862227","0.0-6.0-0.35","2636537","co37681","norming","","","","","","",""
"null","../img/tt/306tt.jpg","null","mooney1","image-keyboard-response","252","865231","0.0-6.0-1.35","2636537","co37681","norming","","","","","","",""
"4889.255000000005","","","post_mooney1_questions","survey-likert","253","870122","0.0-6.0-2.35","2636537","co37681","norming","","","{""curiosity"":5,""confidence"":0}","[0,1]","../img/tt/306tt.jpg","",""
"1069.975000000326","","","recognition","survey-text","254","871194","0.0-6.0-3.35","2636537","co37681","norming","","","{""guess"":""""}","","../img/tt/306tt.jpg","",""
"null","../img/gs/306gs.jpg","null","reveal","image-keyboard-response","255","873202","0.0-6.0-4.35","2636537","co37681","norming","","","","","","",""
"null","../img/tt/306tt.jpg","null","mooney2","image-keyboard-response","256","875207","0.0-6.0-5.35","2636537","co37681","norming","","","","","","",""
"2233.614999999176","","","post_reveal_questions","survey-likert","257","877442","0.0-6.0-6.35","2636537","co37681","norming","","","{""aha"":5}","[0]","../img/tt/306tt.jpg","",""
"null","<div style=""font-size:60px;""> </div>","null","fixation","html-keyboard-response","258","877652","0.0-6.0-0.36","2636537","co37681","norming","","","","","","",""
"null","../img/tt/085tt.jpg","null","mooney1","image-keyboard-response","259","880657","0.0-6.0-1.36","2636537","co37681","norming","","","","","","",""
"4622.13499999966","","","post_mooney1_questions","survey-likert","260","885284","0.0-6.0-2.36","2636537","co37681","norming","","","{""curiosity"":5,""confidence"":0}","[0,1]","../img/tt/085tt.jpg","",""
"1069.9850000001024","","","recognition","survey-text","261","886355","0.0-6.0-3.36","2636537","co37681","norming","","","{""guess"":""""}","","../img/tt/085tt.jpg","",""
"null","../img/gs/085gs.jpg","null","reveal","image-keyboard-response","262","888362","0.0-6.0-4.36","2636537","co37681","norming","","","","","","",""
"null","../img/tt/085tt.jpg","null","mooney2","image-keyboard-response","263","890371","0.0-6.0-5.36","2636537","co37681","norming","","","","","","",""
"2902.204999998561","","","post_reveal_questions","survey-likert","264","893276","0.0-6.0-6.36","2636537","co37681","norming","","","{""aha"":5}","[0]","../img/tt/085tt.jpg","",""
"null","<div style=""font-size:60px;""> </div>","null","fixation","html-keyboard-response","265","893485","0.0-6.0-0.37","2636537","co37681","norming","","","","","","",""
"null","../img/tt/1276tt.jpg","null","mooney1","image-keyboard-response","266","896488","0.0-6.0-1.37","2636537","co37681","norming","","","","","","",""
"4631.895000000368","","","post_mooney1_questions","survey-likert","267","901124","0.0-6.0-2.37","2636537","co37681","norming","","","{""curiosity"":5,""confidence"":0}","[0,1]","../img/tt/1276tt.jpg","",""
"742.2800000003772","","","recognition","survey-text","268","901868","0.0-6.0-3.37","2636537","co37681","norming","","","{""guess"":""""}","","../img/tt/1276tt.jpg","",""
"null","../img/gs/1276gs.jpg","null","reveal","image-keyboard-response","269","903871","0.0-6.0-4.37","2636537","co37681","norming","","","","","","",""
"null","../img/tt/1276tt.jpg","null","mooney2","image-keyboard-response","270","905880","0.0-6.0-5.37","2636537","co37681","norming","","","","","","",""
"2193.7399999988265","","","post_reveal_questions","survey-likert","271","908076","0.0-6.0-6.37","2636537","co37681","norming","","","{""aha"":4}","[0]","../img/tt/1276tt.jpg","",""
"null","<div style=""font-size:60px;""> </div>","null","fixation","html-keyboard-response","272","908277","0.0-6.0-0.38","2636537","co37681","norming","","","","","","",""
"null","../img/tt/1084tt.jpg","null","mooney1","image-keyboard-response","273","911281","0.0-6.0-1.38","2636537","co37681","norming","","","","","","",""
"4911.339999998803","","","post_mooney1_questions","survey-likert","274","916195","0.0-6.0-2.38","2636537","co37681","norming","","","{""curiosity"":5,""confidence"":1}","[0,1]","../img/tt/1084tt.jpg","",""
"861.4099999995669","","","recognition","survey-text","275","917059","0.0-6.0-3.38","2636537","co37681","norming","","","{""guess"":""""}","","../img/tt/1084tt.jpg","",""
"null","../img/gs/1084gs.jpg","null","reveal","image-keyboard-response","276","919069","0.0-6.0-4.38","2636537","co37681","norming","","","","","","",""
"null","../img/tt/1084tt.jpg","null","mooney2","image-keyboard-response","277","921077","0.0-6.0-5.38","2636537","co37681","norming","","","","","","",""
"1893.1899999988964","","","post_reveal_questions","survey-likert","278","922971","0.0-6.0-6.38","2636537","co37681","norming","","","{""aha"":4}","[0]","../img/tt/1084tt.jpg","",""
"null","<div style=""font-size:60px;""> </div>","null","fixation","html-keyboard-response","279","923181","0.0-6.0-0.39","2636537","co37681","norming","","","","","","",""
"null","../img/tt/1024tt.jpg","null","mooney1","image-keyboard-response","280","926189","0.0-6.0-1.39","2636537","co37681","norming","","","","","","",""
"3893.0450000007404","","","post_mooney1_questions","survey-likert","281","930084","0.0-6.0-2.39","2636537","co37681","norming","","","{""curiosity"":1,""confidence"":4}","[0,1]","../img/tt/1024tt.jpg","",""
"2646.0750000005355","","","recognition","survey-text","282","932731","0.0-6.0-3.39","2636537","co37681","norming","","","{""guess"":""tennis""}","","../img/tt/1024tt.jpg","",""
"null","../img/gs/1024gs.jpg","null","reveal","image-keyboard-response","283","934736","0.0-6.0-4.39","2636537","co37681","norming","","","","","","",""
"null","../img/tt/1024tt.jpg","null","mooney2","image-keyboard-response","284","936739","0.0-6.0-5.39","2636537","co37681","norming","","","","","","",""
"2568.0800000008894","","","post_reveal_questions","survey-likert","285","939308","0.0-6.0-6.39","2636537","co37681","norming","","","{""aha"":0}","[0]","../img/tt/1024tt.jpg","",""
"null","<div style=""font-size:60px;""> </div>","null","fixation","html-keyboard-response","286","939517","0.0-6.0-0.40","2636537","co37681","norming","","","","","","",""
"null","../img/tt/1363tt.jpg","null","mooney1","image-keyboard-response","287","942521","0.0-6.0-1.40","2636537","co37681","norming","","","","","","",""
"7215.545000000857","","","post_mooney1_questions","survey-likert","288","949737","0.0-6.0-2.40","2636537","co37681","norming","","","{""curiosity"":4,""confidence"":1}","[0,1]","../img/tt/1363tt.jpg","",""
"654.1899999992456","","","recognition","survey-text","289","950393","0.0-6.0-3.40","2636537","co37681","norming","","","{""guess"":""""}","","../img/tt/1363tt.jpg","",""
"null","../img/gs/1363gs.jpg","null","reveal","image-keyboard-response","290","952396","0.0-6.0-4.40","2636537","co37681","norming","","","","","","",""
"null","../img/tt/1363tt.jpg","null","mooney2","image-keyboard-response","291","954398","0.0-6.0-5.40","2636537","co37681","norming","","","","","","",""
"3384.6649999995716","","","post_reveal_questions","survey-likert","292","957785","0.0-6.0-6.40","2636537","co37681","norming","","","{""aha"":1}","[0]","../img/tt/1363tt.jpg","",""
"null","<div style=""font-size:60px;""> </div>","null","fixation","html-keyboard-response","293","957987","0.0-6.0-0.41","2636537","co37681","norming","","","","","","",""
"null","../img/tt/1175tt.jpg","null","mooney1","image-keyboard-response","294","960994","0.0-6.0-1.41","2636537","co37681","norming","","","","","","",""
"5507.684999998659","","","post_mooney1_questions","survey-likert","295","966505","0.0-6.0-2.41","2636537","co37681","norming","","","{""curiosity"":4,""confidence"":1}","[0,1]","../img/tt/1175tt.jpg","",""
"3134.1450000000186","","","recognition","survey-text","296","969641","0.0-6.0-3.41","2636537","co37681","norming","","","{""guess"":""market""}","","../img/tt/1175tt.jpg","",""
"null","../img/gs/1175gs.jpg","null","reveal","image-keyboard-response","297","971650","0.0-6.0-4.41","2636537","co37681","norming","","","","","","",""
"null","../img/tt/1175tt.jpg","null","mooney2","image-keyboard-response","298","973653","0.0-6.0-5.41","2636537","co37681","norming","","","","","","",""
"2499.3900000009453","","","post_reveal_questions","survey-likert","299","976153","0.0-6.0-6.41","2636537","co37681","norming","","","{""aha"":5}","[0]","../img/tt/1175tt.jpg","",""
"null","<div style=""font-size:60px;""> </div>","null","fixation","html-keyboard-response","300","976355","0.0-6.0-0.42","2636537","co37681","norming","","","","","","",""
"null","../img/tt/273tt.jpg","null","mooney1","image-keyboard-response","301","979364","0.0-6.0-1.42","2636537","co37681","norming","","","","","","",""
"5194.555000000051","","","post_mooney1_questions","survey-likert","302","984561","0.0-6.0-2.42","2636537","co37681","norming","","","{""curiosity"":0,""confidence"":6}","[0,1]","../img/tt/273tt.jpg","",""
"2790.1049999999814","","","recognition","survey-text","303","987353","0.0-6.0-3.42","2636537","co37681","norming","","","{""guess"":""braces""}","","../img/tt/273tt.jpg","",""
"null","../img/gs/273gs.jpg","null","reveal","image-keyboard-response","304","989356","0.0-6.0-4.42","2636537","co37681","norming","","","","","","",""
"null","../img/tt/273tt.jpg","null","mooney2","image-keyboard-response","305","991358","0.0-6.0-5.42","2636537","co37681","norming","","","","","","",""
"3494.2649999993155","","","post_reveal_questions","survey-likert","306","994857","0.0-6.0-6.42","2636537","co37681","norming","","","{""aha"":0}","[0]","../img/tt/273tt.jpg","",""
"null","<div style=""font-size:60px;""> </div>","null","fixation","html-keyboard-response","307","995064","0.0-6.0-0.43","2636537","co37681","norming","","","","","","",""
"null","../img/tt/118tt.jpg","null","mooney1","image-keyboard-response","308","998071","0.0-6.0-1.43","2636537","co37681","norming","","","","","","",""
"5166.8599999992875","","","post_mooney1_questions","survey-likert","309","1003241","0.0-6.0-2.43","2636537","co37681","norming","","","{""curiosity"":3,""confidence"":0}","[0,1]","../img/tt/118tt.jpg","",""
"909.9399999995949","","","recognition","survey-text","310","1004153","0.0-6.0-3.43","2636537","co37681","norming","","","{""guess"":""""}","","../img/tt/118tt.jpg","",""
"null","../img/gs/118gs.jpg","null","reveal","image-keyboard-response","311","1006154","0.0-6.0-4.43","2636537","co37681","norming","","","","","","",""
"null","../img/tt/118tt.jpg","null","mooney2","image-keyboard-response","312","1008165","0.0-6.0-5.43","2636537","co37681","norming","","","","","","",""
"3441.1500000006054","","","post_reveal_questions","survey-likert","313","1011608","0.0-6.0-6.43","2636537","co37681","norming","","","{""aha"":1}","[0]","../img/tt/118tt.jpg","",""
"null","<div style=""font-size:60px;""> </div>","null","fixation","html-keyboard-response","314","1011817","0.0-6.0-0.44","2636537","co37681","norming","","","","","","",""
"null","../img/tt/1044tt.jpg","null","mooney1","image-keyboard-response","315","1014825","0.0-6.0-1.44","2636537","co37681","norming","","","","","","",""
"4876.744999999646","","","post_mooney1_questions","survey-likert","316","1019705","0.0-6.0-2.44","2636537","co37681","norming","","","{""curiosity"":4,""confidence"":0}","[0,1]","../img/tt/1044tt.jpg","",""
"813.6599999997998","","","recognition","survey-text","317","1020520","0.0-6.0-3.44","2636537","co37681","norming","","","{""guess"":""""}","","../img/tt/1044tt.jpg","",""
"null","../img/gs/1044gs.jpg","null","reveal","image-keyboard-response","318","1022531","0.0-6.0-4.44","2636537","co37681","norming","","","","","","",""
"null","../img/tt/1044tt.jpg","null","mooney2","image-keyboard-response","319","1024535","0.0-6.0-5.44","2636537","co37681","norming","","","","","","",""
"3814.6049999995157","","","post_reveal_questions","survey-likert","320","1028352","0.0-6.0-6.44","2636537","co37681","norming","","","{""aha"":3}","[0]","../img/tt/1044tt.jpg","",""
"null","<div style=""font-size:60px;""> </div>","null","fixation","html-keyboard-response","321","1028556","0.0-6.0-0.45","2636537","co37681","norming","","","","","","",""
"null","../img/tt/084tt.jpg","null","mooney1","image-keyboard-response","322","1031559","0.0-6.0-1.45","2636537","co37681","norming","","","","","","",""
"3806.1999999991385","","","post_mooney1_questions","survey-likert","323","1035369","0.0-6.0-2.45","2636537","co37681","norming","","","{""curiosity"":5,""confidence"":0}","[0,1]","../img/tt/084tt.jpg","",""
"541.4199999995762","","","recognition","survey-text","324","1035912","0.0-6.0-3.45","2636537","co37681","norming","","","{""guess"":""""}","","../img/tt/084tt.jpg","",""
"null","../img/gs/084gs.jpg","null","reveal","image-keyboard-response","325","1037914","0.0-6.0-4.45","2636537","co37681","norming","","","","","","",""
"null","../img/tt/084tt.jpg","null","mooney2","image-keyboard-response","326","1039924","0.0-6.0-5.45","2636537","co37681","norming","","","","","","",""
"2642.214999999851","","","post_reveal_questions","survey-likert","327","1042569","0.0-6.0-6.45","2636537","co37681","norming","","","{""aha"":5}","[0]","../img/tt/084tt.jpg","",""
"null","<div style=""font-size:60px;""> </div>","null","fixation","html-keyboard-response","328","1042775","0.0-6.0-0.46","2636537","co37681","norming","","","","","","",""
"null","../img/tt/163tt.jpg","null","mooney1","image-keyboard-response","329","1045778","0.0-6.0-1.46","2636537","co37681","norming","","","","","","",""
"3379.4850000012666","","","post_mooney1_questions","survey-likert","330","1049161","0.0-6.0-2.46","2636537","co37681","norming","","","{""curiosity"":4,""confidence"":1}","[0,1]","../img/tt/163tt.jpg","",""
"957.9299999987707","","","recognition","survey-text","331","1050120","0.0-6.0-3.46","2636537","co37681","norming","","","{""guess"":""""}","","../img/tt/163tt.jpg","",""
"null","../img/gs/163gs.jpg","null","reveal","image-keyboard-response","332","1052128","0.0-6.0-4.46","2636537","co37681","norming","","","","","","",""
"null","../img/tt/163tt.jpg","null","mooney2","image-keyboard-response","333","1054140","0.0-6.0-5.46","2636537","co37681","norming","","","","","","",""
"3018.0350000008475","","","post_reveal_questions","survey-likert","334","1057160","0.0-6.0-6.46","2636537","co37681","norming","","","{""aha"":5}","[0]","../img/tt/163tt.jpg","",""
"null","<div style=""font-size:60px;""> </div>","null","fixation","html-keyboard-response","335","1057369","0.0-6.0-0.47","2636537","co37681","norming","","","","","","",""
"null","../img/tt/1234tt.jpg","null","mooney1","image-keyboard-response","336","1060376","0.0-6.0-1.47","2636537","co37681","norming","","","","","","",""
"3092.795000000624","","","post_mooney1_questions","survey-likert","337","1063473","0.0-6.0-2.47","2636537","co37681","norming","","","{""curiosity"":4,""confidence"":0}","[0,1]","../img/tt/1234tt.jpg","",""
"541.7999999991152","","","recognition","survey-text","338","1064016","0.0-6.0-3.47","2636537","co37681","norming","","","{""guess"":""""}","","../img/tt/1234tt.jpg","",""
"null","../img/gs/1234gs.jpg","null","reveal","image-keyboard-response","339","1066025","0.0-6.0-4.47","2636537","co37681","norming","","","","","","",""
"null","../img/tt/1234tt.jpg","null","mooney2","image-keyboard-response","340","1068031","0.0-6.0-5.47","2636537","co37681","norming","","","","","","",""
"2374.4950000001118","","","post_reveal_questions","survey-likert","341","1070409","0.0-6.0-6.47","2636537","co37681","norming","","","{""aha"":4}","[0]","../img/tt/1234tt.jpg","",""
"null","<div style=""font-size:60px;""> </div>","null","fixation","html-keyboard-response","342","1070618","0.0-6.0-0.48","2636537","co37681","norming","","","","","","",""
"null","../img/tt/1116tt.jpg","null","mooney1","image-keyboard-response","343","1073627","0.0-6.0-1.48","2636537","co37681","norming","","","","","","",""
"5466.995000000577","","","post_mooney1_questions","survey-likert","344","1079097","0.0-6.0-2.48","2636537","co37681","norming","","","{""curiosity"":3,""confidence"":1}","[0,1]","../img/tt/1116tt.jpg","",""
"2566.2150000007823","","","recognition","survey-text","345","1081665","0.0-6.0-3.48","2636537","co37681","norming","","","{""guess"":""boats""}","","../img/tt/1116tt.jpg","",""
"null","../img/gs/1116gs.jpg","null","reveal","image-keyboard-response","346","1083667","0.0-6.0-4.48","2636537","co37681","norming","","","","","","",""
"null","../img/tt/1116tt.jpg","null","mooney2","image-keyboard-response","347","1085668","0.0-6.0-5.48","2636537","co37681","norming","","","","","","",""
"3082.3799999996554","","","post_reveal_questions","survey-likert","348","1088753","0.0-6.0-6.48","2636537","co37681","norming","","","{""aha"":3}","[0]","../img/tt/1116tt.jpg","",""
"null","<div style=""font-size:60px;""> </div>","null","fixation","html-keyboard-response","349","1088957","0.0-6.0-0.49","2636537","co37681","norming","","","","","","",""
"null","../img/tt/1154tt.jpg","null","mooney1","image-keyboard-response","350","1091962","0.0-6.0-1.49","2636537","co37681","norming","","","","","","",""
"4740.584999999497","","","post_mooney1_questions","survey-likert","351","1096705","0.0-6.0-2.49","2636537","co37681","norming","","","{""curiosity"":4,""confidence"":0}","[0,1]","../img/tt/1154tt.jpg","",""
"678.0699999998324","","","recognition","survey-text","352","1097385","0.0-6.0-3.49","2636537","co37681","norming","","","{""guess"":""""}","","../img/tt/1154tt.jpg","",""
"null","../img/gs/1154gs.jpg","null","reveal","image-keyboard-response","353","1099392","0.0-6.0-4.49","2636537","co37681","norming","","","","","","",""
"null","../img/tt/1154tt.jpg","null","mooney2","image-keyboard-response","354","1101403","0.0-6.0-5.49","2636537","co37681","norming","","","","","","",""
"3234.29000000027","","","post_reveal_questions","survey-likert","355","1104641","0.0-6.0-6.49","2636537","co37681","norming","","","{""aha"":1}","[0]","../img/tt/1154tt.jpg","",""
"null","<div style=""font-size:60px;""> </div>","null","fixation","html-keyboard-response","356","1104849","0.0-6.0-0.50","2636537","co37681","norming","","","","","","",""
"null","../img/tt/184tt.jpg","null","mooney1","image-keyboard-response","357","1107861","0.0-6.0-1.50","2636537","co37681","norming","","","","","","",""
"3025.0299999990966","","","post_mooney1_questions","survey-likert","358","1110889","0.0-6.0-2.50","2636537","co37681","norming","","","{""curiosity"":4,""confidence"":1}","[0,1]","../img/tt/184tt.jpg","",""
"630.0349999982864","","","recognition","survey-text","359","1111521","0.0-6.0-3.50","2636537","co37681","norming","","","{""guess"":""""}","","../img/tt/184tt.jpg","",""
"null","../img/gs/184gs.jpg","null","reveal","image-keyboard-response","360","1113524","0.0-6.0-4.50","2636537","co37681","norming","","","","","","",""
"null","../img/tt/184tt.jpg","null","mooney2","image-keyboard-response","361","1115536","0.0-6.0-5.50","2636537","co37681","norming","","","","","","",""
"3351.154999998398","","","post_reveal_questions","survey-likert","362","1118889","0.0-6.0-6.50","2636537","co37681","norming","","","{""aha"":4}","[0]","../img/tt/184tt.jpg","",""
"null","<div style=""font-size:60px;""> </div>","null","fixation","html-keyboard-response","363","1119096","0.0-6.0-0.51","2636537","co37681","norming","","","","","","",""
"null","../img/tt/1270tt.jpg","null","mooney1","image-keyboard-response","364","1122104","0.0-6.0-1.51","2636537","co37681","norming","","","","","","",""
"3166.2649999998976","","","post_mooney1_questions","survey-likert","365","1125273","0.0-6.0-2.51","2636537","co37681","norming","","","{""curiosity"":5,""confidence"":0}","[0,1]","../img/tt/1270tt.jpg","",""
"573.8899999996647","","","recognition","survey-text","366","1125849","0.0-6.0-3.51","2636537","co37681","norming","","","{""guess"":""""}","","../img/tt/1270tt.jpg","",""
"null","../img/gs/1270gs.jpg","null","reveal","image-keyboard-response","367","1127852","0.0-6.0-4.51","2636537","co37681","norming","","","","","","",""
"null","../img/tt/1270tt.jpg","null","mooney2","image-keyboard-response","368","1129858","0.0-6.0-5.51","2636537","co37681","norming","","","","","","",""
"1991.0500000005122","","","post_reveal_questions","survey-likert","369","1131852","0.0-6.0-6.51","2636537","co37681","norming","","","{""aha"":4}","[0]","../img/tt/1270tt.jpg","",""
"null","<div style=""font-size:60px;""> </div>","null","fixation","html-keyboard-response","370","1132053","0.0-6.0-0.52","2636537","co37681","norming","","","","","","",""
"null","../img/tt/517tt.jpg","null","mooney1","image-keyboard-response","371","1135063","0.0-6.0-1.52","2636537","co37681","norming","","","","","","",""
"3513.665000000503","","","post_mooney1_questions","survey-likert","372","1138580","0.0-6.0-2.52","2636537","co37681","norming","","","{""curiosity"":4,""confidence"":1}","[0,1]","../img/tt/517tt.jpg","",""
"2398.14500000095","","","recognition","survey-text","373","1140980","0.0-6.0-3.52","2636537","co37681","norming","","","{""guess"":""panda""}","","../img/tt/517tt.jpg","",""
"null","../img/gs/517gs.jpg","null","reveal","image-keyboard-response","374","1142981","0.0-6.0-4.52","2636537","co37681","norming","","","","","","",""
"null","../img/tt/517tt.jpg","null","mooney2","image-keyboard-response","375","1144989","0.0-6.0-5.52","2636537","co37681","norming","","","","","","",""
"2188.8249999994878","","","post_reveal_questions","survey-likert","376","1147180","0.0-6.0-6.52","2636537","co37681","norming","","","{""aha"":2}","[0]","../img/tt/517tt.jpg","",""
"null","<div style=""font-size:60px;""> </div>","null","fixation","html-keyboard-response","377","1147384","0.0-6.0-0.53","2636537","co37681","norming","","","","","","",""
"null","../img/tt/049tt.jpg","null","mooney1","image-keyboard-response","378","1150388","0.0-6.0-1.53","2636537","co37681","norming","","","","","","",""
"4732.690000000643","","","post_mooney1_questions","survey-likert","379","1155124","0.0-6.0-2.53","2636537","co37681","norming","","","{""curiosity"":3,""confidence"":2}","[0,1]","../img/tt/049tt.jpg","",""
"5102.134999999078","","","recognition","survey-text","380","1160228","0.0-6.0-3.53","2636537","co37681","norming","","","{""guess"":""cameleon""}","","../img/tt/049tt.jpg","",""
"null","../img/gs/049gs.jpg","null","reveal","image-keyboard-response","381","1162230","0.0-6.0-4.53","2636537","co37681","norming","","","","","","",""
"null","../img/tt/049tt.jpg","null","mooney2","image-keyboard-response","382","1164234","0.0-6.0-5.53","2636537","co37681","norming","","","","","","",""
"1735.6350000009406","","","post_reveal_questions","survey-likert","383","1165972","0.0-6.0-6.53","2636537","co37681","norming","","","{""aha"":4}","[0]","../img/tt/049tt.jpg","",""
"null","<div style=""font-size:60px;""> </div>","null","fixation","html-keyboard-response","384","1166179","0.0-6.0-0.54","2636537","co37681","norming","","","","","","",""
"null","../img/tt/010tt.jpg","null","mooney1","image-keyboard-response","385","1169190","0.0-6.0-1.54","2636537","co37681","norming","","","","","","",""
"3628.9149999993388","","","post_mooney1_questions","survey-likert","386","1172820","0.0-6.0-2.54","2636537","co37681","norming","","","{""curiosity"":5,""confidence"":0}","[0,1]","../img/tt/010tt.jpg","",""
"694.1000000005588","","","recognition","survey-text","387","1173516","0.0-6.0-3.54","2636537","co37681","norming","","","{""guess"":""""}","","../img/tt/010tt.jpg","",""
"null","../img/gs/010gs.jpg","null","reveal","image-keyboard-response","388","1175517","0.0-6.0-4.54","2636537","co37681","norming","","","","","","",""
"null","../img/tt/010tt.jpg","null","mooney2","image-keyboard-response","389","1177521","0.0-6.0-5.54","2636537","co37681","norming","","","","","","",""
"3681.375000000233","","","post_reveal_questions","survey-likert","390","1181204","0.0-6.0-6.54","2636537","co37681","norming","","","{""aha"":4}","[0]","../img/tt/010tt.jpg","",""
"null","<div style=""font-size:60px;""> </div>","null","fixation","html-keyboard-response","391","1181410","0.0-6.0-0.55","2636537","co37681","norming","","","","","","",""
"null","../img/tt/1156tt.jpg","null","mooney1","image-keyboard-response","392","1184417","0.0-6.0-1.55","2636537","co37681","norming","","","","","","",""
"3119.114999999525","","","post_mooney1_questions","survey-likert","393","1187540","0.0-6.0-2.55","2636537","co37681","norming","","","{""curiosity"":5,""confidence"":0}","[0,1]","../img/tt/1156tt.jpg","",""
"1061.7499999988358","","","recognition","survey-text","394","1188604","0.0-6.0-3.55","2636537","co37681","norming","","","{""guess"":""""}","","../img/tt/1156tt.jpg","",""
"null","../img/gs/1156gs.jpg","null","reveal","image-keyboard-response","395","1190611","0.0-6.0-4.55","2636537","co37681","norming","","","","","","",""
"null","../img/tt/1156tt.jpg","null","mooney2","image-keyboard-response","396","1192621","0.0-6.0-5.55","2636537","co37681","norming","","","","","","",""
"2477.555000001332","","","post_reveal_questions","survey-likert","397","1195101","0.0-6.0-6.55","2636537","co37681","norming","","","{""aha"":5}","[0]","../img/tt/1156tt.jpg","",""
"null","<div style=""font-size:60px;""> </div>","null","fixation","html-keyboard-response","398","1195309","0.0-6.0-0.56","2636537","co37681","norming","","","","","","",""
"null","../img/tt/358tt.jpg","null","mooney1","image-keyboard-response","399","1198314","0.0-6.0-1.56","2636537","co37681","norming","","","","","","",""
"5151.74499999918","","","post_mooney1_questions","survey-likert","400","1203469","0.0-6.0-2.56","2636537","co37681","norming","","","{""curiosity"":3,""confidence"":1}","[0,1]","../img/tt/358tt.jpg","",""
"701.9849999998696","","","recognition","survey-text","401","1204173","0.0-6.0-3.56","2636537","co37681","norming","","","{""guess"":""""}","","../img/tt/358tt.jpg","",""
"null","../img/gs/358gs.jpg","null","reveal","image-keyboard-response","402","1206175","0.0-6.0-4.56","2636537","co37681","norming","","","","","","",""
"null","../img/tt/358tt.jpg","null","mooney2","image-keyboard-response","403","1208180","0.0-6.0-5.56","2636537","co37681","norming","","","","","","",""
"2270.354999998817","","","post_reveal_questions","survey-likert","404","1210453","0.0-6.0-6.56","2636537","co37681","norming","","","{""aha"":4}","[0]","../img/tt/358tt.jpg","",""
"null","<div style=""font-size:60px;""> </div>","null","fixation","html-keyboard-response","405","1210657","0.0-6.0-0.57","2636537","co37681","norming","","","","","","",""
"null","../img/tt/108tt.jpg","null","mooney1","image-keyboard-response","406","1213664","0.0-6.0-1.57","2636537","co37681","norming","","","","","","",""
"4000.974999999162","","","post_mooney1_questions","survey-likert","407","1217669","0.0-6.0-2.57","2636537","co37681","norming","","","{""curiosity"":4,""confidence"":1}","[0,1]","../img/tt/108tt.jpg","",""
"5038.174999999581","","","recognition","survey-text","408","1222709","0.0-6.0-3.57","2636537","co37681","norming","","","{""guess"":""monkey""}","","../img/tt/108tt.jpg","",""
"null","../img/gs/108gs.jpg","null","reveal","image-keyboard-response","409","1224712","0.0-6.0-4.57","2636537","co37681","norming","","","","","","",""
"null","../img/tt/108tt.jpg","null","mooney2","image-keyboard-response","410","1226721","0.0-6.0-5.57","2636537","co37681","norming","","","","","","",""
"2953.5699999998324","","","post_reveal_questions","survey-likert","411","1229677","0.0-6.0-6.57","2636537","co37681","norming","","","{""aha"":0}","[0]","../img/tt/108tt.jpg","",""
"null","<div style=""font-size:60px;""> </div>","null","fixation","html-keyboard-response","412","1229882","0.0-6.0-0.58","2636537","co37681","norming","","","","","","",""
"null","../img/tt/040tt.jpg","null","mooney1","image-keyboard-response","413","1232887","0.0-6.0-1.58","2636537","co37681","norming","","","","","","",""
"8916.450000000652","","","post_mooney1_questions","survey-likert","414","1241805","0.0-6.0-2.58","2636537","co37681","norming","","","{""curiosity"":0,""confidence"":6}","[0,1]","../img/tt/040tt.jpg","",""
"2886.0800000003073","","","recognition","survey-text","415","1244693","0.0-6.0-3.58","2636537","co37681","norming","","","{""guess"":""monkey""}","","../img/tt/040tt.jpg","",""
"null","../img/gs/040gs.jpg","null","reveal","image-keyboard-response","416","1246694","0.0-6.0-4.58","2636537","co37681","norming","","","","","","",""
"null","../img/tt/040tt.jpg","null","mooney2","image-keyboard-response","417","1248696","0.0-6.0-5.58","2636537","co37681","norming","","","","","","",""
"2993.829999999376","","","post_reveal_questions","survey-likert","418","1251694","0.0-6.0-6.58","2636537","co37681","norming","","","{""aha"":0}","[0]","../img/tt/040tt.jpg","",""
"null","<div style=""font-size:60px;""> </div>","null","fixation","html-keyboard-response","419","1251899","0.0-6.0-0.59","2636537","co37681","norming","","","","","","",""
"null","../img/tt/189tt.jpg","null","mooney1","image-keyboard-response","420","1254905","0.0-6.0-1.59","2636537","co37681","norming","","","","","","",""
"4345.000000001164","","","post_mooney1_questions","survey-likert","421","1259254","0.0-6.0-2.59","2636537","co37681","norming","","","{""curiosity"":5,""confidence"":0}","[0,1]","../img/tt/189tt.jpg","",""
"590.1599999996834","","","recognition","survey-text","422","1259846","0.0-6.0-3.59","2636537","co37681","norming","","","{""guess"":""""}","","../img/tt/189tt.jpg","",""
"null","../img/gs/189gs.jpg","null","reveal","image-keyboard-response","423","1261847","0.0-6.0-4.59","2636537","co37681","norming","","","","","","",""
"null","../img/tt/189tt.jpg","null","mooney2","image-keyboard-response","424","1263859","0.0-6.0-5.59","2636537","co37681","norming","","","","","","",""
"2655.85499999905","","","post_reveal_questions","survey-likert","425","1266518","0.0-6.0-6.59","2636537","co37681","norming","","","{""aha"":4}","[0]","../img/tt/189tt.jpg","",""
"null","<div style=""font-size:60px;""> </div>","null","fixation","html-keyboard-response","426","1266720","0.0-6.0-0.60","2636537","co37681","norming","","","","","","",""
"null","../img/tt/1002tt.jpg","null","mooney1","image-keyboard-response","427","1269724","0.0-6.0-1.60","2636537","co37681","norming","","","","","","",""
"3654.464999999618","","","post_mooney1_questions","survey-likert","428","1273382","0.0-6.0-2.60","2636537","co37681","norming","","","{""curiosity"":5,""confidence"":0}","[0,1]","../img/tt/1002tt.jpg","",""
"902.1400000001304","","","recognition","survey-text","429","1274286","0.0-6.0-3.60","2636537","co37681","norming","","","{""guess"":""""}","","../img/tt/1002tt.jpg","",""
"null","../img/gs/1002gs.jpg","null","reveal","image-keyboard-response","430","1276288","0.0-6.0-4.60","2636537","co37681","norming","","","","","","",""
"null","../img/tt/1002tt.jpg","null","mooney2","image-keyboard-response","431","1278298","0.0-6.0-5.60","2636537","co37681","norming","","","","","","",""
"3825.0449999996927","","","post_reveal_questions","survey-likert","432","1282126","0.0-6.0-6.60","2636537","co37681","norming","","","{""aha"":4}","[0]","../img/tt/1002tt.jpg","",""
"null","<div style=""font-size:60px;""> </div>","null","fixation","html-keyboard-response","433","1282329","0.0-6.0-0.61","2636537","co37681","norming","","","","","","",""
"null","../img/tt/1148tt.jpg","null","mooney1","image-keyboard-response","434","1285335","0.0-6.0-1.61","2636537","co37681","norming","","","","","","",""
"5163.039999999572","","","post_mooney1_questions","survey-likert","435","1290502","0.0-6.0-2.61","2636537","co37681","norming","","","{""curiosity"":1,""confidence"":5}","[0,1]","../img/tt/1148tt.jpg","",""
"2189.965000001248","","","recognition","survey-text","436","1292694","0.0-6.0-3.61","2636537","co37681","norming","","","{""guess"":""woman""}","","../img/tt/1148tt.jpg","",""
"null","../img/gs/1148gs.jpg","null","reveal","image-keyboard-response","437","1294700","0.0-6.0-4.61","2636537","co37681","norming","","","","","","",""
"null","../img/tt/1148tt.jpg","null","mooney2","image-keyboard-response","438","1296709","0.0-6.0-5.61","2636537","co37681","norming","","","","","","",""
"2631.0449999982957","","","post_reveal_questions","survey-likert","439","1299342","0.0-6.0-6.61","2636537","co37681","norming","","","{""aha"":5}","[0]","../img/tt/1148tt.jpg","",""
"null","<div style=""font-size:60px;""> </div>","null","fixation","html-keyboard-response","440","1299547","0.0-6.0-0.62","2636537","co37681","norming","","","","","","",""
"null","../img/tt/406tt.jpg","null","mooney1","image-keyboard-response","441","1302553","0.0-6.0-1.62","2636537","co37681","norming","","","","","","",""
"2570.7750000001397","","","post_mooney1_questions","survey-likert","442","1305126","0.0-6.0-2.62","2636537","co37681","norming","","","{""curiosity"":5,""confidence"":0}","[0,1]","../img/tt/406tt.jpg","",""
"1078.2199999992736","","","recognition","survey-text","443","1306206","0.0-6.0-3.62","2636537","co37681","norming","","","{""guess"":""""}","","../img/tt/406tt.jpg","",""
"null","../img/gs/406gs.jpg","null","reveal","image-keyboard-response","444","1308209","0.0-6.0-4.62","2636537","co37681","norming","","","","","","",""
"null","../img/tt/406tt.jpg","null","mooney2","image-keyboard-response","445","1310220","0.0-6.0-5.62","2636537","co37681","norming","","","","","","",""
"2262.930000000866","","","post_reveal_questions","survey-likert","446","1312487","0.0-6.0-6.62","2636537","co37681","norming","","","{""aha"":5}","[0]","../img/tt/406tt.jpg","",""
"null","<div style=""font-size:60px;""> </div>","null","fixation","html-keyboard-response","447","1312693","0.0-6.0-0.63","2636537","co37681","norming","","","","","","",""
"null","../img/tt/497tt.jpg","null","mooney1","image-keyboard-response","448","1315701","0.0-6.0-1.63","2636537","co37681","norming","","","","","","",""
"4638.300000000512","","","post_mooney1_questions","survey-likert","449","1320343","0.0-6.0-2.63","2636537","co37681","norming","","","{""curiosity"":5,""confidence"":1}","[0,1]","../img/tt/497tt.jpg","",""
"3101.894999999786","","","recognition","survey-text","450","1323447","0.0-6.0-3.63","2636537","co37681","norming","","","{""guess"":""drone""}","","../img/tt/497tt.jpg","",""
"null","../img/gs/497gs.jpg","null","reveal","image-keyboard-response","451","1325449","0.0-6.0-4.63","2636537","co37681","norming","","","","","","",""
"null","../img/tt/497tt.jpg","null","mooney2","image-keyboard-response","452","1327458","0.0-6.0-5.63","2636537","co37681","norming","","","","","","",""
"2722.184999998659","","","post_reveal_questions","survey-likert","453","1330183","0.0-6.0-6.63","2636537","co37681","norming","","","{""aha"":3}","[0]","../img/tt/497tt.jpg","",""
"null","<div style=""font-size:60px;""> </div>","null","fixation","html-keyboard-response","454","1330387","0.0-6.0-0.64","2636537","co37681","norming","","","","","","",""
"null","../img/tt/1097tt.jpg","null","mooney1","image-keyboard-response","455","1333393","0.0-6.0-1.64","2636537","co37681","norming","","","","","","",""
"25337.82000000053","","","post_mooney1_questions","survey-likert","456","1358735","0.0-6.0-2.64","2636537","co37681","norming","","","{""curiosity"":2,""confidence"":4}","[0,1]","../img/tt/1097tt.jpg","",""
"3782.0499999998137","","","recognition","survey-text","457","1362519","0.0-6.0-3.64","2636537","co37681","norming","","","{""guess"":""surfing""}","","../img/tt/1097tt.jpg","",""
"null","../img/gs/1097gs.jpg","null","reveal","image-keyboard-response","458","1364526","0.0-6.0-4.64","2636537","co37681","norming","","","","","","",""
"null","../img/tt/1097tt.jpg","null","mooney2","image-keyboard-response","459","1366528","0.0-6.0-5.64","2636537","co37681","norming","","","","","","",""
"3004.3299999998417","","","post_reveal_questions","survey-likert","460","1369535","0.0-6.0-6.64","2636537","co37681","norming","","","{""aha"":0}","[0]","../img/tt/1097tt.jpg","",""
"null","<div style=""font-size:60px;""> </div>","null","fixation","html-keyboard-response","461","1369743","0.0-6.0-0.65","2636537","co37681","norming","","","","","","",""
"null","../img/tt/1262tt.jpg","null","mooney1","image-keyboard-response","462","1372756","0.0-6.0-1.65","2636537","co37681","norming","","","","","","",""
"4031.450000000419","","","post_mooney1_questions","survey-likert","463","1376792","0.0-6.0-2.65","2636537","co37681","norming","","","{""curiosity"":4,""confidence"":1}","[0,1]","../img/tt/1262tt.jpg","",""
"1005.8300000000745","","","recognition","survey-text","464","1377799","0.0-6.0-3.65","2636537","co37681","norming","","","{""guess"":""""}","","../img/tt/1262tt.jpg","",""
"null","../img/gs/1262gs.jpg","null","reveal","image-keyboard-response","465","1379809","0.0-6.0-4.65","2636537","co37681","norming","","","","","","",""
"null","../img/tt/1262tt.jpg","null","mooney2","image-keyboard-response","466","1381818","0.0-6.0-5.65","2636537","co37681","norming","","","","","","",""
"3202.1750000005122","","","post_reveal_questions","survey-likert","467","1385023","0.0-6.0-6.65","2636537","co37681","norming","","","{""aha"":2}","[0]","../img/tt/1262tt.jpg","",""
"null","<div style=""font-size:60px;""> </div>","null","fixation","html-keyboard-response","468","1385232","0.0-6.0-0.66","2636537","co37681","norming","","","","","","",""
"null","../img/tt/435tt.jpg","null","mooney1","image-keyboard-response","469","1388243","0.0-6.0-1.66","2636537","co37681","norming","","","","","","",""
"3257.1099999984726","","","post_mooney1_questions","survey-likert","470","1391503","0.0-6.0-2.66","2636537","co37681","norming","","","{""curiosity"":4,""confidence"":1}","[0,1]","../img/tt/435tt.jpg","",""
"4405.959999999963","","","recognition","survey-text","471","1395911","0.0-6.0-3.66","2636537","co37681","norming","","","{""guess"":""pool table""}","","../img/tt/435tt.jpg","",""
"null","../img/gs/435gs.jpg","null","reveal","image-keyboard-response","472","1397916","0.0-6.0-4.66","2636537","co37681","norming","","","","","","",""
"null","../img/tt/435tt.jpg","null","mooney2","image-keyboard-response","473","1399920","0.0-6.0-5.66","2636537","co37681","norming","","","","","","",""
"1868.549999999348","","","post_reveal_questions","survey-likert","474","1401791","0.0-6.0-6.66","2636537","co37681","norming","","","{""aha"":1}","[0]","../img/tt/435tt.jpg","",""
"null","<div style=""font-size:60px;""> </div>","null","fixation","html-keyboard-response","475","1401999","0.0-6.0-0.67","2636537","co37681","norming","","","","","","",""
"null","../img/tt/194tt.jpg","null","mooney1","image-keyboard-response","476","1405002","0.0-6.0-1.67","2636537","co37681","norming","","","","","","",""
"9562.289999999804","","","post_mooney1_questions","survey-likert","477","1414567","0.0-6.0-2.67","2636537","co37681","norming","","","{""curiosity"":2,""confidence"":5}","[0,1]","../img/tt/194tt.jpg","",""
"3181.854999998817","","","recognition","survey-text","478","1417751","0.0-6.0-3.67","2636537","co37681","norming","","","{""guess"":""instrument""}","","../img/tt/194tt.jpg","",""
"null","../img/gs/194gs.jpg","null","reveal","image-keyboard-response","479","1419753","0.0-6.0-4.67","2636537","co37681","norming","","","","","","",""
"null","../img/tt/194tt.jpg","null","mooney2","image-keyboard-response","480","1421764","0.0-6.0-5.67","2636537","co37681","norming","","","","","","",""
"2840.3400000005495","","","post_reveal_questions","survey-likert","481","1424607","0.0-6.0-6.67","2636537","co37681","norming","","","{""aha"":1}","[0]","../img/tt/194tt.jpg","",""
"null","<div style=""font-size:60px;""> </div>","null","fixation","html-keyboard-response","482","1424811","0.0-6.0-0.68","2636537","co37681","norming","","","","","","",""
"null","../img/tt/1040tt.jpg","null","mooney1","image-keyboard-response","483","1427816","0.0-6.0-1.68","2636537","co37681","norming","","","","","","",""
"5067.535000000149","","","post_mooney1_questions","survey-likert","484","1432887","0.0-6.0-2.68","2636537","co37681","norming","","","{""curiosity"":5,""confidence"":0}","[0,1]","../img/tt/1040tt.jpg","",""
"670.0149999996647","","","recognition","survey-text","485","1433558","0.0-6.0-3.68","2636537","co37681","norming","","","{""guess"":""""}","","../img/tt/1040tt.jpg","",""
"null","../img/gs/1040gs.jpg","null","reveal","image-keyboard-response","486","1435561","0.0-6.0-4.68","2636537","co37681","norming","","","","","","",""
"null","../img/tt/1040tt.jpg","null","mooney2","image-keyboard-response","487","1437564","0.0-6.0-5.68","2636537","co37681","norming","","","","","","",""
"2671.200000000652","","","post_reveal_questions","survey-likert","488","1440238","0.0-6.0-6.68","2636537","co37681","norming","","","{""aha"":4}","[0]","../img/tt/1040tt.jpg","",""
"null","<div style=""font-size:60px;""> </div>","null","fixation","html-keyboard-response","489","1440443","0.0-6.0-0.69","2636537","co37681","norming","","","","","","",""
"null","../img/tt/515tt.jpg","null","mooney1","image-keyboard-response","490","1443448","0.0-6.0-1.69","2636537","co37681","norming","","","","","","",""
"3891.2750000001397","","","post_mooney1_questions","survey-likert","491","1447343","0.0-6.0-2.69","2636537","co37681","norming","","","{""curiosity"":3,""confidence"":3}","[0,1]","../img/tt/515tt.jpg","",""
"2614.1399999996647","","","recognition","survey-text","492","1449958","0.0-6.0-3.69","2636537","co37681","norming","","","{""guess"":""bird""}","","../img/tt/515tt.jpg","",""
"null","../img/gs/515gs.jpg","null","reveal","image-keyboard-response","493","1451960","0.0-6.0-4.69","2636537","co37681","norming","","","","","","",""
"null","../img/tt/515tt.jpg","null","mooney2","image-keyboard-response","494","1453962","0.0-6.0-5.69","2636537","co37681","norming","","","","","","",""
"2097.410000000149","","","post_reveal_questions","survey-likert","495","1456063","0.0-6.0-6.69","2636537","co37681","norming","","","{""aha"":0}","[0]","../img/tt/515tt.jpg","",""
"null","<div style=""font-size:60px;""> </div>","null","fixation","html-keyboard-response","496","1456268","0.0-6.0-0.70","2636537","co37681","norming","","","","","","",""
"null","../img/tt/1189tt.jpg","null","mooney1","image-keyboard-response","497","1459271","0.0-6.0-1.70","2636537","co37681","norming","","","","","","",""
"3348.700000000652","","","post_mooney1_questions","survey-likert","498","1462623","0.0-6.0-2.70","2636537","co37681","norming","","","{""curiosity"":5,""confidence"":0}","[0,1]","../img/tt/1189tt.jpg","",""
"766.0250000008382","","","recognition","survey-text","499","1463390","0.0-6.0-3.70","2636537","co37681","norming","","","{""guess"":""""}","","../img/tt/1189tt.jpg","",""
"null","../img/gs/1189gs.jpg","null","reveal","image-keyboard-response","500","1465401","0.0-6.0-4.70","2636537","co37681","norming","","","","","","",""
"null","../img/tt/1189tt.jpg","null","mooney2","image-keyboard-response","501","1467410","0.0-6.0-5.70","2636537","co37681","norming","","","","","","",""
"2603.3299999998417","","","post_reveal_questions","survey-likert","502","1470015","0.0-6.0-6.70","2636537","co37681","norming","","","{""aha"":4}","[0]","../img/tt/1189tt.jpg","",""
"null","<div style=""font-size:60px;""> </div>","null","fixation","html-keyboard-response","503","1470222","0.0-6.0-0.71","2636537","co37681","norming","","","","","","",""
"null","../img/tt/1242tt.jpg","null","mooney1","image-keyboard-response","504","1473225","0.0-6.0-1.71","2636537","co37681","norming","","","","","","",""
"2332.459999999497","","","post_mooney1_questions","survey-likert","505","1475559","0.0-6.0-2.71","2636537","co37681","norming","","","{""curiosity"":5,""confidence"":0}","[0,1]","../img/tt/1242tt.jpg","",""
"830.025000001071","","","recognition","survey-text","506","1476390","0.0-6.0-3.71","2636537","co37681","norming","","","{""guess"":""""}","","../img/tt/1242tt.jpg","",""
"null","../img/gs/1242gs.jpg","null","reveal","image-keyboard-response","507","1478393","0.0-6.0-4.71","2636537","co37681","norming","","","","","","",""
"null","../img/tt/1242tt.jpg","null","mooney2","image-keyboard-response","508","1480397","0.0-6.0-5.71","2636537","co37681","norming","","","","","","",""
"2830.7899999998044","","","post_reveal_questions","survey-likert","509","1483230","0.0-6.0-6.71","2636537","co37681","norming","","","{""aha"":4}","[0]","../img/tt/1242tt.jpg","",""
"null","<div style=""font-size:60px;""> </div>","null","fixation","html-keyboard-response","510","1483435","0.0-6.0-0.72","2636537","co37681","norming","","","","","","",""
"null","../img/tt/456tt.jpg","null","mooney1","image-keyboard-response","511","1486442","0.0-6.0-1.72","2636537","co37681","norming","","","","","","",""
"4040.8299999998417","","","post_mooney1_questions","survey-likert","512","1490487","0.0-6.0-2.72","2636537","co37681","norming","","","{""curiosity"":5,""confidence"":0}","[0,1]","../img/tt/456tt.jpg","",""
"725.8700000003446","","","recognition","survey-text","513","1491214","0.0-6.0-3.72","2636537","co37681","norming","","","{""guess"":""""}","","../img/tt/456tt.jpg","",""
"null","../img/gs/456gs.jpg","null","reveal","image-keyboard-response","514","1493222","0.0-6.0-4.72","2636537","co37681","norming","","","","","","",""
"null","../img/tt/456tt.jpg","null","mooney2","image-keyboard-response","515","1495228","0.0-6.0-5.72","2636537","co37681","norming","","","","","","",""
"4306.950000000186","","","post_reveal_questions","survey-likert","516","1499536","0.0-6.0-6.72","2636537","co37681","norming","","","{""aha"":5}","[0]","../img/tt/456tt.jpg","",""
"null","<div style=""font-size:60px;""> </div>","null","fixation","html-keyboard-response","517","1499737","0.0-6.0-0.73","2636537","co37681","norming","","","","","","",""
"null","../img/tt/053tt.jpg","null","mooney1","image-keyboard-response","518","1502742","0.0-6.0-1.73","2636537","co37681","norming","","","","","","",""
"2919.5049999998882","","","post_mooney1_questions","survey-likert","519","1505665","0.0-6.0-2.73","2636537","co37681","norming","","","{""curiosity"":5,""confidence"":1}","[0,1]","../img/tt/053tt.jpg","",""
"654.1900000011083","","","recognition","survey-text","520","1506321","0.0-6.0-3.73","2636537","co37681","norming","","","{""guess"":""""}","","../img/tt/053tt.jpg","",""
"null","../img/gs/053gs.jpg","null","reveal","image-keyboard-response","521","1508326","0.0-6.0-4.73","2636537","co37681","norming","","","","","","",""
"null","../img/tt/053tt.jpg","null","mooney2","image-keyboard-response","522","1510328","0.0-6.0-5.73","2636537","co37681","norming","","","","","","",""
"3109.2800000004936","","","post_reveal_questions","survey-likert","523","1513440","0.0-6.0-6.73","2636537","co37681","norming","","","{""aha"":2}","[0]","../img/tt/053tt.jpg","",""
"null","<div style=""font-size:60px;""> </div>","null","fixation","html-keyboard-response","524","1513643","0.0-6.0-0.74","2636537","co37681","norming","","","","","","",""
"null","../img/tt/1006tt.jpg","null","mooney1","image-keyboard-response","525","1516646","0.0-6.0-1.74","2636537","co37681","norming","","","","","","",""
"3007.0749999994878","","","post_mooney1_questions","survey-likert","526","1519657","0.0-6.0-2.74","2636537","co37681","norming","","","{""curiosity"":4,""confidence"":1}","[0,1]","../img/tt/1006tt.jpg","",""
"733.9900000004563","","","recognition","survey-text","527","1520392","0.0-6.0-3.74","2636537","co37681","norming","","","{""guess"":""""}","","../img/tt/1006tt.jpg","",""
"null","../img/gs/1006gs.jpg","null","reveal","image-keyboard-response","528","1522401","0.0-6.0-4.74","2636537","co37681","norming","","","","","","",""
"null","../img/tt/1006tt.jpg","null","mooney2","image-keyboard-response","529","1524403","0.0-6.0-5.74","2636537","co37681","norming","","","","","","",""
"2754.885000000242","","","post_reveal_questions","survey-likert","530","1527160","0.0-6.0-6.74","2636537","co37681","norming","","","{""aha"":3}","[0]","../img/tt/1006tt.jpg","",""
"null","<div style=""font-size:60px;""> </div>","null","fixation","html-keyboard-response","531","1527364","0.0-6.0-0.75","2636537","co37681","norming","","","","","","",""
"null","../img/tt/052tt.jpg","null","mooney1","image-keyboard-response","532","1530371","0.0-6.0-1.75","2636537","co37681","norming","","","","","","",""
"3322.329999999143","","","post_mooney1_questions","survey-likert","533","1533697","0.0-6.0-2.75","2636537","co37681","norming","","","{""curiosity"":4,""confidence"":2}","[0,1]","../img/tt/052tt.jpg","",""
"3318.320000000298","","","recognition","survey-text","534","1537017","0.0-6.0-3.75","2636537","co37681","norming","","","{""guess"":""sandwich""}","","../img/tt/052tt.jpg","",""
"null","../img/gs/052gs.jpg","null","reveal","image-keyboard-response","535","1539018","0.0-6.0-4.75","2636537","co37681","norming","","","","","","",""
"null","../img/tt/052tt.jpg","null","mooney2","image-keyboard-response","536","1541020","0.0-6.0-5.75","2636537","co37681","norming","","","","","","",""
"2120.8100000002887","","","post_reveal_questions","survey-likert","537","1543144","0.0-6.0-6.75","2636537","co37681","norming","","","{""aha"":4}","[0]","../img/tt/052tt.jpg","",""
"null","<div style=""font-size:60px;""> </div>","null","fixation","html-keyboard-response","538","1543355","0.0-6.0-0.76","2636537","co37681","norming","","","","","","",""
"null","../img/tt/008tt.jpg","null","mooney1","image-keyboard-response","539","1546359","0.0-6.0-1.76","2636537","co37681","norming","","","","","","",""
"3062.4499999994878","","","post_mooney1_questions","survey-likert","540","1549425","0.0-6.0-2.76","2636537","co37681","norming","","","{""curiosity"":5,""confidence"":1}","[0,1]","../img/tt/008tt.jpg","",""
"797.7350000001024","","","recognition","survey-text","541","1550224","0.0-6.0-3.76","2636537","co37681","norming","","","{""guess"":""""}","","../img/tt/008tt.jpg","",""
"null","../img/gs/008gs.jpg","null","reveal","image-keyboard-response","542","1552227","0.0-6.0-4.76","2636537","co37681","norming","","","","","","",""
"null","../img/tt/008tt.jpg","null","mooney2","image-keyboard-response","543","1554232","0.0-6.0-5.76","2636537","co37681","norming","","","","","","",""
"4101.759999999544","","","post_reveal_questions","survey-likert","544","1558337","0.0-6.0-6.76","2636537","co37681","norming","","","{""aha"":3}","[0]","../img/tt/008tt.jpg","",""
"null","<div style=""font-size:60px;""> </div>","null","fixation","html-keyboard-response","545","1558545","0.0-6.0-0.77","2636537","co37681","norming","","","","","","",""
"null","../img/tt/1101tt.jpg","null","mooney1","image-keyboard-response","546","1561552","0.0-6.0-1.77","2636537","co37681","norming","","","","","","",""
"9868.699999999022","","","post_mooney1_questions","survey-likert","547","1571425","0.0-6.0-2.77","2636537","co37681","norming","","","{""curiosity"":4,""confidence"":2}","[0,1]","../img/tt/1101tt.jpg","",""
"1702.0200000004843","","","recognition","survey-text","548","1573129","0.0-6.0-3.77","2636537","co37681","norming","","","{""guess"":""sport""}","","../img/tt/1101tt.jpg","",""
"null","../img/gs/1101gs.jpg","null","reveal","image-keyboard-response","549","1575137","0.0-6.0-4.77","2636537","co37681","norming","","","","","","",""
"null","../img/tt/1101tt.jpg","null","mooney2","image-keyboard-response","550","1577144","0.0-6.0-5.77","2636537","co37681","norming","","","","","","",""
"2511.8449999992736","","","post_reveal_questions","survey-likert","551","1579657","0.0-6.0-6.77","2636537","co37681","norming","","","{""aha"":3}","[0]","../img/tt/1101tt.jpg","",""
"null","<div style=""font-size:60px;""> </div>","null","fixation","html-keyboard-response","552","1579859","0.0-6.0-0.78","2636537","co37681","norming","","","","","","",""
"null","../img/tt/1046tt.jpg","null","mooney1","image-keyboard-response","553","1582866","0.0-6.0-1.78","2636537","co37681","norming","","","","","","",""
