"rt","stimulus","key_press","test_part","trial_type","trial_index","time_elapsed","internal_node_id","totalTime","subject","experiment_name","button_pressed","success","responses","question_order","currentStim","old","correct"
"8050.66499999998","Welcome to the experiment. This is an online experiment so please don't close the tab/window until we say goodbye.  Press any key to begin.","32","instructions","html-keyboard-response","0","8064","0.0-0.0","2609210","co37894","norming","","","","","","",""
"22742.19500000004","<div style='word-wrap: break-word; width: 900px'><h3>Please consider this information carefully before deciding whether to participate in this research</h3><ul style='text-align: left; font-size: .8em;'><li><b>Purpose of the research</b>: To examine how people process images.</li><li><b>What you will do in this research</b>:  Stimuli (images) will be presented on the computer and you will be asked different questions about them.</li><li><b>Time required</b>: Participation will take between 45 and 60 minutes to complete.</li><li><b>Risks</b>:  There are no anticipated risks associated with participating in this study. The effects of participating should be comparable to those you would experience from viewing a computer monitor for 30 minutes and using a mouse or keyboard.</li><li><b>Benefits</b>:  This study provides no benefits to you individually except for the credit. The study provides important information about the nature of perception and learning.</li><li><b>Confidentiality</b>:  Your participation in this study will remain confidential. No personally identifiable information will be associated with your data. Your de-identified data may be shared with other researchers and used in future projects.</li><li><b>Participation and withdrawal</b>:  Your participation in this study is completely voluntary and you may refuse to participate or you may choose to withdraw at any time without penalty.</li><li><b>How to contact the researchers</b>: If you have questions or concerns about your participation or payment, or want to request a summary of research findings, please contact Sander Van de Cruys (KU Leuven), at sander.vandecruys@kuleuven.be.</li></ul><p>The nature and purpose of this research have been sufficiently explained and I agree to participate in this study.  I understand that I am free to withdraw at any time without incurring any penalty.</p><p>Please consent by clicking the button below to continue. Otherwise, please exit the study at this time.</p></div>","","instructions","html-button-response","1","30808","0.0-1.0","2609210","co37894","norming","0","","","","","",""
"","","","instructions","fullscreen","2","39955","0.0-2.0","2609210","co37894","norming","","true","","","","",""
"30267.594999999914","","","sona","survey-html-form","3","70218","0.0-3.0","2609210","co37894","norming","","","[{""name"":""sonaid"",""value"":""37894""},{""name"":""debrief"",""value"":""yes""},{""name"":""datajoin"",""value"":""yes""}]","","","",""
"37934.67999999995","<div style='word-wrap: break-word; width: 900px'><h3>Instructions</h3><p>This experiment will have 3 parts. In the first part you will see a series of distorted images like the one below on the left. As you can see in the righthand image, the distorted images are derived from actual photographs. In what follows, you will <strong>briefly</strong> be presented with <strong>only</strong> the distorted image.</p> <div style='float: left; margin-right: 20px;'><img src='../img/018tt.jpg' height='250' width='250'></img></div><div style='float: right; margin-left: 20px;'><img src='../img/018gs.jpg' height='250' width='250'></img></div><p>Subsequently you will be asked a few questions about the image: One question on how <strong>curious</strong> you are about the solution and one on how <strong>confident</strong> you are that you know the solution.</p>Next, we ask you to make a guess on what is in the image. Note that it is OK to name just the <strong>basic level category</strong>. For example when you see a parrot in the image, 'parrot' will obviously be a correct answer but also correct is 'bird'. However, 'animal' will <strong>not</strong> be counted as a correct response. For the example above, 'rose' would be correct or 'flower', but not 'plant'. When soccer players are depicted, 'soccer', 'football', 'soccer players' will be correct, but not 'humans', 'outdoors', or 'sports'. You do not need to describe the image in full, just name the main object in it <strong>in one or two words</strong>. All images depict objects from one of the following broad level categories: animals, inanimate objects, plants, sports, vehicles, and food. Recognizing means knowing <strong>more</strong> than these broad labels for a given image. But we always encourage you to <strong>make a guess</strong> if you can. Note that you are allowed to use <strong>Dutch and English</strong> in your answers, whatever comes easiest for you.</p><p>Press any key to continue.</p></div>","32","instructions","html-keyboard-response","4","108155","0.0-4.0","2609210","co37894","norming","","","","","","",""
"127230.72500000012","<div style='word-wrap: break-word; width: 900px'><h3>Instructions</h3> <p>Next, the solution image will be revealed to you and you'll be asked to indicate how strong your <strong>aha-experience</strong> was after seeing the solution. This describes the positive feeling of the 'click' you sometimes experience, when the pieces of the 'puzzle' fall together and you suddenly have 'insight' in the image.</p><img src='aha.jpg' height='188' width='250'></img><p>Note that there are no right or wrong answers. We are interested in what <strong>you</strong> see in the image and how <strong>you</strong> feel about it.</p><p>Press any key to start the experiment.</p></div>","32","instructions","html-keyboard-response","5","235390","0.0-5.0","2609210","co37894","norming","","","","","","",""
"null","<div style=""font-size:60px;""> </div>","null","fixation","html-keyboard-response","6","235594","0.0-6.0-0.0","2609210","co37894","norming","","","","","","",""
"null","../img/tt/064tt.jpg","null","mooney1","image-keyboard-response","7","238607","0.0-6.0-1.0","2609210","co37894","norming","","","","","","",""
"15458.229999999952","","","post_mooney1_questions","survey-likert","8","254069","0.0-6.0-2.0","2609210","co37894","norming","","","{""curiosity"":4,""confidence"":0}","[0,1]","../img/tt/064tt.jpg","",""
"3301.3199999998033","","","recognition","survey-text","9","257373","0.0-6.0-3.0","2609210","co37894","norming","","","{""guess"":""""}","","../img/tt/064tt.jpg","",""
"null","../img/gs/064gs.jpg","null","reveal","image-keyboard-response","10","259381","0.0-6.0-4.0","2609210","co37894","norming","","","","","","",""
"null","../img/tt/064tt.jpg","null","mooney2","image-keyboard-response","11","261384","0.0-6.0-5.0","2609210","co37894","norming","","","","","","",""
"4186.310000000027","","","post_reveal_questions","survey-likert","12","265573","0.0-6.0-6.0","2609210","co37894","norming","","","{""aha"":0}","[0]","../img/tt/064tt.jpg","",""
"null","<div style=""font-size:60px;""> </div>","null","fixation","html-keyboard-response","13","265775","0.0-6.0-0.1","2609210","co37894","norming","","","","","","",""
"null","../img/tt/599tt.jpg","null","mooney1","image-keyboard-response","14","268779","0.0-6.0-1.1","2609210","co37894","norming","","","","","","",""
"12232.25","","","post_mooney1_questions","survey-likert","15","281013","0.0-6.0-2.1","2609210","co37894","norming","","","{""curiosity"":5,""confidence"":4}","[0,1]","../img/tt/599tt.jpg","",""
"2998.4150000000373","","","recognition","survey-text","16","284013","0.0-6.0-3.1","2609210","co37894","norming","","","{""guess"":""soldier""}","","../img/tt/599tt.jpg","",""
"null","../img/gs/599gs.jpg","null","reveal","image-keyboard-response","17","286016","0.0-6.0-4.1","2609210","co37894","norming","","","","","","",""
"null","../img/tt/599tt.jpg","null","mooney2","image-keyboard-response","18","288017","0.0-6.0-5.1","2609210","co37894","norming","","","","","","",""
"10857.314999999944","","","post_reveal_questions","survey-likert","19","298884","0.0-6.0-6.1","2609210","co37894","norming","","","{""aha"":1}","[0]","../img/tt/599tt.jpg","",""
"null","<div style=""font-size:60px;""> </div>","null","fixation","html-keyboard-response","20","299085","0.0-6.0-0.2","2609210","co37894","norming","","","","","","",""
"null","../img/tt/436tt.jpg","null","mooney1","image-keyboard-response","21","302091","0.0-6.0-1.2","2609210","co37894","norming","","","","","","",""
"7478.415000000037","","","post_mooney1_questions","survey-likert","22","309572","0.0-6.0-2.2","2609210","co37894","norming","","","{""curiosity"":0,""confidence"":0}","[0,1]","../img/tt/436tt.jpg","",""
"2205.5","","","recognition","survey-text","23","311779","0.0-6.0-3.2","2609210","co37894","norming","","","{""guess"":""""}","","../img/tt/436tt.jpg","",""
"null","../img/gs/436gs.jpg","null","reveal","image-keyboard-response","24","313784","0.0-6.0-4.2","2609210","co37894","norming","","","","","","",""
"null","../img/tt/436tt.jpg","null","mooney2","image-keyboard-response","25","315795","0.0-6.0-5.2","2609210","co37894","norming","","","","","","",""
"2140.4150000000955","","","post_reveal_questions","survey-likert","26","317940","0.0-6.0-6.2","2609210","co37894","norming","","","{""aha"":0}","[0]","../img/tt/436tt.jpg","",""
"null","<div style=""font-size:60px;""> </div>","null","fixation","html-keyboard-response","27","318142","0.0-6.0-0.3","2609210","co37894","norming","","","","","","",""
"null","../img/tt/1127tt.jpg","null","mooney1","image-keyboard-response","28","321143","0.0-6.0-1.3","2609210","co37894","norming","","","","","","",""
"6379.699999999953","","","post_mooney1_questions","survey-likert","29","327524","0.0-6.0-2.3","2609210","co37894","norming","","","{""curiosity"":5,""confidence"":2}","[0,1]","../img/tt/1127tt.jpg","",""
"4509.804999999877","","","recognition","survey-text","30","332036","0.0-6.0-3.3","2609210","co37894","norming","","","{""guess"":""classroom""}","","../img/tt/1127tt.jpg","",""
"null","../img/gs/1127gs.jpg","null","reveal","image-keyboard-response","31","334040","0.0-6.0-4.3","2609210","co37894","norming","","","","","","",""
"null","../img/tt/1127tt.jpg","null","mooney2","image-keyboard-response","32","336045","0.0-6.0-5.3","2609210","co37894","norming","","","","","","",""
"4134.374999999825","","","post_reveal_questions","survey-likert","33","340180","0.0-6.0-6.3","2609210","co37894","norming","","","{""aha"":4}","[0]","../img/tt/1127tt.jpg","",""
"null","<div style=""font-size:60px;""> </div>","null","fixation","html-keyboard-response","34","340382","0.0-6.0-0.4","2609210","co37894","norming","","","","","","",""
"null","../img/tt/515tt.jpg","null","mooney1","image-keyboard-response","35","343391","0.0-6.0-1.4","2609210","co37894","norming","","","","","","",""
"6348.030000000144","","","post_mooney1_questions","survey-likert","36","349740","0.0-6.0-2.4","2609210","co37894","norming","","","{""curiosity"":6,""confidence"":2}","[0,1]","../img/tt/515tt.jpg","",""
"5526.110000000044","","","recognition","survey-text","37","355268","0.0-6.0-3.4","2609210","co37894","norming","","","{""guess"":""book""}","","../img/tt/515tt.jpg","",""
"null","../img/gs/515gs.jpg","null","reveal","image-keyboard-response","38","357278","0.0-6.0-4.4","2609210","co37894","norming","","","","","","",""
"null","../img/tt/515tt.jpg","null","mooney2","image-keyboard-response","39","359281","0.0-6.0-5.4","2609210","co37894","norming","","","","","","",""
"4050.1100000001607","","","post_reveal_questions","survey-likert","40","363332","0.0-6.0-6.4","2609210","co37894","norming","","","{""aha"":0}","[0]","../img/tt/515tt.jpg","",""
"null","<div style=""font-size:60px;""> </div>","null","fixation","html-keyboard-response","41","363534","0.0-6.0-0.5","2609210","co37894","norming","","","","","","",""
"null","../img/tt/1190tt.jpg","null","mooney1","image-keyboard-response","42","366543","0.0-6.0-1.5","2609210","co37894","norming","","","","","","",""
"13419.790000000154","","","post_mooney1_questions","survey-likert","43","379964","0.0-6.0-2.5","2609210","co37894","norming","","","{""curiosity"":4,""confidence"":0}","[0,1]","../img/tt/1190tt.jpg","",""
"773.6999999999534","","","recognition","survey-text","44","380740","0.0-6.0-3.5","2609210","co37894","norming","","","{""guess"":""""}","","../img/tt/1190tt.jpg","",""
"null","../img/gs/1190gs.jpg","null","reveal","image-keyboard-response","45","382745","0.0-6.0-4.5","2609210","co37894","norming","","","","","","",""
"null","../img/tt/1190tt.jpg","null","mooney2","image-keyboard-response","46","384748","0.0-6.0-5.5","2609210","co37894","norming","","","","","","",""
"2494.839999999851","","","post_reveal_questions","survey-likert","47","387244","0.0-6.0-6.5","2609210","co37894","norming","","","{""aha"":0}","[0]","../img/tt/1190tt.jpg","",""
"null","<div style=""font-size:60px;""> </div>","null","fixation","html-keyboard-response","48","387452","0.0-6.0-0.6","2609210","co37894","norming","","","","","","",""
"null","../img/tt/477tt.jpg","null","mooney1","image-keyboard-response","49","390461","0.0-6.0-1.6","2609210","co37894","norming","","","","","","",""
"5557.635000000126","","","post_mooney1_questions","survey-likert","50","396020","0.0-6.0-2.6","2609210","co37894","norming","","","{""curiosity"":6,""confidence"":0}","[0,1]","../img/tt/477tt.jpg","",""
"790.0099999998929","","","recognition","survey-text","51","396812","0.0-6.0-3.6","2609210","co37894","norming","","","{""guess"":""""}","","../img/tt/477tt.jpg","",""
"null","../img/gs/477gs.jpg","null","reveal","image-keyboard-response","52","398813","0.0-6.0-4.6","2609210","co37894","norming","","","","","","",""
"null","../img/tt/477tt.jpg","null","mooney2","image-keyboard-response","53","400821","0.0-6.0-5.6","2609210","co37894","norming","","","","","","",""
"3406.0250000000233","","","post_reveal_questions","survey-likert","54","404228","0.0-6.0-6.6","2609210","co37894","norming","","","{""aha"":0}","[0]","../img/tt/477tt.jpg","",""
"null","<div style=""font-size:60px;""> </div>","null","fixation","html-keyboard-response","55","404432","0.0-6.0-0.7","2609210","co37894","norming","","","","","","",""
"null","../img/tt/1353tt.jpg","null","mooney1","image-keyboard-response","56","407434","0.0-6.0-1.7","2609210","co37894","norming","","","","","","",""
"6368.5","","","post_mooney1_questions","survey-likert","57","413804","0.0-6.0-2.7","2609210","co37894","norming","","","{""curiosity"":4,""confidence"":0}","[0,1]","../img/tt/1353tt.jpg","",""
"598.0449999999255","","","recognition","survey-text","58","414404","0.0-6.0-3.7","2609210","co37894","norming","","","{""guess"":""""}","","../img/tt/1353tt.jpg","",""
"null","../img/gs/1353gs.jpg","null","reveal","image-keyboard-response","59","416410","0.0-6.0-4.7","2609210","co37894","norming","","","","","","",""
"null","../img/tt/1353tt.jpg","null","mooney2","image-keyboard-response","60","418423","0.0-6.0-5.7","2609210","co37894","norming","","","","","","",""
"2550.9700000000303","","","post_reveal_questions","survey-likert","61","420975","0.0-6.0-6.7","2609210","co37894","norming","","","{""aha"":0}","[0]","../img/tt/1353tt.jpg","",""
"null","<div style=""font-size:60px;""> </div>","null","fixation","html-keyboard-response","62","421178","0.0-6.0-0.8","2609210","co37894","norming","","","","","","",""
"null","../img/tt/1143tt.jpg","null","mooney1","image-keyboard-response","63","424186","0.0-6.0-1.8","2609210","co37894","norming","","","","","","",""
"4922.715000000142","","","post_mooney1_questions","survey-likert","64","429111","0.0-6.0-2.8","2609210","co37894","norming","","","{""curiosity"":5,""confidence"":1}","[0,1]","../img/tt/1143tt.jpg","",""
"8966.134999999893","","","recognition","survey-text","65","438079","0.0-6.0-3.8","2609210","co37894","norming","","","{""guess"":""""}","","../img/tt/1143tt.jpg","",""
"null","../img/gs/1143gs.jpg","null","reveal","image-keyboard-response","66","440084","0.0-6.0-4.8","2609210","co37894","norming","","","","","","",""
"null","../img/tt/1143tt.jpg","null","mooney2","image-keyboard-response","67","442088","0.0-6.0-5.8","2609210","co37894","norming","","","","","","",""
"7741.964999999909","","","post_reveal_questions","survey-likert","68","449831","0.0-6.0-6.8","2609210","co37894","norming","","","{""aha"":2}","[0]","../img/tt/1143tt.jpg","",""
"null","<div style=""font-size:60px;""> </div>","null","fixation","html-keyboard-response","69","450039","0.0-6.0-0.9","2609210","co37894","norming","","","","","","",""
"null","../img/tt/1366tt.jpg","null","mooney1","image-keyboard-response","70","453048","0.0-6.0-1.9","2609210","co37894","norming","","","","","","",""
"6405.044999999984","","","post_mooney1_questions","survey-likert","71","459455","0.0-6.0-2.9","2609210","co37894","norming","","","{""curiosity"":2,""confidence"":1}","[0,1]","../img/tt/1366tt.jpg","",""
"2558.1849999998813","","","recognition","survey-text","72","462015","0.0-6.0-3.9","2609210","co37894","norming","","","{""guess"":""lizard""}","","../img/tt/1366tt.jpg","",""
"null","../img/gs/1366gs.jpg","null","reveal","image-keyboard-response","73","464017","0.0-6.0-4.9","2609210","co37894","norming","","","","","","",""
"null","../img/tt/1366tt.jpg","null","mooney2","image-keyboard-response","74","466020","0.0-6.0-5.9","2609210","co37894","norming","","","","","","",""
"2641.144999999786","","","post_reveal_questions","survey-likert","75","468663","0.0-6.0-6.9","2609210","co37894","norming","","","{""aha"":0}","[0]","../img/tt/1366tt.jpg","",""
"null","<div style=""font-size:60px;""> </div>","null","fixation","html-keyboard-response","76","468865","0.0-6.0-0.10","2609210","co37894","norming","","","","","","",""
"null","../img/tt/049tt.jpg","null","mooney1","image-keyboard-response","77","471875","0.0-6.0-1.10","2609210","co37894","norming","","","","","","",""
"4865.860000000161","","","post_mooney1_questions","survey-likert","78","476743","0.0-6.0-2.10","2609210","co37894","norming","","","{""curiosity"":4,""confidence"":1}","[0,1]","../img/tt/049tt.jpg","",""
"7878.310000000056","","","recognition","survey-text","79","484620","0.0-6.0-3.10","2609210","co37894","norming","","","{""guess"":""human baby""}","","../img/tt/049tt.jpg","",""
"null","../img/gs/049gs.jpg","null","reveal","image-keyboard-response","80","486621","0.0-6.0-4.10","2609210","co37894","norming","","","","","","",""
"null","../img/tt/049tt.jpg","null","mooney2","image-keyboard-response","81","488632","0.0-6.0-5.10","2609210","co37894","norming","","","","","","",""
"2250.250000000058","","","post_reveal_questions","survey-likert","82","490884","0.0-6.0-6.10","2609210","co37894","norming","","","{""aha"":0}","[0]","../img/tt/049tt.jpg","",""
"null","<div style=""font-size:60px;""> </div>","null","fixation","html-keyboard-response","83","491094","0.0-6.0-0.11","2609210","co37894","norming","","","","","","",""
"null","../img/tt/1226tt.jpg","null","mooney1","image-keyboard-response","84","494102","0.0-6.0-1.11","2609210","co37894","norming","","","","","","",""
"4795.85000000021","","","post_mooney1_questions","survey-likert","85","498900","0.0-6.0-2.11","2609210","co37894","norming","","","{""curiosity"":4,""confidence"":3}","[0,1]","../img/tt/1226tt.jpg","",""
"2758.17499999993","","","recognition","survey-text","86","501660","0.0-6.0-3.11","2609210","co37894","norming","","","{""guess"":""chickens""}","","../img/tt/1226tt.jpg","",""
"null","../img/gs/1226gs.jpg","null","reveal","image-keyboard-response","87","503661","0.0-6.0-4.11","2609210","co37894","norming","","","","","","",""
"null","../img/tt/1226tt.jpg","null","mooney2","image-keyboard-response","88","505665","0.0-6.0-5.11","2609210","co37894","norming","","","","","","",""
"3426.1699999999837","","","post_reveal_questions","survey-likert","89","509092","0.0-6.0-6.11","2609210","co37894","norming","","","{""aha"":6}","[0]","../img/tt/1226tt.jpg","",""
"null","<div style=""font-size:60px;""> </div>","null","fixation","html-keyboard-response","90","509293","0.0-6.0-0.12","2609210","co37894","norming","","","","","","",""
"null","../img/tt/019tt.jpg","null","mooney1","image-keyboard-response","91","512303","0.0-6.0-1.12","2609210","co37894","norming","","","","","","",""
"5954.445000000065","","","post_mooney1_questions","survey-likert","92","518260","0.0-6.0-2.12","2609210","co37894","norming","","","{""curiosity"":3,""confidence"":1}","[0,1]","../img/tt/019tt.jpg","",""
"3366.0799999997835","","","recognition","survey-text","93","521628","0.0-6.0-3.12","2609210","co37894","norming","","","{""guess"":""airplane""}","","../img/tt/019tt.jpg","",""
"null","../img/gs/019gs.jpg","null","reveal","image-keyboard-response","94","523629","0.0-6.0-4.12","2609210","co37894","norming","","","","","","",""
"null","../img/tt/019tt.jpg","null","mooney2","image-keyboard-response","95","525632","0.0-6.0-5.12","2609210","co37894","norming","","","","","","",""
"2082.024999999907","","","post_reveal_questions","survey-likert","96","527716","0.0-6.0-6.12","2609210","co37894","norming","","","{""aha"":0}","[0]","../img/tt/019tt.jpg","",""
"null","<div style=""font-size:60px;""> </div>","null","fixation","html-keyboard-response","97","527924","0.0-6.0-0.13","2609210","co37894","norming","","","","","","",""
"null","../img/tt/031tt.jpg","null","mooney1","image-keyboard-response","98","530931","0.0-6.0-1.13","2609210","co37894","norming","","","","","","",""
"6160.064999999944","","","post_mooney1_questions","survey-likert","99","537092","0.0-6.0-2.13","2609210","co37894","norming","","","{""curiosity"":4,""confidence"":0}","[0,1]","../img/tt/031tt.jpg","",""
"494.0299999999115","","","recognition","survey-text","100","537588","0.0-6.0-3.13","2609210","co37894","norming","","","{""guess"":""""}","","../img/tt/031tt.jpg","",""
"null","../img/gs/031gs.jpg","null","reveal","image-keyboard-response","101","539598","0.0-6.0-4.13","2609210","co37894","norming","","","","","","",""
"null","../img/tt/031tt.jpg","null","mooney2","image-keyboard-response","102","541607","0.0-6.0-5.13","2609210","co37894","norming","","","","","","",""
"2784.4950000001118","","","post_reveal_questions","survey-likert","103","544394","0.0-6.0-6.13","2609210","co37894","norming","","","{""aha"":0}","[0]","../img/tt/031tt.jpg","",""
"null","<div style=""font-size:60px;""> </div>","null","fixation","html-keyboard-response","104","544602","0.0-6.0-0.14","2609210","co37894","norming","","","","","","",""
"null","../img/tt/1146tt.jpg","null","mooney1","image-keyboard-response","105","547606","0.0-6.0-1.14","2609210","co37894","norming","","","","","","",""
"4768.900000000023","","","post_mooney1_questions","survey-likert","106","552378","0.0-6.0-2.14","2609210","co37894","norming","","","{""curiosity"":5,""confidence"":1}","[0,1]","../img/tt/1146tt.jpg","",""
"2086.1900000000605","","","recognition","survey-text","107","554466","0.0-6.0-3.14","2609210","co37894","norming","","","{""guess"":""car""}","","../img/tt/1146tt.jpg","",""
"null","../img/gs/1146gs.jpg","null","reveal","image-keyboard-response","108","556469","0.0-6.0-4.14","2609210","co37894","norming","","","","","","",""
"null","../img/tt/1146tt.jpg","null","mooney2","image-keyboard-response","109","558472","0.0-6.0-5.14","2609210","co37894","norming","","","","","","",""
"2176.255000000121","","","post_reveal_questions","survey-likert","110","560650","0.0-6.0-6.14","2609210","co37894","norming","","","{""aha"":0}","[0]","../img/tt/1146tt.jpg","",""
"null","<div style=""font-size:60px;""> </div>","null","fixation","html-keyboard-response","111","560858","0.0-6.0-0.15","2609210","co37894","norming","","","","","","",""
"null","../img/tt/549tt.jpg","null","mooney1","image-keyboard-response","112","563868","0.0-6.0-1.15","2609210","co37894","norming","","","","","","",""
"6819.3099999999395","","","post_mooney1_questions","survey-likert","113","570690","0.0-6.0-2.15","2609210","co37894","norming","","","{""curiosity"":1,""confidence"":0}","[0,1]","../img/tt/549tt.jpg","",""
"1742.375","","","recognition","survey-text","114","572434","0.0-6.0-3.15","2609210","co37894","norming","","","{""guess"":""""}","","../img/tt/549tt.jpg","",""
"null","../img/gs/549gs.jpg","null","reveal","image-keyboard-response","115","574440","0.0-6.0-4.15","2609210","co37894","norming","","","","","","",""
"null","../img/tt/549tt.jpg","null","mooney2","image-keyboard-response","116","576443","0.0-6.0-5.15","2609210","co37894","norming","","","","","","",""
"2348.960000000079","","","post_reveal_questions","survey-likert","117","578794","0.0-6.0-6.15","2609210","co37894","norming","","","{""aha"":0}","[0]","../img/tt/549tt.jpg","",""
"null","<div style=""font-size:60px;""> </div>","null","fixation","html-keyboard-response","118","578996","0.0-6.0-0.16","2609210","co37894","norming","","","","","","",""
"null","../img/tt/1130tt.jpg","null","mooney1","image-keyboard-response","119","582000","0.0-6.0-1.16","2609210","co37894","norming","","","","","","",""
"6319.4099999998","","","post_mooney1_questions","survey-likert","120","588322","0.0-6.0-2.16","2609210","co37894","norming","","","{""curiosity"":6,""confidence"":5}","[0,1]","../img/tt/1130tt.jpg","",""
"5518.2599999997765","","","recognition","survey-text","121","593842","0.0-6.0-3.16","2609210","co37894","norming","","","{""guess"":""cycler""}","","../img/tt/1130tt.jpg","",""
"null","../img/gs/1130gs.jpg","null","reveal","image-keyboard-response","122","595843","0.0-6.0-4.16","2609210","co37894","norming","","","","","","",""
"null","../img/tt/1130tt.jpg","null","mooney2","image-keyboard-response","123","597845","0.0-6.0-5.16","2609210","co37894","norming","","","","","","",""
"1970.515000000014","","","post_reveal_questions","survey-likert","124","599813","0.0-6.0-6.16","2609210","co37894","norming","","","{""aha"":6}","[0]","../img/tt/1130tt.jpg","",""
"null","<div style=""font-size:60px;""> </div>","null","fixation","html-keyboard-response","125","600018","0.0-6.0-0.17","2609210","co37894","norming","","","","","","",""
"null","../img/tt/412tt.jpg","null","mooney1","image-keyboard-response","126","603027","0.0-6.0-1.17","2609210","co37894","norming","","","","","","",""
"4255.104999999981","","","post_mooney1_questions","survey-likert","127","607285","0.0-6.0-2.17","2609210","co37894","norming","","","{""curiosity"":5,""confidence"":2}","[0,1]","../img/tt/412tt.jpg","",""
"4230.045000000042","","","recognition","survey-text","128","611517","0.0-6.0-3.17","2609210","co37894","norming","","","{""guess"":""beeldhouwer""}","","../img/tt/412tt.jpg","",""
"null","../img/gs/412gs.jpg","null","reveal","image-keyboard-response","129","613518","0.0-6.0-4.17","2609210","co37894","norming","","","","","","",""
"null","../img/tt/412tt.jpg","null","mooney2","image-keyboard-response","130","615526","0.0-6.0-5.17","2609210","co37894","norming","","","","","","",""
"1468.670000000042","","","post_reveal_questions","survey-likert","131","616997","0.0-6.0-6.17","2609210","co37894","norming","","","{""aha"":0}","[0]","../img/tt/412tt.jpg","",""
"null","<div style=""font-size:60px;""> </div>","null","fixation","html-keyboard-response","132","617199","0.0-6.0-0.18","2609210","co37894","norming","","","","","","",""
"null","../img/tt/584tt.jpg","null","mooney1","image-keyboard-response","133","620204","0.0-6.0-1.18","2609210","co37894","norming","","","","","","",""
"13958.854999999865","","","post_mooney1_questions","survey-likert","134","634165","0.0-6.0-2.18","2609210","co37894","norming","","","{""curiosity"":2,""confidence"":0}","[0,1]","../img/tt/584tt.jpg","",""
"766.1500000001397","","","recognition","survey-text","135","634933","0.0-6.0-3.18","2609210","co37894","norming","","","{""guess"":""""}","","../img/tt/584tt.jpg","",""
"null","../img/gs/584gs.jpg","null","reveal","image-keyboard-response","136","636935","0.0-6.0-4.18","2609210","co37894","norming","","","","","","",""
"null","../img/tt/584tt.jpg","null","mooney2","image-keyboard-response","137","638941","0.0-6.0-5.18","2609210","co37894","norming","","","","","","",""
"2774.6999999999534","","","post_reveal_questions","survey-likert","138","641717","0.0-6.0-6.18","2609210","co37894","norming","","","{""aha"":0}","[0]","../img/tt/584tt.jpg","",""
"null","<div style=""font-size:60px;""> </div>","null","fixation","html-keyboard-response","139","641926","0.0-6.0-0.19","2609210","co37894","norming","","","","","","",""
"null","../img/tt/013tt.jpg","null","mooney1","image-keyboard-response","140","644937","0.0-6.0-1.19","2609210","co37894","norming","","","","","","",""
"7075.464999999967","","","post_mooney1_questions","survey-likert","141","652013","0.0-6.0-2.19","2609210","co37894","norming","","","{""curiosity"":3,""confidence"":0}","[0,1]","../img/tt/013tt.jpg","",""
"750.0850000000792","","","recognition","survey-text","142","652765","0.0-6.0-3.19","2609210","co37894","norming","","","{""guess"":""""}","","../img/tt/013tt.jpg","",""
"null","../img/gs/013gs.jpg","null","reveal","image-keyboard-response","143","654767","0.0-6.0-4.19","2609210","co37894","norming","","","","","","",""
"null","../img/tt/013tt.jpg","null","mooney2","image-keyboard-response","144","656770","0.0-6.0-5.19","2609210","co37894","norming","","","","","","",""
"3849.1300000000047","","","post_reveal_questions","survey-likert","145","660622","0.0-6.0-6.19","2609210","co37894","norming","","","{""aha"":0}","[0]","../img/tt/013tt.jpg","",""
"null","<div style=""font-size:60px;""> </div>","null","fixation","html-keyboard-response","146","660830","0.0-6.0-0.20","2609210","co37894","norming","","","","","","",""
"null","../img/tt/222tt.jpg","null","mooney1","image-keyboard-response","147","663834","0.0-6.0-1.20","2609210","co37894","norming","","","","","","",""
"5193.680000000051","","","post_mooney1_questions","survey-likert","148","669030","0.0-6.0-2.20","2609210","co37894","norming","","","{""curiosity"":3,""confidence"":1}","[0,1]","../img/tt/222tt.jpg","",""
"2758","","","recognition","survey-text","149","671790","0.0-6.0-3.20","2609210","co37894","norming","","","{""guess"":""boat""}","","../img/tt/222tt.jpg","",""
"null","../img/gs/222gs.jpg","null","reveal","image-keyboard-response","150","673791","0.0-6.0-4.20","2609210","co37894","norming","","","","","","",""
"null","../img/tt/222tt.jpg","null","mooney2","image-keyboard-response","151","675801","0.0-6.0-5.20","2609210","co37894","norming","","","","","","",""
"4188.7799999999115","","","post_reveal_questions","survey-likert","152","679990","0.0-6.0-6.20","2609210","co37894","norming","","","{""aha"":2}","[0]","../img/tt/222tt.jpg","",""
"null","<div style=""font-size:60px;""> </div>","null","fixation","html-keyboard-response","153","680198","0.0-6.0-0.21","2609210","co37894","norming","","","","","","",""
"null","../img/tt/1309tt.jpg","null","mooney1","image-keyboard-response","154","683207","0.0-6.0-1.21","2609210","co37894","norming","","","","","","",""
"7460.519999999786","","","post_mooney1_questions","survey-likert","155","690671","0.0-6.0-2.21","2609210","co37894","norming","","","{""curiosity"":6,""confidence"":4}","[0,1]","../img/tt/1309tt.jpg","",""
"8334.125","","","recognition","survey-text","156","699006","0.0-6.0-3.21","2609210","co37894","norming","","","{""guess"":""Jeep""}","","../img/tt/1309tt.jpg","",""
"null","../img/gs/1309gs.jpg","null","reveal","image-keyboard-response","157","701011","0.0-6.0-4.21","2609210","co37894","norming","","","","","","",""
"null","../img/tt/1309tt.jpg","null","mooney2","image-keyboard-response","158","703012","0.0-6.0-5.21","2609210","co37894","norming","","","","","","",""
"3623.7349999998696","","","post_reveal_questions","survey-likert","159","706638","0.0-6.0-6.21","2609210","co37894","norming","","","{""aha"":6}","[0]","../img/tt/1309tt.jpg","",""
"null","<div style=""font-size:60px;""> </div>","null","fixation","html-keyboard-response","160","706841","0.0-6.0-0.22","2609210","co37894","norming","","","","","","",""
"null","../img/tt/1232tt.jpg","null","mooney1","image-keyboard-response","161","709843","0.0-6.0-1.22","2609210","co37894","norming","","","","","","",""
"5088.320000000065","","","post_mooney1_questions","survey-likert","162","714934","0.0-6.0-2.22","2609210","co37894","norming","","","{""curiosity"":4,""confidence"":2}","[0,1]","../img/tt/1232tt.jpg","",""
"7974.390000000014","","","recognition","survey-text","163","722906","0.0-6.0-3.22","2609210","co37894","norming","","","{""guess"":""sealife""}","","../img/tt/1232tt.jpg","",""
"null","../img/gs/1232gs.jpg","null","reveal","image-keyboard-response","164","724909","0.0-6.0-4.22","2609210","co37894","norming","","","","","","",""
"null","../img/tt/1232tt.jpg","null","mooney2","image-keyboard-response","165","726914","0.0-6.0-5.22","2609210","co37894","norming","","","","","","",""
"3143.530000000028","","","post_reveal_questions","survey-likert","166","730058","0.0-6.0-6.22","2609210","co37894","norming","","","{""aha"":0}","[0]","../img/tt/1232tt.jpg","",""
"null","<div style=""font-size:60px;""> </div>","null","fixation","html-keyboard-response","167","730260","0.0-6.0-0.23","2609210","co37894","norming","","","","","","",""
"null","../img/tt/1202tt.jpg","null","mooney1","image-keyboard-response","168","733269","0.0-6.0-1.23","2609210","co37894","norming","","","","","","",""
"7458.760000000009","","","post_mooney1_questions","survey-likert","169","740731","0.0-6.0-2.23","2609210","co37894","norming","","","{""curiosity"":4,""confidence"":2}","[0,1]","../img/tt/1202tt.jpg","",""
"3918.3399999999674","","","recognition","survey-text","170","744651","0.0-6.0-3.23","2609210","co37894","norming","","","{""guess"":""prayers""}","","../img/tt/1202tt.jpg","",""
"null","../img/gs/1202gs.jpg","null","reveal","image-keyboard-response","171","746658","0.0-6.0-4.23","2609210","co37894","norming","","","","","","",""
"null","../img/tt/1202tt.jpg","null","mooney2","image-keyboard-response","172","748661","0.0-6.0-5.23","2609210","co37894","norming","","","","","","",""
"2930.7299999997485","","","post_reveal_questions","survey-likert","173","751594","0.0-6.0-6.23","2609210","co37894","norming","","","{""aha"":0}","[0]","../img/tt/1202tt.jpg","",""
"null","<div style=""font-size:60px;""> </div>","null","fixation","html-keyboard-response","174","751796","0.0-6.0-0.24","2609210","co37894","norming","","","","","","",""
"null","../img/tt/1241tt.jpg","null","mooney1","image-keyboard-response","175","754807","0.0-6.0-1.24","2609210","co37894","norming","","","","","","",""
"3160.149999999907","","","post_mooney1_questions","survey-likert","176","757970","0.0-6.0-2.24","2609210","co37894","norming","","","{""curiosity"":2,""confidence"":0}","[0,1]","../img/tt/1241tt.jpg","",""
"1150.2450000001118","","","recognition","survey-text","177","759122","0.0-6.0-3.24","2609210","co37894","norming","","","{""guess"":""""}","","../img/tt/1241tt.jpg","",""
"null","../img/gs/1241gs.jpg","null","reveal","image-keyboard-response","178","761123","0.0-6.0-4.24","2609210","co37894","norming","","","","","","",""
"null","../img/tt/1241tt.jpg","null","mooney2","image-keyboard-response","179","763131","0.0-6.0-5.24","2609210","co37894","norming","","","","","","",""
"3453.0449999999255","","","post_reveal_questions","survey-likert","180","766586","0.0-6.0-6.24","2609210","co37894","norming","","","{""aha"":0}","[0]","../img/tt/1241tt.jpg","",""
"null","<div style=""font-size:60px;""> </div>","null","fixation","html-keyboard-response","181","766787","0.0-6.0-0.25","2609210","co37894","norming","","","","","","",""
"null","../img/tt/194tt.jpg","null","mooney1","image-keyboard-response","182","769798","0.0-6.0-1.25","2609210","co37894","norming","","","","","","",""
"7457.755000000005","","","post_mooney1_questions","survey-likert","183","777259","0.0-6.0-2.25","2609210","co37894","norming","","","{""curiosity"":6,""confidence"":4}","[0,1]","../img/tt/194tt.jpg","",""
"7070.0299999999115","","","recognition","survey-text","184","784338","0.0-6.0-3.25","2609210","co37894","norming","","","{""guess"":""music player""}","","../img/tt/194tt.jpg","",""
"null","../img/gs/194gs.jpg","null","reveal","image-keyboard-response","185","786339","0.0-6.0-4.25","2609210","co37894","norming","","","","","","",""
"null","../img/tt/194tt.jpg","null","mooney2","image-keyboard-response","186","788342","0.0-6.0-5.25","2609210","co37894","norming","","","","","","",""
"6178.010000000126","","","post_reveal_questions","survey-likert","187","794522","0.0-6.0-6.25","2609210","co37894","norming","","","{""aha"":6}","[0]","../img/tt/194tt.jpg","",""
"null","<div style=""font-size:60px;""> </div>","null","fixation","html-keyboard-response","188","794724","0.0-6.0-0.26","2609210","co37894","norming","","","","","","",""
"null","../img/tt/1268tt.jpg","null","mooney1","image-keyboard-response","189","797727","0.0-6.0-1.26","2609210","co37894","norming","","","","","","",""
"6752.335000000196","","","post_mooney1_questions","survey-likert","190","804482","0.0-6.0-2.26","2609210","co37894","norming","","","{""curiosity"":4,""confidence"":3}","[0,1]","../img/tt/1268tt.jpg","",""
"3214.315000000177","","","recognition","survey-text","191","807698","0.0-6.0-3.26","2609210","co37894","norming","","","{""guess"":""bear""}","","../img/tt/1268tt.jpg","",""
"null","../img/gs/1268gs.jpg","null","reveal","image-keyboard-response","192","809700","0.0-6.0-4.26","2609210","co37894","norming","","","","","","",""
"null","../img/tt/1268tt.jpg","null","mooney2","image-keyboard-response","193","811705","0.0-6.0-5.26","2609210","co37894","norming","","","","","","",""
"3166.2600000000093","","","post_reveal_questions","survey-likert","194","814873","0.0-6.0-6.26","2609210","co37894","norming","","","{""aha"":3}","[0]","../img/tt/1268tt.jpg","",""
"null","<div style=""font-size:60px;""> </div>","null","fixation","html-keyboard-response","195","815074","0.0-6.0-0.27","2609210","co37894","norming","","","","","","",""
"null","../img/tt/598tt.jpg","null","mooney1","image-keyboard-response","196","818078","0.0-6.0-1.27","2609210","co37894","norming","","","","","","",""
"5113.5599999999395","","","post_mooney1_questions","survey-likert","197","823194","0.0-6.0-2.27","2609210","co37894","norming","","","{""curiosity"":5,""confidence"":1}","[0,1]","../img/tt/598tt.jpg","",""
"3030.185000000056","","","recognition","survey-text","198","826226","0.0-6.0-3.27","2609210","co37894","norming","","","{""guess"":""snail""}","","../img/tt/598tt.jpg","",""
"null","../img/gs/598gs.jpg","null","reveal","image-keyboard-response","199","828229","0.0-6.0-4.27","2609210","co37894","norming","","","","","","",""
"null","../img/tt/598tt.jpg","null","mooney2","image-keyboard-response","200","830230","0.0-6.0-5.27","2609210","co37894","norming","","","","","","",""
"2993.5350000000326","","","post_reveal_questions","survey-likert","201","833226","0.0-6.0-6.27","2609210","co37894","norming","","","{""aha"":6}","[0]","../img/tt/598tt.jpg","",""
"null","<div style=""font-size:60px;""> </div>","null","fixation","html-keyboard-response","202","833437","0.0-6.0-0.28","2609210","co37894","norming","","","","","","",""
"null","../img/tt/1261tt.jpg","null","mooney1","image-keyboard-response","203","836441","0.0-6.0-1.28","2609210","co37894","norming","","","","","","",""
"6006.569999999949","","","post_mooney1_questions","survey-likert","204","842449","0.0-6.0-2.28","2609210","co37894","norming","","","{""curiosity"":0,""confidence"":0}","[0,1]","../img/tt/1261tt.jpg","",""
"1069.9750000002095","","","recognition","survey-text","205","843520","0.0-6.0-3.28","2609210","co37894","norming","","","{""guess"":""""}","","../img/tt/1261tt.jpg","",""
"null","../img/gs/1261gs.jpg","null","reveal","image-keyboard-response","206","845521","0.0-6.0-4.28","2609210","co37894","norming","","","","","","",""
"null","../img/tt/1261tt.jpg","null","mooney2","image-keyboard-response","207","847529","0.0-6.0-5.28","2609210","co37894","norming","","","","","","",""
"2183.119999999879","","","post_reveal_questions","survey-likert","208","849713","0.0-6.0-6.28","2609210","co37894","norming","","","{""aha"":0}","[0]","../img/tt/1261tt.jpg","",""
"null","<div style=""font-size:60px;""> </div>","null","fixation","html-keyboard-response","209","849917","0.0-6.0-0.29","2609210","co37894","norming","","","","","","",""
"null","../img/tt/1024tt.jpg","null","mooney1","image-keyboard-response","210","852926","0.0-6.0-1.29","2609210","co37894","norming","","","","","","",""
"4929.744999999879","","","post_mooney1_questions","survey-likert","211","857857","0.0-6.0-2.29","2609210","co37894","norming","","","{""curiosity"":5,""confidence"":0}","[0,1]","../img/tt/1024tt.jpg","",""
"534.3100000000559","","","recognition","survey-text","212","858393","0.0-6.0-3.29","2609210","co37894","norming","","","{""guess"":""""}","","../img/tt/1024tt.jpg","",""
"null","../img/gs/1024gs.jpg","null","reveal","image-keyboard-response","213","860399","0.0-6.0-4.29","2609210","co37894","norming","","","","","","",""
"null","../img/tt/1024tt.jpg","null","mooney2","image-keyboard-response","214","862401","0.0-6.0-5.29","2609210","co37894","norming","","","","","","",""
"4300.77500000014","","","post_reveal_questions","survey-likert","215","866704","0.0-6.0-6.29","2609210","co37894","norming","","","{""aha"":0}","[0]","../img/tt/1024tt.jpg","",""
"null","<div style=""font-size:60px;""> </div>","null","fixation","html-keyboard-response","216","866907","0.0-6.0-0.30","2609210","co37894","norming","","","","","","",""
"null","../img/tt/1006tt.jpg","null","mooney1","image-keyboard-response","217","869917","0.0-6.0-1.30","2609210","co37894","norming","","","","","","",""
"8129.0599999999395","","","post_mooney1_questions","survey-likert","218","878049","0.0-6.0-2.30","2609210","co37894","norming","","","{""curiosity"":0,""confidence"":0}","[0,1]","../img/tt/1006tt.jpg","",""
"845.7250000000931","","","recognition","survey-text","219","878896","0.0-6.0-3.30","2609210","co37894","norming","","","{""guess"":""""}","","../img/tt/1006tt.jpg","",""
"null","../img/gs/1006gs.jpg","null","reveal","image-keyboard-response","220","880900","0.0-6.0-4.30","2609210","co37894","norming","","","","","","",""
"null","../img/tt/1006tt.jpg","null","mooney2","image-keyboard-response","221","882904","0.0-6.0-5.30","2609210","co37894","norming","","","","","","",""
"2358.984999999986","","","post_reveal_questions","survey-likert","222","885264","0.0-6.0-6.30","2609210","co37894","norming","","","{""aha"":0}","[0]","../img/tt/1006tt.jpg","",""
"null","<div style=""font-size:60px;""> </div>","null","fixation","html-keyboard-response","223","885466","0.0-6.0-0.31","2609210","co37894","norming","","","","","","",""
"null","../img/tt/111tt.jpg","null","mooney1","image-keyboard-response","224","888475","0.0-6.0-1.31","2609210","co37894","norming","","","","","","",""
"4811.060000000056","","","post_mooney1_questions","survey-likert","225","893289","0.0-6.0-2.31","2609210","co37894","norming","","","{""curiosity"":3,""confidence"":0}","[0,1]","../img/tt/111tt.jpg","",""
"582.0400000000373","","","recognition","survey-text","226","893872","0.0-6.0-3.31","2609210","co37894","norming","","","{""guess"":""""}","","../img/tt/111tt.jpg","",""
"null","../img/gs/111gs.jpg","null","reveal","image-keyboard-response","227","895883","0.0-6.0-4.31","2609210","co37894","norming","","","","","","",""
"null","../img/tt/111tt.jpg","null","mooney2","image-keyboard-response","228","897891","0.0-6.0-5.31","2609210","co37894","norming","","","","","","",""
"2787.640000000014","","","post_reveal_questions","survey-likert","229","900681","0.0-6.0-6.31","2609210","co37894","norming","","","{""aha"":0}","[0]","../img/tt/111tt.jpg","",""
"null","<div style=""font-size:60px;""> </div>","null","fixation","html-keyboard-response","230","900890","0.0-6.0-0.32","2609210","co37894","norming","","","","","","",""
"null","../img/tt/118tt.jpg","null","mooney1","image-keyboard-response","231","903898","0.0-6.0-1.32","2609210","co37894","norming","","","","","","",""
"5293.005000000005","","","post_mooney1_questions","survey-likert","232","909194","0.0-6.0-2.32","2609210","co37894","norming","","","{""curiosity"":5,""confidence"":2}","[0,1]","../img/tt/118tt.jpg","",""
"6262.040000000154","","","recognition","survey-text","233","915458","0.0-6.0-3.32","2609210","co37894","norming","","","{""guess"":""female""}","","../img/tt/118tt.jpg","",""
"null","../img/gs/118gs.jpg","null","reveal","image-keyboard-response","234","917461","0.0-6.0-4.32","2609210","co37894","norming","","","","","","",""
"null","../img/tt/118tt.jpg","null","mooney2","image-keyboard-response","235","919464","0.0-6.0-5.32","2609210","co37894","norming","","","","","","",""
"2832.340000000084","","","post_reveal_questions","survey-likert","236","922297","0.0-6.0-6.32","2609210","co37894","norming","","","{""aha"":0}","[0]","../img/tt/118tt.jpg","",""
"null","<div style=""font-size:60px;""> </div>","null","fixation","html-keyboard-response","237","922507","0.0-6.0-0.33","2609210","co37894","norming","","","","","","",""
"null","../img/tt/1044tt.jpg","null","mooney1","image-keyboard-response","238","925508","0.0-6.0-1.33","2609210","co37894","norming","","","","","","",""
"4732.444999999832","","","post_mooney1_questions","survey-likert","239","930242","0.0-6.0-2.33","2609210","co37894","norming","","","{""curiosity"":1,""confidence"":0}","[0,1]","../img/tt/1044tt.jpg","",""
"1389.7649999998976","","","recognition","survey-text","240","931633","0.0-6.0-3.33","2609210","co37894","norming","","","{""guess"":""""}","","../img/tt/1044tt.jpg","",""
"null","../img/gs/1044gs.jpg","null","reveal","image-keyboard-response","241","933643","0.0-6.0-4.33","2609210","co37894","norming","","","","","","",""
"null","../img/tt/1044tt.jpg","null","mooney2","image-keyboard-response","242","935650","0.0-6.0-5.33","2609210","co37894","norming","","","","","","",""
"2814.580000000191","","","post_reveal_questions","survey-likert","243","938465","0.0-6.0-6.33","2609210","co37894","norming","","","{""aha"":0}","[0]","../img/tt/1044tt.jpg","",""
"null","<div style=""font-size:60px;""> </div>","null","fixation","html-keyboard-response","244","938672","0.0-6.0-0.34","2609210","co37894","norming","","","","","","",""
"null","../img/tt/270tt.jpg","null","mooney1","image-keyboard-response","245","941682","0.0-6.0-1.34","2609210","co37894","norming","","","","","","",""
"6910.650000000023","","","post_mooney1_questions","survey-likert","246","948593","0.0-6.0-2.34","2609210","co37894","norming","","","{""curiosity"":3,""confidence"":0}","[0,1]","../img/tt/270tt.jpg","",""
"878.1449999999022","","","recognition","survey-text","247","949473","0.0-6.0-3.34","2609210","co37894","norming","","","{""guess"":""""}","","../img/tt/270tt.jpg","",""
"null","../img/gs/270gs.jpg","null","reveal","image-keyboard-response","248","951475","0.0-6.0-4.34","2609210","co37894","norming","","","","","","",""
"null","../img/tt/270tt.jpg","null","mooney2","image-keyboard-response","249","953484","0.0-6.0-5.34","2609210","co37894","norming","","","","","","",""
"20140.819999999832","","","post_reveal_questions","survey-likert","250","973626","0.0-6.0-6.34","2609210","co37894","norming","","","{""aha"":0}","[0]","../img/tt/270tt.jpg","",""
"null","<div style=""font-size:60px;""> </div>","null","fixation","html-keyboard-response","251","973830","0.0-6.0-0.35","2609210","co37894","norming","","","","","","",""
"null","../img/tt/300tt.jpg","null","mooney1","image-keyboard-response","252","976840","0.0-6.0-1.35","2609210","co37894","norming","","","","","","",""
"5517.810000000056","","","post_mooney1_questions","survey-likert","253","982370","0.0-6.0-2.35","2609210","co37894","norming","","","{""curiosity"":5,""confidence"":4}","[0,1]","../img/tt/300tt.jpg","",""
"3405.939999999944","","","recognition","survey-text","254","985778","0.0-6.0-3.35","2609210","co37894","norming","","","{""guess"":""monkey""}","","../img/tt/300tt.jpg","",""
"null","../img/gs/300gs.jpg","null","reveal","image-keyboard-response","255","987788","0.0-6.0-4.35","2609210","co37894","norming","","","","","","",""
"null","../img/tt/300tt.jpg","null","mooney2","image-keyboard-response","256","989799","0.0-6.0-5.35","2609210","co37894","norming","","","","","","",""
"2768.430000000051","","","post_reveal_questions","survey-likert","257","992570","0.0-6.0-6.35","2609210","co37894","norming","","","{""aha"":0}","[0]","../img/tt/300tt.jpg","",""
"null","<div style=""font-size:60px;""> </div>","null","fixation","html-keyboard-response","258","992776","0.0-6.0-0.36","2609210","co37894","norming","","","","","","",""
"null","../img/tt/040tt.jpg","null","mooney1","image-keyboard-response","259","995784","0.0-6.0-1.36","2609210","co37894","norming","","","","","","",""
"4038.715000000084","","","post_mooney1_questions","survey-likert","260","999826","0.0-6.0-2.36","2609210","co37894","norming","","","{""curiosity"":3,""confidence"":1}","[0,1]","../img/tt/040tt.jpg","",""
"2093.9649999999674","","","recognition","survey-text","261","1001922","0.0-6.0-3.36","2609210","co37894","norming","","","{""guess"":""wolf""}","","../img/tt/040tt.jpg","",""
"null","../img/gs/040gs.jpg","null","reveal","image-keyboard-response","262","1003925","0.0-6.0-4.36","2609210","co37894","norming","","","","","","",""
"null","../img/tt/040tt.jpg","null","mooney2","image-keyboard-response","263","1005927","0.0-6.0-5.36","2609210","co37894","norming","","","","","","",""
"2535.9599999999627","","","post_reveal_questions","survey-likert","264","1008466","0.0-6.0-6.36","2609210","co37894","norming","","","{""aha"":0}","[0]","../img/tt/040tt.jpg","",""
"null","<div style=""font-size:60px;""> </div>","null","fixation","html-keyboard-response","265","1008675","0.0-6.0-0.37","2609210","co37894","norming","","","","","","",""
"null","../img/tt/053tt.jpg","null","mooney1","image-keyboard-response","266","1011677","0.0-6.0-1.37","2609210","co37894","norming","","","","","","",""
"5025.495000000112","","","post_mooney1_questions","survey-likert","267","1016706","0.0-6.0-2.37","2609210","co37894","norming","","","{""curiosity"":5,""confidence"":2}","[0,1]","../img/tt/053tt.jpg","",""
"2830.2399999999907","","","recognition","survey-text","268","1019538","0.0-6.0-3.37","2609210","co37894","norming","","","{""guess"":""waterfalls""}","","../img/tt/053tt.jpg","",""
"null","../img/gs/053gs.jpg","null","reveal","image-keyboard-response","269","1021540","0.0-6.0-4.37","2609210","co37894","norming","","","","","","",""
"null","../img/tt/053tt.jpg","null","mooney2","image-keyboard-response","270","1023542","0.0-6.0-5.37","2609210","co37894","norming","","","","","","",""
"3039.754999999772","","","post_reveal_questions","survey-likert","271","1026585","0.0-6.0-6.37","2609210","co37894","norming","","","{""aha"":5}","[0]","../img/tt/053tt.jpg","",""
"null","<div style=""font-size:60px;""> </div>","null","fixation","html-keyboard-response","272","1026788","0.0-6.0-0.38","2609210","co37894","norming","","","","","","",""
"null","../img/tt/1116tt.jpg","null","mooney1","image-keyboard-response","273","1029790","0.0-6.0-1.38","2609210","co37894","norming","","","","","","",""
"4224.570000000298","","","post_mooney1_questions","survey-likert","274","1034018","0.0-6.0-2.38","2609210","co37894","norming","","","{""curiosity"":5,""confidence"":4}","[0,1]","../img/tt/1116tt.jpg","",""
"2926.3399999999674","","","recognition","survey-text","275","1036946","0.0-6.0-3.38","2609210","co37894","norming","","","{""guess"":""parking""}","","../img/tt/1116tt.jpg","",""
"null","../img/gs/1116gs.jpg","null","reveal","image-keyboard-response","276","1038953","0.0-6.0-4.38","2609210","co37894","norming","","","","","","",""
"null","../img/tt/1116tt.jpg","null","mooney2","image-keyboard-response","277","1040962","0.0-6.0-5.38","2609210","co37894","norming","","","","","","",""
"4278.929999999935","","","post_reveal_questions","survey-likert","278","1045242","0.0-6.0-6.38","2609210","co37894","norming","","","{""aha"":4}","[0]","../img/tt/1116tt.jpg","",""
"null","<div style=""font-size:60px;""> </div>","null","fixation","html-keyboard-response","279","1045443","0.0-6.0-0.39","2609210","co37894","norming","","","","","","",""
"null","../img/tt/1123tt.jpg","null","mooney1","image-keyboard-response","280","1048452","0.0-6.0-1.39","2609210","co37894","norming","","","","","","",""
"5987.295000000391","","","post_mooney1_questions","survey-likert","281","1054442","0.0-6.0-2.39","2609210","co37894","norming","","","{""curiosity"":5,""confidence"":2}","[0,1]","../img/tt/1123tt.jpg","",""
"5333.899999999674","","","recognition","survey-text","282","1059778","0.0-6.0-3.39","2609210","co37894","norming","","","{""guess"":""baseball player""}","","../img/tt/1123tt.jpg","",""
"null","../img/gs/1123gs.jpg","null","reveal","image-keyboard-response","283","1061785","0.0-6.0-4.39","2609210","co37894","norming","","","","","","",""
"null","../img/tt/1123tt.jpg","null","mooney2","image-keyboard-response","284","1063786","0.0-6.0-5.39","2609210","co37894","norming","","","","","","",""
"2837.660000000149","","","post_reveal_questions","survey-likert","285","1066626","0.0-6.0-6.39","2609210","co37894","norming","","","{""aha"":2}","[0]","../img/tt/1123tt.jpg","",""
"null","<div style=""font-size:60px;""> </div>","null","fixation","html-keyboard-response","286","1066827","0.0-6.0-0.40","2609210","co37894","norming","","","","","","",""
"null","../img/tt/319tt.jpg","null","mooney1","image-keyboard-response","287","1069830","0.0-6.0-1.40","2609210","co37894","norming","","","","","","",""
"5481.3300000000745","","","post_mooney1_questions","survey-likert","288","1075314","0.0-6.0-2.40","2609210","co37894","norming","","","{""curiosity"":6,""confidence"":4}","[0,1]","../img/tt/319tt.jpg","",""
"1790.1650000000373","","","recognition","survey-text","289","1077106","0.0-6.0-3.40","2609210","co37894","norming","","","{""guess"":""cows""}","","../img/tt/319tt.jpg","",""
"null","../img/gs/319gs.jpg","null","reveal","image-keyboard-response","290","1079110","0.0-6.0-4.40","2609210","co37894","norming","","","","","","",""
"null","../img/tt/319tt.jpg","null","mooney2","image-keyboard-response","291","1081113","0.0-6.0-5.40","2609210","co37894","norming","","","","","","",""
"3862.6800000001676","","","post_reveal_questions","survey-likert","292","1084978","0.0-6.0-6.40","2609210","co37894","norming","","","{""aha"":2}","[0]","../img/tt/319tt.jpg","",""
"null","<div style=""font-size:60px;""> </div>","null","fixation","html-keyboard-response","293","1085179","0.0-6.0-0.41","2609210","co37894","norming","","","","","","",""
"null","../img/tt/301tt.jpg","null","mooney1","image-keyboard-response","294","1088191","0.0-6.0-1.41","2609210","co37894","norming","","","","","","",""
"4367.995000000112","","","post_mooney1_questions","survey-likert","295","1092557","0.0-6.0-2.41","2609210","co37894","norming","","","{""curiosity"":4,""confidence"":0}","[0,1]","../img/tt/301tt.jpg","",""
"606.0649999999441","","","recognition","survey-text","296","1093165","0.0-6.0-3.41","2609210","co37894","norming","","","{""guess"":""""}","","../img/tt/301tt.jpg","",""
"null","../img/gs/301gs.jpg","null","reveal","image-keyboard-response","297","1095167","0.0-6.0-4.41","2609210","co37894","norming","","","","","","",""
"null","../img/tt/301tt.jpg","null","mooney2","image-keyboard-response","298","1097169","0.0-6.0-5.41","2609210","co37894","norming","","","","","","",""
"2753.784999999916","","","post_reveal_questions","survey-likert","299","1099925","0.0-6.0-6.41","2609210","co37894","norming","","","{""aha"":0}","[0]","../img/tt/301tt.jpg","",""
"null","<div style=""font-size:60px;""> </div>","null","fixation","html-keyboard-response","300","1100133","0.0-6.0-0.42","2609210","co37894","norming","","","","","","",""
"null","../img/tt/052tt.jpg","null","mooney1","image-keyboard-response","301","1103143","0.0-6.0-1.42","2609210","co37894","norming","","","","","","",""
"4162.945000000065","","","post_mooney1_questions","survey-likert","302","1107309","0.0-6.0-2.42","2609210","co37894","norming","","","{""curiosity"":3,""confidence"":0}","[0,1]","../img/tt/052tt.jpg","",""
"790.285000000149","","","recognition","survey-text","303","1108101","0.0-6.0-3.42","2609210","co37894","norming","","","{""guess"":""""}","","../img/tt/052tt.jpg","",""
"null","../img/gs/052gs.jpg","null","reveal","image-keyboard-response","304","1110111","0.0-6.0-4.42","2609210","co37894","norming","","","","","","",""
"null","../img/tt/052tt.jpg","null","mooney2","image-keyboard-response","305","1112120","0.0-6.0-5.42","2609210","co37894","norming","","","","","","",""
"5224.185000000056","","","post_reveal_questions","survey-likert","306","1117349","0.0-6.0-6.42","2609210","co37894","norming","","","{""aha"":4}","[0]","../img/tt/052tt.jpg","",""
"null","<div style=""font-size:60px;""> </div>","null","fixation","html-keyboard-response","307","1117550","0.0-6.0-0.43","2609210","co37894","norming","","","","","","",""
"null","../img/tt/442tt.jpg","null","mooney1","image-keyboard-response","308","1120554","0.0-6.0-1.43","2609210","co37894","norming","","","","","","",""
"5647.989999999991","","","post_mooney1_questions","survey-likert","309","1126205","0.0-6.0-2.43","2609210","co37894","norming","","","{""curiosity"":0,""confidence"":0}","[0,1]","../img/tt/442tt.jpg","",""
"1094.2350000001024","","","recognition","survey-text","310","1127301","0.0-6.0-3.43","2609210","co37894","norming","","","{""guess"":""""}","","../img/tt/442tt.jpg","",""
"null","../img/gs/442gs.jpg","null","reveal","image-keyboard-response","311","1129311","0.0-6.0-4.43","2609210","co37894","norming","","","","","","",""
"null","../img/tt/442tt.jpg","null","mooney2","image-keyboard-response","312","1131322","0.0-6.0-5.43","2609210","co37894","norming","","","","","","",""
"2385.2150000003166","","","post_reveal_questions","survey-likert","313","1133709","0.0-6.0-6.43","2609210","co37894","norming","","","{""aha"":0}","[0]","../img/tt/442tt.jpg","",""
"null","<div style=""font-size:60px;""> </div>","null","fixation","html-keyboard-response","314","1133917","0.0-6.0-0.44","2609210","co37894","norming","","","","","","",""
"null","../img/tt/1242tt.jpg","null","mooney1","image-keyboard-response","315","1136927","0.0-6.0-1.44","2609210","co37894","norming","","","","","","",""
"6876.534999999916","","","post_mooney1_questions","survey-likert","316","1143805","0.0-6.0-2.44","2609210","co37894","norming","","","{""curiosity"":5,""confidence"":2}","[0,1]","../img/tt/1242tt.jpg","",""
"1838.1150000002235","","","recognition","survey-text","317","1145645","0.0-6.0-3.44","2609210","co37894","norming","","","{""guess"":""fox""}","","../img/tt/1242tt.jpg","",""
"null","../img/gs/1242gs.jpg","null","reveal","image-keyboard-response","318","1147646","0.0-6.0-4.44","2609210","co37894","norming","","","","","","",""
"null","../img/tt/1242tt.jpg","null","mooney2","image-keyboard-response","319","1149652","0.0-6.0-5.44","2609210","co37894","norming","","","","","","",""
"2430.5150000001304","","","post_reveal_questions","survey-likert","320","1152088","0.0-6.0-6.44","2609210","co37894","norming","","","{""aha"":6}","[0]","../img/tt/1242tt.jpg","",""
"null","<div style=""font-size:60px;""> </div>","null","fixation","html-keyboard-response","321","1152296","0.0-6.0-0.45","2609210","co37894","norming","","","","","","",""
"null","../img/tt/1228tt.jpg","null","mooney1","image-keyboard-response","322","1155309","0.0-6.0-1.45","2609210","co37894","norming","","","","","","",""
"4744.284999999916","","","post_mooney1_questions","survey-likert","323","1160056","0.0-6.0-2.45","2609210","co37894","norming","","","{""curiosity"":0,""confidence"":0}","[0,1]","../img/tt/1228tt.jpg","",""
"1302.0499999998137","","","recognition","survey-text","324","1161360","0.0-6.0-3.45","2609210","co37894","norming","","","{""guess"":""""}","","../img/tt/1228tt.jpg","",""
"null","../img/gs/1228gs.jpg","null","reveal","image-keyboard-response","325","1163362","0.0-6.0-4.45","2609210","co37894","norming","","","","","","",""
"null","../img/tt/1228tt.jpg","null","mooney2","image-keyboard-response","326","1165364","0.0-6.0-5.45","2609210","co37894","norming","","","","","","",""
"3793.684999999823","","","post_reveal_questions","survey-likert","327","1169160","0.0-6.0-6.45","2609210","co37894","norming","","","{""aha"":0}","[0]","../img/tt/1228tt.jpg","",""
"null","<div style=""font-size:60px;""> </div>","null","fixation","html-keyboard-response","328","1169361","0.0-6.0-0.46","2609210","co37894","norming","","","","","","",""
"null","../img/tt/329tt.jpg","null","mooney1","image-keyboard-response","329","1172365","0.0-6.0-1.46","2609210","co37894","norming","","","","","","",""
"7391.790000000037","","","post_mooney1_questions","survey-likert","330","1179760","0.0-6.0-2.46","2609210","co37894","norming","","","{""curiosity"":2,""confidence"":0}","[0,1]","../img/tt/329tt.jpg","",""
"781.964999999851","","","recognition","survey-text","331","1180544","0.0-6.0-3.46","2609210","co37894","norming","","","{""guess"":""""}","","../img/tt/329tt.jpg","",""
"null","../img/gs/329gs.jpg","null","reveal","image-keyboard-response","332","1182546","0.0-6.0-4.46","2609210","co37894","norming","","","","","","",""
"null","../img/tt/329tt.jpg","null","mooney2","image-keyboard-response","333","1184556","0.0-6.0-5.46","2609210","co37894","norming","","","","","","",""
"3249.3400000003166","","","post_reveal_questions","survey-likert","334","1187808","0.0-6.0-6.46","2609210","co37894","norming","","","{""aha"":0}","[0]","../img/tt/329tt.jpg","",""
"null","<div style=""font-size:60px;""> </div>","null","fixation","html-keyboard-response","335","1188015","0.0-6.0-0.47","2609210","co37894","norming","","","","","","",""
"null","../img/tt/1055tt.jpg","null","mooney1","image-keyboard-response","336","1191022","0.0-6.0-1.47","2609210","co37894","norming","","","","","","",""
"5463.630000000121","","","post_mooney1_questions","survey-likert","337","1196488","0.0-6.0-2.47","2609210","co37894","norming","","","{""curiosity"":4,""confidence"":1}","[0,1]","../img/tt/1055tt.jpg","",""
"1509.565000000177","","","recognition","survey-text","338","1198000","0.0-6.0-3.47","2609210","co37894","norming","","","{""guess"":""sea""}","","../img/tt/1055tt.jpg","",""
"null","../img/gs/1055gs.jpg","null","reveal","image-keyboard-response","339","1200010","0.0-6.0-4.47","2609210","co37894","norming","","","","","","",""
"null","../img/tt/1055tt.jpg","null","mooney2","image-keyboard-response","340","1202012","0.0-6.0-5.47","2609210","co37894","norming","","","","","","",""
"2713.5849999999627","","","post_reveal_questions","survey-likert","341","1204728","0.0-6.0-6.47","2609210","co37894","norming","","","{""aha"":5}","[0]","../img/tt/1055tt.jpg","",""
"null","<div style=""font-size:60px;""> </div>","null","fixation","html-keyboard-response","342","1204932","0.0-6.0-0.48","2609210","co37894","norming","","","","","","",""
"null","../img/tt/163tt.jpg","null","mooney1","image-keyboard-response","343","1207933","0.0-6.0-1.48","2609210","co37894","norming","","","","","","",""
"3791.5699999998324","","","post_mooney1_questions","survey-likert","344","1211730","0.0-6.0-2.48","2609210","co37894","norming","","","{""curiosity"":6,""confidence"":6}","[0,1]","../img/tt/163tt.jpg","",""
"2061.975000000093","","","recognition","survey-text","345","1213793","0.0-6.0-3.48","2609210","co37894","norming","","","{""guess"":""frog""}","","../img/tt/163tt.jpg","",""
"null","../img/gs/163gs.jpg","null","reveal","image-keyboard-response","346","1215795","0.0-6.0-4.48","2609210","co37894","norming","","","","","","",""
"null","../img/tt/163tt.jpg","null","mooney2","image-keyboard-response","347","1217798","0.0-6.0-5.48","2609210","co37894","norming","","","","","","",""
"6160.554999999935","","","post_reveal_questions","survey-likert","348","1223961","0.0-6.0-6.48","2609210","co37894","norming","","","{""aha"":5}","[0]","../img/tt/163tt.jpg","",""
"null","<div style=""font-size:60px;""> </div>","null","fixation","html-keyboard-response","349","1224170","0.0-6.0-0.49","2609210","co37894","norming","","","","","","",""
"null","../img/tt/1251tt.jpg","null","mooney1","image-keyboard-response","350","1227182","0.0-6.0-1.49","2609210","co37894","norming","","","","","","",""
"8111.965000000084","","","post_mooney1_questions","survey-likert","351","1235298","0.0-6.0-2.49","2609210","co37894","norming","","","{""curiosity"":5,""confidence"":3}","[0,1]","../img/tt/1251tt.jpg","",""
"5821.830000000307","","","recognition","survey-text","352","1241121","0.0-6.0-3.49","2609210","co37894","norming","","","{""guess"":""hekken""}","","../img/tt/1251tt.jpg","",""
"null","../img/gs/1251gs.jpg","null","reveal","image-keyboard-response","353","1243126","0.0-6.0-4.49","2609210","co37894","norming","","","","","","",""
"null","../img/tt/1251tt.jpg","null","mooney2","image-keyboard-response","354","1245129","0.0-6.0-5.49","2609210","co37894","norming","","","","","","",""
"2525.5250000001397","","","post_reveal_questions","survey-likert","355","1247657","0.0-6.0-6.49","2609210","co37894","norming","","","{""aha"":1}","[0]","../img/tt/1251tt.jpg","",""
"null","<div style=""font-size:60px;""> </div>","null","fixation","html-keyboard-response","356","1247862","0.0-6.0-0.50","2609210","co37894","norming","","","","","","",""
"null","../img/tt/358tt.jpg","null","mooney1","image-keyboard-response","357","1250866","0.0-6.0-1.50","2609210","co37894","norming","","","","","","",""
"6262.155000000028","","","post_mooney1_questions","survey-likert","358","1257129","0.0-6.0-2.50","2609210","co37894","norming","","","{""curiosity"":4,""confidence"":0}","[0,1]","../img/tt/358tt.jpg","",""
"637.9799999999814","","","recognition","survey-text","359","1257769","0.0-6.0-3.50","2609210","co37894","norming","","","{""guess"":""""}","","../img/tt/358tt.jpg","",""
"null","../img/gs/358gs.jpg","null","reveal","image-keyboard-response","360","1259775","0.0-6.0-4.50","2609210","co37894","norming","","","","","","",""
"null","../img/tt/358tt.jpg","null","mooney2","image-keyboard-response","361","1261776","0.0-6.0-5.50","2609210","co37894","norming","","","","","","",""
"2310.284999999916","","","post_reveal_questions","survey-likert","362","1264089","0.0-6.0-6.50","2609210","co37894","norming","","","{""aha"":0}","[0]","../img/tt/358tt.jpg","",""
"null","<div style=""font-size:60px;""> </div>","null","fixation","html-keyboard-response","363","1264291","0.0-6.0-0.51","2609210","co37894","norming","","","","","","",""
"null","../img/tt/1012tt.jpg","null","mooney1","image-keyboard-response","364","1267300","0.0-6.0-1.51","2609210","co37894","norming","","","","","","",""
"6476.219999999972","","","post_mooney1_questions","survey-likert","365","1273782","0.0-6.0-2.51","2609210","co37894","norming","","","{""curiosity"":5,""confidence"":2}","[0,1]","../img/tt/1012tt.jpg","",""
"1710.225000000326","","","recognition","survey-text","366","1275494","0.0-6.0-3.51","2609210","co37894","norming","","","{""guess"":""zebra""}","","../img/tt/1012tt.jpg","",""
"null","../img/gs/1012gs.jpg","null","reveal","image-keyboard-response","367","1277495","0.0-6.0-4.51","2609210","co37894","norming","","","","","","",""
"null","../img/tt/1012tt.jpg","null","mooney2","image-keyboard-response","368","1279497","0.0-6.0-5.51","2609210","co37894","norming","","","","","","",""
"1490.3250000001863","","","post_reveal_questions","survey-likert","369","1280990","0.0-6.0-6.51","2609210","co37894","norming","","","{""aha"":0}","[0]","../img/tt/1012tt.jpg","",""
"null","<div style=""font-size:60px;""> </div>","null","fixation","html-keyboard-response","370","1281191","0.0-6.0-0.52","2609210","co37894","norming","","","","","","",""
"null","../img/tt/098tt.jpg","null","mooney1","image-keyboard-response","371","1284202","0.0-6.0-1.52","2609210","co37894","norming","","","","","","",""
"5496.644999999786","","","post_mooney1_questions","survey-likert","372","1289702","0.0-6.0-2.52","2609210","co37894","norming","","","{""curiosity"":4,""confidence"":0}","[0,1]","../img/tt/098tt.jpg","",""
"1141.9899999999907","","","recognition","survey-text","373","1290845","0.0-6.0-3.52","2609210","co37894","norming","","","{""guess"":""""}","","../img/tt/098tt.jpg","",""
"null","../img/gs/098gs.jpg","null","reveal","image-keyboard-response","374","1292851","0.0-6.0-4.52","2609210","co37894","norming","","","","","","",""
"null","../img/tt/098tt.jpg","null","mooney2","image-keyboard-response","375","1294854","0.0-6.0-5.52","2609210","co37894","norming","","","","","","",""
"2421.5299999995623","","","post_reveal_questions","survey-likert","376","1297277","0.0-6.0-6.52","2609210","co37894","norming","","","{""aha"":0}","[0]","../img/tt/098tt.jpg","",""
"null","<div style=""font-size:60px;""> </div>","null","fixation","html-keyboard-response","377","1297479","0.0-6.0-0.53","2609210","co37894","norming","","","","","","",""
"null","../img/tt/1173tt.jpg","null","mooney1","image-keyboard-response","378","1300487","0.0-6.0-1.53","2609210","co37894","norming","","","","","","",""
"6444.989999999991","","","post_mooney1_questions","survey-likert","379","1306934","0.0-6.0-2.53","2609210","co37894","norming","","","{""curiosity"":5,""confidence"":6}","[0,1]","../img/tt/1173tt.jpg","",""
"6078.285000000149","","","recognition","survey-text","380","1313014","0.0-6.0-3.53","2609210","co37894","norming","","","{""guess"":""hockey players""}","","../img/tt/1173tt.jpg","",""
"null","../img/gs/1173gs.jpg","null","reveal","image-keyboard-response","381","1315019","0.0-6.0-4.53","2609210","co37894","norming","","","","","","",""
"null","../img/tt/1173tt.jpg","null","mooney2","image-keyboard-response","382","1317021","0.0-6.0-5.53","2609210","co37894","norming","","","","","","",""
"3070.4000000001397","","","post_reveal_questions","survey-likert","383","1320093","0.0-6.0-6.53","2609210","co37894","norming","","","{""aha"":4}","[0]","../img/tt/1173tt.jpg","",""
"null","<div style=""font-size:60px;""> </div>","null","fixation","html-keyboard-response","384","1320297","0.0-6.0-0.54","2609210","co37894","norming","","","","","","",""
"null","../img/tt/1186tt.jpg","null","mooney1","image-keyboard-response","385","1323300","0.0-6.0-1.54","2609210","co37894","norming","","","","","","",""
"6494.655000000028","","","post_mooney1_questions","survey-likert","386","1329798","0.0-6.0-2.54","2609210","co37894","norming","","","{""curiosity"":5,""confidence"":3}","[0,1]","../img/tt/1186tt.jpg","",""
"3245.4549999998417","","","recognition","survey-text","387","1333047","0.0-6.0-3.54","2609210","co37894","norming","","","{""guess"":""rolschaatser""}","","../img/tt/1186tt.jpg","",""
"null","../img/gs/1186gs.jpg","null","reveal","image-keyboard-response","388","1335048","0.0-6.0-4.54","2609210","co37894","norming","","","","","","",""
"null","../img/tt/1186tt.jpg","null","mooney2","image-keyboard-response","389","1337050","0.0-6.0-5.54","2609210","co37894","norming","","","","","","",""
"1890.1099999996368","","","post_reveal_questions","survey-likert","390","1338943","0.0-6.0-6.54","2609210","co37894","norming","","","{""aha"":5}","[0]","../img/tt/1186tt.jpg","",""
"null","<div style=""font-size:60px;""> </div>","null","fixation","html-keyboard-response","391","1339153","0.0-6.0-0.55","2609210","co37894","norming","","","","","","",""
"null","../img/tt/1269tt.jpg","null","mooney1","image-keyboard-response","392","1342162","0.0-6.0-1.55","2609210","co37894","norming","","","","","","",""
"6537.679999999935","","","post_mooney1_questions","survey-likert","393","1348703","0.0-6.0-2.55","2609210","co37894","norming","","","{""curiosity"":4,""confidence"":5}","[0,1]","../img/tt/1269tt.jpg","",""
"2245.8299999998417","","","recognition","survey-text","394","1350951","0.0-6.0-3.55","2609210","co37894","norming","","","{""guess"":""eekhoorn""}","","../img/tt/1269tt.jpg","",""
"null","../img/gs/1269gs.jpg","null","reveal","image-keyboard-response","395","1352953","0.0-6.0-4.55","2609210","co37894","norming","","","","","","",""
"null","../img/tt/1269tt.jpg","null","mooney2","image-keyboard-response","396","1354962","0.0-6.0-5.55","2609210","co37894","norming","","","","","","",""
"2939.7700000000186","","","post_reveal_questions","survey-likert","397","1357903","0.0-6.0-6.55","2609210","co37894","norming","","","{""aha"":4}","[0]","../img/tt/1269tt.jpg","",""
"null","<div style=""font-size:60px;""> </div>","null","fixation","html-keyboard-response","398","1358109","0.0-6.0-0.56","2609210","co37894","norming","","","","","","",""
"null","../img/tt/1247tt.jpg","null","mooney1","image-keyboard-response","399","1361115","0.0-6.0-1.56","2609210","co37894","norming","","","","","","",""
"5160.6150000002235","","","post_mooney1_questions","survey-likert","400","1366279","0.0-6.0-2.56","2609210","co37894","norming","","","{""curiosity"":2,""confidence"":0}","[0,1]","../img/tt/1247tt.jpg","",""
"1101.9399999999441","","","recognition","survey-text","401","1367383","0.0-6.0-3.56","2609210","co37894","norming","","","{""guess"":""""}","","../img/tt/1247tt.jpg","",""
"null","../img/gs/1247gs.jpg","null","reveal","image-keyboard-response","402","1369390","0.0-6.0-4.56","2609210","co37894","norming","","","","","","",""
"null","../img/tt/1247tt.jpg","null","mooney2","image-keyboard-response","403","1371401","0.0-6.0-5.56","2609210","co37894","norming","","","","","","",""
"3131.945000000065","","","post_reveal_questions","survey-likert","404","1374535","0.0-6.0-6.56","2609210","co37894","norming","","","{""aha"":0}","[0]","../img/tt/1247tt.jpg","",""
"null","<div style=""font-size:60px;""> </div>","null","fixation","html-keyboard-response","405","1374736","0.0-6.0-0.57","2609210","co37894","norming","","","","","","",""
"null","../img/tt/534tt.jpg","null","mooney1","image-keyboard-response","406","1377748","0.0-6.0-1.57","2609210","co37894","norming","","","","","","",""
"4959.645000000484","","","post_mooney1_questions","survey-likert","407","1382711","0.0-6.0-2.57","2609210","co37894","norming","","","{""curiosity"":4,""confidence"":1}","[0,1]","../img/tt/534tt.jpg","",""
"2126.189999999944","","","recognition","survey-text","408","1384839","0.0-6.0-3.57","2609210","co37894","norming","","","{""guess"":""grass""}","","../img/tt/534tt.jpg","",""
"null","../img/gs/534gs.jpg","null","reveal","image-keyboard-response","409","1386850","0.0-6.0-4.57","2609210","co37894","norming","","","","","","",""
"null","../img/tt/534tt.jpg","null","mooney2","image-keyboard-response","410","1388853","0.0-6.0-5.57","2609210","co37894","norming","","","","","","",""
"1967.4549999998417","","","post_reveal_questions","survey-likert","411","1390823","0.0-6.0-6.57","2609210","co37894","norming","","","{""aha"":1}","[0]","../img/tt/534tt.jpg","",""
"null","<div style=""font-size:60px;""> </div>","null","fixation","html-keyboard-response","412","1391028","0.0-6.0-0.58","2609210","co37894","norming","","","","","","",""
"null","../img/tt/036tt.jpg","null","mooney1","image-keyboard-response","413","1394044","0.0-6.0-1.58","2609210","co37894","norming","","","","","","",""
"4308.790000000037","","","post_mooney1_questions","survey-likert","414","1398356","0.0-6.0-2.58","2609210","co37894","norming","","","{""curiosity"":6,""confidence"":1}","[0,1]","../img/tt/036tt.jpg","",""
"4150.219999999972","","","recognition","survey-text","415","1402508","0.0-6.0-3.58","2609210","co37894","norming","","","{""guess"":""neurons""}","","../img/tt/036tt.jpg","",""
"null","../img/gs/036gs.jpg","null","reveal","image-keyboard-response","416","1404511","0.0-6.0-4.58","2609210","co37894","norming","","","","","","",""
"null","../img/tt/036tt.jpg","null","mooney2","image-keyboard-response","417","1406513","0.0-6.0-5.58","2609210","co37894","norming","","","","","","",""
"1864.9750000000931","","","post_reveal_questions","survey-likert","418","1408380","0.0-6.0-6.58","2609210","co37894","norming","","","{""aha"":1}","[0]","../img/tt/036tt.jpg","",""
"null","<div style=""font-size:60px;""> </div>","null","fixation","html-keyboard-response","419","1408585","0.0-6.0-0.59","2609210","co37894","norming","","","","","","",""
"null","../img/tt/032tt.jpg","null","mooney1","image-keyboard-response","420","1411588","0.0-6.0-1.59","2609210","co37894","norming","","","","","","",""
"6076.760000000009","","","post_mooney1_questions","survey-likert","421","1417668","0.0-6.0-2.59","2609210","co37894","norming","","","{""curiosity"":4,""confidence"":0}","[0,1]","../img/tt/032tt.jpg","",""
"590.0600000000559","","","recognition","survey-text","422","1418260","0.0-6.0-3.59","2609210","co37894","norming","","","{""guess"":""""}","","../img/tt/032tt.jpg","",""
"null","../img/gs/032gs.jpg","null","reveal","image-keyboard-response","423","1420263","0.0-6.0-4.59","2609210","co37894","norming","","","","","","",""
"null","../img/tt/032tt.jpg","null","mooney2","image-keyboard-response","424","1422274","0.0-6.0-5.59","2609210","co37894","norming","","","","","","",""
"2671.8000000000466","","","post_reveal_questions","survey-likert","425","1424948","0.0-6.0-6.59","2609210","co37894","norming","","","{""aha"":0}","[0]","../img/tt/032tt.jpg","",""
"null","<div style=""font-size:60px;""> </div>","null","fixation","html-keyboard-response","426","1425157","0.0-6.0-0.60","2609210","co37894","norming","","","","","","",""
"null","../img/tt/1224tt.jpg","null","mooney1","image-keyboard-response","427","1428166","0.0-6.0-1.60","2609210","co37894","norming","","","","","","",""
"5106.425000000047","","","post_mooney1_questions","survey-likert","428","1433276","0.0-6.0-2.60","2609210","co37894","norming","","","{""curiosity"":5,""confidence"":2}","[0,1]","../img/tt/1224tt.jpg","",""
"5790.005000000354","","","recognition","survey-text","429","1439068","0.0-6.0-3.60","2609210","co37894","norming","","","{""guess"":""guitar player""}","","../img/tt/1224tt.jpg","",""
"null","../img/gs/1224gs.jpg","null","reveal","image-keyboard-response","430","1441069","0.0-6.0-4.60","2609210","co37894","norming","","","","","","",""
"null","../img/tt/1224tt.jpg","null","mooney2","image-keyboard-response","431","1443072","0.0-6.0-5.60","2609210","co37894","norming","","","","","","",""
"2225.4000000003725","","","post_reveal_questions","survey-likert","432","1445300","0.0-6.0-6.60","2609210","co37894","norming","","","{""aha"":0}","[0]","../img/tt/1224tt.jpg","",""
"null","<div style=""font-size:60px;""> </div>","null","fixation","html-keyboard-response","433","1445504","0.0-6.0-0.61","2609210","co37894","norming","","","","","","",""
"null","../img/tt/306tt.jpg","null","mooney1","image-keyboard-response","434","1448507","0.0-6.0-1.61","2609210","co37894","norming","","","","","","",""
"4462.274999999907","","","post_mooney1_questions","survey-likert","435","1452973","0.0-6.0-2.61","2609210","co37894","norming","","","{""curiosity"":5,""confidence"":1}","[0,1]","../img/tt/306tt.jpg","",""
"3421.8900000001304","","","recognition","survey-text","436","1456391","0.0-6.0-3.61","2609210","co37894","norming","","","{""guess"":""beach human""}","","../img/tt/306tt.jpg","",""
"null","../img/gs/306gs.jpg","null","reveal","image-keyboard-response","437","1458393","0.0-6.0-4.61","2609210","co37894","norming","","","","","","",""
"null","../img/tt/306tt.jpg","null","mooney2","image-keyboard-response","438","1460396","0.0-6.0-5.61","2609210","co37894","norming","","","","","","",""
"2816.689999999944","","","post_reveal_questions","survey-likert","439","1463216","0.0-6.0-6.61","2609210","co37894","norming","","","{""aha"":0}","[0]","../img/tt/306tt.jpg","",""
"null","<div style=""font-size:60px;""> </div>","null","fixation","html-keyboard-response","440","1463417","0.0-6.0-0.62","2609210","co37894","norming","","","","","","",""
"null","../img/tt/1037tt.jpg","null","mooney1","image-keyboard-response","441","1466420","0.0-6.0-1.62","2609210","co37894","norming","","","","","","",""
"3320.530000000028","","","post_mooney1_questions","survey-likert","442","1469744","0.0-6.0-2.62","2609210","co37894","norming","","","{""curiosity"":4,""confidence"":0}","[0,1]","../img/tt/1037tt.jpg","",""
"709.9099999999162","","","recognition","survey-text","443","1470455","0.0-6.0-3.62","2609210","co37894","norming","","","{""guess"":""""}","","../img/tt/1037tt.jpg","",""
"null","../img/gs/1037gs.jpg","null","reveal","image-keyboard-response","444","1472457","0.0-6.0-4.62","2609210","co37894","norming","","","","","","",""
"null","../img/tt/1037tt.jpg","null","mooney2","image-keyboard-response","445","1474459","0.0-6.0-5.62","2609210","co37894","norming","","","","","","",""
"5714.085000000196","","","post_reveal_questions","survey-likert","446","1480175","0.0-6.0-6.62","2609210","co37894","norming","","","{""aha"":0}","[0]","../img/tt/1037tt.jpg","",""
"null","<div style=""font-size:60px;""> </div>","null","fixation","html-keyboard-response","447","1480377","0.0-6.0-0.63","2609210","co37894","norming","","","","","","",""
"null","../img/tt/121tt.jpg","null","mooney1","image-keyboard-response","448","1483380","0.0-6.0-1.63","2609210","co37894","norming","","","","","","",""
"4407.914999999804","","","post_mooney1_questions","survey-likert","449","1487791","0.0-6.0-2.63","2609210","co37894","norming","","","{""curiosity"":4,""confidence"":1}","[0,1]","../img/tt/121tt.jpg","",""
"2838.3649999999907","","","recognition","survey-text","450","1490631","0.0-6.0-3.63","2609210","co37894","norming","","","{""guess"":""kangoroo""}","","../img/tt/121tt.jpg","",""
"null","../img/gs/121gs.jpg","null","reveal","image-keyboard-response","451","1492633","0.0-6.0-4.63","2609210","co37894","norming","","","","","","",""
"null","../img/tt/121tt.jpg","null","mooney2","image-keyboard-response","452","1494643","0.0-6.0-5.63","2609210","co37894","norming","","","","","","",""
"1649.2600000002421","","","post_reveal_questions","survey-likert","453","1496295","0.0-6.0-6.63","2609210","co37894","norming","","","{""aha"":5}","[0]","../img/tt/121tt.jpg","",""
"null","<div style=""font-size:60px;""> </div>","null","fixation","html-keyboard-response","454","1496497","0.0-6.0-0.64","2609210","co37894","norming","","","","","","",""
"null","../img/tt/184tt.jpg","null","mooney1","image-keyboard-response","455","1499509","0.0-6.0-1.64","2609210","co37894","norming","","","","","","",""
"3903.54000000027","","","post_mooney1_questions","survey-likert","456","1503416","0.0-6.0-2.64","2609210","co37894","norming","","","{""curiosity"":3,""confidence"":0}","[0,1]","../img/tt/184tt.jpg","",""
"1149.8950000000186","","","recognition","survey-text","457","1504567","0.0-6.0-3.64","2609210","co37894","norming","","","{""guess"":""""}","","../img/tt/184tt.jpg","",""
"null","../img/gs/184gs.jpg","null","reveal","image-keyboard-response","458","1506569","0.0-6.0-4.64","2609210","co37894","norming","","","","","","",""
"null","../img/tt/184tt.jpg","null","mooney2","image-keyboard-response","459","1508570","0.0-6.0-5.64","2609210","co37894","norming","","","","","","",""
"2842.679999999702","","","post_reveal_questions","survey-likert","460","1511415","0.0-6.0-6.64","2609210","co37894","norming","","","{""aha"":0}","[0]","../img/tt/184tt.jpg","",""
"null","<div style=""font-size:60px;""> </div>","null","fixation","html-keyboard-response","461","1511624","0.0-6.0-0.65","2609210","co37894","norming","","","","","","",""
"null","../img/tt/440tt.jpg","null","mooney1","image-keyboard-response","462","1514641","0.0-6.0-1.65","2609210","co37894","norming","","","","","","",""
"3525.7299999997485","","","post_mooney1_questions","survey-likert","463","1518170","0.0-6.0-2.65","2609210","co37894","norming","","","{""curiosity"":5,""confidence"":3}","[0,1]","../img/tt/440tt.jpg","",""
"2518.105000000214","","","recognition","survey-text","464","1520690","0.0-6.0-3.65","2609210","co37894","norming","","","{""guess"":""horse""}","","../img/tt/440tt.jpg","",""
"null","../img/gs/440gs.jpg","null","reveal","image-keyboard-response","465","1522700","0.0-6.0-4.65","2609210","co37894","norming","","","","","","",""
"null","../img/tt/440tt.jpg","null","mooney2","image-keyboard-response","466","1524703","0.0-6.0-5.65","2609210","co37894","norming","","","","","","",""
"3008.5049999996554","","","post_reveal_questions","survey-likert","467","1527714","0.0-6.0-6.65","2609210","co37894","norming","","","{""aha"":0}","[0]","../img/tt/440tt.jpg","",""
"null","<div style=""font-size:60px;""> </div>","null","fixation","html-keyboard-response","468","1527918","0.0-6.0-0.66","2609210","co37894","norming","","","","","","",""
"null","../img/tt/1307tt.jpg","null","mooney1","image-keyboard-response","469","1530921","0.0-6.0-1.66","2609210","co37894","norming","","","","","","",""
"5320.064999999944","","","post_mooney1_questions","survey-likert","470","1536242","0.0-6.0-2.66","2609210","co37894","norming","","","{""curiosity"":5,""confidence"":1}","[0,1]","../img/tt/1307tt.jpg","",""
"2222.1149999999907","","","recognition","survey-text","471","1538466","0.0-6.0-3.66","2609210","co37894","norming","","","{""guess"":""waaier""}","","../img/tt/1307tt.jpg","",""
"null","../img/gs/1307gs.jpg","null","reveal","image-keyboard-response","472","1540467","0.0-6.0-4.66","2609210","co37894","norming","","","","","","",""
"null","../img/tt/1307tt.jpg","null","mooney2","image-keyboard-response","473","1542473","0.0-6.0-5.66","2609210","co37894","norming","","","","","","",""
"2254.9399999997113","","","post_reveal_questions","survey-likert","474","1544730","0.0-6.0-6.66","2609210","co37894","norming","","","{""aha"":0}","[0]","../img/tt/1307tt.jpg","",""
"null","<div style=""font-size:60px;""> </div>","null","fixation","html-keyboard-response","475","1544934","0.0-6.0-0.67","2609210","co37894","norming","","","","","","",""
"null","../img/tt/108tt.jpg","null","mooney1","image-keyboard-response","476","1547937","0.0-6.0-1.67","2609210","co37894","norming","","","","","","",""
"4846.220000000205","","","post_mooney1_questions","survey-likert","477","1552787","0.0-6.0-2.67","2609210","co37894","norming","","","{""curiosity"":3,""confidence"":1}","[0,1]","../img/tt/108tt.jpg","",""
"3373.965000000084","","","recognition","survey-text","478","1556162","0.0-6.0-3.67","2609210","co37894","norming","","","{""guess"":""chickens""}","","../img/tt/108tt.jpg","",""
"null","../img/gs/108gs.jpg","null","reveal","image-keyboard-response","479","1558164","0.0-6.0-4.67","2609210","co37894","norming","","","","","","",""
"null","../img/tt/108tt.jpg","null","mooney2","image-keyboard-response","480","1560170","0.0-6.0-5.67","2609210","co37894","norming","","","","","","",""
"1734.0200000002515","","","post_reveal_questions","survey-likert","481","1561906","0.0-6.0-6.67","2609210","co37894","norming","","","{""aha"":0}","[0]","../img/tt/108tt.jpg","",""
"null","<div style=""font-size:60px;""> </div>","null","fixation","html-keyboard-response","482","1562108","0.0-6.0-0.68","2609210","co37894","norming","","","","","","",""
"null","../img/tt/1084tt.jpg","null","mooney1","image-keyboard-response","483","1565112","0.0-6.0-1.68","2609210","co37894","norming","","","","","","",""
"4086.4850000001024","","","post_mooney1_questions","survey-likert","484","1569202","0.0-6.0-2.68","2609210","co37894","norming","","","{""curiosity"":0,""confidence"":0}","[0,1]","../img/tt/1084tt.jpg","",""
"998.0700000000652","","","recognition","survey-text","485","1570202","0.0-6.0-3.68","2609210","co37894","norming","","","{""guess"":""""}","","../img/tt/1084tt.jpg","",""
"null","../img/gs/1084gs.jpg","null","reveal","image-keyboard-response","486","1572209","0.0-6.0-4.68","2609210","co37894","norming","","","","","","",""
"null","../img/tt/1084tt.jpg","null","mooney2","image-keyboard-response","487","1574212","0.0-6.0-5.68","2609210","co37894","norming","","","","","","",""
"2419.75","","","post_reveal_questions","survey-likert","488","1576628","0.0-6.0-6.68","2609210","co37894","norming","","","{""aha"":0}","[0]","../img/tt/1084tt.jpg","",""
"null","<div style=""font-size:60px;""> </div>","null","fixation","html-keyboard-response","489","1576830","0.0-6.0-0.69","2609210","co37894","norming","","","","","","",""
"null","../img/tt/1200tt.jpg","null","mooney1","image-keyboard-response","490","1579833","0.0-6.0-1.69","2609210","co37894","norming","","","","","","",""
"4111.054999999702","","","post_mooney1_questions","survey-likert","491","1583948","0.0-6.0-2.69","2609210","co37894","norming","","","{""curiosity"":4,""confidence"":1}","[0,1]","../img/tt/1200tt.jpg","",""
"1262.0400000000373","","","recognition","survey-text","492","1585212","0.0-6.0-3.69","2609210","co37894","norming","","","{""guess"":""car""}","","../img/tt/1200tt.jpg","",""
"null","../img/gs/1200gs.jpg","null","reveal","image-keyboard-response","493","1587213","0.0-6.0-4.69","2609210","co37894","norming","","","","","","",""
"null","../img/tt/1200tt.jpg","null","mooney2","image-keyboard-response","494","1589215","0.0-6.0-5.69","2609210","co37894","norming","","","","","","",""
"5034.045000000158","","","post_reveal_questions","survey-likert","495","1594252","0.0-6.0-6.69","2609210","co37894","norming","","","{""aha"":0}","[0]","../img/tt/1200tt.jpg","",""
"null","<div style=""font-size:60px;""> </div>","null","fixation","html-keyboard-response","496","1594460","0.0-6.0-0.70","2609210","co37894","norming","","","","","","",""
"null","../img/tt/1159tt.jpg","null","mooney1","image-keyboard-response","497","1597465","0.0-6.0-1.70","2609210","co37894","norming","","","","","","",""
"4066.0049999996554","","","post_mooney1_questions","survey-likert","498","1601532","0.0-6.0-2.70","2609210","co37894","norming","","","{""curiosity"":0,""confidence"":0}","[0,1]","../img/tt/1159tt.jpg","",""
"469.9350000000559","","","recognition","survey-text","499","1602004","0.0-6.0-3.70","2609210","co37894","norming","","","{""guess"":""""}","","../img/tt/1159tt.jpg","",""
"null","../img/gs/1159gs.jpg","null","reveal","image-keyboard-response","500","1604007","0.0-6.0-4.70","2609210","co37894","norming","","","","","","",""
"null","../img/tt/1159tt.jpg","null","mooney2","image-keyboard-response","501","1606009","0.0-6.0-5.70","2609210","co37894","norming","","","","","","",""
"3000.0999999998603","","","post_reveal_questions","survey-likert","502","1609012","0.0-6.0-6.70","2609210","co37894","norming","","","{""aha"":0}","[0]","../img/tt/1159tt.jpg","",""
"null","<div style=""font-size:60px;""> </div>","null","fixation","html-keyboard-response","503","1609215","0.0-6.0-0.71","2609210","co37894","norming","","","","","","",""
"null","../img/tt/1101tt.jpg","null","mooney1","image-keyboard-response","504","1612218","0.0-6.0-1.71","2609210","co37894","norming","","","","","","",""
"4926.239999999758","","","post_mooney1_questions","survey-likert","505","1617148","0.0-6.0-2.71","2609210","co37894","norming","","","{""curiosity"":5,""confidence"":2}","[0,1]","../img/tt/1101tt.jpg","",""
"3053.840000000084","","","recognition","survey-text","506","1620204","0.0-6.0-3.71","2609210","co37894","norming","","","{""guess"":""snowboarder""}","","../img/tt/1101tt.jpg","",""
"null","../img/gs/1101gs.jpg","null","reveal","image-keyboard-response","507","1622210","0.0-6.0-4.71","2609210","co37894","norming","","","","","","",""
"null","../img/tt/1101tt.jpg","null","mooney2","image-keyboard-response","508","1624213","0.0-6.0-5.71","2609210","co37894","norming","","","","","","",""
"1540.5649999997113","","","post_reveal_questions","survey-likert","509","1625756","0.0-6.0-6.71","2609210","co37894","norming","","","{""aha"":0}","[0]","../img/tt/1101tt.jpg","",""
"null","<div style=""font-size:60px;""> </div>","null","fixation","html-keyboard-response","510","1625967","0.0-6.0-0.72","2609210","co37894","norming","","","","","","",""
"null","../img/tt/1156tt.jpg","null","mooney1","image-keyboard-response","511","1628979","0.0-6.0-1.72","2609210","co37894","norming","","","","","","",""
"5151.429999999702","","","post_mooney1_questions","survey-likert","512","1634132","0.0-6.0-2.72","2609210","co37894","norming","","","{""curiosity"":6,""confidence"":2}","[0,1]","../img/tt/1156tt.jpg","",""
"4710.020000000019","","","recognition","survey-text","513","1638849","0.0-6.0-3.72","2609210","co37894","norming","","","{""guess"":""female beach""}","","../img/tt/1156tt.jpg","",""
"null","../img/gs/1156gs.jpg","null","reveal","image-keyboard-response","514","1640858","0.0-6.0-4.72","2609210","co37894","norming","","","","","","",""
"null","../img/tt/1156tt.jpg","null","mooney2","image-keyboard-response","515","1642869","0.0-6.0-5.72","2609210","co37894","norming","","","","","","",""
"4881.264999999898","","","post_reveal_questions","survey-likert","516","1647753","0.0-6.0-6.72","2609210","co37894","norming","","","{""aha"":3}","[0]","../img/tt/1156tt.jpg","",""
"null","<div style=""font-size:60px;""> </div>","null","fixation","html-keyboard-response","517","1647958","0.0-6.0-0.73","2609210","co37894","norming","","","","","","",""
"null","../img/tt/1181tt.jpg","null","mooney1","image-keyboard-response","518","1650962","0.0-6.0-1.73","2609210","co37894","norming","","","","","","",""
"7382.125000000233","","","post_mooney1_questions","survey-likert","519","1658345","0.0-6.0-2.73","2609210","co37894","norming","","","{""curiosity"":2,""confidence"":0}","[0,1]","../img/tt/1181tt.jpg","",""
"605.7249999998603","","","recognition","survey-text","520","1658953","0.0-6.0-3.73","2609210","co37894","norming","","","{""guess"":""""}","","../img/tt/1181tt.jpg","",""
"null","../img/gs/1181gs.jpg","null","reveal","image-keyboard-response","521","1660954","0.0-6.0-4.73","2609210","co37894","norming","","","","","","",""
"null","../img/tt/1181tt.jpg","null","mooney2","image-keyboard-response","522","1662956","0.0-6.0-5.73","2609210","co37894","norming","","","","","","",""
"1860.5499999998137","","","post_reveal_questions","survey-likert","523","1664817","0.0-6.0-6.73","2609210","co37894","norming","","","{""aha"":0}","[0]","../img/tt/1181tt.jpg","",""
"null","<div style=""font-size:60px;""> </div>","null","fixation","html-keyboard-response","524","1665027","0.0-6.0-0.74","2609210","co37894","norming","","","","","","",""
"null","../img/tt/1070tt.jpg","null","mooney1","image-keyboard-response","525","1668029","0.0-6.0-1.74","2609210","co37894","norming","","","","","","",""
"4087.5400000000373","","","post_mooney1_questions","survey-likert","526","1672121","0.0-6.0-2.74","2609210","co37894","norming","","","{""curiosity"":4,""confidence"":2}","[0,1]","../img/tt/1070tt.jpg","",""
"1622.070000000298","","","recognition","survey-text","527","1673745","0.0-6.0-3.74","2609210","co37894","norming","","","{""guess"":""cake""}","","../img/tt/1070tt.jpg","",""
"null","../img/gs/1070gs.jpg","null","reveal","image-keyboard-response","528","1675747","0.0-6.0-4.74","2609210","co37894","norming","","","","","","",""
"null","../img/tt/1070tt.jpg","null","mooney2","image-keyboard-response","529","1677750","0.0-6.0-5.74","2609210","co37894","norming","","","","","","",""
"1640.6450000000186","","","post_reveal_questions","survey-likert","530","1679393","0.0-6.0-6.74","2609210","co37894","norming","","","{""aha"":5}","[0]","../img/tt/1070tt.jpg","",""
"null","<div style=""font-size:60px;""> </div>","null","fixation","html-keyboard-response","531","1679602","0.0-6.0-0.75","2609210","co37894","norming","","","","","","",""
"null","../img/tt/140tt.jpg","null","mooney1","image-keyboard-response","532","1682605","0.0-6.0-1.75","2609210","co37894","norming","","","","","","",""
"5721.330000000307","","","post_mooney1_questions","survey-likert","533","1688329","0.0-6.0-2.75","2609210","co37894","norming","","","{""curiosity"":3,""confidence"":0}","[0,1]","../img/tt/140tt.jpg","",""
"725.9600000001956","","","recognition","survey-text","534","1689057","0.0-6.0-3.75","2609210","co37894","norming","","","{""guess"":""""}","","../img/tt/140tt.jpg","",""
"null","../img/gs/140gs.jpg","null","reveal","image-keyboard-response","535","1691058","0.0-6.0-4.75","2609210","co37894","norming","","","","","","",""
"null","../img/tt/140tt.jpg","null","mooney2","image-keyboard-response","536","1693066","0.0-6.0-5.75","2609210","co37894","norming","","","","","","",""
"10813.359999999637","","","post_reveal_questions","survey-likert","537","1703882","0.0-6.0-6.75","2609210","co37894","norming","","","{""aha"":5}","[0]","../img/tt/140tt.jpg","",""
"null","<div style=""font-size:60px;""> </div>","null","fixation","html-keyboard-response","538","1704090","0.0-6.0-0.76","2609210","co37894","norming","","","","","","",""
"null","../img/tt/1066tt.jpg","null","mooney1","image-keyboard-response","539","1707094","0.0-6.0-1.76","2609210","co37894","norming","","","","","","",""
"3298.2100000004284","","","post_mooney1_questions","survey-likert","540","1710395","0.0-6.0-2.76","2609210","co37894","norming","","","{""curiosity"":5,""confidence"":3}","[0,1]","../img/tt/1066tt.jpg","",""
"4293.944999999832","","","recognition","survey-text","541","1714690","0.0-6.0-3.76","2609210","co37894","norming","","","{""guess"":""bus""}","","../img/tt/1066tt.jpg","",""
"null","../img/gs/1066gs.jpg","null","reveal","image-keyboard-response","542","1716692","0.0-6.0-4.76","2609210","co37894","norming","","","","","","",""
"null","../img/tt/1066tt.jpg","null","mooney2","image-keyboard-response","543","1718695","0.0-6.0-5.76","2609210","co37894","norming","","","","","","",""
"7104.550000000047","","","post_reveal_questions","survey-likert","544","1725802","0.0-6.0-6.76","2609210","co37894","norming","","","{""aha"":5}","[0]","../img/tt/1066tt.jpg","",""
"null","<div style=""font-size:60px;""> </div>","null","fixation","html-keyboard-response","545","1726006","0.0-6.0-0.77","2609210","co37894","norming","","","","","","",""
"null","../img/tt/1033tt.jpg","null","mooney1","image-keyboard-response","546","1729014","0.0-6.0-1.77","2609210","co37894","norming","","","","","","",""
"5339.065000000177","","","post_mooney1_questions","survey-likert","547","1734355","0.0-6.0-2.77","2609210","co37894","norming","","","{""curiosity"":5,""confidence"":2}","[0,1]","../img/tt/1033tt.jpg","",""
"2013.8599999996368","","","recognition","survey-text","548","1736370","0.0-6.0-3.77","2609210","co37894","norming","","","{""guess"":""sword""}","","../img/tt/1033tt.jpg","",""
"null","../img/gs/1033gs.jpg","null","reveal","image-keyboard-response","549","1738372","0.0-6.0-4.77","2609210","co37894","norming","","","","","","",""
"null","../img/tt/1033tt.jpg","null","mooney2","image-keyboard-response","550","1740375","0.0-6.0-5.77","2609210","co37894","norming","","","","","","",""
"3177.1350000000093","","","post_reveal_questions","survey-likert","551","1743554","0.0-6.0-6.77","2609210","co37894","norming","","","{""aha"":0}","[0]","../img/tt/1033tt.jpg","",""
"null","<div style=""font-size:60px;""> </div>","null","fixation","html-keyboard-response","552","1743762","0.0-6.0-0.78","2609210","co37894","norming","","","","","","",""
