"rt","stimulus","key_press","test_part","trial_type","trial_index","time_elapsed","internal_node_id","totalTime","subject","experiment_name","button_pressed","success","responses","question_order","currentStim","old","correct"
"10153.930000000002","Welcome to the experiment. This is an online experiment so please don't close the tab/window until we say goodbye.  Press any key to begin.","32","instructions","html-keyboard-response","0","10179","0.0-0.0","3443342","co37561","norming","","","","","","",""
"31277.99999999999","<div style='word-wrap: break-word; width: 900px'><h3>Please consider this information carefully before deciding whether to participate in this research</h3><ul style='text-align: left; font-size: .8em;'><li><b>Purpose of the research</b>: To examine how people process images.</li><li><b>What you will do in this research</b>:  Stimuli (images) will be presented on the computer and you will be asked different questions about them.</li><li><b>Time required</b>: Participation will take between 45 and 60 minutes to complete.</li><li><b>Risks</b>:  There are no anticipated risks associated with participating in this study. The effects of participating should be comparable to those you would experience from viewing a computer monitor for 30 minutes and using a mouse or keyboard.</li><li><b>Benefits</b>:  This study provides no benefits to you individually except for the credit. The study provides important information about the nature of perception and learning.</li><li><b>Confidentiality</b>:  Your participation in this study will remain confidential. No personally identifiable information will be associated with your data. Your de-identified data may be shared with other researchers and used in future projects.</li><li><b>Participation and withdrawal</b>:  Your participation in this study is completely voluntary and you may refuse to participate or you may choose to withdraw at any time without penalty.</li><li><b>How to contact the researchers</b>: If you have questions or concerns about your participation or payment, or want to request a summary of research findings, please contact Sander Van de Cruys (KU Leuven), at sander.vandecruys@kuleuven.be.</li></ul><p>The nature and purpose of this research have been sufficiently explained and I agree to participate in this study.  I understand that I am free to withdraw at any time without incurring any penalty.</p><p>Please consent by clicking the button below to continue. Otherwise, please exit the study at this time.</p></div>","","instructions","html-button-response","1","41461","0.0-1.0","3443342","co37561","norming","0","","","","","",""
"","","","instructions","fullscreen","2","51083","0.0-2.0","3443342","co37561","norming","","true","","","","",""
"24665.05000000001","","","sona","survey-html-form","3","75753","0.0-3.0","3443342","co37561","norming","","","[{""name"":""sonaid"",""value"":""37561""},{""name"":""debrief"",""value"":""yes""},{""name"":""datajoin"",""value"":""yes""}]","","","",""
"67770.525","<div style='word-wrap: break-word; width: 900px'><h3>Instructions</h3><p>This experiment will have 3 parts. In the first part you will see a series of distorted images like the one below on the left. As you can see in the righthand image, the distorted images are derived from actual photographs. In what follows, you will <strong>briefly</strong> be presented with <strong>only</strong> the distorted image.</p> <div style='float: left; margin-right: 20px;'><img src='../img/018tt.jpg' height='250' width='250'></img></div><div style='float: right; margin-left: 20px;'><img src='../img/018gs.jpg' height='250' width='250'></img></div><p>Subsequently you will be asked a few questions about the image: One question on how <strong>curious</strong> you are about the solution and one on how <strong>confident</strong> you are that you know the solution.</p>Next, we ask you to make a guess on what is in the image. Note that it is OK to name just the <strong>basic level category</strong>. For example when you see a parrot in the image, 'parrot' will obviously be a correct answer but also correct is 'bird'. However, 'animal' will <strong>not</strong> be counted as a correct response. For the example above, 'rose' would be correct or 'flower', but not 'plant'. When soccer players are depicted, 'soccer', 'football', 'soccer players' will be correct, but not 'humans', 'outdoors', or 'sports'. You do not need to describe the image in full, just name the main object in it <strong>in one or two words</strong>. All images depict objects from one of the following broad level categories: animals, inanimate objects, plants, sports, vehicles, and food. Recognizing means knowing <strong>more</strong> than these broad labels for a given image. But we always encourage you to <strong>make a guess</strong> if you can. Note that you are allowed to use <strong>Dutch and English</strong> in your answers, whatever comes easiest for you.</p><p>Press any key to continue.</p></div>","32","instructions","html-keyboard-response","4","143525","0.0-4.0","3443342","co37561","norming","","","","","","",""
"11743.130000000005","<div style='word-wrap: break-word; width: 900px'><h3>Instructions</h3> <p>Next, the solution image will be revealed to you and you'll be asked to indicate how strong your <strong>aha-experience</strong> was after seeing the solution. This describes the positive feeling of the 'click' you sometimes experience, when the pieces of the 'puzzle' fall together and you suddenly have 'insight' in the image.</p><img src='aha.jpg' height='188' width='250'></img><p>Note that there are no right or wrong answers. We are interested in what <strong>you</strong> see in the image and how <strong>you</strong> feel about it.</p><p>Press any key to start the experiment.</p></div>","32","instructions","html-keyboard-response","5","155269","0.0-5.0","3443342","co37561","norming","","","","","","",""
"null","<div style=""font-size:60px;""> </div>","null","fixation","html-keyboard-response","6","155479","0.0-6.0-0.0","3443342","co37561","norming","","","","","","",""
"null","../img/tt/1097tt.jpg","null","mooney1","image-keyboard-response","7","158485","0.0-6.0-1.0","3443342","co37561","norming","","","","","","",""
"14422.595000000001","","","post_mooney1_questions","survey-likert","8","172910","0.0-6.0-2.0","3443342","co37561","norming","","","{""curiosity"":2,""confidence"":4}","[0,1]","../img/tt/1097tt.jpg","",""
"8229.380000000034","","","recognition","survey-text","9","181141","0.0-6.0-3.0","3443342","co37561","norming","","","{""guess"":""Ijshockey""}","","../img/tt/1097tt.jpg","",""
"null","../img/gs/1097gs.jpg","null","reveal","image-keyboard-response","10","183148","0.0-6.0-4.0","3443342","co37561","norming","","","","","","",""
"null","../img/tt/1097tt.jpg","null","mooney2","image-keyboard-response","11","185157","0.0-6.0-5.0","3443342","co37561","norming","","","","","","",""
"7942.8949999999895","","","post_reveal_questions","survey-likert","12","193101","0.0-6.0-6.0","3443342","co37561","norming","","","{""aha"":5}","[0]","../img/tt/1097tt.jpg","",""
"null","<div style=""font-size:60px;""> </div>","null","fixation","html-keyboard-response","13","193312","0.0-6.0-0.1","3443342","co37561","norming","","","","","","",""
"null","../img/tt/1188tt.jpg","null","mooney1","image-keyboard-response","14","196314","0.0-6.0-1.1","3443342","co37561","norming","","","","","","",""
"7282.649999999965","","","post_mooney1_questions","survey-likert","15","203605","0.0-6.0-2.1","3443342","co37561","norming","","","{""curiosity"":6,""confidence"":0}","[0,1]","../img/tt/1188tt.jpg","",""
"3557.874999999971","","","recognition","survey-text","16","207165","0.0-6.0-3.1","3443342","co37561","norming","","","{""guess"":""""}","","../img/tt/1188tt.jpg","",""
"null","../img/gs/1188gs.jpg","null","reveal","image-keyboard-response","17","209169","0.0-6.0-4.1","3443342","co37561","norming","","","","","","",""
"null","../img/tt/1188tt.jpg","null","mooney2","image-keyboard-response","18","211175","0.0-6.0-5.1","3443342","co37561","norming","","","","","","",""
"4596.820000000036","","","post_reveal_questions","survey-likert","19","215773","0.0-6.0-6.1","3443342","co37561","norming","","","{""aha"":6}","[0]","../img/tt/1188tt.jpg","",""
"null","<div style=""font-size:60px;""> </div>","null","fixation","html-keyboard-response","20","215980","0.0-6.0-0.2","3443342","co37561","norming","","","","","","",""
"null","../img/tt/1190tt.jpg","null","mooney1","image-keyboard-response","21","218987","0.0-6.0-1.2","3443342","co37561","norming","","","","","","",""
"12352.165000000008","","","post_mooney1_questions","survey-likert","22","231340","0.0-6.0-2.2","3443342","co37561","norming","","","{""curiosity"":6,""confidence"":1}","[0,1]","../img/tt/1190tt.jpg","",""
"7030.25999999998","","","recognition","survey-text","23","238372","0.0-6.0-3.2","3443342","co37561","norming","","","{""guess"":""Bloem""}","","../img/tt/1190tt.jpg","",""
"null","../img/gs/1190gs.jpg","null","reveal","image-keyboard-response","24","240382","0.0-6.0-4.2","3443342","co37561","norming","","","","","","",""
"null","../img/tt/1190tt.jpg","null","mooney2","image-keyboard-response","25","242383","0.0-6.0-5.2","3443342","co37561","norming","","","","","","",""
"6196.779999999999","","","post_reveal_questions","survey-likert","26","248580","0.0-6.0-6.2","3443342","co37561","norming","","","{""aha"":5}","[0]","../img/tt/1190tt.jpg","",""
"null","<div style=""font-size:60px;""> </div>","null","fixation","html-keyboard-response","27","248784","0.0-6.0-0.3","3443342","co37561","norming","","","","","","",""
"null","../img/tt/111tt.jpg","null","mooney1","image-keyboard-response","28","251794","0.0-6.0-1.3","3443342","co37561","norming","","","","","","",""
"7825.410000000062","","","post_mooney1_questions","survey-likert","29","259620","0.0-6.0-2.3","3443342","co37561","norming","","","{""curiosity"":4,""confidence"":5}","[0,1]","../img/tt/111tt.jpg","",""
"7910.140000000072","","","recognition","survey-text","30","267567","0.0-6.0-3.3","3443342","co37561","norming","","","{""guess"":""Douchekop""}","","../img/tt/111tt.jpg","",""
"null","../img/gs/111gs.jpg","null","reveal","image-keyboard-response","31","269573","0.0-6.0-4.3","3443342","co37561","norming","","","","","","",""
"null","../img/tt/111tt.jpg","null","mooney2","image-keyboard-response","32","271575","0.0-6.0-5.3","3443342","co37561","norming","","","","","","",""
"5567.950000000012","","","post_reveal_questions","survey-likert","33","277143","0.0-6.0-6.3","3443342","co37561","norming","","","{""aha"":1}","[0]","../img/tt/111tt.jpg","",""
"null","<div style=""font-size:60px;""> </div>","null","fixation","html-keyboard-response","34","277347","0.0-6.0-0.4","3443342","co37561","norming","","","","","","",""
"null","../img/tt/1142tt.jpg","null","mooney1","image-keyboard-response","35","280357","0.0-6.0-1.4","3443342","co37561","norming","","","","","","",""
"7802.574999999895","","","post_mooney1_questions","survey-likert","36","288160","0.0-6.0-2.4","3443342","co37561","norming","","","{""curiosity"":4,""confidence"":4}","[0,1]","../img/tt/1142tt.jpg","",""
"3597.9749999999185","","","recognition","survey-text","37","291760","0.0-6.0-3.4","3443342","co37561","norming","","","{""guess"":""Tennis""}","","../img/tt/1142tt.jpg","",""
"null","../img/gs/1142gs.jpg","null","reveal","image-keyboard-response","38","293771","0.0-6.0-4.4","3443342","co37561","norming","","","","","","",""
"null","../img/tt/1142tt.jpg","null","mooney2","image-keyboard-response","39","295778","0.0-6.0-5.4","3443342","co37561","norming","","","","","","",""
"5051.890000000072","","","post_reveal_questions","survey-likert","40","300832","0.0-6.0-6.4","3443342","co37561","norming","","","{""aha"":4}","[0]","../img/tt/1142tt.jpg","",""
"null","<div style=""font-size:60px;""> </div>","null","fixation","html-keyboard-response","41","301038","0.0-6.0-0.5","3443342","co37561","norming","","","","","","",""
"null","../img/tt/036tt.jpg","null","mooney1","image-keyboard-response","42","304044","0.0-6.0-1.5","3443342","co37561","norming","","","","","","",""
"19489.03999999998","","","post_mooney1_questions","survey-likert","43","323536","0.0-6.0-2.5","3443342","co37561","norming","","","{""curiosity"":6,""confidence"":2}","[0,1]","../img/tt/036tt.jpg","",""
"7685.934999999998","","","recognition","survey-text","44","331245","0.0-6.0-3.5","3443342","co37561","norming","","","{""guess"":""Boomwortels""}","","../img/tt/036tt.jpg","",""
"null","../img/gs/036gs.jpg","null","reveal","image-keyboard-response","45","333254","0.0-6.0-4.5","3443342","co37561","norming","","","","","","",""
"null","../img/tt/036tt.jpg","null","mooney2","image-keyboard-response","46","335258","0.0-6.0-5.5","3443342","co37561","norming","","","","","","",""
"3513.244999999937","","","post_reveal_questions","survey-likert","47","338773","0.0-6.0-6.5","3443342","co37561","norming","","","{""aha"":5}","[0]","../img/tt/036tt.jpg","",""
"null","<div style=""font-size:60px;""> </div>","null","fixation","html-keyboard-response","48","338975","0.0-6.0-0.6","3443342","co37561","norming","","","","","","",""
"null","../img/tt/060tt.jpg","null","mooney1","image-keyboard-response","49","341977","0.0-6.0-1.6","3443342","co37561","norming","","","","","","",""
"8161.475000000093","","","post_mooney1_questions","survey-likert","50","350141","0.0-6.0-2.6","3443342","co37561","norming","","","{""curiosity"":6,""confidence"":1}","[0,1]","../img/tt/060tt.jpg","",""
"5349.895000000077","","","recognition","survey-text","51","355493","0.0-6.0-3.6","3443342","co37561","norming","","","{""guess"":""Broodrooster""}","","../img/tt/060tt.jpg","",""
"null","../img/gs/060gs.jpg","null","reveal","image-keyboard-response","52","357501","0.0-6.0-4.6","3443342","co37561","norming","","","","","","",""
"null","../img/tt/060tt.jpg","null","mooney2","image-keyboard-response","53","359503","0.0-6.0-5.6","3443342","co37561","norming","","","","","","",""
"4653.344999999972","","","post_reveal_questions","survey-likert","54","364157","0.0-6.0-6.6","3443342","co37561","norming","","","{""aha"":5}","[0]","../img/tt/060tt.jpg","",""
"null","<div style=""font-size:60px;""> </div>","null","fixation","html-keyboard-response","55","364358","0.0-6.0-0.7","3443342","co37561","norming","","","","","","",""
"null","../img/tt/477tt.jpg","null","mooney1","image-keyboard-response","56","367364","0.0-6.0-1.7","3443342","co37561","norming","","","","","","",""
"10670.61499999999","","","post_mooney1_questions","survey-likert","57","378037","0.0-6.0-2.7","3443342","co37561","norming","","","{""curiosity"":5,""confidence"":2}","[0,1]","../img/tt/477tt.jpg","",""
"4966.104999999923","","","recognition","survey-text","58","383005","0.0-6.0-3.7","3443342","co37561","norming","","","{""guess"":""Panda""}","","../img/tt/477tt.jpg","",""
"null","../img/gs/477gs.jpg","null","reveal","image-keyboard-response","59","385014","0.0-6.0-4.7","3443342","co37561","norming","","","","","","",""
"null","../img/tt/477tt.jpg","null","mooney2","image-keyboard-response","60","387052","0.0-6.0-5.7","3443342","co37561","norming","","","","","","",""
"3155.1300000000047","","","post_reveal_questions","survey-likert","61","390210","0.0-6.0-6.7","3443342","co37561","norming","","","{""aha"":5}","[0]","../img/tt/477tt.jpg","",""
"null","<div style=""font-size:60px;""> </div>","null","fixation","html-keyboard-response","62","390411","0.0-6.0-0.8","3443342","co37561","norming","","","","","","",""
"null","../img/tt/096tt.jpg","null","mooney1","image-keyboard-response","63","393421","0.0-6.0-1.8","3443342","co37561","norming","","","","","","",""
"4873.8150000000605","","","post_mooney1_questions","survey-likert","64","398298","0.0-6.0-2.8","3443342","co37561","norming","","","{""curiosity"":5,""confidence"":4}","[0,1]","../img/tt/096tt.jpg","",""
"6478.0650000000605","","","recognition","survey-text","65","404778","0.0-6.0-3.8","3443342","co37561","norming","","","{""guess"":""Naaimachine""}","","../img/tt/096tt.jpg","",""
"null","../img/gs/096gs.jpg","null","reveal","image-keyboard-response","66","406786","0.0-6.0-4.8","3443342","co37561","norming","","","","","","",""
"null","../img/tt/096tt.jpg","null","mooney2","image-keyboard-response","67","408796","0.0-6.0-5.8","3443342","co37561","norming","","","","","","",""
"3555.4150000000373","","","post_reveal_questions","survey-likert","68","412354","0.0-6.0-6.8","3443342","co37561","norming","","","{""aha"":5}","[0]","../img/tt/096tt.jpg","",""
"null","<div style=""font-size:60px;""> </div>","null","fixation","html-keyboard-response","69","412565","0.0-6.0-0.9","3443342","co37561","norming","","","","","","",""
"null","../img/tt/1012tt.jpg","null","mooney1","image-keyboard-response","70","415570","0.0-6.0-1.9","3443342","co37561","norming","","","","","","",""
"5007.084999999963","","","post_mooney1_questions","survey-likert","71","420578","0.0-6.0-2.9","3443342","co37561","norming","","","{""curiosity"":6,""confidence"":0}","[0,1]","../img/tt/1012tt.jpg","",""
"2653.9400000000605","","","recognition","survey-text","72","423234","0.0-6.0-3.9","3443342","co37561","norming","","","{""guess"":""""}","","../img/tt/1012tt.jpg","",""
"null","../img/gs/1012gs.jpg","null","reveal","image-keyboard-response","73","425236","0.0-6.0-4.9","3443342","co37561","norming","","","","","","",""
"null","../img/tt/1012tt.jpg","null","mooney2","image-keyboard-response","74","427241","0.0-6.0-5.9","3443342","co37561","norming","","","","","","",""
"3007.9899999999325","","","post_reveal_questions","survey-likert","75","430249","0.0-6.0-6.9","3443342","co37561","norming","","","{""aha"":6}","[0]","../img/tt/1012tt.jpg","",""
"null","<div style=""font-size:60px;""> </div>","null","fixation","html-keyboard-response","76","430459","0.0-6.0-0.10","3443342","co37561","norming","","","","","","",""
"null","../img/tt/599tt.jpg","null","mooney1","image-keyboard-response","77","433463","0.0-6.0-1.10","3443342","co37561","norming","","","","","","",""
"9231.815000000002","","","post_mooney1_questions","survey-likert","78","442698","0.0-6.0-2.10","3443342","co37561","norming","","","{""curiosity"":6,""confidence"":1}","[0,1]","../img/tt/599tt.jpg","",""
"3365.9599999999627","","","recognition","survey-text","79","446065","0.0-6.0-3.10","3443342","co37561","norming","","","{""guess"":""Kat""}","","../img/tt/599tt.jpg","",""
"null","../img/gs/599gs.jpg","null","reveal","image-keyboard-response","80","448105","0.0-6.0-4.10","3443342","co37561","norming","","","","","","",""
"null","../img/tt/599tt.jpg","null","mooney2","image-keyboard-response","81","450113","0.0-6.0-5.10","3443342","co37561","norming","","","","","","",""
"7090.780000000028","","","post_reveal_questions","survey-likert","82","457206","0.0-6.0-6.10","3443342","co37561","norming","","","{""aha"":5}","[0]","../img/tt/599tt.jpg","",""
"null","<div style=""font-size:60px;""> </div>","null","fixation","html-keyboard-response","83","457414","0.0-6.0-0.11","3443342","co37561","norming","","","","","","",""
"null","../img/tt/1226tt.jpg","null","mooney1","image-keyboard-response","84","460420","0.0-6.0-1.11","3443342","co37561","norming","","","","","","",""
"6391.57500000007","","","post_mooney1_questions","survey-likert","85","466814","0.0-6.0-2.11","3443342","co37561","norming","","","{""curiosity"":4,""confidence"":4}","[0,1]","../img/tt/1226tt.jpg","",""
"4998.039999999979","","","recognition","survey-text","86","471814","0.0-6.0-3.11","3443342","co37561","norming","","","{""guess"":""Kip""}","","../img/tt/1226tt.jpg","",""
"null","../img/gs/1226gs.jpg","null","reveal","image-keyboard-response","87","473824","0.0-6.0-4.11","3443342","co37561","norming","","","","","","",""
"null","../img/tt/1226tt.jpg","null","mooney2","image-keyboard-response","88","475827","0.0-6.0-5.11","3443342","co37561","norming","","","","","","",""
"5568.565000000002","","","post_reveal_questions","survey-likert","89","481398","0.0-6.0-6.11","3443342","co37561","norming","","","{""aha"":3}","[0]","../img/tt/1226tt.jpg","",""
"null","<div style=""font-size:60px;""> </div>","null","fixation","html-keyboard-response","90","481608","0.0-6.0-0.12","3443342","co37561","norming","","","","","","",""
"null","../img/tt/010tt.jpg","null","mooney1","image-keyboard-response","91","484615","0.0-6.0-1.12","3443342","co37561","norming","","","","","","",""
"16868.565000000002","","","post_mooney1_questions","survey-likert","92","501486","0.0-6.0-2.12","3443342","co37561","norming","","","{""curiosity"":6,""confidence"":0}","[0,1]","../img/tt/010tt.jpg","",""
"1037.7050000000745","","","recognition","survey-text","93","502526","0.0-6.0-3.12","3443342","co37561","norming","","","{""guess"":""""}","","../img/tt/010tt.jpg","",""
"null","../img/gs/010gs.jpg","null","reveal","image-keyboard-response","94","504533","0.0-6.0-4.12","3443342","co37561","norming","","","","","","",""
"null","../img/tt/010tt.jpg","null","mooney2","image-keyboard-response","95","506541","0.0-6.0-5.12","3443342","co37561","norming","","","","","","",""
"3942.6900000000605","","","post_reveal_questions","survey-likert","96","510503","0.0-6.0-6.12","3443342","co37561","norming","","","{""aha"":5}","[0]","../img/tt/010tt.jpg","",""
"null","<div style=""font-size:60px;""> </div>","null","fixation","html-keyboard-response","97","510707","0.0-6.0-0.13","3443342","co37561","norming","","","","","","",""
"null","../img/tt/1107tt.jpg","null","mooney1","image-keyboard-response","98","513711","0.0-6.0-1.13","3443342","co37561","norming","","","","","","",""
"5263.0250000000815","","","post_mooney1_questions","survey-likert","99","518975","0.0-6.0-2.13","3443342","co37561","norming","","","{""curiosity"":5,""confidence"":1}","[0,1]","../img/tt/1107tt.jpg","",""
"6894.140000000014","","","recognition","survey-text","100","525871","0.0-6.0-3.13","3443342","co37561","norming","","","{""guess"":""Vogel""}","","../img/tt/1107tt.jpg","",""
"null","../img/gs/1107gs.jpg","null","reveal","image-keyboard-response","101","527880","0.0-6.0-4.13","3443342","co37561","norming","","","","","","",""
"null","../img/tt/1107tt.jpg","null","mooney2","image-keyboard-response","102","529890","0.0-6.0-5.13","3443342","co37561","norming","","","","","","",""
"4418.410000000033","","","post_reveal_questions","survey-likert","103","534311","0.0-6.0-6.13","3443342","co37561","norming","","","{""aha"":5}","[0]","../img/tt/1107tt.jpg","",""
"null","<div style=""font-size:60px;""> </div>","null","fixation","html-keyboard-response","104","534513","0.0-6.0-0.14","3443342","co37561","norming","","","","","","",""
"null","../img/tt/1086tt.jpg","null","mooney1","image-keyboard-response","105","537518","0.0-6.0-1.14","3443342","co37561","norming","","","","","","",""
"7463.974999999977","","","post_mooney1_questions","survey-likert","106","544983","0.0-6.0-2.14","3443342","co37561","norming","","","{""curiosity"":6,""confidence"":0}","[0,1]","../img/tt/1086tt.jpg","",""
"1174.1200000001118","","","recognition","survey-text","107","546158","0.0-6.0-3.14","3443342","co37561","norming","","","{""guess"":""""}","","../img/tt/1086tt.jpg","",""
"null","../img/gs/1086gs.jpg","null","reveal","image-keyboard-response","108","548160","0.0-6.0-4.14","3443342","co37561","norming","","","","","","",""
"null","../img/tt/1086tt.jpg","null","mooney2","image-keyboard-response","109","550170","0.0-6.0-5.14","3443342","co37561","norming","","","","","","",""
"6410.635000000126","","","post_reveal_questions","survey-likert","110","556582","0.0-6.0-6.14","3443342","co37561","norming","","","{""aha"":2}","[0]","../img/tt/1086tt.jpg","",""
"null","<div style=""font-size:60px;""> </div>","null","fixation","html-keyboard-response","111","556785","0.0-6.0-0.15","3443342","co37561","norming","","","","","","",""
"null","../img/tt/013tt.jpg","null","mooney1","image-keyboard-response","112","559793","0.0-6.0-1.15","3443342","co37561","norming","","","","","","",""
"5835.425000000047","","","post_mooney1_questions","survey-likert","113","565630","0.0-6.0-2.15","3443342","co37561","norming","","","{""curiosity"":5,""confidence"":0}","[0,1]","../img/tt/013tt.jpg","",""
"1478.375","","","recognition","survey-text","114","567110","0.0-6.0-3.15","3443342","co37561","norming","","","{""guess"":""""}","","../img/tt/013tt.jpg","",""
"null","../img/gs/013gs.jpg","null","reveal","image-keyboard-response","115","569114","0.0-6.0-4.15","3443342","co37561","norming","","","","","","",""
"null","../img/tt/013tt.jpg","null","mooney2","image-keyboard-response","116","571125","0.0-6.0-5.15","3443342","co37561","norming","","","","","","",""
"5519.8450000000885","","","post_reveal_questions","survey-likert","117","576647","0.0-6.0-6.15","3443342","co37561","norming","","","{""aha"":5}","[0]","../img/tt/013tt.jpg","",""
"null","<div style=""font-size:60px;""> </div>","null","fixation","html-keyboard-response","118","576856","0.0-6.0-0.16","3443342","co37561","norming","","","","","","",""
"null","../img/tt/052tt.jpg","null","mooney1","image-keyboard-response","119","579863","0.0-6.0-1.16","3443342","co37561","norming","","","","","","",""
"5317.469999999972","","","post_mooney1_questions","survey-likert","120","585183","0.0-6.0-2.16","3443342","co37561","norming","","","{""curiosity"":5,""confidence"":3}","[0,1]","../img/tt/052tt.jpg","",""
"3742.1199999999953","","","recognition","survey-text","121","588927","0.0-6.0-3.16","3443342","co37561","norming","","","{""guess"":""Broodje""}","","../img/tt/052tt.jpg","",""
"null","../img/gs/052gs.jpg","null","reveal","image-keyboard-response","122","590929","0.0-6.0-4.16","3443342","co37561","norming","","","","","","",""
"null","../img/tt/052tt.jpg","null","mooney2","image-keyboard-response","123","592938","0.0-6.0-5.16","3443342","co37561","norming","","","","","","",""
"4098.895000000019","","","post_reveal_questions","survey-likert","124","597039","0.0-6.0-6.16","3443342","co37561","norming","","","{""aha"":4}","[0]","../img/tt/052tt.jpg","",""
"null","<div style=""font-size:60px;""> </div>","null","fixation","html-keyboard-response","125","597245","0.0-6.0-0.17","3443342","co37561","norming","","","","","","",""
"null","../img/tt/019tt.jpg","null","mooney1","image-keyboard-response","126","600253","0.0-6.0-1.17","3443342","co37561","norming","","","","","","",""
"5015.354999999981","","","post_mooney1_questions","survey-likert","127","605271","0.0-6.0-2.17","3443342","co37561","norming","","","{""curiosity"":4,""confidence"":4}","[0,1]","../img/tt/019tt.jpg","",""
"3165.905000000028","","","recognition","survey-text","128","608439","0.0-6.0-3.17","3443342","co37561","norming","","","{""guess"":""Tang""}","","../img/tt/019tt.jpg","",""
"null","../img/gs/019gs.jpg","null","reveal","image-keyboard-response","129","610448","0.0-6.0-4.17","3443342","co37561","norming","","","","","","",""
"null","../img/tt/019tt.jpg","null","mooney2","image-keyboard-response","130","612451","0.0-6.0-5.17","3443342","co37561","norming","","","","","","",""
"4489.614999999991","","","post_reveal_questions","survey-likert","131","616943","0.0-6.0-6.17","3443342","co37561","norming","","","{""aha"":0}","[0]","../img/tt/019tt.jpg","",""
"null","<div style=""font-size:60px;""> </div>","null","fixation","html-keyboard-response","132","617145","0.0-6.0-0.18","3443342","co37561","norming","","","","","","",""
"null","../img/tt/1242tt.jpg","null","mooney1","image-keyboard-response","133","620150","0.0-6.0-1.18","3443342","co37561","norming","","","","","","",""
"16782.040000000037","","","post_mooney1_questions","survey-likert","134","636935","0.0-6.0-2.18","3443342","co37561","norming","","","{""curiosity"":5,""confidence"":1}","[0,1]","../img/tt/1242tt.jpg","",""
"5325.755000000121","","","recognition","survey-text","135","642262","0.0-6.0-3.18","3443342","co37561","norming","","","{""guess"":""Plant""}","","../img/tt/1242tt.jpg","",""
"null","../img/gs/1242gs.jpg","null","reveal","image-keyboard-response","136","644264","0.0-6.0-4.18","3443342","co37561","norming","","","","","","",""
"null","../img/tt/1242tt.jpg","null","mooney2","image-keyboard-response","137","646271","0.0-6.0-5.18","3443342","co37561","norming","","","","","","",""
"3525.2449999999953","","","post_reveal_questions","survey-likert","138","649798","0.0-6.0-6.18","3443342","co37561","norming","","","{""aha"":3}","[0]","../img/tt/1242tt.jpg","",""
"null","<div style=""font-size:60px;""> </div>","null","fixation","html-keyboard-response","139","650000","0.0-6.0-0.19","3443342","co37561","norming","","","","","","",""
"null","../img/tt/085tt.jpg","null","mooney1","image-keyboard-response","140","653011","0.0-6.0-1.19","3443342","co37561","norming","","","","","","",""
"6369.344999999856","","","post_mooney1_questions","survey-likert","141","659383","0.0-6.0-2.19","3443342","co37561","norming","","","{""curiosity"":5,""confidence"":1}","[0,1]","../img/tt/085tt.jpg","",""
"3094.105000000098","","","recognition","survey-text","142","662478","0.0-6.0-3.19","3443342","co37561","norming","","","{""guess"":""Kikker""}","","../img/tt/085tt.jpg","",""
"null","../img/gs/085gs.jpg","null","reveal","image-keyboard-response","143","664480","0.0-6.0-4.19","3443342","co37561","norming","","","","","","",""
"null","../img/tt/085tt.jpg","null","mooney2","image-keyboard-response","144","666491","0.0-6.0-5.19","3443342","co37561","norming","","","","","","",""
"4457.530000000028","","","post_reveal_questions","survey-likert","145","670950","0.0-6.0-6.19","3443342","co37561","norming","","","{""aha"":2}","[0]","../img/tt/085tt.jpg","",""
"null","<div style=""font-size:60px;""> </div>","null","fixation","html-keyboard-response","146","671152","0.0-6.0-0.20","3443342","co37561","norming","","","","","","",""
"null","../img/tt/1278tt.jpg","null","mooney1","image-keyboard-response","147","674161","0.0-6.0-1.20","3443342","co37561","norming","","","","","","",""
"4298.8150000000605","","","post_mooney1_questions","survey-likert","148","678463","0.0-6.0-2.20","3443342","co37561","norming","","","{""curiosity"":5,""confidence"":1}","[0,1]","../img/tt/1278tt.jpg","",""
"3414.0050000000047","","","recognition","survey-text","149","681878","0.0-6.0-3.20","3443342","co37561","norming","","","{""guess"":""Zwaan""}","","../img/tt/1278tt.jpg","",""
"null","../img/gs/1278gs.jpg","null","reveal","image-keyboard-response","150","683889","0.0-6.0-4.20","3443342","co37561","norming","","","","","","",""
"null","../img/tt/1278tt.jpg","null","mooney2","image-keyboard-response","151","685892","0.0-6.0-5.20","3443342","co37561","norming","","","","","","",""
"5311.7949999999255","","","post_reveal_questions","survey-likert","152","691206","0.0-6.0-6.20","3443342","co37561","norming","","","{""aha"":3}","[0]","../img/tt/1278tt.jpg","",""
"null","<div style=""font-size:60px;""> </div>","null","fixation","html-keyboard-response","153","691414","0.0-6.0-0.21","3443342","co37561","norming","","","","","","",""
"null","../img/tt/135tt.jpg","null","mooney1","image-keyboard-response","154","694421","0.0-6.0-1.21","3443342","co37561","norming","","","","","","",""
"7510.694999999949","","","post_mooney1_questions","survey-likert","155","701926","0.0-6.0-2.21","3443342","co37561","norming","","","{""curiosity"":2,""confidence"":5}","[0,1]","../img/tt/135tt.jpg","",""
"4253.505000000005","","","recognition","survey-text","156","706181","0.0-6.0-3.21","3443342","co37561","norming","","","{""guess"":""toilet""}","","../img/tt/135tt.jpg","",""
"null","../img/gs/135gs.jpg","null","reveal","image-keyboard-response","157","708185","0.0-6.0-4.21","3443342","co37561","norming","","","","","","",""
"null","../img/tt/135tt.jpg","null","mooney2","image-keyboard-response","158","710187","0.0-6.0-5.21","3443342","co37561","norming","","","","","","",""
"4216.125","","","post_reveal_questions","survey-likert","159","714405","0.0-6.0-6.21","3443342","co37561","norming","","","{""aha"":0}","[0]","../img/tt/135tt.jpg","",""
"null","<div style=""font-size:60px;""> </div>","null","fixation","html-keyboard-response","160","714614","0.0-6.0-0.22","3443342","co37561","norming","","","","","","",""
"null","../img/tt/056tt.jpg","null","mooney1","image-keyboard-response","161","717625","0.0-6.0-1.22","3443342","co37561","norming","","","","","","",""
"4467.959999999846","","","post_mooney1_questions","survey-likert","162","722094","0.0-6.0-2.22","3443342","co37561","norming","","","{""curiosity"":5,""confidence"":0}","[0,1]","../img/tt/056tt.jpg","",""
"1374","","","recognition","survey-text","163","723469","0.0-6.0-3.22","3443342","co37561","norming","","","{""guess"":""""}","","../img/tt/056tt.jpg","",""
"null","../img/gs/056gs.jpg","null","reveal","image-keyboard-response","164","725480","0.0-6.0-4.22","3443342","co37561","norming","","","","","","",""
"null","../img/tt/056tt.jpg","null","mooney2","image-keyboard-response","165","727487","0.0-6.0-5.22","3443342","co37561","norming","","","","","","",""
"3484.2299999999814","","","post_reveal_questions","survey-likert","166","730973","0.0-6.0-6.22","3443342","co37561","norming","","","{""aha"":4}","[0]","../img/tt/056tt.jpg","",""
"null","<div style=""font-size:60px;""> </div>","null","fixation","html-keyboard-response","167","731176","0.0-6.0-0.23","3443342","co37561","norming","","","","","","",""
"null","../img/tt/1125tt.jpg","null","mooney1","image-keyboard-response","168","734184","0.0-6.0-1.23","3443342","co37561","norming","","","","","","",""
"8123.489999999991","","","post_mooney1_questions","survey-likert","169","742310","0.0-6.0-2.23","3443342","co37561","norming","","","{""curiosity"":5,""confidence"":1}","[0,1]","../img/tt/1125tt.jpg","",""
"2990.2449999999953","","","recognition","survey-text","170","745302","0.0-6.0-3.23","3443342","co37561","norming","","","{""guess"":""Kind""}","","../img/tt/1125tt.jpg","",""
"null","../img/gs/1125gs.jpg","null","reveal","image-keyboard-response","171","747311","0.0-6.0-4.23","3443342","co37561","norming","","","","","","",""
"null","../img/tt/1125tt.jpg","null","mooney2","image-keyboard-response","172","749317","0.0-6.0-5.23","3443342","co37561","norming","","","","","","",""
"2638.155000000028","","","post_reveal_questions","survey-likert","173","751958","0.0-6.0-6.23","3443342","co37561","norming","","","{""aha"":5}","[0]","../img/tt/1125tt.jpg","",""
"null","<div style=""font-size:60px;""> </div>","null","fixation","html-keyboard-response","174","752163","0.0-6.0-0.24","3443342","co37561","norming","","","","","","",""
"null","../img/tt/1084tt.jpg","null","mooney1","image-keyboard-response","175","755171","0.0-6.0-1.24","3443342","co37561","norming","","","","","","",""
"7239.775000000023","","","post_mooney1_questions","survey-likert","176","762420","0.0-6.0-2.24","3443342","co37561","norming","","","{""curiosity"":4,""confidence"":3}","[0,1]","../img/tt/1084tt.jpg","",""
"3590.0500000000466","","","recognition","survey-text","177","766012","0.0-6.0-3.24","3443342","co37561","norming","","","{""guess"":""Taart""}","","../img/tt/1084tt.jpg","",""
"null","../img/gs/1084gs.jpg","null","reveal","image-keyboard-response","178","768019","0.0-6.0-4.24","3443342","co37561","norming","","","","","","",""
"null","../img/tt/1084tt.jpg","null","mooney2","image-keyboard-response","179","770022","0.0-6.0-5.24","3443342","co37561","norming","","","","","","",""
"3924.100000000093","","","post_reveal_questions","survey-likert","180","773948","0.0-6.0-6.24","3443342","co37561","norming","","","{""aha"":0}","[0]","../img/tt/1084tt.jpg","",""
"null","<div style=""font-size:60px;""> </div>","null","fixation","html-keyboard-response","181","774157","0.0-6.0-0.25","3443342","co37561","norming","","","","","","",""
"null","../img/tt/300tt.jpg","null","mooney1","image-keyboard-response","182","777160","0.0-6.0-1.25","3443342","co37561","norming","","","","","","",""
"12242.025000000023","","","post_mooney1_questions","survey-likert","183","789404","0.0-6.0-2.25","3443342","co37561","norming","","","{""curiosity"":4,""confidence"":3}","[0,1]","../img/tt/300tt.jpg","",""
"4406.110000000102","","","recognition","survey-text","184","793812","0.0-6.0-3.25","3443342","co37561","norming","","","{""guess"":""Kajakken""}","","../img/tt/300tt.jpg","",""
"null","../img/gs/300gs.jpg","null","reveal","image-keyboard-response","185","795815","0.0-6.0-4.25","3443342","co37561","norming","","","","","","",""
"null","../img/tt/300tt.jpg","null","mooney2","image-keyboard-response","186","797817","0.0-6.0-5.25","3443342","co37561","norming","","","","","","",""
"5080.600000000093","","","post_reveal_questions","survey-likert","187","802900","0.0-6.0-6.25","3443342","co37561","norming","","","{""aha"":4}","[0]","../img/tt/300tt.jpg","",""
"null","<div style=""font-size:60px;""> </div>","null","fixation","html-keyboard-response","188","803107","0.0-6.0-0.26","3443342","co37561","norming","","","","","","",""
"null","../img/tt/1227tt.jpg","null","mooney1","image-keyboard-response","189","806111","0.0-6.0-1.26","3443342","co37561","norming","","","","","","",""
"9786.68499999994","","","post_mooney1_questions","survey-likert","190","815900","0.0-6.0-2.26","3443342","co37561","norming","","","{""curiosity"":6,""confidence"":1}","[0,1]","../img/tt/1227tt.jpg","",""
"13070.14000000013","","","recognition","survey-text","191","828972","0.0-6.0-3.26","3443342","co37561","norming","","","{""guess"":""Balsport""}","","../img/tt/1227tt.jpg","",""
"null","../img/gs/1227gs.jpg","null","reveal","image-keyboard-response","192","830981","0.0-6.0-4.26","3443342","co37561","norming","","","","","","",""
"null","../img/tt/1227tt.jpg","null","mooney2","image-keyboard-response","193","832991","0.0-6.0-5.26","3443342","co37561","norming","","","","","","",""
"2802.3000000000466","","","post_reveal_questions","survey-likert","194","835796","0.0-6.0-6.26","3443342","co37561","norming","","","{""aha"":5}","[0]","../img/tt/1227tt.jpg","",""
"null","<div style=""font-size:60px;""> </div>","null","fixation","html-keyboard-response","195","836006","0.0-6.0-0.27","3443342","co37561","norming","","","","","","",""
"null","../img/tt/567tt.jpg","null","mooney1","image-keyboard-response","196","839016","0.0-6.0-1.27","3443342","co37561","norming","","","","","","",""
"10289.605000000098","","","post_mooney1_questions","survey-likert","197","849308","0.0-6.0-2.27","3443342","co37561","norming","","","{""curiosity"":2,""confidence"":5}","[0,1]","../img/tt/567tt.jpg","",""
"4517.929999999935","","","recognition","survey-text","198","853828","0.0-6.0-3.27","3443342","co37561","norming","","","{""guess"":""Broodrooster""}","","../img/tt/567tt.jpg","",""
"null","../img/gs/567gs.jpg","null","reveal","image-keyboard-response","199","855830","0.0-6.0-4.27","3443342","co37561","norming","","","","","","",""
"null","../img/tt/567tt.jpg","null","mooney2","image-keyboard-response","200","857841","0.0-6.0-5.27","3443342","co37561","norming","","","","","","",""
"3720.7550000000047","","","post_reveal_questions","survey-likert","201","861564","0.0-6.0-6.27","3443342","co37561","norming","","","{""aha"":0}","[0]","../img/tt/567tt.jpg","",""
"null","<div style=""font-size:60px;""> </div>","null","fixation","html-keyboard-response","202","861774","0.0-6.0-0.28","3443342","co37561","norming","","","","","","",""
"null","../img/tt/1239tt.jpg","null","mooney1","image-keyboard-response","203","864782","0.0-6.0-1.28","3443342","co37561","norming","","","","","","",""
"6891.239999999874","","","post_mooney1_questions","survey-likert","204","871676","0.0-6.0-2.28","3443342","co37561","norming","","","{""curiosity"":5,""confidence"":1}","[0,1]","../img/tt/1239tt.jpg","",""
"3069.780000000028","","","recognition","survey-text","205","874748","0.0-6.0-3.28","3443342","co37561","norming","","","{""guess"":""Wolf""}","","../img/tt/1239tt.jpg","",""
"null","../img/gs/1239gs.jpg","null","reveal","image-keyboard-response","206","876752","0.0-6.0-4.28","3443342","co37561","norming","","","","","","",""
"null","../img/tt/1239tt.jpg","null","mooney2","image-keyboard-response","207","878762","0.0-6.0-5.28","3443342","co37561","norming","","","","","","",""
"5351.895000000019","","","post_reveal_questions","survey-likert","208","884116","0.0-6.0-6.28","3443342","co37561","norming","","","{""aha"":3}","[0]","../img/tt/1239tt.jpg","",""
"null","<div style=""font-size:60px;""> </div>","null","fixation","html-keyboard-response","209","884320","0.0-6.0-0.29","3443342","co37561","norming","","","","","","",""
"null","../img/tt/1116tt.jpg","null","mooney1","image-keyboard-response","210","887333","0.0-6.0-1.29","3443342","co37561","norming","","","","","","",""
"7504.564999999944","","","post_mooney1_questions","survey-likert","211","894839","0.0-6.0-2.29","3443342","co37561","norming","","","{""curiosity"":5,""confidence"":1}","[0,1]","../img/tt/1116tt.jpg","",""
"4773.32500000007","","","recognition","survey-text","212","899614","0.0-6.0-3.29","3443342","co37561","norming","","","{""guess"":""Speeltuin""}","","../img/tt/1116tt.jpg","",""
"null","../img/gs/1116gs.jpg","null","reveal","image-keyboard-response","213","901615","0.0-6.0-4.29","3443342","co37561","norming","","","","","","",""
"null","../img/tt/1116tt.jpg","null","mooney2","image-keyboard-response","214","903623","0.0-6.0-5.29","3443342","co37561","norming","","","","","","",""
"4431.359999999986","","","post_reveal_questions","survey-likert","215","908055","0.0-6.0-6.29","3443342","co37561","norming","","","{""aha"":4}","[0]","../img/tt/1116tt.jpg","",""
"null","<div style=""font-size:60px;""> </div>","null","fixation","html-keyboard-response","216","908264","0.0-6.0-0.30","3443342","co37561","norming","","","","","","",""
"null","../img/tt/603tt.jpg","null","mooney1","image-keyboard-response","217","911271","0.0-6.0-1.30","3443342","co37561","norming","","","","","","",""
"8958.689999999944","","","post_mooney1_questions","survey-likert","218","920231","0.0-6.0-2.30","3443342","co37561","norming","","","{""curiosity"":3,""confidence"":3}","[0,1]","../img/tt/603tt.jpg","",""
"2781.9799999999814","","","recognition","survey-text","219","923015","0.0-6.0-3.30","3443342","co37561","norming","","","{""guess"":""Kat""}","","../img/tt/603tt.jpg","",""
"null","../img/gs/603gs.jpg","null","reveal","image-keyboard-response","220","925022","0.0-6.0-4.30","3443342","co37561","norming","","","","","","",""
"null","../img/tt/603tt.jpg","null","mooney2","image-keyboard-response","221","927028","0.0-6.0-5.30","3443342","co37561","norming","","","","","","",""
"3449.179999999935","","","post_reveal_questions","survey-likert","222","930479","0.0-6.0-6.30","3443342","co37561","norming","","","{""aha"":0}","[0]","../img/tt/603tt.jpg","",""
"null","<div style=""font-size:60px;""> </div>","null","fixation","html-keyboard-response","223","930684","0.0-6.0-0.31","3443342","co37561","norming","","","","","","",""
"null","../img/tt/456tt.jpg","null","mooney1","image-keyboard-response","224","933693","0.0-6.0-1.31","3443342","co37561","norming","","","","","","",""
"6729.01500000013","","","post_mooney1_questions","survey-likert","225","940423","0.0-6.0-2.31","3443342","co37561","norming","","","{""curiosity"":4,""confidence"":2}","[0,1]","../img/tt/456tt.jpg","",""
"2942.144999999902","","","recognition","survey-text","226","943367","0.0-6.0-3.31","3443342","co37561","norming","","","{""guess"":""Vis""}","","../img/tt/456tt.jpg","",""
"null","../img/gs/456gs.jpg","null","reveal","image-keyboard-response","227","945370","0.0-6.0-4.31","3443342","co37561","norming","","","","","","",""
"null","../img/tt/456tt.jpg","null","mooney2","image-keyboard-response","228","947378","0.0-6.0-5.31","3443342","co37561","norming","","","","","","",""
"4132.944999999832","","","post_reveal_questions","survey-likert","229","951513","0.0-6.0-6.31","3443342","co37561","norming","","","{""aha"":4}","[0]","../img/tt/456tt.jpg","",""
"null","<div style=""font-size:60px;""> </div>","null","fixation","html-keyboard-response","230","951716","0.0-6.0-0.32","3443342","co37561","norming","","","","","","",""
"null","../img/tt/517tt.jpg","null","mooney1","image-keyboard-response","231","954719","0.0-6.0-1.32","3443342","co37561","norming","","","","","","",""
"4720.770000000135","","","post_mooney1_questions","survey-likert","232","959441","0.0-6.0-2.32","3443342","co37561","norming","","","{""curiosity"":4,""confidence"":2}","[0,1]","../img/tt/517tt.jpg","",""
"2725.859999999986","","","recognition","survey-text","233","962168","0.0-6.0-3.32","3443342","co37561","norming","","","{""guess"":""Beer""}","","../img/tt/517tt.jpg","",""
"null","../img/gs/517gs.jpg","null","reveal","image-keyboard-response","234","964172","0.0-6.0-4.32","3443342","co37561","norming","","","","","","",""
"null","../img/tt/517tt.jpg","null","mooney2","image-keyboard-response","235","966179","0.0-6.0-5.32","3443342","co37561","norming","","","","","","",""
"6164.635000000126","","","post_reveal_questions","survey-likert","236","972345","0.0-6.0-6.32","3443342","co37561","norming","","","{""aha"":3}","[0]","../img/tt/517tt.jpg","",""
"null","<div style=""font-size:60px;""> </div>","null","fixation","html-keyboard-response","237","972550","0.0-6.0-0.33","3443342","co37561","norming","","","","","","",""
"null","../img/tt/1353tt.jpg","null","mooney1","image-keyboard-response","238","975558","0.0-6.0-1.33","3443342","co37561","norming","","","","","","",""
"13441.409999999916","","","post_mooney1_questions","survey-likert","239","989001","0.0-6.0-2.33","3443342","co37561","norming","","","{""curiosity"":4,""confidence"":1}","[0,1]","../img/tt/1353tt.jpg","",""
"8845.959999999846","","","recognition","survey-text","240","997849","0.0-6.0-3.33","3443342","co37561","norming","","","{""guess"":""Gereedschapskist""}","","../img/tt/1353tt.jpg","",""
"null","../img/gs/1353gs.jpg","null","reveal","image-keyboard-response","241","999850","0.0-6.0-4.33","3443342","co37561","norming","","","","","","",""
"null","../img/tt/1353tt.jpg","null","mooney2","image-keyboard-response","242","1001854","0.0-6.0-5.33","3443342","co37561","norming","","","","","","",""
"5825.29999999993","","","post_reveal_questions","survey-likert","243","1007675","0.0-6.0-6.33","3443342","co37561","norming","","","{""aha"":1}","[0]","../img/tt/1353tt.jpg","",""
"null","<div style=""font-size:60px;""> </div>","null","fixation","html-keyboard-response","244","1007883","0.0-6.0-0.34","3443342","co37561","norming","","","","","","",""
"null","../img/tt/1053tt.jpg","null","mooney1","image-keyboard-response","245","1010890","0.0-6.0-1.34","3443342","co37561","norming","","","","","","",""
"8344.58500000008","","","post_mooney1_questions","survey-likert","246","1019235","0.0-6.0-2.34","3443342","co37561","norming","","","{""curiosity"":4,""confidence"":1}","[0,1]","../img/tt/1053tt.jpg","",""
"2918.185000000056","","","recognition","survey-text","247","1022155","0.0-6.0-3.34","3443342","co37561","norming","","","{""guess"":""Koe""}","","../img/tt/1053tt.jpg","",""
"null","../img/gs/1053gs.jpg","null","reveal","image-keyboard-response","248","1024158","0.0-6.0-4.34","3443342","co37561","norming","","","","","","",""
"null","../img/tt/1053tt.jpg","null","mooney2","image-keyboard-response","249","1026160","0.0-6.0-5.34","3443342","co37561","norming","","","","","","",""
"5714.090000000084","","","post_reveal_questions","survey-likert","250","1031875","0.0-6.0-6.34","3443342","co37561","norming","","","{""aha"":3}","[0]","../img/tt/1053tt.jpg","",""
"null","<div style=""font-size:60px;""> </div>","null","fixation","html-keyboard-response","251","1032080","0.0-6.0-0.35","3443342","co37561","norming","","","","","","",""
"null","../img/tt/1066tt.jpg","null","mooney1","image-keyboard-response","252","1035087","0.0-6.0-1.35","3443342","co37561","norming","","","","","","",""
"11810.154999999912","","","post_mooney1_questions","survey-likert","253","1046900","0.0-6.0-2.35","3443342","co37561","norming","","","{""curiosity"":2,""confidence"":2}","[0,1]","../img/tt/1066tt.jpg","",""
"10893.949999999837","","","recognition","survey-text","254","1057795","0.0-6.0-3.35","3443342","co37561","norming","","","{""guess"":""Voertuig""}","","../img/tt/1066tt.jpg","",""
"null","../img/gs/1066gs.jpg","null","reveal","image-keyboard-response","255","1059804","0.0-6.0-4.35","3443342","co37561","norming","","","","","","",""
"null","../img/tt/1066tt.jpg","null","mooney2","image-keyboard-response","256","1061814","0.0-6.0-5.35","3443342","co37561","norming","","","","","","",""
"4234.800000000047","","","post_reveal_questions","survey-likert","257","1066051","0.0-6.0-6.35","3443342","co37561","norming","","","{""aha"":2}","[0]","../img/tt/1066tt.jpg","",""
"null","<div style=""font-size:60px;""> </div>","null","fixation","html-keyboard-response","258","1066254","0.0-6.0-0.36","3443342","co37561","norming","","","","","","",""
"null","../img/tt/1156tt.jpg","null","mooney1","image-keyboard-response","259","1069270","0.0-6.0-1.36","3443342","co37561","norming","","","","","","",""
"10292.944999999832","","","post_mooney1_questions","survey-likert","260","1079567","0.0-6.0-2.36","3443342","co37561","norming","","","{""curiosity"":4,""confidence"":4}","[0,1]","../img/tt/1156tt.jpg","",""
"5165.979999999981","","","recognition","survey-text","261","1084735","0.0-6.0-3.36","3443342","co37561","norming","","","{""guess"":""Zwemmen""}","","../img/tt/1156tt.jpg","",""
"null","../img/gs/1156gs.jpg","null","reveal","image-keyboard-response","262","1086739","0.0-6.0-4.36","3443342","co37561","norming","","","","","","",""
"null","../img/tt/1156tt.jpg","null","mooney2","image-keyboard-response","263","1088746","0.0-6.0-5.36","3443342","co37561","norming","","","","","","",""
"5378.704999999842","","","post_reveal_questions","survey-likert","264","1094127","0.0-6.0-6.36","3443342","co37561","norming","","","{""aha"":1}","[0]","../img/tt/1156tt.jpg","",""
"null","<div style=""font-size:60px;""> </div>","null","fixation","html-keyboard-response","265","1094330","0.0-6.0-0.37","3443342","co37561","norming","","","","","","",""
"null","../img/tt/1122tt.jpg","null","mooney1","image-keyboard-response","266","1097341","0.0-6.0-1.37","3443342","co37561","norming","","","","","","",""
"5135.060000000056","","","post_mooney1_questions","survey-likert","267","1102479","0.0-6.0-2.37","3443342","co37561","norming","","","{""curiosity"":4,""confidence"":1}","[0,1]","../img/tt/1122tt.jpg","",""
"5902.15000000014","","","recognition","survey-text","268","1108383","0.0-6.0-3.37","3443342","co37561","norming","","","{""guess"":""Boten""}","","../img/tt/1122tt.jpg","",""
"null","../img/gs/1122gs.jpg","null","reveal","image-keyboard-response","269","1110390","0.0-6.0-4.37","3443342","co37561","norming","","","","","","",""
"null","../img/tt/1122tt.jpg","null","mooney2","image-keyboard-response","270","1112393","0.0-6.0-5.37","3443342","co37561","norming","","","","","","",""
"4035.844999999972","","","post_reveal_questions","survey-likert","271","1116431","0.0-6.0-6.37","3443342","co37561","norming","","","{""aha"":1}","[0]","../img/tt/1122tt.jpg","",""
"null","<div style=""font-size:60px;""> </div>","null","fixation","html-keyboard-response","272","1116632","0.0-6.0-0.38","3443342","co37561","norming","","","","","","",""
"null","../img/tt/084tt.jpg","null","mooney1","image-keyboard-response","273","1119643","0.0-6.0-1.38","3443342","co37561","norming","","","","","","",""
"5011.090000000084","","","post_mooney1_questions","survey-likert","274","1124655","0.0-6.0-2.38","3443342","co37561","norming","","","{""curiosity"":3,""confidence"":5}","[0,1]","../img/tt/084tt.jpg","",""
"3293.8599999998696","","","recognition","survey-text","275","1127951","0.0-6.0-3.38","3443342","co37561","norming","","","{""guess"":""Pauw""}","","../img/tt/084tt.jpg","",""
"null","../img/gs/084gs.jpg","null","reveal","image-keyboard-response","276","1129958","0.0-6.0-4.38","3443342","co37561","norming","","","","","","",""
"null","../img/tt/084tt.jpg","null","mooney2","image-keyboard-response","277","1131969","0.0-6.0-5.38","3443342","co37561","norming","","","","","","",""
"4807.090000000084","","","post_reveal_questions","survey-likert","278","1136778","0.0-6.0-6.38","3443342","co37561","norming","","","{""aha"":3}","[0]","../img/tt/084tt.jpg","",""
"null","<div style=""font-size:60px;""> </div>","null","fixation","html-keyboard-response","279","1136982","0.0-6.0-0.39","3443342","co37561","norming","","","","","","",""
"null","../img/tt/1128tt.jpg","null","mooney1","image-keyboard-response","280","1139984","0.0-6.0-1.39","3443342","co37561","norming","","","","","","",""
"7670.835000000196","","","post_mooney1_questions","survey-likert","281","1147658","0.0-6.0-2.39","3443342","co37561","norming","","","{""curiosity"":5,""confidence"":0}","[0,1]","../img/tt/1128tt.jpg","",""
"894.2299999999814","","","recognition","survey-text","282","1148554","0.0-6.0-3.39","3443342","co37561","norming","","","{""guess"":""""}","","../img/tt/1128tt.jpg","",""
"null","../img/gs/1128gs.jpg","null","reveal","image-keyboard-response","283","1150555","0.0-6.0-4.39","3443342","co37561","norming","","","","","","",""
"null","../img/tt/1128tt.jpg","null","mooney2","image-keyboard-response","284","1152560","0.0-6.0-5.39","3443342","co37561","norming","","","","","","",""
"5728.905000000028","","","post_reveal_questions","survey-likert","285","1158290","0.0-6.0-6.39","3443342","co37561","norming","","","{""aha"":5}","[0]","../img/tt/1128tt.jpg","",""
"null","<div style=""font-size:60px;""> </div>","null","fixation","html-keyboard-response","286","1158493","0.0-6.0-0.40","3443342","co37561","norming","","","","","","",""
"null","../img/tt/416tt.jpg","null","mooney1","image-keyboard-response","287","1161501","0.0-6.0-1.40","3443342","co37561","norming","","","","","","",""
"8108.020000000019","","","post_mooney1_questions","survey-likert","288","1169610","0.0-6.0-2.40","3443342","co37561","norming","","","{""curiosity"":4,""confidence"":1}","[0,1]","../img/tt/416tt.jpg","",""
"7006.215000000084","","","recognition","survey-text","289","1176618","0.0-6.0-3.40","3443342","co37561","norming","","","{""guess"":""Vogel""}","","../img/tt/416tt.jpg","",""
"null","../img/gs/416gs.jpg","null","reveal","image-keyboard-response","290","1178622","0.0-6.0-4.40","3443342","co37561","norming","","","","","","",""
"null","../img/tt/416tt.jpg","null","mooney2","image-keyboard-response","291","1180632","0.0-6.0-5.40","3443342","co37561","norming","","","","","","",""
"4791.520000000019","","","post_reveal_questions","survey-likert","292","1185426","0.0-6.0-6.40","3443342","co37561","norming","","","{""aha"":4}","[0]","../img/tt/416tt.jpg","",""
"null","<div style=""font-size:60px;""> </div>","null","fixation","html-keyboard-response","293","1185628","0.0-6.0-0.41","3443342","co37561","norming","","","","","","",""
"null","../img/tt/515tt.jpg","null","mooney1","image-keyboard-response","294","1188636","0.0-6.0-1.41","3443342","co37561","norming","","","","","","",""
"5317.415000000037","","","post_mooney1_questions","survey-likert","295","1193957","0.0-6.0-2.41","3443342","co37561","norming","","","{""curiosity"":5,""confidence"":0}","[0,1]","../img/tt/515tt.jpg","",""
"1894.190000000177","","","recognition","survey-text","296","1195853","0.0-6.0-3.41","3443342","co37561","norming","","","{""guess"":""""}","","../img/tt/515tt.jpg","",""
"null","../img/gs/515gs.jpg","null","reveal","image-keyboard-response","297","1197861","0.0-6.0-4.41","3443342","co37561","norming","","","","","","",""
"null","../img/tt/515tt.jpg","null","mooney2","image-keyboard-response","298","1199871","0.0-6.0-5.41","3443342","co37561","norming","","","","","","",""
"6348.574999999953","","","post_reveal_questions","survey-likert","299","1206221","0.0-6.0-6.41","3443342","co37561","norming","","","{""aha"":2}","[0]","../img/tt/515tt.jpg","",""
"null","<div style=""font-size:60px;""> </div>","null","fixation","html-keyboard-response","300","1206427","0.0-6.0-0.42","3443342","co37561","norming","","","","","","",""
"null","../img/tt/1228tt.jpg","null","mooney1","image-keyboard-response","301","1209434","0.0-6.0-1.42","3443342","co37561","norming","","","","","","",""
"13665.679999999702","","","post_mooney1_questions","survey-likert","302","1223102","0.0-6.0-2.42","3443342","co37561","norming","","","{""curiosity"":4,""confidence"":1}","[0,1]","../img/tt/1228tt.jpg","",""
"2789.9399999997113","","","recognition","survey-text","303","1225893","0.0-6.0-3.42","3443342","co37561","norming","","","{""guess"":""Hert""}","","../img/tt/1228tt.jpg","",""
"null","../img/gs/1228gs.jpg","null","reveal","image-keyboard-response","304","1227900","0.0-6.0-4.42","3443342","co37561","norming","","","","","","",""
"null","../img/tt/1228tt.jpg","null","mooney2","image-keyboard-response","305","1229902","0.0-6.0-5.42","3443342","co37561","norming","","","","","","",""
"5338.2050000000745","","","post_reveal_questions","survey-likert","306","1235245","0.0-6.0-6.42","3443342","co37561","norming","","","{""aha"":4}","[0]","../img/tt/1228tt.jpg","",""
"null","<div style=""font-size:60px;""> </div>","null","fixation","html-keyboard-response","307","1235455","0.0-6.0-0.43","3443342","co37561","norming","","","","","","",""
"null","../img/tt/273tt.jpg","null","mooney1","image-keyboard-response","308","1238466","0.0-6.0-1.43","3443342","co37561","norming","","","","","","",""
"8903.935000000056","","","post_mooney1_questions","survey-likert","309","1247373","0.0-6.0-2.43","3443342","co37561","norming","","","{""curiosity"":4,""confidence"":1}","[0,1]","../img/tt/273tt.jpg","",""
"5221.779999999795","","","recognition","survey-text","310","1252592","0.0-6.0-3.43","3443342","co37561","norming","","","{""guess"":""Krokodil""}","","../img/tt/273tt.jpg","",""
"null","../img/gs/273gs.jpg","null","reveal","image-keyboard-response","311","1254594","0.0-6.0-4.43","3443342","co37561","norming","","","","","","",""
"null","../img/tt/273tt.jpg","null","mooney2","image-keyboard-response","312","1256602","0.0-6.0-5.43","3443342","co37561","norming","","","","","","",""
"4579.869999999879","","","post_reveal_questions","survey-likert","313","1261184","0.0-6.0-6.43","3443342","co37561","norming","","","{""aha"":3}","[0]","../img/tt/273tt.jpg","",""
"null","<div style=""font-size:60px;""> </div>","null","fixation","html-keyboard-response","314","1261386","0.0-6.0-0.44","3443342","co37561","norming","","","","","","",""
"null","../img/tt/598tt.jpg","null","mooney1","image-keyboard-response","315","1264388","0.0-6.0-1.44","3443342","co37561","norming","","","","","","",""
"12200.95999999973","","","post_mooney1_questions","survey-likert","316","1276592","0.0-6.0-2.44","3443342","co37561","norming","","","{""curiosity"":5,""confidence"":1}","[0,1]","../img/tt/598tt.jpg","",""
"6005.860000000102","","","recognition","survey-text","317","1282600","0.0-6.0-3.44","3443342","co37561","norming","","","{""guess"":""Tijger""}","","../img/tt/598tt.jpg","",""
"null","../img/gs/598gs.jpg","null","reveal","image-keyboard-response","318","1284603","0.0-6.0-4.44","3443342","co37561","norming","","","","","","",""
"null","../img/tt/598tt.jpg","null","mooney2","image-keyboard-response","319","1286610","0.0-6.0-5.44","3443342","co37561","norming","","","","","","",""
"8403.01500000013","","","post_reveal_questions","survey-likert","320","1295016","0.0-6.0-6.44","3443342","co37561","norming","","","{""aha"":2}","[0]","../img/tt/598tt.jpg","",""
"null","<div style=""font-size:60px;""> </div>","null","fixation","html-keyboard-response","321","1295218","0.0-6.0-0.45","3443342","co37561","norming","","","","","","",""
"null","../img/tt/032tt.jpg","null","mooney1","image-keyboard-response","322","1298228","0.0-6.0-1.45","3443342","co37561","norming","","","","","","",""
"9817.165000000037","","","post_mooney1_questions","survey-likert","323","1308048","0.0-6.0-2.45","3443342","co37561","norming","","","{""curiosity"":5,""confidence"":1}","[0,1]","../img/tt/032tt.jpg","",""
"4269.995000000112","","","recognition","survey-text","324","1312326","0.0-6.0-3.45","3443342","co37561","norming","","","{""guess"":""Tanden""}","","../img/tt/032tt.jpg","",""
"null","../img/gs/032gs.jpg","null","reveal","image-keyboard-response","325","1314336","0.0-6.0-4.45","3443342","co37561","norming","","","","","","",""
"null","../img/tt/032tt.jpg","null","mooney2","image-keyboard-response","326","1316346","0.0-6.0-5.45","3443342","co37561","norming","","","","","","",""
"4585.254999999888","","","post_reveal_questions","survey-likert","327","1320934","0.0-6.0-6.45","3443342","co37561","norming","","","{""aha"":4}","[0]","../img/tt/032tt.jpg","",""
"null","<div style=""font-size:60px;""> </div>","null","fixation","html-keyboard-response","328","1321142","0.0-6.0-0.46","3443342","co37561","norming","","","","","","",""
"null","../img/tt/126tt.jpg","null","mooney1","image-keyboard-response","329","1324153","0.0-6.0-1.46","3443342","co37561","norming","","","","","","",""
"22682.085000000196","","","post_mooney1_questions","survey-likert","330","1346838","0.0-6.0-2.46","3443342","co37561","norming","","","{""curiosity"":4,""confidence"":1}","[0,1]","../img/tt/126tt.jpg","",""
"4958.155000000028","","","recognition","survey-text","331","1351798","0.0-6.0-3.46","3443342","co37561","norming","","","{""guess"":""Yoga""}","","../img/tt/126tt.jpg","",""
"null","../img/gs/126gs.jpg","null","reveal","image-keyboard-response","332","1353803","0.0-6.0-4.46","3443342","co37561","norming","","","","","","",""
"null","../img/tt/126tt.jpg","null","mooney2","image-keyboard-response","333","1355806","0.0-6.0-5.46","3443342","co37561","norming","","","","","","",""
"3198.280000000028","","","post_reveal_questions","survey-likert","334","1359006","0.0-6.0-6.46","3443342","co37561","norming","","","{""aha"":1}","[0]","../img/tt/126tt.jpg","",""
"null","<div style=""font-size:60px;""> </div>","null","fixation","html-keyboard-response","335","1359211","0.0-6.0-0.47","3443342","co37561","norming","","","","","","",""
"null","../img/tt/1151tt.jpg","null","mooney1","image-keyboard-response","336","1362223","0.0-6.0-1.47","3443342","co37561","norming","","","","","","",""
"6364.409999999916","","","post_mooney1_questions","survey-likert","337","1368590","0.0-6.0-2.47","3443342","co37561","norming","","","{""curiosity"":5,""confidence"":0}","[0,1]","../img/tt/1151tt.jpg","",""
"1109.755000000121","","","recognition","survey-text","338","1369702","0.0-6.0-3.47","3443342","co37561","norming","","","{""guess"":""""}","","../img/tt/1151tt.jpg","",""
"null","../img/gs/1151gs.jpg","null","reveal","image-keyboard-response","339","1371705","0.0-6.0-4.47","3443342","co37561","norming","","","","","","",""
"null","../img/tt/1151tt.jpg","null","mooney2","image-keyboard-response","340","1373708","0.0-6.0-5.47","3443342","co37561","norming","","","","","","",""
"5121.735000000102","","","post_reveal_questions","survey-likert","341","1378831","0.0-6.0-6.47","3443342","co37561","norming","","","{""aha"":0}","[0]","../img/tt/1151tt.jpg","",""
"null","<div style=""font-size:60px;""> </div>","null","fixation","html-keyboard-response","342","1379040","0.0-6.0-0.48","3443342","co37561","norming","","","","","","",""
"null","../img/tt/049tt.jpg","null","mooney1","image-keyboard-response","343","1382052","0.0-6.0-1.48","3443342","co37561","norming","","","","","","",""
"8640.014999999898","","","post_mooney1_questions","survey-likert","344","1390695","0.0-6.0-2.48","3443342","co37561","norming","","","{""curiosity"":4,""confidence"":1}","[0,1]","../img/tt/049tt.jpg","",""
"8038.010000000009","","","recognition","survey-text","345","1398734","0.0-6.0-3.48","3443342","co37561","norming","","","{""guess"":""Varken""}","","../img/tt/049tt.jpg","",""
"null","../img/gs/049gs.jpg","null","reveal","image-keyboard-response","346","1400742","0.0-6.0-4.48","3443342","co37561","norming","","","","","","",""
"null","../img/tt/049tt.jpg","null","mooney2","image-keyboard-response","347","1402746","0.0-6.0-5.48","3443342","co37561","norming","","","","","","",""
"4826.189999999944","","","post_reveal_questions","survey-likert","348","1407574","0.0-6.0-6.48","3443342","co37561","norming","","","{""aha"":2}","[0]","../img/tt/049tt.jpg","",""
"null","<div style=""font-size:60px;""> </div>","null","fixation","html-keyboard-response","349","1407776","0.0-6.0-0.49","3443342","co37561","norming","","","","","","",""
"null","../img/tt/1102tt.jpg","null","mooney1","image-keyboard-response","350","1410785","0.0-6.0-1.49","3443342","co37561","norming","","","","","","",""
"4403.72499999986","","","post_mooney1_questions","survey-likert","351","1415191","0.0-6.0-2.49","3443342","co37561","norming","","","{""curiosity"":5,""confidence"":1}","[0,1]","../img/tt/1102tt.jpg","",""
"4526.020000000019","","","recognition","survey-text","352","1419718","0.0-6.0-3.49","3443342","co37561","norming","","","{""guess"":""Palmboom""}","","../img/tt/1102tt.jpg","",""
"null","../img/gs/1102gs.jpg","null","reveal","image-keyboard-response","353","1421728","0.0-6.0-4.49","3443342","co37561","norming","","","","","","",""
"null","../img/tt/1102tt.jpg","null","mooney2","image-keyboard-response","354","1423733","0.0-6.0-5.49","3443342","co37561","norming","","","","","","",""
"4600.85999999987","","","post_reveal_questions","survey-likert","355","1428335","0.0-6.0-6.49","3443342","co37561","norming","","","{""aha"":1}","[0]","../img/tt/1102tt.jpg","",""
"null","<div style=""font-size:60px;""> </div>","null","fixation","html-keyboard-response","356","1428539","0.0-6.0-0.50","3443342","co37561","norming","","","","","","",""
"null","../img/tt/064tt.jpg","null","mooney1","image-keyboard-response","357","1431546","0.0-6.0-1.50","3443342","co37561","norming","","","","","","",""
"7904.879999999655","","","post_mooney1_questions","survey-likert","358","1439453","0.0-6.0-2.50","3443342","co37561","norming","","","{""curiosity"":5,""confidence"":1}","[0,1]","../img/tt/064tt.jpg","",""
"6502.2050000000745","","","recognition","survey-text","359","1445957","0.0-6.0-3.50","3443342","co37561","norming","","","{""guess"":""Surfen""}","","../img/tt/064tt.jpg","",""
"null","../img/gs/064gs.jpg","null","reveal","image-keyboard-response","360","1447963","0.0-6.0-4.50","3443342","co37561","norming","","","","","","",""
"null","../img/tt/064tt.jpg","null","mooney2","image-keyboard-response","361","1449965","0.0-6.0-5.50","3443342","co37561","norming","","","","","","",""
"7093.625","","","post_reveal_questions","survey-likert","362","1457061","0.0-6.0-6.50","3443342","co37561","norming","","","{""aha"":2}","[0]","../img/tt/064tt.jpg","",""
"null","<div style=""font-size:60px;""> </div>","null","fixation","html-keyboard-response","363","1457265","0.0-6.0-0.51","3443342","co37561","norming","","","","","","",""
"null","../img/tt/1261tt.jpg","null","mooney1","image-keyboard-response","364","1460272","0.0-6.0-1.51","3443342","co37561","norming","","","","","","",""
"9121.689999999944","","","post_mooney1_questions","survey-likert","365","1469397","0.0-6.0-2.51","3443342","co37561","norming","","","{""curiosity"":4,""confidence"":1}","[0,1]","../img/tt/1261tt.jpg","",""
"4365.994999999879","","","recognition","survey-text","366","1473764","0.0-6.0-3.51","3443342","co37561","norming","","","{""guess"":""Hok""}","","../img/tt/1261tt.jpg","",""
"null","../img/gs/1261gs.jpg","null","reveal","image-keyboard-response","367","1475766","0.0-6.0-4.51","3443342","co37561","norming","","","","","","",""
"null","../img/tt/1261tt.jpg","null","mooney2","image-keyboard-response","368","1477772","0.0-6.0-5.51","3443342","co37561","norming","","","","","","",""
"4399.114999999991","","","post_reveal_questions","survey-likert","369","1482172","0.0-6.0-6.51","3443342","co37561","norming","","","{""aha"":4}","[0]","../img/tt/1261tt.jpg","",""
"null","<div style=""font-size:60px;""> </div>","null","fixation","html-keyboard-response","370","1482379","0.0-6.0-0.52","3443342","co37561","norming","","","","","","",""
"null","../img/tt/406tt.jpg","null","mooney1","image-keyboard-response","371","1485384","0.0-6.0-1.52","3443342","co37561","norming","","","","","","",""
"7209.065000000177","","","post_mooney1_questions","survey-likert","372","1492597","0.0-6.0-2.52","3443342","co37561","norming","","","{""curiosity"":3,""confidence"":2}","[0,1]","../img/tt/406tt.jpg","",""
"3742.1149999999907","","","recognition","survey-text","373","1496342","0.0-6.0-3.52","3443342","co37561","norming","","","{""guess"":""Vleermuis""}","","../img/tt/406tt.jpg","",""
"null","../img/gs/406gs.jpg","null","reveal","image-keyboard-response","374","1498353","0.0-6.0-4.52","3443342","co37561","norming","","","","","","",""
"null","../img/tt/406tt.jpg","null","mooney2","image-keyboard-response","375","1500358","0.0-6.0-5.52","3443342","co37561","norming","","","","","","",""
"3533.435000000056","","","post_reveal_questions","survey-likert","376","1503894","0.0-6.0-6.52","3443342","co37561","norming","","","{""aha"":1}","[0]","../img/tt/406tt.jpg","",""
"null","<div style=""font-size:60px;""> </div>","null","fixation","html-keyboard-response","377","1504103","0.0-6.0-0.53","3443342","co37561","norming","","","","","","",""
"null","../img/tt/1232tt.jpg","null","mooney1","image-keyboard-response","378","1507110","0.0-6.0-1.53","3443342","co37561","norming","","","","","","",""
"10077.054999999935","","","post_mooney1_questions","survey-likert","379","1517191","0.0-6.0-2.53","3443342","co37561","norming","","","{""curiosity"":4,""confidence"":0}","[0,1]","../img/tt/1232tt.jpg","",""
"742.1799999999348","","","recognition","survey-text","380","1517934","0.0-6.0-3.53","3443342","co37561","norming","","","{""guess"":""""}","","../img/tt/1232tt.jpg","",""
"null","../img/gs/1232gs.jpg","null","reveal","image-keyboard-response","381","1519944","0.0-6.0-4.53","3443342","co37561","norming","","","","","","",""
"null","../img/tt/1232tt.jpg","null","mooney2","image-keyboard-response","382","1521952","0.0-6.0-5.53","3443342","co37561","norming","","","","","","",""
"3396.25","","","post_reveal_questions","survey-likert","383","1525351","0.0-6.0-6.53","3443342","co37561","norming","","","{""aha"":5}","[0]","../img/tt/1232tt.jpg","",""
"null","<div style=""font-size:60px;""> </div>","null","fixation","html-keyboard-response","384","1525552","0.0-6.0-0.54","3443342","co37561","norming","","","","","","",""
"null","../img/tt/076tt.jpg","null","mooney1","image-keyboard-response","385","1528562","0.0-6.0-1.54","3443342","co37561","norming","","","","","","",""
"7161.244999999879","","","post_mooney1_questions","survey-likert","386","1535727","0.0-6.0-2.54","3443342","co37561","norming","","","{""curiosity"":4,""confidence"":4}","[0,1]","../img/tt/076tt.jpg","",""
"3749.8350000001956","","","recognition","survey-text","387","1539478","0.0-6.0-3.54","3443342","co37561","norming","","","{""guess"":""Skates""}","","../img/tt/076tt.jpg","",""
"null","../img/gs/076gs.jpg","null","reveal","image-keyboard-response","388","1541485","0.0-6.0-4.54","3443342","co37561","norming","","","","","","",""
"null","../img/tt/076tt.jpg","null","mooney2","image-keyboard-response","389","1543488","0.0-6.0-5.54","3443342","co37561","norming","","","","","","",""
"2459.940000000177","","","post_reveal_questions","survey-likert","390","1545950","0.0-6.0-6.54","3443342","co37561","norming","","","{""aha"":0}","[0]","../img/tt/076tt.jpg","",""
"null","<div style=""font-size:60px;""> </div>","null","fixation","html-keyboard-response","391","1546152","0.0-6.0-0.55","3443342","co37561","norming","","","","","","",""
"null","../img/tt/357tt.jpg","null","mooney1","image-keyboard-response","392","1549161","0.0-6.0-1.55","3443342","co37561","norming","","","","","","",""
"8874.199999999953","","","post_mooney1_questions","survey-likert","393","1558031","0.0-6.0-2.55","3443342","co37561","norming","","","{""curiosity"":4,""confidence"":1}","[0,1]","../img/tt/357tt.jpg","",""
"7853.935000000056","","","recognition","survey-text","394","1565886","0.0-6.0-3.55","3443342","co37561","norming","","","{""guess"":""Zoogdier""}","","../img/tt/357tt.jpg","",""
"null","../img/gs/357gs.jpg","null","reveal","image-keyboard-response","395","1567893","0.0-6.0-4.55","3443342","co37561","norming","","","","","","",""
"null","../img/tt/357tt.jpg","null","mooney2","image-keyboard-response","396","1569901","0.0-6.0-5.55","3443342","co37561","norming","","","","","","",""
"2551.284999999916","","","post_reveal_questions","survey-likert","397","1572455","0.0-6.0-6.55","3443342","co37561","norming","","","{""aha"":4}","[0]","../img/tt/357tt.jpg","",""
"null","<div style=""font-size:60px;""> </div>","null","fixation","html-keyboard-response","398","1572656","0.0-6.0-0.56","3443342","co37561","norming","","","","","","",""
"null","../img/tt/1087tt.jpg","null","mooney1","image-keyboard-response","399","1575663","0.0-6.0-1.56","3443342","co37561","norming","","","","","","",""
"8390.469999999972","","","post_mooney1_questions","survey-likert","400","1584055","0.0-6.0-2.56","3443342","co37561","norming","","","{""curiosity"":4,""confidence"":1}","[0,1]","../img/tt/1087tt.jpg","",""
"3141.820000000065","","","recognition","survey-text","401","1587198","0.0-6.0-3.56","3443342","co37561","norming","","","{""guess"":""Koeien""}","","../img/tt/1087tt.jpg","",""
"null","../img/gs/1087gs.jpg","null","reveal","image-keyboard-response","402","1589200","0.0-6.0-4.56","3443342","co37561","norming","","","","","","",""
"null","../img/tt/1087tt.jpg","null","mooney2","image-keyboard-response","403","1591203","0.0-6.0-5.56","3443342","co37561","norming","","","","","","",""
"7177.339999999851","","","post_reveal_questions","survey-likert","404","1598382","0.0-6.0-6.56","3443342","co37561","norming","","","{""aha"":3}","[0]","../img/tt/1087tt.jpg","",""
"null","<div style=""font-size:60px;""> </div>","null","fixation","html-keyboard-response","405","1598588","0.0-6.0-0.57","3443342","co37561","norming","","","","","","",""
"null","../img/tt/1186tt.jpg","null","mooney1","image-keyboard-response","406","1601596","0.0-6.0-1.57","3443342","co37561","norming","","","","","","",""
"5951.89000000013","","","post_mooney1_questions","survey-likert","407","1607551","0.0-6.0-2.57","3443342","co37561","norming","","","{""curiosity"":4,""confidence"":3}","[0,1]","../img/tt/1186tt.jpg","",""
"2853.939999999944","","","recognition","survey-text","408","1610406","0.0-6.0-3.57","3443342","co37561","norming","","","{""guess"":""Ballet""}","","../img/tt/1186tt.jpg","",""
"null","../img/gs/1186gs.jpg","null","reveal","image-keyboard-response","409","1612410","0.0-6.0-4.57","3443342","co37561","norming","","","","","","",""
"null","../img/tt/1186tt.jpg","null","mooney2","image-keyboard-response","410","1614412","0.0-6.0-5.57","3443342","co37561","norming","","","","","","",""
"5113.475000000093","","","post_reveal_questions","survey-likert","411","1619528","0.0-6.0-6.57","3443342","co37561","norming","","","{""aha"":3}","[0]","../img/tt/1186tt.jpg","",""
"null","<div style=""font-size:60px;""> </div>","null","fixation","html-keyboard-response","412","1619737","0.0-6.0-0.58","3443342","co37561","norming","","","","","","",""
"null","../img/tt/1043tt.jpg","null","mooney1","image-keyboard-response","413","1622740","0.0-6.0-1.58","3443342","co37561","norming","","","","","","",""
"8128.179999999935","","","post_mooney1_questions","survey-likert","414","1630872","0.0-6.0-2.58","3443342","co37561","norming","","","{""curiosity"":5,""confidence"":1}","[0,1]","../img/tt/1043tt.jpg","",""
"5438.225000000093","","","recognition","survey-text","415","1636312","0.0-6.0-3.58","3443342","co37561","norming","","","{""guess"":""Bord eten""}","","../img/tt/1043tt.jpg","",""
"null","../img/gs/1043gs.jpg","null","reveal","image-keyboard-response","416","1638318","0.0-6.0-4.58","3443342","co37561","norming","","","","","","",""
"null","../img/tt/1043tt.jpg","null","mooney2","image-keyboard-response","417","1640328","0.0-6.0-5.58","3443342","co37561","norming","","","","","","",""
"3437.3050000001676","","","post_reveal_questions","survey-likert","418","1643768","0.0-6.0-6.58","3443342","co37561","norming","","","{""aha"":4}","[0]","../img/tt/1043tt.jpg","",""
"null","<div style=""font-size:60px;""> </div>","null","fixation","html-keyboard-response","419","1643970","0.0-6.0-0.59","3443342","co37561","norming","","","","","","",""
"null","../img/tt/296tt.jpg","null","mooney1","image-keyboard-response","420","1646980","0.0-6.0-1.59","3443342","co37561","norming","","","","","","",""
"12360.585000000196","","","post_mooney1_questions","survey-likert","421","1659344","0.0-6.0-2.59","3443342","co37561","norming","","","{""curiosity"":5,""confidence"":2}","[0,1]","../img/tt/296tt.jpg","",""
"8909.944999999832","","","recognition","survey-text","422","1668256","0.0-6.0-3.59","3443342","co37561","norming","","","{""guess"":""Restaurant tafel""}","","../img/tt/296tt.jpg","",""
"null","../img/gs/296gs.jpg","null","reveal","image-keyboard-response","423","1670258","0.0-6.0-4.59","3443342","co37561","norming","","","","","","",""
"null","../img/tt/296tt.jpg","null","mooney2","image-keyboard-response","424","1672259","0.0-6.0-5.59","3443342","co37561","norming","","","","","","",""
"2722.374999999767","","","post_reveal_questions","survey-likert","425","1674984","0.0-6.0-6.59","3443342","co37561","norming","","","{""aha"":4}","[0]","../img/tt/296tt.jpg","",""
"null","<div style=""font-size:60px;""> </div>","null","fixation","html-keyboard-response","426","1675194","0.0-6.0-0.60","3443342","co37561","norming","","","","","","",""
"null","../img/tt/1196tt.jpg","null","mooney1","image-keyboard-response","427","1678198","0.0-6.0-1.60","3443342","co37561","norming","","","","","","",""
"9134.435000000056","","","post_mooney1_questions","survey-likert","428","1687340","0.0-6.0-2.60","3443342","co37561","norming","","","{""curiosity"":5,""confidence"":1}","[0,1]","../img/tt/1196tt.jpg","",""
"5550.024999999907","","","recognition","survey-text","429","1692892","0.0-6.0-3.60","3443342","co37561","norming","","","{""guess"":""Fotografie""}","","../img/tt/1196tt.jpg","",""
"null","../img/gs/1196gs.jpg","null","reveal","image-keyboard-response","430","1694896","0.0-6.0-4.60","3443342","co37561","norming","","","","","","",""
"null","../img/tt/1196tt.jpg","null","mooney2","image-keyboard-response","431","1696905","0.0-6.0-5.60","3443342","co37561","norming","","","","","","",""
"2280.4150000000373","","","post_reveal_questions","survey-likert","432","1699188","0.0-6.0-6.60","3443342","co37561","norming","","","{""aha"":5}","[0]","../img/tt/1196tt.jpg","",""
"null","<div style=""font-size:60px;""> </div>","null","fixation","html-keyboard-response","433","1699390","0.0-6.0-0.61","3443342","co37561","norming","","","","","","",""
"null","../img/tt/1362tt.jpg","null","mooney1","image-keyboard-response","434","1702400","0.0-6.0-1.61","3443342","co37561","norming","","","","","","",""
"7753.59999999986","","","post_mooney1_questions","survey-likert","435","1710156","0.0-6.0-2.61","3443342","co37561","norming","","","{""curiosity"":5,""confidence"":1}","[0,1]","../img/tt/1362tt.jpg","",""
"12269.985000000102","","","recognition","survey-text","436","1722428","0.0-6.0-3.61","3443342","co37561","norming","","","{""guess"":""Muziekplaat""}","","../img/tt/1362tt.jpg","",""
"null","../img/gs/1362gs.jpg","null","reveal","image-keyboard-response","437","1724436","0.0-6.0-4.61","3443342","co37561","norming","","","","","","",""
"null","../img/tt/1362tt.jpg","null","mooney2","image-keyboard-response","438","1726438","0.0-6.0-5.61","3443342","co37561","norming","","","","","","",""
"2579.600000000093","","","post_reveal_questions","survey-likert","439","1729020","0.0-6.0-6.61","3443342","co37561","norming","","","{""aha"":5}","[0]","../img/tt/1362tt.jpg","",""
"null","<div style=""font-size:60px;""> </div>","null","fixation","html-keyboard-response","440","1729221","0.0-6.0-0.62","3443342","co37561","norming","","","","","","",""
"null","../img/tt/1290tt.jpg","null","mooney1","image-keyboard-response","441","1732230","0.0-6.0-1.62","3443342","co37561","norming","","","","","","",""
"17203.070000000065","","","post_mooney1_questions","survey-likert","442","1749436","0.0-6.0-2.62","3443342","co37561","norming","","","{""curiosity"":5,""confidence"":5}","[0,1]","../img/tt/1290tt.jpg","",""
"4574.255000000121","","","recognition","survey-text","443","1754012","0.0-6.0-3.62","3443342","co37561","norming","","","{""guess"":""Berglift""}","","../img/tt/1290tt.jpg","",""
"null","../img/gs/1290gs.jpg","null","reveal","image-keyboard-response","444","1756019","0.0-6.0-4.62","3443342","co37561","norming","","","","","","",""
"null","../img/tt/1290tt.jpg","null","mooney2","image-keyboard-response","445","1758022","0.0-6.0-5.62","3443342","co37561","norming","","","","","","",""
"4076.405000000028","","","post_reveal_questions","survey-likert","446","1762100","0.0-6.0-6.62","3443342","co37561","norming","","","{""aha"":0}","[0]","../img/tt/1290tt.jpg","",""
"null","<div style=""font-size:60px;""> </div>","null","fixation","html-keyboard-response","447","1762301","0.0-6.0-0.63","3443342","co37561","norming","","","","","","",""
"null","../img/tt/1275tt.jpg","null","mooney1","image-keyboard-response","448","1765306","0.0-6.0-1.63","3443342","co37561","norming","","","","","","",""
"4679.23499999987","","","post_mooney1_questions","survey-likert","449","1769988","0.0-6.0-2.63","3443342","co37561","norming","","","{""curiosity"":5,""confidence"":0}","[0,1]","../img/tt/1275tt.jpg","",""
"885.9550000000745","","","recognition","survey-text","450","1770876","0.0-6.0-3.63","3443342","co37561","norming","","","{""guess"":""""}","","../img/tt/1275tt.jpg","",""
"null","../img/gs/1275gs.jpg","null","reveal","image-keyboard-response","451","1772882","0.0-6.0-4.63","3443342","co37561","norming","","","","","","",""
"null","../img/tt/1275tt.jpg","null","mooney2","image-keyboard-response","452","1774891","0.0-6.0-5.63","3443342","co37561","norming","","","","","","",""
"4726.8650000002235","","","post_reveal_questions","survey-likert","453","1779620","0.0-6.0-6.63","3443342","co37561","norming","","","{""aha"":5}","[0]","../img/tt/1275tt.jpg","",""
"null","<div style=""font-size:60px;""> </div>","null","fixation","html-keyboard-response","454","1779821","0.0-6.0-0.64","3443342","co37561","norming","","","","","","",""
"null","../img/tt/1072tt.jpg","null","mooney1","image-keyboard-response","455","1782823","0.0-6.0-1.64","3443342","co37561","norming","","","","","","",""
"4721.4900000002235","","","post_mooney1_questions","survey-likert","456","1787548","0.0-6.0-2.64","3443342","co37561","norming","","","{""curiosity"":5,""confidence"":1}","[0,1]","../img/tt/1072tt.jpg","",""
"2613.9199999999255","","","recognition","survey-text","457","1790164","0.0-6.0-3.64","3443342","co37561","norming","","","{""guess"":""Bos""}","","../img/tt/1072tt.jpg","",""
"null","../img/gs/1072gs.jpg","null","reveal","image-keyboard-response","458","1792174","0.0-6.0-4.64","3443342","co37561","norming","","","","","","",""
"null","../img/tt/1072tt.jpg","null","mooney2","image-keyboard-response","459","1794176","0.0-6.0-5.64","3443342","co37561","norming","","","","","","",""
"4313.364999999991","","","post_reveal_questions","survey-likert","460","1798492","0.0-6.0-6.64","3443342","co37561","norming","","","{""aha"":4}","[0]","../img/tt/1072tt.jpg","",""
"null","<div style=""font-size:60px;""> </div>","null","fixation","html-keyboard-response","461","1798699","0.0-6.0-0.65","3443342","co37561","norming","","","","","","",""
"null","../img/tt/1048tt.jpg","null","mooney1","image-keyboard-response","462","1801707","0.0-6.0-1.65","3443342","co37561","norming","","","","","","",""
"6032.300000000047","","","post_mooney1_questions","survey-likert","463","1807740","0.0-6.0-2.65","3443342","co37561","norming","","","{""curiosity"":5,""confidence"":1}","[0,1]","../img/tt/1048tt.jpg","",""
"4902.004999999888","","","recognition","survey-text","464","1812638","0.0-6.0-3.65","3443342","co37561","norming","","","{""guess"":""Vlinder""}","","../img/tt/1048tt.jpg","",""
"null","../img/gs/1048gs.jpg","null","reveal","image-keyboard-response","465","1814642","0.0-6.0-4.65","3443342","co37561","norming","","","","","","",""
"null","../img/tt/1048tt.jpg","null","mooney2","image-keyboard-response","466","1816644","0.0-6.0-5.65","3443342","co37561","norming","","","","","","",""
"4791.520000000019","","","post_reveal_questions","survey-likert","467","1821438","0.0-6.0-6.65","3443342","co37561","norming","","","{""aha"":3}","[0]","../img/tt/1048tt.jpg","",""
"null","<div style=""font-size:60px;""> </div>","null","fixation","html-keyboard-response","468","1821640","0.0-6.0-0.66","3443342","co37561","norming","","","","","","",""
"null","../img/tt/315tt.jpg","null","mooney1","image-keyboard-response","469","1824644","0.0-6.0-1.66","3443342","co37561","norming","","","","","","",""
"5550.824999999953","","","post_mooney1_questions","survey-likert","470","1830198","0.0-6.0-2.66","3443342","co37561","norming","","","{""curiosity"":4,""confidence"":2}","[0,1]","../img/tt/315tt.jpg","",""
"3166.070000000065","","","recognition","survey-text","471","1833366","0.0-6.0-3.66","3443342","co37561","norming","","","{""guess"":""Vogel""}","","../img/tt/315tt.jpg","",""
"null","../img/gs/315gs.jpg","null","reveal","image-keyboard-response","472","1835376","0.0-6.0-4.66","3443342","co37561","norming","","","","","","",""
"null","../img/tt/315tt.jpg","null","mooney2","image-keyboard-response","473","1837386","0.0-6.0-5.66","3443342","co37561","norming","","","","","","",""
"3055.7600000000093","","","post_reveal_questions","survey-likert","474","1840446","0.0-6.0-6.66","3443342","co37561","norming","","","{""aha"":2}","[0]","../img/tt/315tt.jpg","",""
"null","<div style=""font-size:60px;""> </div>","null","fixation","html-keyboard-response","475","1840651","0.0-6.0-0.67","3443342","co37561","norming","","","","","","",""
"null","../img/tt/063tt.jpg","null","mooney1","image-keyboard-response","476","1843658","0.0-6.0-1.67","3443342","co37561","norming","","","","","","",""
"6058.300000000047","","","post_mooney1_questions","survey-likert","477","1849718","0.0-6.0-2.67","3443342","co37561","norming","","","{""curiosity"":4,""confidence"":4}","[0,1]","../img/tt/063tt.jpg","",""
"4798.290000000037","","","recognition","survey-text","478","1854518","0.0-6.0-3.67","3443342","co37561","norming","","","{""guess"":""Typmachine""}","","../img/tt/063tt.jpg","",""
"null","../img/gs/063gs.jpg","null","reveal","image-keyboard-response","479","1856526","0.0-6.0-4.67","3443342","co37561","norming","","","","","","",""
"null","../img/tt/063tt.jpg","null","mooney2","image-keyboard-response","480","1858530","0.0-6.0-5.67","3443342","co37561","norming","","","","","","",""
"2313.225000000093","","","post_reveal_questions","survey-likert","481","1860846","0.0-6.0-6.67","3443342","co37561","norming","","","{""aha"":0}","[0]","../img/tt/063tt.jpg","",""
"null","<div style=""font-size:60px;""> </div>","null","fixation","html-keyboard-response","482","1861055","0.0-6.0-0.68","3443342","co37561","norming","","","","","","",""
"null","../img/tt/1069tt.jpg","null","mooney1","image-keyboard-response","483","1864066","0.0-6.0-1.68","3443342","co37561","norming","","","","","","",""
"4480.795000000158","","","post_mooney1_questions","survey-likert","484","1868550","0.0-6.0-2.68","3443342","co37561","norming","","","{""curiosity"":4,""confidence"":1}","[0,1]","../img/tt/1069tt.jpg","",""
"5678.114999999991","","","recognition","survey-text","485","1874238","0.0-6.0-3.68","3443342","co37561","norming","","","{""guess"":""Schildpad""}","","../img/tt/1069tt.jpg","",""
"null","../img/gs/1069gs.jpg","null","reveal","image-keyboard-response","486","1876248","0.0-6.0-4.68","3443342","co37561","norming","","","","","","",""
"null","../img/tt/1069tt.jpg","null","mooney2","image-keyboard-response","487","1878250","0.0-6.0-5.68","3443342","co37561","norming","","","","","","",""
"2953.524999999907","","","post_reveal_questions","survey-likert","488","1881206","0.0-6.0-6.68","3443342","co37561","norming","","","{""aha"":4}","[0]","../img/tt/1069tt.jpg","",""
"null","<div style=""font-size:60px;""> </div>","null","fixation","html-keyboard-response","489","1881409","0.0-6.0-0.69","3443342","co37561","norming","","","","","","",""
"null","../img/tt/1159tt.jpg","null","mooney1","image-keyboard-response","490","1884419","0.0-6.0-1.69","3443342","co37561","norming","","","","","","",""
"15671.969999999972","","","post_mooney1_questions","survey-likert","491","1900094","0.0-6.0-2.69","3443342","co37561","norming","","","{""curiosity"":5,""confidence"":2}","[0,1]","../img/tt/1159tt.jpg","",""
"3549.840000000084","","","recognition","survey-text","492","1903646","0.0-6.0-3.69","3443342","co37561","norming","","","{""guess"":""Houthakken""}","","../img/tt/1159tt.jpg","",""
"null","../img/gs/1159gs.jpg","null","reveal","image-keyboard-response","493","1905657","0.0-6.0-4.69","3443342","co37561","norming","","","","","","",""
"null","../img/tt/1159tt.jpg","null","mooney2","image-keyboard-response","494","1907668","0.0-6.0-5.69","3443342","co37561","norming","","","","","","",""
"2455.7900000000373","","","post_reveal_questions","survey-likert","495","1910126","0.0-6.0-6.69","3443342","co37561","norming","","","{""aha"":4}","[0]","../img/tt/1159tt.jpg","",""
"null","<div style=""font-size:60px;""> </div>","null","fixation","html-keyboard-response","496","1910328","0.0-6.0-0.70","3443342","co37561","norming","","","","","","",""
"null","../img/tt/1254tt.jpg","null","mooney1","image-keyboard-response","497","1913335","0.0-6.0-1.70","3443342","co37561","norming","","","","","","",""
"3251.2299999997485","","","post_mooney1_questions","survey-likert","498","1916590","0.0-6.0-2.70","3443342","co37561","norming","","","{""curiosity"":5,""confidence"":1}","[0,1]","../img/tt/1254tt.jpg","",""
"3150.149999999907","","","recognition","survey-text","499","1919742","0.0-6.0-3.70","3443342","co37561","norming","","","{""guess"":""Stier""}","","../img/tt/1254tt.jpg","",""
"null","../img/gs/1254gs.jpg","null","reveal","image-keyboard-response","500","1921748","0.0-6.0-4.70","3443342","co37561","norming","","","","","","",""
"null","../img/tt/1254tt.jpg","null","mooney2","image-keyboard-response","501","1923755","0.0-6.0-5.70","3443342","co37561","norming","","","","","","",""
"5081.665000000037","","","post_reveal_questions","survey-likert","502","1928838","0.0-6.0-6.70","3443342","co37561","norming","","","{""aha"":5}","[0]","../img/tt/1254tt.jpg","",""
"null","<div style=""font-size:60px;""> </div>","null","fixation","html-keyboard-response","503","1929046","0.0-6.0-0.71","3443342","co37561","norming","","","","","","",""
"null","../img/tt/040tt.jpg","null","mooney1","image-keyboard-response","504","1932052","0.0-6.0-1.71","3443342","co37561","norming","","","","","","",""
"6911.184999999823","","","post_mooney1_questions","survey-likert","505","1938966","0.0-6.0-2.71","3443342","co37561","norming","","","{""curiosity"":6,""confidence"":1}","[0,1]","../img/tt/040tt.jpg","",""
"2989.8300000000745","","","recognition","survey-text","506","1941958","0.0-6.0-3.71","3443342","co37561","norming","","","{""guess"":""Dier""}","","../img/tt/040tt.jpg","",""
"null","../img/gs/040gs.jpg","null","reveal","image-keyboard-response","507","1943966","0.0-6.0-4.71","3443342","co37561","norming","","","","","","",""
"null","../img/tt/040tt.jpg","null","mooney2","image-keyboard-response","508","1945970","0.0-6.0-5.71","3443342","co37561","norming","","","","","","",""
"4177.4550000000745","","","post_reveal_questions","survey-likert","509","1950150","0.0-6.0-6.71","3443342","co37561","norming","","","{""aha"":4}","[0]","../img/tt/040tt.jpg","",""
"null","<div style=""font-size:60px;""> </div>","null","fixation","html-keyboard-response","510","1950360","0.0-6.0-0.72","3443342","co37561","norming","","","","","","",""
"null","../img/tt/1202tt.jpg","null","mooney1","image-keyboard-response","511","1953372","0.0-6.0-1.72","3443342","co37561","norming","","","","","","",""
"3982.6100000001024","","","post_mooney1_questions","survey-likert","512","1957358","0.0-6.0-2.72","3443342","co37561","norming","","","{""curiosity"":5,""confidence"":1}","[0,1]","../img/tt/1202tt.jpg","",""
"5101.805000000168","","","recognition","survey-text","513","1962462","0.0-6.0-3.72","3443342","co37561","norming","","","{""guess"":""Ladder""}","","../img/tt/1202tt.jpg","",""
"null","../img/gs/1202gs.jpg","null","reveal","image-keyboard-response","514","1964467","0.0-6.0-4.72","3443342","co37561","norming","","","","","","",""
"null","../img/tt/1202tt.jpg","null","mooney2","image-keyboard-response","515","1966471","0.0-6.0-5.72","3443342","co37561","norming","","","","","","",""
"4435.965000000084","","","post_reveal_questions","survey-likert","516","1970910","0.0-6.0-6.72","3443342","co37561","norming","","","{""aha"":1}","[0]","../img/tt/1202tt.jpg","",""
"null","<div style=""font-size:60px;""> </div>","null","fixation","html-keyboard-response","517","1971114","0.0-6.0-0.73","3443342","co37561","norming","","","","","","",""
"null","../img/tt/1243tt.jpg","null","mooney1","image-keyboard-response","518","1974123","0.0-6.0-1.73","3443342","co37561","norming","","","","","","",""
"5559.135000000009","","","post_mooney1_questions","survey-likert","519","1979686","0.0-6.0-2.73","3443342","co37561","norming","","","{""curiosity"":5,""confidence"":2}","[0,1]","../img/tt/1243tt.jpg","",""
"8598.25","","","recognition","survey-text","520","1988286","0.0-6.0-3.73","3443342","co37561","norming","","","{""guess"":""Skateboarden""}","","../img/tt/1243tt.jpg","",""
"null","../img/gs/1243gs.jpg","null","reveal","image-keyboard-response","521","1990295","0.0-6.0-4.73","3443342","co37561","norming","","","","","","",""
"null","../img/tt/1243tt.jpg","null","mooney2","image-keyboard-response","522","1992309","0.0-6.0-5.73","3443342","co37561","norming","","","","","","",""
"3648.939999999944","","","post_reveal_questions","survey-likert","523","1995961","0.0-6.0-6.73","3443342","co37561","norming","","","{""aha"":0}","[0]","../img/tt/1243tt.jpg","",""
"null","<div style=""font-size:60px;""> </div>","null","fixation","html-keyboard-response","524","1996163","0.0-6.0-0.74","3443342","co37561","norming","","","","","","",""
"null","../img/tt/552tt.jpg","null","mooney1","image-keyboard-response","525","1999175","0.0-6.0-1.74","3443342","co37561","norming","","","","","","",""
"6783.6349999997765","","","post_mooney1_questions","survey-likert","526","2005963","0.0-6.0-2.74","3443342","co37561","norming","","","{""curiosity"":5,""confidence"":1}","[0,1]","../img/tt/552tt.jpg","",""
"3148.2100000001956","","","recognition","survey-text","527","2009113","0.0-6.0-3.74","3443342","co37561","norming","","","{""guess"":""Vlinder""}","","../img/tt/552tt.jpg","",""
"null","../img/gs/552gs.jpg","null","reveal","image-keyboard-response","528","2011119","0.0-6.0-4.74","3443342","co37561","norming","","","","","","",""
"null","../img/tt/552tt.jpg","null","mooney2","image-keyboard-response","529","2013129","0.0-6.0-5.74","3443342","co37561","norming","","","","","","",""
"4813.090000000084","","","post_reveal_questions","survey-likert","530","2017945","0.0-6.0-6.74","3443342","co37561","norming","","","{""aha"":4}","[0]","../img/tt/552tt.jpg","",""
"null","<div style=""font-size:60px;""> </div>","null","fixation","html-keyboard-response","531","2018146","0.0-6.0-0.75","3443342","co37561","norming","","","","","","",""
"null","../img/tt/098tt.jpg","null","mooney1","image-keyboard-response","532","2021158","0.0-6.0-1.75","3443342","co37561","norming","","","","","","",""
"6375.540000000037","","","post_mooney1_questions","survey-likert","533","2027537","0.0-6.0-2.75","3443342","co37561","norming","","","{""curiosity"":5,""confidence"":1}","[0,1]","../img/tt/098tt.jpg","",""
"3773.68499999959","","","recognition","survey-text","534","2031312","0.0-6.0-3.75","3443342","co37561","norming","","","{""guess"":""Eekhoorn""}","","../img/tt/098tt.jpg","",""
"null","../img/gs/098gs.jpg","null","reveal","image-keyboard-response","535","2033314","0.0-6.0-4.75","3443342","co37561","norming","","","","","","",""
"null","../img/tt/098tt.jpg","null","mooney2","image-keyboard-response","536","2035322","0.0-6.0-5.75","3443342","co37561","norming","","","","","","",""
"3443.6750000000466","","","post_reveal_questions","survey-likert","537","2038769","0.0-6.0-6.75","3443342","co37561","norming","","","{""aha"":1}","[0]","../img/tt/098tt.jpg","",""
"null","<div style=""font-size:60px;""> </div>","null","fixation","html-keyboard-response","538","2038970","0.0-6.0-0.76","3443342","co37561","norming","","","","","","",""
"null","../img/tt/1046tt.jpg","null","mooney1","image-keyboard-response","539","2041973","0.0-6.0-1.76","3443342","co37561","norming","","","","","","",""
"6616.035000000149","","","post_mooney1_questions","survey-likert","540","2048593","0.0-6.0-2.76","3443342","co37561","norming","","","{""curiosity"":5,""confidence"":1}","[0,1]","../img/tt/1046tt.jpg","",""
"3117.999999999767","","","recognition","survey-text","541","2051713","0.0-6.0-3.76","3443342","co37561","norming","","","{""guess"":""Panda""}","","../img/tt/1046tt.jpg","",""
"null","../img/gs/1046gs.jpg","null","reveal","image-keyboard-response","542","2053717","0.0-6.0-4.76","3443342","co37561","norming","","","","","","",""
"null","../img/tt/1046tt.jpg","null","mooney2","image-keyboard-response","543","2055727","0.0-6.0-5.76","3443342","co37561","norming","","","","","","",""
"2612.984999999637","","","post_reveal_questions","survey-likert","544","2058340","0.0-6.0-6.76","3443342","co37561","norming","","","{""aha"":0}","[0]","../img/tt/1046tt.jpg","",""
"null","<div style=""font-size:60px;""> </div>","null","fixation","html-keyboard-response","545","2058542","0.0-6.0-0.77","3443342","co37561","norming","","","","","","",""
"null","../img/tt/440tt.jpg","null","mooney1","image-keyboard-response","546","2061553","0.0-6.0-1.77","3443342","co37561","norming","","","","","","",""
"9336.474999999627","","","post_mooney1_questions","survey-likert","547","2070893","0.0-6.0-2.77","3443342","co37561","norming","","","{""curiosity"":5,""confidence"":1}","[0,1]","../img/tt/440tt.jpg","",""
"4349.954999999609","","","recognition","survey-text","548","2075244","0.0-6.0-3.77","3443342","co37561","norming","","","{""guess"":""Hert""}","","../img/tt/440tt.jpg","",""
"null","../img/gs/440gs.jpg","null","reveal","image-keyboard-response","549","2077253","0.0-6.0-4.77","3443342","co37561","norming","","","","","","",""
"null","../img/tt/440tt.jpg","null","mooney2","image-keyboard-response","550","2079256","0.0-6.0-5.77","3443342","co37561","norming","","","","","","",""
"3281.5","","","post_reveal_questions","survey-likert","551","2082540","0.0-6.0-6.77","3443342","co37561","norming","","","{""aha"":1}","[0]","../img/tt/440tt.jpg","",""
"null","<div style=""font-size:60px;""> </div>","null","fixation","html-keyboard-response","552","2082743","0.0-6.0-0.78","3443342","co37561","norming","","","","","","",""
