"rt","stimulus","key_press","test_part","trial_type","trial_index","time_elapsed","internal_node_id","totalTime","subject","experiment_name","button_pressed","success","responses","question_order","currentStim","old","correct"
"6807.354999999973","Welcome to the experiment. This is an online experiment so please don't close the tab/window until we say goodbye.  Press any key to begin.","32","instructions","html-keyboard-response","0","6821","0.0-0.0","2645899","co37603","norming","","","","","","",""
"2213.6299999999665","<div style='word-wrap: break-word; width: 900px'><h3>Please consider this information carefully before deciding whether to participate in this research</h3><ul style='text-align: left; font-size: .8em;'><li><b>Purpose of the research</b>: To examine how people process images.</li><li><b>What you will do in this research</b>:  Stimuli (images) will be presented on the computer and you will be asked different questions about them.</li><li><b>Time required</b>: Participation will take between 45 and 60 minutes to complete.</li><li><b>Risks</b>:  There are no anticipated risks associated with participating in this study. The effects of participating should be comparable to those you would experience from viewing a computer monitor for 30 minutes and using a mouse or keyboard.</li><li><b>Benefits</b>:  This study provides no benefits to you individually except for the credit. The study provides important information about the nature of perception and learning.</li><li><b>Confidentiality</b>:  Your participation in this study will remain confidential. No personally identifiable information will be associated with your data. Your de-identified data may be shared with other researchers and used in future projects.</li><li><b>Participation and withdrawal</b>:  Your participation in this study is completely voluntary and you may refuse to participate or you may choose to withdraw at any time without penalty.</li><li><b>How to contact the researchers</b>: If you have questions or concerns about your participation or payment, or want to request a summary of research findings, please contact Sander Van de Cruys (KU Leuven), at sander.vandecruys@kuleuven.be.</li></ul><p>The nature and purpose of this research have been sufficiently explained and I agree to participate in this study.  I understand that I am free to withdraw at any time without incurring any penalty.</p><p>Please consent by clicking the button below to continue. Otherwise, please exit the study at this time.</p></div>","","instructions","html-button-response","1","9036","0.0-1.0","2645899","co37603","norming","0","","","","","",""
"","","","instructions","fullscreen","2","14693","0.0-2.0","2645899","co37603","norming","","true","","","","",""
"42204.335000000014","","","sona","survey-html-form","3","56904","0.0-3.0","2645899","co37603","norming","","","[{""name"":""sonaid"",""value"":""37603""},{""name"":""debrief"",""value"":""yes""},{""name"":""datajoin"",""value"":""yes""}]","","","",""
"49292.215","<div style='word-wrap: break-word; width: 900px'><h3>Instructions</h3><p>This experiment will have 3 parts. In the first part you will see a series of distorted images like the one below on the left. As you can see in the righthand image, the distorted images are derived from actual photographs. In what follows, you will <strong>briefly</strong> be presented with <strong>only</strong> the distorted image.</p> <div style='float: left; margin-right: 20px;'><img src='../img/018tt.jpg' height='250' width='250'></img></div><div style='float: right; margin-left: 20px;'><img src='../img/018gs.jpg' height='250' width='250'></img></div><p>Subsequently you will be asked a few questions about the image: One question on how <strong>curious</strong> you are about the solution and one on how <strong>confident</strong> you are that you know the solution.</p>Next, we ask you to make a guess on what is in the image. Note that it is OK to name just the <strong>basic level category</strong>. For example when you see a parrot in the image, 'parrot' will obviously be a correct answer but also correct is 'bird'. However, 'animal' will <strong>not</strong> be counted as a correct response. For the example above, 'rose' would be correct or 'flower', but not 'plant'. When soccer players are depicted, 'soccer', 'football', 'soccer players' will be correct, but not 'humans', 'outdoors', or 'sports'. You do not need to describe the image in full, just name the main object in it <strong>in one or two words</strong>. All images depict objects from one of the following broad level categories: animals, inanimate objects, plants, sports, vehicles, and food. Recognizing means knowing <strong>more</strong> than these broad labels for a given image. But we always encourage you to <strong>make a guess</strong> if you can. Note that you are allowed to use <strong>Dutch and English</strong> in your answers, whatever comes easiest for you.</p><p>Press any key to continue.</p></div>","32","instructions","html-keyboard-response","4","106453","0.0-4.0","2645899","co37603","norming","","","","","","",""
"22428.34500000003","<div style='word-wrap: break-word; width: 900px'><h3>Instructions</h3> <p>Next, the solution image will be revealed to you and you'll be asked to indicate how strong your <strong>aha-experience</strong> was after seeing the solution. This describes the positive feeling of the 'click' you sometimes experience, when the pieces of the 'puzzle' fall together and you suddenly have 'insight' in the image.</p><img src='aha.jpg' height='188' width='250'></img><p>Note that there are no right or wrong answers. We are interested in what <strong>you</strong> see in the image and how <strong>you</strong> feel about it.</p><p>Press any key to start the experiment.</p></div>","32","instructions","html-keyboard-response","5","128883","0.0-5.0","2645899","co37603","norming","","","","","","",""
"null","<div style=""font-size:60px;""> </div>","null","fixation","html-keyboard-response","6","129088","0.0-6.0-0.0","2645899","co37603","norming","","","","","","",""
"null","../img/tt/1130tt.jpg","null","mooney1","image-keyboard-response","7","132097","0.0-6.0-1.0","2645899","co37603","norming","","","","","","",""
"13366.185000000085","","","post_mooney1_questions","survey-likert","8","145467","0.0-6.0-2.0","2645899","co37603","norming","","","{""curiosity"":2,""confidence"":5}","[0,1]","../img/tt/1130tt.jpg","",""
"34541.77500000002","","","recognition","survey-text","9","180171","0.0-6.0-3.0","2645899","co37603","norming","","","{""guess"":""cyclist""}","","../img/tt/1130tt.jpg","",""
"null","../img/gs/1130gs.jpg","null","reveal","image-keyboard-response","10","182177","0.0-6.0-4.0","2645899","co37603","norming","","","","","","",""
"null","../img/tt/1130tt.jpg","null","mooney2","image-keyboard-response","11","184185","0.0-6.0-5.0","2645899","co37603","norming","","","","","","",""
"12239.145000000019","","","post_reveal_questions","survey-likert","12","196427","0.0-6.0-6.0","2645899","co37603","norming","","","{""aha"":4}","[0]","../img/tt/1130tt.jpg","",""
"null","<div style=""font-size:60px;""> </div>","null","fixation","html-keyboard-response","13","196632","0.0-6.0-0.1","2645899","co37603","norming","","","","","","",""
"null","../img/tt/1148tt.jpg","null","mooney1","image-keyboard-response","14","199636","0.0-6.0-1.1","2645899","co37603","norming","","","","","","",""
"8365.030000000057","","","post_mooney1_questions","survey-likert","15","208003","0.0-6.0-2.1","2645899","co37603","norming","","","{""curiosity"":6,""confidence"":4}","[0,1]","../img/tt/1148tt.jpg","",""
"2310.2649999999558","","","recognition","survey-text","16","210315","0.0-6.0-3.1","2645899","co37603","norming","","","{""guess"":""-""}","","../img/tt/1148tt.jpg","",""
"null","../img/gs/1148gs.jpg","null","reveal","image-keyboard-response","17","212317","0.0-6.0-4.1","2645899","co37603","norming","","","","","","",""
"null","../img/tt/1148tt.jpg","null","mooney2","image-keyboard-response","18","214319","0.0-6.0-5.1","2645899","co37603","norming","","","","","","",""
"2978.7449999999953","","","post_reveal_questions","survey-likert","19","217299","0.0-6.0-6.1","2645899","co37603","norming","","","{""aha"":0}","[0]","../img/tt/1148tt.jpg","",""
"null","<div style=""font-size:60px;""> </div>","null","fixation","html-keyboard-response","20","217500","0.0-6.0-0.2","2645899","co37603","norming","","","","","","",""
"null","../img/tt/1123tt.jpg","null","mooney1","image-keyboard-response","21","220507","0.0-6.0-1.2","2645899","co37603","norming","","","","","","",""
"7534.8000000000175","","","post_mooney1_questions","survey-likert","22","228043","0.0-6.0-2.2","2645899","co37603","norming","","","{""curiosity"":3,""confidence"":2}","[0,1]","../img/tt/1123tt.jpg","",""
"4509.824999999953","","","recognition","survey-text","23","232611","0.0-6.0-3.2","2645899","co37603","norming","","","{""guess"":""ball""}","","../img/tt/1123tt.jpg","",""
"null","../img/gs/1123gs.jpg","null","reveal","image-keyboard-response","24","234621","0.0-6.0-4.2","2645899","co37603","norming","","","","","","",""
"null","../img/tt/1123tt.jpg","null","mooney2","image-keyboard-response","25","236627","0.0-6.0-5.2","2645899","co37603","norming","","","","","","",""
"3437.935000000027","","","post_reveal_questions","survey-likert","26","240067","0.0-6.0-6.2","2645899","co37603","norming","","","{""aha"":5}","[0]","../img/tt/1123tt.jpg","",""
"null","<div style=""font-size:60px;""> </div>","null","fixation","html-keyboard-response","27","240272","0.0-6.0-0.3","2645899","co37603","norming","","","","","","",""
"null","../img/tt/084tt.jpg","null","mooney1","image-keyboard-response","28","243281","0.0-6.0-1.3","2645899","co37603","norming","","","","","","",""
"5031.899999999965","","","post_mooney1_questions","survey-likert","29","248316","0.0-6.0-2.3","2645899","co37603","norming","","","{""curiosity"":6,""confidence"":2}","[0,1]","../img/tt/084tt.jpg","",""
"4165.825000000041","","","recognition","survey-text","30","252483","0.0-6.0-3.3","2645899","co37603","norming","","","{""guess"":""bird""}","","../img/tt/084tt.jpg","",""
"null","../img/gs/084gs.jpg","null","reveal","image-keyboard-response","31","254486","0.0-6.0-4.3","2645899","co37603","norming","","","","","","",""
"null","../img/tt/084tt.jpg","null","mooney2","image-keyboard-response","32","256487","0.0-6.0-5.3","2645899","co37603","norming","","","","","","",""
"4595.439999999944","","","post_reveal_questions","survey-likert","33","261083","0.0-6.0-6.3","2645899","co37603","norming","","","{""aha"":3}","[0]","../img/tt/084tt.jpg","",""
"null","<div style=""font-size:60px;""> </div>","null","fixation","html-keyboard-response","34","261286","0.0-6.0-0.4","2645899","co37603","norming","","","","","","",""
"null","../img/tt/1044tt.jpg","null","mooney1","image-keyboard-response","35","264294","0.0-6.0-1.4","2645899","co37603","norming","","","","","","",""
"5714.979999999981","","","post_mooney1_questions","survey-likert","36","270011","0.0-6.0-2.4","2645899","co37603","norming","","","{""curiosity"":2,""confidence"":1}","[0,1]","../img/tt/1044tt.jpg","",""
"8030.174999999988","","","recognition","survey-text","37","278043","0.0-6.0-3.4","2645899","co37603","norming","","","{""guess"":""cup""}","","../img/tt/1044tt.jpg","",""
"null","../img/gs/1044gs.jpg","null","reveal","image-keyboard-response","38","280046","0.0-6.0-4.4","2645899","co37603","norming","","","","","","",""
"null","../img/tt/1044tt.jpg","null","mooney2","image-keyboard-response","39","282057","0.0-6.0-5.4","2645899","co37603","norming","","","","","","",""
"2865.189999999944","","","post_reveal_questions","survey-likert","40","284923","0.0-6.0-6.4","2645899","co37603","norming","","","{""aha"":5}","[0]","../img/tt/1044tt.jpg","",""
"null","<div style=""font-size:60px;""> </div>","null","fixation","html-keyboard-response","41","285133","0.0-6.0-0.5","2645899","co37603","norming","","","","","","",""
"null","../img/tt/140tt.jpg","null","mooney1","image-keyboard-response","42","288138","0.0-6.0-1.5","2645899","co37603","norming","","","","","","",""
"8302.540000000037","","","post_mooney1_questions","survey-likert","43","296447","0.0-6.0-2.5","2645899","co37603","norming","","","{""curiosity"":2,""confidence"":1}","[0,1]","../img/tt/140tt.jpg","",""
"6926.190000000002","","","recognition","survey-text","44","303375","0.0-6.0-3.5","2645899","co37603","norming","","","{""guess"":""flower""}","","../img/tt/140tt.jpg","",""
"null","../img/gs/140gs.jpg","null","reveal","image-keyboard-response","45","305377","0.0-6.0-4.5","2645899","co37603","norming","","","","","","",""
"null","../img/tt/140tt.jpg","null","mooney2","image-keyboard-response","46","307382","0.0-6.0-5.5","2645899","co37603","norming","","","","","","",""
"2326.359999999928","","","post_reveal_questions","survey-likert","47","309711","0.0-6.0-6.5","2645899","co37603","norming","","","{""aha"":6}","[0]","../img/tt/140tt.jpg","",""
"null","<div style=""font-size:60px;""> </div>","null","fixation","html-keyboard-response","48","309913","0.0-6.0-0.6","2645899","co37603","norming","","","","","","",""
"null","../img/tt/001tt.jpg","null","mooney1","image-keyboard-response","49","312915","0.0-6.0-1.6","2645899","co37603","norming","","","","","","",""
"8193.130000000005","","","post_mooney1_questions","survey-likert","50","321111","0.0-6.0-2.6","2645899","co37603","norming","","","{""curiosity"":6,""confidence"":1}","[0,1]","../img/tt/001tt.jpg","",""
"3646.2899999998626","","","recognition","survey-text","51","324759","0.0-6.0-3.6","2645899","co37603","norming","","","{""guess"":""cow""}","","../img/tt/001tt.jpg","",""
"null","../img/gs/001gs.jpg","null","reveal","image-keyboard-response","52","326765","0.0-6.0-4.6","2645899","co37603","norming","","","","","","",""
"null","../img/tt/001tt.jpg","null","mooney2","image-keyboard-response","53","328773","0.0-6.0-5.6","2645899","co37603","norming","","","","","","",""
"1695.664999999979","","","post_reveal_questions","survey-likert","54","330470","0.0-6.0-6.6","2645899","co37603","norming","","","{""aha"":1}","[0]","../img/tt/001tt.jpg","",""
"null","<div style=""font-size:60px;""> </div>","null","fixation","html-keyboard-response","55","330679","0.0-6.0-0.7","2645899","co37603","norming","","","","","","",""
"null","../img/tt/507tt.jpg","null","mooney1","image-keyboard-response","56","333683","0.0-6.0-1.7","2645899","co37603","norming","","","","","","",""
"4169.254999999946","","","post_mooney1_questions","survey-likert","57","337855","0.0-6.0-2.7","2645899","co37603","norming","","","{""curiosity"":5,""confidence"":4}","[0,1]","../img/tt/507tt.jpg","",""
"4158.4749999999185","","","recognition","survey-text","58","342015","0.0-6.0-3.7","2645899","co37603","norming","","","{""guess"":""horse""}","","../img/tt/507tt.jpg","",""
"null","../img/gs/507gs.jpg","null","reveal","image-keyboard-response","59","344025","0.0-6.0-4.7","2645899","co37603","norming","","","","","","",""
"null","../img/tt/507tt.jpg","null","mooney2","image-keyboard-response","60","346033","0.0-6.0-5.7","2645899","co37603","norming","","","","","","",""
"5403.5","","","post_reveal_questions","survey-likert","61","351438","0.0-6.0-6.7","2645899","co37603","norming","","","{""aha"":4}","[0]","../img/tt/507tt.jpg","",""
"null","<div style=""font-size:60px;""> </div>","null","fixation","html-keyboard-response","62","351640","0.0-6.0-0.8","2645899","co37603","norming","","","","","","",""
"null","../img/tt/031tt.jpg","null","mooney1","image-keyboard-response","63","354642","0.0-6.0-1.8","2645899","co37603","norming","","","","","","",""
"4481.745000000054","","","post_mooney1_questions","survey-likert","64","359127","0.0-6.0-2.8","2645899","co37603","norming","","","{""curiosity"":5,""confidence"":1}","[0,1]","../img/tt/031tt.jpg","",""
"3870.0449999999837","","","recognition","survey-text","65","362998","0.0-6.0-3.8","2645899","co37603","norming","","","{""guess"":""bear""}","","../img/tt/031tt.jpg","",""
"null","../img/gs/031gs.jpg","null","reveal","image-keyboard-response","66","365004","0.0-6.0-4.8","2645899","co37603","norming","","","","","","",""
"null","../img/tt/031tt.jpg","null","mooney2","image-keyboard-response","67","367012","0.0-6.0-5.8","2645899","co37603","norming","","","","","","",""
"3280.090000000084","","","post_reveal_questions","survey-likert","68","370294","0.0-6.0-6.8","2645899","co37603","norming","","","{""aha"":3}","[0]","../img/tt/031tt.jpg","",""
"null","<div style=""font-size:60px;""> </div>","null","fixation","html-keyboard-response","69","370498","0.0-6.0-0.9","2645899","co37603","norming","","","","","","",""
"null","../img/tt/1004tt.jpg","null","mooney1","image-keyboard-response","70","373501","0.0-6.0-1.9","2645899","co37603","norming","","","","","","",""
"3559.1350000000675","","","post_mooney1_questions","survey-likert","71","377063","0.0-6.0-2.9","2645899","co37603","norming","","","{""curiosity"":2,""confidence"":3}","[0,1]","../img/tt/1004tt.jpg","",""
"4430.485000000102","","","recognition","survey-text","72","381495","0.0-6.0-3.9","2645899","co37603","norming","","","{""guess"":""cat""}","","../img/tt/1004tt.jpg","",""
"null","../img/gs/1004gs.jpg","null","reveal","image-keyboard-response","73","383496","0.0-6.0-4.9","2645899","co37603","norming","","","","","","",""
"null","../img/tt/1004tt.jpg","null","mooney2","image-keyboard-response","74","385503","0.0-6.0-5.9","2645899","co37603","norming","","","","","","",""
"4708.76999999996","","","post_reveal_questions","survey-likert","75","390214","0.0-6.0-6.9","2645899","co37603","norming","","","{""aha"":4}","[0]","../img/tt/1004tt.jpg","",""
"null","<div style=""font-size:60px;""> </div>","null","fixation","html-keyboard-response","76","390421","0.0-6.0-0.10","2645899","co37603","norming","","","","","","",""
"null","../img/tt/442tt.jpg","null","mooney1","image-keyboard-response","77","393427","0.0-6.0-1.10","2645899","co37603","norming","","","","","","",""
"6360.439999999944","","","post_mooney1_questions","survey-likert","78","399790","0.0-6.0-2.10","2645899","co37603","norming","","","{""curiosity"":5,""confidence"":6}","[0,1]","../img/tt/442tt.jpg","",""
"5132.664999999979","","","recognition","survey-text","79","404926","0.0-6.0-3.10","2645899","co37603","norming","","","{""guess"":""panda""}","","../img/tt/442tt.jpg","",""
"null","../img/gs/442gs.jpg","null","reveal","image-keyboard-response","80","406927","0.0-6.0-4.10","2645899","co37603","norming","","","","","","",""
"null","../img/tt/442tt.jpg","null","mooney2","image-keyboard-response","81","408935","0.0-6.0-5.10","2645899","co37603","norming","","","","","","",""
"3293.5800000000163","","","post_reveal_questions","survey-likert","82","412225","0.0-6.0-6.10","2645899","co37603","norming","","","{""aha"":4}","[0]","../img/tt/442tt.jpg","",""
"null","<div style=""font-size:60px;""> </div>","null","fixation","html-keyboard-response","83","412428","0.0-6.0-0.11","2645899","co37603","norming","","","","","","",""
"null","../img/tt/1116tt.jpg","null","mooney1","image-keyboard-response","84","415432","0.0-6.0-1.11","2645899","co37603","norming","","","","","","",""
"4080.310000000056","","","post_mooney1_questions","survey-likert","85","419513","0.0-6.0-2.11","2645899","co37603","norming","","","{""curiosity"":2,""confidence"":3}","[0,1]","../img/tt/1116tt.jpg","",""
"3845.8499999999185","","","recognition","survey-text","86","423361","0.0-6.0-3.11","2645899","co37603","norming","","","{""guess"":""car""}","","../img/tt/1116tt.jpg","",""
"null","../img/gs/1116gs.jpg","null","reveal","image-keyboard-response","87","425364","0.0-6.0-4.11","2645899","co37603","norming","","","","","","",""
"null","../img/tt/1116tt.jpg","null","mooney2","image-keyboard-response","88","427365","0.0-6.0-5.11","2645899","co37603","norming","","","","","","",""
"2145.465000000084","","","post_reveal_questions","survey-likert","89","429513","0.0-6.0-6.11","2645899","co37603","norming","","","{""aha"":4}","[0]","../img/tt/1116tt.jpg","",""
"null","<div style=""font-size:60px;""> </div>","null","fixation","html-keyboard-response","90","429719","0.0-6.0-0.12","2645899","co37603","norming","","","","","","",""
"null","../img/tt/111tt.jpg","null","mooney1","image-keyboard-response","91","432723","0.0-6.0-1.12","2645899","co37603","norming","","","","","","",""
"4451.540000000037","","","post_mooney1_questions","survey-likert","92","437177","0.0-6.0-2.12","2645899","co37603","norming","","","{""curiosity"":3,""confidence"":2}","[0,1]","../img/tt/111tt.jpg","",""
"4486.384999999951","","","recognition","survey-text","93","441665","0.0-6.0-3.12","2645899","co37603","norming","","","{""guess"":""phone""}","","../img/tt/111tt.jpg","",""
"null","../img/gs/111gs.jpg","null","reveal","image-keyboard-response","94","443667","0.0-6.0-4.12","2645899","co37603","norming","","","","","","",""
"null","../img/tt/111tt.jpg","null","mooney2","image-keyboard-response","95","445674","0.0-6.0-5.12","2645899","co37603","norming","","","","","","",""
"2748.844999999972","","","post_reveal_questions","survey-likert","96","448425","0.0-6.0-6.12","2645899","co37603","norming","","","{""aha"":5}","[0]","../img/tt/111tt.jpg","",""
"null","<div style=""font-size:60px;""> </div>","null","fixation","html-keyboard-response","97","448628","0.0-6.0-0.13","2645899","co37603","norming","","","","","","",""
"null","../img/tt/1066tt.jpg","null","mooney1","image-keyboard-response","98","451640","0.0-6.0-1.13","2645899","co37603","norming","","","","","","",""
"4502.700000000012","","","post_mooney1_questions","survey-likert","99","456145","0.0-6.0-2.13","2645899","co37603","norming","","","{""curiosity"":2,""confidence"":5}","[0,1]","../img/tt/1066tt.jpg","",""
"3438.335000000079","","","recognition","survey-text","100","459585","0.0-6.0-3.13","2645899","co37603","norming","","","{""guess"":""bus""}","","../img/tt/1066tt.jpg","",""
"null","../img/gs/1066gs.jpg","null","reveal","image-keyboard-response","101","461593","0.0-6.0-4.13","2645899","co37603","norming","","","","","","",""
"null","../img/tt/1066tt.jpg","null","mooney2","image-keyboard-response","102","463596","0.0-6.0-5.13","2645899","co37603","norming","","","","","","",""
"2314.5650000000605","","","post_reveal_questions","survey-likert","103","465913","0.0-6.0-6.13","2645899","co37603","norming","","","{""aha"":1}","[0]","../img/tt/1066tt.jpg","",""
"null","<div style=""font-size:60px;""> </div>","null","fixation","html-keyboard-response","104","466114","0.0-6.0-0.14","2645899","co37603","norming","","","","","","",""
"null","../img/tt/1241tt.jpg","null","mooney1","image-keyboard-response","105","469119","0.0-6.0-1.14","2645899","co37603","norming","","","","","","",""
"3192.624999999942","","","post_mooney1_questions","survey-likert","106","472322","0.0-6.0-2.14","2645899","co37603","norming","","","{""curiosity"":2,""confidence"":4}","[0,1]","../img/tt/1241tt.jpg","",""
"3397.9499999999534","","","recognition","survey-text","107","475721","0.0-6.0-3.14","2645899","co37603","norming","","","{""guess"":""pig""}","","../img/tt/1241tt.jpg","",""
"null","../img/gs/1241gs.jpg","null","reveal","image-keyboard-response","108","477730","0.0-6.0-4.14","2645899","co37603","norming","","","","","","",""
"null","../img/tt/1241tt.jpg","null","mooney2","image-keyboard-response","109","479731","0.0-6.0-5.14","2645899","co37603","norming","","","","","","",""
"3220.5050000000047","","","post_reveal_questions","survey-likert","110","482954","0.0-6.0-6.14","2645899","co37603","norming","","","{""aha"":5}","[0]","../img/tt/1241tt.jpg","",""
"null","<div style=""font-size:60px;""> </div>","null","fixation","html-keyboard-response","111","483164","0.0-6.0-0.15","2645899","co37603","norming","","","","","","",""
"null","../img/tt/056tt.jpg","null","mooney1","image-keyboard-response","112","486172","0.0-6.0-1.15","2645899","co37603","norming","","","","","","",""
"6003.315000000002","","","post_mooney1_questions","survey-likert","113","492178","0.0-6.0-2.15","2645899","co37603","norming","","","{""curiosity"":5,""confidence"":3}","[0,1]","../img/tt/056tt.jpg","",""
"4054.164999999979","","","recognition","survey-text","114","496234","0.0-6.0-3.15","2645899","co37603","norming","","","{""guess"":""wolf""}","","../img/tt/056tt.jpg","",""
"null","../img/gs/056gs.jpg","null","reveal","image-keyboard-response","115","498235","0.0-6.0-4.15","2645899","co37603","norming","","","","","","",""
"null","../img/tt/056tt.jpg","null","mooney2","image-keyboard-response","116","500243","0.0-6.0-5.15","2645899","co37603","norming","","","","","","",""
"1612.1699999999837","","","post_reveal_questions","survey-likert","117","501858","0.0-6.0-6.15","2645899","co37603","norming","","","{""aha"":3}","[0]","../img/tt/056tt.jpg","",""
"null","<div style=""font-size:60px;""> </div>","null","fixation","html-keyboard-response","118","502066","0.0-6.0-0.16","2645899","co37603","norming","","","","","","",""
"null","../img/tt/1156tt.jpg","null","mooney1","image-keyboard-response","119","505071","0.0-6.0-1.16","2645899","co37603","norming","","","","","","",""
"4216.074999999895","","","post_mooney1_questions","survey-likert","120","509290","0.0-6.0-2.16","2645899","co37603","norming","","","{""curiosity"":2,""confidence"":5}","[0,1]","../img/tt/1156tt.jpg","",""
"8502.30999999994","","","recognition","survey-text","121","517794","0.0-6.0-3.16","2645899","co37603","norming","","","{""guess"":""woman""}","","../img/tt/1156tt.jpg","",""
"null","../img/gs/1156gs.jpg","null","reveal","image-keyboard-response","122","519796","0.0-6.0-4.16","2645899","co37603","norming","","","","","","",""
"null","../img/tt/1156tt.jpg","null","mooney2","image-keyboard-response","123","521798","0.0-6.0-5.16","2645899","co37603","norming","","","","","","",""
"2089.2850000000326","","","post_reveal_questions","survey-likert","124","523890","0.0-6.0-6.16","2645899","co37603","norming","","","{""aha"":3}","[0]","../img/tt/1156tt.jpg","",""
"null","<div style=""font-size:60px;""> </div>","null","fixation","html-keyboard-response","125","524097","0.0-6.0-0.17","2645899","co37603","norming","","","","","","",""
"null","../img/tt/1234tt.jpg","null","mooney1","image-keyboard-response","126","527101","0.0-6.0-1.17","2645899","co37603","norming","","","","","","",""
"3338.730000000098","","","post_mooney1_questions","survey-likert","127","530442","0.0-6.0-2.17","2645899","co37603","norming","","","{""curiosity"":2,""confidence"":4}","[0,1]","../img/tt/1234tt.jpg","",""
"3589.899999999907","","","recognition","survey-text","128","534030","0.0-6.0-3.17","2645899","co37603","norming","","","{""guess"":""duck""}","","../img/tt/1234tt.jpg","",""
"null","../img/gs/1234gs.jpg","null","reveal","image-keyboard-response","129","536041","0.0-6.0-4.17","2645899","co37603","norming","","","","","","",""
"null","../img/tt/1234tt.jpg","null","mooney2","image-keyboard-response","130","538051","0.0-6.0-5.17","2645899","co37603","norming","","","","","","",""
"1952.5650000000605","","","post_reveal_questions","survey-likert","131","540006","0.0-6.0-6.17","2645899","co37603","norming","","","{""aha"":4}","[0]","../img/tt/1234tt.jpg","",""
"null","<div style=""font-size:60px;""> </div>","null","fixation","html-keyboard-response","132","540210","0.0-6.0-0.18","2645899","co37603","norming","","","","","","",""
"null","../img/tt/194tt.jpg","null","mooney1","image-keyboard-response","133","543222","0.0-6.0-1.18","2645899","co37603","norming","","","","","","",""
"4541.744999999995","","","post_mooney1_questions","survey-likert","134","547766","0.0-6.0-2.18","2645899","co37603","norming","","","{""curiosity"":2,""confidence"":4}","[0,1]","../img/tt/194tt.jpg","",""
"5630.124999999884","","","recognition","survey-text","135","553398","0.0-6.0-3.18","2645899","co37603","norming","","","{""guess"":""metro ""}","","../img/tt/194tt.jpg","",""
"null","../img/gs/194gs.jpg","null","reveal","image-keyboard-response","136","555399","0.0-6.0-4.18","2645899","co37603","norming","","","","","","",""
"null","../img/tt/194tt.jpg","null","mooney2","image-keyboard-response","137","557406","0.0-6.0-5.18","2645899","co37603","norming","","","","","","",""
"2765.444999999949","","","post_reveal_questions","survey-likert","138","560174","0.0-6.0-6.18","2645899","co37603","norming","","","{""aha"":3}","[0]","../img/tt/194tt.jpg","",""
"null","<div style=""font-size:60px;""> </div>","null","fixation","html-keyboard-response","139","560380","0.0-6.0-0.19","2645899","co37603","norming","","","","","","",""
"null","../img/tt/549tt.jpg","null","mooney1","image-keyboard-response","140","563386","0.0-6.0-1.19","2645899","co37603","norming","","","","","","",""
"4497.835000000079","","","post_mooney1_questions","survey-likert","141","567886","0.0-6.0-2.19","2645899","co37603","norming","","","{""curiosity"":3,""confidence"":0}","[0,1]","../img/tt/549tt.jpg","",""
"6998.040000000154","","","recognition","survey-text","142","574886","0.0-6.0-3.19","2645899","co37603","norming","","","{""guess"":""forest""}","","../img/tt/549tt.jpg","",""
"null","../img/gs/549gs.jpg","null","reveal","image-keyboard-response","143","576887","0.0-6.0-4.19","2645899","co37603","norming","","","","","","",""
"null","../img/tt/549tt.jpg","null","mooney2","image-keyboard-response","144","578896","0.0-6.0-5.19","2645899","co37603","norming","","","","","","",""
"2867.8699999999953","","","post_reveal_questions","survey-likert","145","581766","0.0-6.0-6.19","2645899","co37603","norming","","","{""aha"":5}","[0]","../img/tt/549tt.jpg","",""
"null","<div style=""font-size:60px;""> </div>","null","fixation","html-keyboard-response","146","581969","0.0-6.0-0.20","2645899","co37603","norming","","","","","","",""
"null","../img/tt/1307tt.jpg","null","mooney1","image-keyboard-response","147","584975","0.0-6.0-1.20","2645899","co37603","norming","","","","","","",""
"3436.8200000001816","","","post_mooney1_questions","survey-likert","148","588414","0.0-6.0-2.20","2645899","co37603","norming","","","{""curiosity"":2,""confidence"":2}","[0,1]","../img/tt/1307tt.jpg","",""
"5989.85999999987","","","recognition","survey-text","149","594409","0.0-6.0-3.20","2645899","co37603","norming","","","{""guess"":""farm""}","","../img/tt/1307tt.jpg","",""
"null","../img/gs/1307gs.jpg","null","reveal","image-keyboard-response","150","596411","0.0-6.0-4.20","2645899","co37603","norming","","","","","","",""
"null","../img/tt/1307tt.jpg","null","mooney2","image-keyboard-response","151","598414","0.0-6.0-5.20","2645899","co37603","norming","","","","","","",""
"3193.6949999998324","","","post_reveal_questions","survey-likert","152","601609","0.0-6.0-6.20","2645899","co37603","norming","","","{""aha"":5}","[0]","../img/tt/1307tt.jpg","",""
"null","<div style=""font-size:60px;""> </div>","null","fixation","html-keyboard-response","153","601815","0.0-6.0-0.21","2645899","co37603","norming","","","","","","",""
"null","../img/tt/1173tt.jpg","null","mooney1","image-keyboard-response","154","604818","0.0-6.0-1.21","2645899","co37603","norming","","","","","","",""
"4510.305000000051","","","post_mooney1_questions","survey-likert","155","609329","0.0-6.0-2.21","2645899","co37603","norming","","","{""curiosity"":1,""confidence"":3}","[0,1]","../img/tt/1173tt.jpg","",""
"8342.159999999916","","","recognition","survey-text","156","617673","0.0-6.0-3.21","2645899","co37603","norming","","","{""guess"":""sport girls""}","","../img/tt/1173tt.jpg","",""
"null","../img/gs/1173gs.jpg","null","reveal","image-keyboard-response","157","619679","0.0-6.0-4.21","2645899","co37603","norming","","","","","","",""
"null","../img/tt/1173tt.jpg","null","mooney2","image-keyboard-response","158","621681","0.0-6.0-5.21","2645899","co37603","norming","","","","","","",""
"3102.1300000000047","","","post_reveal_questions","survey-likert","159","624785","0.0-6.0-6.21","2645899","co37603","norming","","","{""aha"":2}","[0]","../img/tt/1173tt.jpg","",""
"null","<div style=""font-size:60px;""> </div>","null","fixation","html-keyboard-response","160","624991","0.0-6.0-0.22","2645899","co37603","norming","","","","","","",""
"null","../img/tt/1027tt.jpg","null","mooney1","image-keyboard-response","161","627998","0.0-6.0-1.22","2645899","co37603","norming","","","","","","",""
"4679.139999999898","","","post_mooney1_questions","survey-likert","162","632681","0.0-6.0-2.22","2645899","co37603","norming","","","{""curiosity"":5,""confidence"":3}","[0,1]","../img/tt/1027tt.jpg","",""
"9301.76500000013","","","recognition","survey-text","163","641985","0.0-6.0-3.22","2645899","co37603","norming","","","{""guess"":""horses""}","","../img/tt/1027tt.jpg","",""
"null","../img/gs/1027gs.jpg","null","reveal","image-keyboard-response","164","643989","0.0-6.0-4.22","2645899","co37603","norming","","","","","","",""
"null","../img/tt/1027tt.jpg","null","mooney2","image-keyboard-response","165","645993","0.0-6.0-5.22","2645899","co37603","norming","","","","","","",""
"1327.134999999893","","","post_reveal_questions","survey-likert","166","647321","0.0-6.0-6.22","2645899","co37603","norming","","","{""aha"":3}","[0]","../img/tt/1027tt.jpg","",""
"null","<div style=""font-size:60px;""> </div>","null","fixation","html-keyboard-response","167","647524","0.0-6.0-0.23","2645899","co37603","norming","","","","","","",""
"null","../img/tt/590tt.jpg","null","mooney1","image-keyboard-response","168","650526","0.0-6.0-1.23","2645899","co37603","norming","","","","","","",""
"5594.444999999949","","","post_mooney1_questions","survey-likert","169","656120","0.0-6.0-2.23","2645899","co37603","norming","","","{""curiosity"":5,""confidence"":1}","[0,1]","../img/tt/590tt.jpg","",""
"4414.160000000033","","","recognition","survey-text","170","660536","0.0-6.0-3.23","2645899","co37603","norming","","","{""guess"":""""}","","../img/tt/590tt.jpg","",""
"null","../img/gs/590gs.jpg","null","reveal","image-keyboard-response","171","662538","0.0-6.0-4.23","2645899","co37603","norming","","","","","","",""
"null","../img/tt/590tt.jpg","null","mooney2","image-keyboard-response","172","664540","0.0-6.0-5.23","2645899","co37603","norming","","","","","","",""
"3514.4100000000326","","","post_reveal_questions","survey-likert","173","668056","0.0-6.0-6.23","2645899","co37603","norming","","","{""aha"":5}","[0]","../img/tt/590tt.jpg","",""
"null","<div style=""font-size:60px;""> </div>","null","fixation","html-keyboard-response","174","668266","0.0-6.0-0.24","2645899","co37603","norming","","","","","","",""
"null","../img/tt/1089tt.jpg","null","mooney1","image-keyboard-response","175","671277","0.0-6.0-1.24","2645899","co37603","norming","","","","","","",""
"5504.535000000033","","","post_mooney1_questions","survey-likert","176","676784","0.0-6.0-2.24","2645899","co37603","norming","","","{""curiosity"":4,""confidence"":4}","[0,1]","../img/tt/1089tt.jpg","",""
"4758.070000000065","","","recognition","survey-text","177","681544","0.0-6.0-3.24","2645899","co37603","norming","","","{""guess"":""elefant""}","","../img/tt/1089tt.jpg","",""
"null","../img/gs/1089gs.jpg","null","reveal","image-keyboard-response","178","683548","0.0-6.0-4.24","2645899","co37603","norming","","","","","","",""
"null","../img/tt/1089tt.jpg","null","mooney2","image-keyboard-response","179","685552","0.0-6.0-5.24","2645899","co37603","norming","","","","","","",""
"2437.630000000121","","","post_reveal_questions","survey-likert","180","687992","0.0-6.0-6.24","2645899","co37603","norming","","","{""aha"":2}","[0]","../img/tt/1089tt.jpg","",""
"null","<div style=""font-size:60px;""> </div>","null","fixation","html-keyboard-response","181","688193","0.0-6.0-0.25","2645899","co37603","norming","","","","","","",""
"null","../img/tt/1171tt.jpg","null","mooney1","image-keyboard-response","182","691200","0.0-6.0-1.25","2645899","co37603","norming","","","","","","",""
"5941.5449999999255","","","post_mooney1_questions","survey-likert","183","697144","0.0-6.0-2.25","2645899","co37603","norming","","","{""curiosity"":3,""confidence"":1}","[0,1]","../img/tt/1171tt.jpg","",""
"4198.170000000158","","","recognition","survey-text","184","701344","0.0-6.0-3.25","2645899","co37603","norming","","","{""guess"":""insect""}","","../img/tt/1171tt.jpg","",""
"null","../img/gs/1171gs.jpg","null","reveal","image-keyboard-response","185","703351","0.0-6.0-4.25","2645899","co37603","norming","","","","","","",""
"null","../img/tt/1171tt.jpg","null","mooney2","image-keyboard-response","186","705360","0.0-6.0-5.25","2645899","co37603","norming","","","","","","",""
"2829.810000000056","","","post_reveal_questions","survey-likert","187","708192","0.0-6.0-6.25","2645899","co37603","norming","","","{""aha"":5}","[0]","../img/tt/1171tt.jpg","",""
"null","<div style=""font-size:60px;""> </div>","null","fixation","html-keyboard-response","188","708396","0.0-6.0-0.26","2645899","co37603","norming","","","","","","",""
"null","../img/tt/112tt.jpg","null","mooney1","image-keyboard-response","189","711404","0.0-6.0-1.26","2645899","co37603","norming","","","","","","",""
"4049.3249999999534","","","post_mooney1_questions","survey-likert","190","715458","0.0-6.0-2.26","2645899","co37603","norming","","","{""curiosity"":5,""confidence"":2}","[0,1]","../img/tt/112tt.jpg","",""
"4885.974999999977","","","recognition","survey-text","191","720345","0.0-6.0-3.26","2645899","co37603","norming","","","{""guess"":""batterey""}","","../img/tt/112tt.jpg","",""
"null","../img/gs/112gs.jpg","null","reveal","image-keyboard-response","192","722356","0.0-6.0-4.26","2645899","co37603","norming","","","","","","",""
"null","../img/tt/112tt.jpg","null","mooney2","image-keyboard-response","193","724358","0.0-6.0-5.26","2645899","co37603","norming","","","","","","",""
"3033.1500000000233","","","post_reveal_questions","survey-likert","194","727394","0.0-6.0-6.26","2645899","co37603","norming","","","{""aha"":6}","[0]","../img/tt/112tt.jpg","",""
"null","<div style=""font-size:60px;""> </div>","null","fixation","html-keyboard-response","195","727598","0.0-6.0-0.27","2645899","co37603","norming","","","","","","",""
"null","../img/tt/046tt.jpg","null","mooney1","image-keyboard-response","196","730600","0.0-6.0-1.27","2645899","co37603","norming","","","","","","",""
"5623.640000000014","","","post_mooney1_questions","survey-likert","197","736226","0.0-6.0-2.27","2645899","co37603","norming","","","{""curiosity"":4,""confidence"":5}","[0,1]","../img/tt/046tt.jpg","",""
"3558.2650000001304","","","recognition","survey-text","198","739786","0.0-6.0-3.27","2645899","co37603","norming","","","{""guess"":""dog""}","","../img/tt/046tt.jpg","",""
"null","../img/gs/046gs.jpg","null","reveal","image-keyboard-response","199","741794","0.0-6.0-4.27","2645899","co37603","norming","","","","","","",""
"null","../img/tt/046tt.jpg","null","mooney2","image-keyboard-response","200","743795","0.0-6.0-5.27","2645899","co37603","norming","","","","","","",""
"2092.695000000065","","","post_reveal_questions","survey-likert","201","745890","0.0-6.0-6.27","2645899","co37603","norming","","","{""aha"":3}","[0]","../img/tt/046tt.jpg","",""
"null","<div style=""font-size:60px;""> </div>","null","fixation","html-keyboard-response","202","746092","0.0-6.0-0.28","2645899","co37603","norming","","","","","","",""
"null","../img/tt/118tt.jpg","null","mooney1","image-keyboard-response","203","749102","0.0-6.0-1.28","2645899","co37603","norming","","","","","","",""
"3209.1450000000186","","","post_mooney1_questions","survey-likert","204","752314","0.0-6.0-2.28","2645899","co37603","norming","","","{""curiosity"":2,""confidence"":3}","[0,1]","../img/tt/118tt.jpg","",""
"5926.094999999972","","","recognition","survey-text","205","758242","0.0-6.0-3.28","2645899","co37603","norming","","","{""guess"":""stairs""}","","../img/tt/118tt.jpg","",""
"null","../img/gs/118gs.jpg","null","reveal","image-keyboard-response","206","760249","0.0-6.0-4.28","2645899","co37603","norming","","","","","","",""
"null","../img/tt/118tt.jpg","null","mooney2","image-keyboard-response","207","762251","0.0-6.0-5.28","2645899","co37603","norming","","","","","","",""
"2317.369999999879","","","post_reveal_questions","survey-likert","208","764570","0.0-6.0-6.28","2645899","co37603","norming","","","{""aha"":5}","[0]","../img/tt/118tt.jpg","",""
"null","<div style=""font-size:60px;""> </div>","null","fixation","html-keyboard-response","209","764780","0.0-6.0-0.29","2645899","co37603","norming","","","","","","",""
"null","../img/tt/1128tt.jpg","null","mooney1","image-keyboard-response","210","767789","0.0-6.0-1.29","2645899","co37603","norming","","","","","","",""
"3211.5550000001676","","","post_mooney1_questions","survey-likert","211","771001","0.0-6.0-2.29","2645899","co37603","norming","","","{""curiosity"":2,""confidence"":2}","[0,1]","../img/tt/1128tt.jpg","",""
"4606.234999999986","","","recognition","survey-text","212","775613","0.0-6.0-3.29","2645899","co37603","norming","","","{""guess"":""human""}","","../img/tt/1128tt.jpg","",""
"null","../img/gs/1128gs.jpg","null","reveal","image-keyboard-response","213","777624","0.0-6.0-4.29","2645899","co37603","norming","","","","","","",""
"null","../img/tt/1128tt.jpg","null","mooney2","image-keyboard-response","214","779625","0.0-6.0-5.29","2645899","co37603","norming","","","","","","",""
"1907.6350000000093","","","post_reveal_questions","survey-likert","215","781533","0.0-6.0-6.29","2645899","co37603","norming","","","{""aha"":4}","[0]","../img/tt/1128tt.jpg","",""
"null","<div style=""font-size:60px;""> </div>","null","fixation","html-keyboard-response","216","781740","0.0-6.0-0.30","2645899","co37603","norming","","","","","","",""
"null","../img/tt/1205tt.jpg","null","mooney1","image-keyboard-response","217","784743","0.0-6.0-1.30","2645899","co37603","norming","","","","","","",""
"3029.215000000084","","","post_mooney1_questions","survey-likert","218","787773","0.0-6.0-2.30","2645899","co37603","norming","","","{""curiosity"":2,""confidence"":2}","[0,1]","../img/tt/1205tt.jpg","",""
"4990.084999999846","","","recognition","survey-text","219","792765","0.0-6.0-3.30","2645899","co37603","norming","","","{""guess"":""cinema""}","","../img/tt/1205tt.jpg","",""
"null","../img/gs/1205gs.jpg","null","reveal","image-keyboard-response","220","794773","0.0-6.0-4.30","2645899","co37603","norming","","","","","","",""
"null","../img/tt/1205tt.jpg","null","mooney2","image-keyboard-response","221","796779","0.0-6.0-5.30","2645899","co37603","norming","","","","","","",""
"3265.809999999823","","","post_reveal_questions","survey-likert","222","800045","0.0-6.0-6.30","2645899","co37603","norming","","","{""aha"":4}","[0]","../img/tt/1205tt.jpg","",""
"null","<div style=""font-size:60px;""> </div>","null","fixation","html-keyboard-response","223","800251","0.0-6.0-0.31","2645899","co37603","norming","","","","","","",""
"null","../img/tt/1069tt.jpg","null","mooney1","image-keyboard-response","224","803255","0.0-6.0-1.31","2645899","co37603","norming","","","","","","",""
"4795.954999999958","","","post_mooney1_questions","survey-likert","225","808053","0.0-6.0-2.31","2645899","co37603","norming","","","{""curiosity"":4,""confidence"":3}","[0,1]","../img/tt/1069tt.jpg","",""
"3773.6849999999395","","","recognition","survey-text","226","811829","0.0-6.0-3.31","2645899","co37603","norming","","","{""guess"":""goat""}","","../img/tt/1069tt.jpg","",""
"null","../img/gs/1069gs.jpg","null","reveal","image-keyboard-response","227","813831","0.0-6.0-4.31","2645899","co37603","norming","","","","","","",""
"null","../img/tt/1069tt.jpg","null","mooney2","image-keyboard-response","228","815836","0.0-6.0-5.31","2645899","co37603","norming","","","","","","",""
"2224.495000000228","","","post_reveal_questions","survey-likert","229","818061","0.0-6.0-6.31","2645899","co37603","norming","","","{""aha"":3}","[0]","../img/tt/1069tt.jpg","",""
"null","<div style=""font-size:60px;""> </div>","null","fixation","html-keyboard-response","230","818265","0.0-6.0-0.32","2645899","co37603","norming","","","","","","",""
"null","../img/tt/1196tt.jpg","null","mooney1","image-keyboard-response","231","821267","0.0-6.0-1.32","2645899","co37603","norming","","","","","","",""
"3441.2399999998743","","","post_mooney1_questions","survey-likert","232","824709","0.0-6.0-2.32","2645899","co37603","norming","","","{""curiosity"":1,""confidence"":3}","[0,1]","../img/tt/1196tt.jpg","",""
"3741.835000000079","","","recognition","survey-text","233","828453","0.0-6.0-3.32","2645899","co37603","norming","","","{""guess"":""leg""}","","../img/tt/1196tt.jpg","",""
"null","../img/gs/1196gs.jpg","null","reveal","image-keyboard-response","234","830462","0.0-6.0-4.32","2645899","co37603","norming","","","","","","",""
"null","../img/tt/1196tt.jpg","null","mooney2","image-keyboard-response","235","832462","0.0-6.0-5.32","2645899","co37603","norming","","","","","","",""
"3102.215000000084","","","post_reveal_questions","survey-likert","236","835564","0.0-6.0-6.32","2645899","co37603","norming","","","{""aha"":5}","[0]","../img/tt/1196tt.jpg","",""
"null","<div style=""font-size:60px;""> </div>","null","fixation","html-keyboard-response","237","835766","0.0-6.0-0.33","2645899","co37603","norming","","","","","","",""
"null","../img/tt/1242tt.jpg","null","mooney1","image-keyboard-response","238","838767","0.0-6.0-1.33","2645899","co37603","norming","","","","","","",""
"3554.920000000042","","","post_mooney1_questions","survey-likert","239","842323","0.0-6.0-2.33","2645899","co37603","norming","","","{""curiosity"":3,""confidence"":5}","[0,1]","../img/tt/1242tt.jpg","",""
"3725.695000000065","","","recognition","survey-text","240","846051","0.0-6.0-3.33","2645899","co37603","norming","","","{""guess"":""fox""}","","../img/tt/1242tt.jpg","",""
"null","../img/gs/1242gs.jpg","null","reveal","image-keyboard-response","241","848055","0.0-6.0-4.33","2645899","co37603","norming","","","","","","",""
"null","../img/tt/1242tt.jpg","null","mooney2","image-keyboard-response","242","850056","0.0-6.0-5.33","2645899","co37603","norming","","","","","","",""
"1442.5049999998882","","","post_reveal_questions","survey-likert","243","851499","0.0-6.0-6.33","2645899","co37603","norming","","","{""aha"":5}","[0]","../img/tt/1242tt.jpg","",""
"null","<div style=""font-size:60px;""> </div>","null","fixation","html-keyboard-response","244","851700","0.0-6.0-0.34","2645899","co37603","norming","","","","","","",""
"null","../img/tt/1107tt.jpg","null","mooney1","image-keyboard-response","245","854702","0.0-6.0-1.34","2645899","co37603","norming","","","","","","",""
"3234.899999999907","","","post_mooney1_questions","survey-likert","246","857940","0.0-6.0-2.34","2645899","co37603","norming","","","{""curiosity"":3,""confidence"":5}","[0,1]","../img/tt/1107tt.jpg","",""
"3541.82500000007","","","recognition","survey-text","247","861483","0.0-6.0-3.34","2645899","co37603","norming","","","{""guess"":""kitten""}","","../img/tt/1107tt.jpg","",""
"null","../img/gs/1107gs.jpg","null","reveal","image-keyboard-response","248","863493","0.0-6.0-4.34","2645899","co37603","norming","","","","","","",""
"null","../img/tt/1107tt.jpg","null","mooney2","image-keyboard-response","249","865499","0.0-6.0-5.34","2645899","co37603","norming","","","","","","",""
"1735.5","","","post_reveal_questions","survey-likert","250","867235","0.0-6.0-6.34","2645899","co37603","norming","","","{""aha"":4}","[0]","../img/tt/1107tt.jpg","",""
"null","<div style=""font-size:60px;""> </div>","null","fixation","html-keyboard-response","251","867442","0.0-6.0-0.35","2645899","co37603","norming","","","","","","",""
"null","../img/tt/1159tt.jpg","null","mooney1","image-keyboard-response","252","870443","0.0-6.0-1.35","2645899","co37603","norming","","","","","","",""
"2701.7399999999907","","","post_mooney1_questions","survey-likert","253","873148","0.0-6.0-2.35","2645899","co37603","norming","","","{""curiosity"":3,""confidence"":4}","[0,1]","../img/tt/1159tt.jpg","",""
"4110.259999999893","","","recognition","survey-text","254","877259","0.0-6.0-3.35","2645899","co37603","norming","","","{""guess"":""bridge""}","","../img/tt/1159tt.jpg","",""
"null","../img/gs/1159gs.jpg","null","reveal","image-keyboard-response","255","879262","0.0-6.0-4.35","2645899","co37603","norming","","","","","","",""
"null","../img/tt/1159tt.jpg","null","mooney2","image-keyboard-response","256","881271","0.0-6.0-5.35","2645899","co37603","norming","","","","","","",""
"2338.944999999949","","","post_reveal_questions","survey-likert","257","883611","0.0-6.0-6.35","2645899","co37603","norming","","","{""aha"":4}","[0]","../img/tt/1159tt.jpg","",""
"null","<div style=""font-size:60px;""> </div>","null","fixation","html-keyboard-response","258","883821","0.0-6.0-0.36","2645899","co37603","norming","","","","","","",""
"null","../img/tt/418tt.jpg","null","mooney1","image-keyboard-response","259","886825","0.0-6.0-1.36","2645899","co37603","norming","","","","","","",""
"4719.869999999879","","","post_mooney1_questions","survey-likert","260","891547","0.0-6.0-2.36","2645899","co37603","norming","","","{""curiosity"":6,""confidence"":0}","[0,1]","../img/tt/418tt.jpg","",""
"893.8850000000093","","","recognition","survey-text","261","892443","0.0-6.0-3.36","2645899","co37603","norming","","","{""guess"":""""}","","../img/tt/418tt.jpg","",""
"null","../img/gs/418gs.jpg","null","reveal","image-keyboard-response","262","894444","0.0-6.0-4.36","2645899","co37603","norming","","","","","","",""
"null","../img/tt/418tt.jpg","null","mooney2","image-keyboard-response","263","896451","0.0-6.0-5.36","2645899","co37603","norming","","","","","","",""
"1978.4600000000792","","","post_reveal_questions","survey-likert","264","898433","0.0-6.0-6.36","2645899","co37603","norming","","","{""aha"":6}","[0]","../img/tt/418tt.jpg","",""
"null","<div style=""font-size:60px;""> </div>","null","fixation","html-keyboard-response","265","898637","0.0-6.0-0.37","2645899","co37603","norming","","","","","","",""
"null","../img/tt/1033tt.jpg","null","mooney1","image-keyboard-response","266","901643","0.0-6.0-1.37","2645899","co37603","norming","","","","","","",""
"3420.6149999999907","","","post_mooney1_questions","survey-likert","267","905065","0.0-6.0-2.37","2645899","co37603","norming","","","{""curiosity"":2,""confidence"":4}","[0,1]","../img/tt/1033tt.jpg","",""
"5134.375000000116","","","recognition","survey-text","268","910201","0.0-6.0-3.37","2645899","co37603","norming","","","{""guess"":""basbal""}","","../img/tt/1033tt.jpg","",""
"null","../img/gs/1033gs.jpg","null","reveal","image-keyboard-response","269","912212","0.0-6.0-4.37","2645899","co37603","norming","","","","","","",""
"null","../img/tt/1033tt.jpg","null","mooney2","image-keyboard-response","270","914222","0.0-6.0-5.37","2645899","co37603","norming","","","","","","",""
"1537.219999999972","","","post_reveal_questions","survey-likert","271","915761","0.0-6.0-6.37","2645899","co37603","norming","","","{""aha"":2}","[0]","../img/tt/1033tt.jpg","",""
"null","<div style=""font-size:60px;""> </div>","null","fixation","html-keyboard-response","272","915971","0.0-6.0-0.38","2645899","co37603","norming","","","","","","",""
"null","../img/tt/1363tt.jpg","null","mooney1","image-keyboard-response","273","918974","0.0-6.0-1.38","2645899","co37603","norming","","","","","","",""
"3440.8599999998696","","","post_mooney1_questions","survey-likert","274","922417","0.0-6.0-2.38","2645899","co37603","norming","","","{""curiosity"":6,""confidence"":0}","[0,1]","../img/tt/1363tt.jpg","",""
"782.3850000000093","","","recognition","survey-text","275","923201","0.0-6.0-3.38","2645899","co37603","norming","","","{""guess"":""""}","","../img/tt/1363tt.jpg","",""
"null","../img/gs/1363gs.jpg","null","reveal","image-keyboard-response","276","925212","0.0-6.0-4.38","2645899","co37603","norming","","","","","","",""
"null","../img/tt/1363tt.jpg","null","mooney2","image-keyboard-response","277","927213","0.0-6.0-5.38","2645899","co37603","norming","","","","","","",""
"2042.2750000000233","","","post_reveal_questions","survey-likert","278","929257","0.0-6.0-6.38","2645899","co37603","norming","","","{""aha"":3}","[0]","../img/tt/1363tt.jpg","",""
"null","<div style=""font-size:60px;""> </div>","null","fixation","html-keyboard-response","279","929466","0.0-6.0-0.39","2645899","co37603","norming","","","","","","",""
"null","../img/tt/1262tt.jpg","null","mooney1","image-keyboard-response","280","932473","0.0-6.0-1.39","2645899","co37603","norming","","","","","","",""
"3422.195000000065","","","post_mooney1_questions","survey-likert","281","935898","0.0-6.0-2.39","2645899","co37603","norming","","","{""curiosity"":5,""confidence"":1}","[0,1]","../img/tt/1262tt.jpg","",""
"3750.1450000002515","","","recognition","survey-text","282","939649","0.0-6.0-3.39","2645899","co37603","norming","","","{""guess"":""parrot""}","","../img/tt/1262tt.jpg","",""
"null","../img/gs/1262gs.jpg","null","reveal","image-keyboard-response","283","941655","0.0-6.0-4.39","2645899","co37603","norming","","","","","","",""
"null","../img/tt/1262tt.jpg","null","mooney2","image-keyboard-response","284","943657","0.0-6.0-5.39","2645899","co37603","norming","","","","","","",""
"2477.910000000149","","","post_reveal_questions","survey-likert","285","946137","0.0-6.0-6.39","2645899","co37603","norming","","","{""aha"":5}","[0]","../img/tt/1262tt.jpg","",""
"null","<div style=""font-size:60px;""> </div>","null","fixation","html-keyboard-response","286","946345","0.0-6.0-0.40","2645899","co37603","norming","","","","","","",""
"null","../img/tt/552tt.jpg","null","mooney1","image-keyboard-response","287","949357","0.0-6.0-1.40","2645899","co37603","norming","","","","","","",""
"4259.179999999935","","","post_mooney1_questions","survey-likert","288","953618","0.0-6.0-2.40","2645899","co37603","norming","","","{""curiosity"":6,""confidence"":0}","[0,1]","../img/tt/552tt.jpg","",""
"1446.015000000014","","","recognition","survey-text","289","955073","0.0-6.0-3.40","2645899","co37603","norming","","","{""guess"":""""}","","../img/tt/552tt.jpg","",""
"null","../img/gs/552gs.jpg","null","reveal","image-keyboard-response","290","957081","0.0-6.0-4.40","2645899","co37603","norming","","","","","","",""
"null","../img/tt/552tt.jpg","null","mooney2","image-keyboard-response","291","959092","0.0-6.0-5.40","2645899","co37603","norming","","","","","","",""
"2082.7650000001304","","","post_reveal_questions","survey-likert","292","961177","0.0-6.0-6.40","2645899","co37603","norming","","","{""aha"":5}","[0]","../img/tt/552tt.jpg","",""
"null","<div style=""font-size:60px;""> </div>","null","fixation","html-keyboard-response","293","961381","0.0-6.0-0.41","2645899","co37603","norming","","","","","","",""
"null","../img/tt/1272tt.jpg","null","mooney1","image-keyboard-response","294","964384","0.0-6.0-1.41","2645899","co37603","norming","","","","","","",""
"3000.0350000000326","","","post_mooney1_questions","survey-likert","295","967385","0.0-6.0-2.41","2645899","co37603","norming","","","{""curiosity"":6,""confidence"":4}","[0,1]","../img/tt/1272tt.jpg","",""
"3694.0449999999255","","","recognition","survey-text","296","971081","0.0-6.0-3.41","2645899","co37603","norming","","","{""guess"":""wolf""}","","../img/tt/1272tt.jpg","",""
"null","../img/gs/1272gs.jpg","null","reveal","image-keyboard-response","297","973092","0.0-6.0-4.41","2645899","co37603","norming","","","","","","",""
"null","../img/tt/1272tt.jpg","null","mooney2","image-keyboard-response","298","975093","0.0-6.0-5.41","2645899","co37603","norming","","","","","","",""
"1761.3750000001164","","","post_reveal_questions","survey-likert","299","976857","0.0-6.0-6.41","2645899","co37603","norming","","","{""aha"":3}","[0]","../img/tt/1272tt.jpg","",""
"null","<div style=""font-size:60px;""> </div>","null","fixation","html-keyboard-response","300","977063","0.0-6.0-0.42","2645899","co37603","norming","","","","","","",""
"null","../img/tt/468tt.jpg","null","mooney1","image-keyboard-response","301","980065","0.0-6.0-1.42","2645899","co37603","norming","","","","","","",""
"4389.629999999888","","","post_mooney1_questions","survey-likert","302","984457","0.0-6.0-2.42","2645899","co37603","norming","","","{""curiosity"":5,""confidence"":3}","[0,1]","../img/tt/468tt.jpg","",""
"3374.0100000000093","","","recognition","survey-text","303","987833","0.0-6.0-3.42","2645899","co37603","norming","","","{""guess"":""viol""}","","../img/tt/468tt.jpg","",""
"null","../img/gs/468gs.jpg","null","reveal","image-keyboard-response","304","989842","0.0-6.0-4.42","2645899","co37603","norming","","","","","","",""
"null","../img/tt/468tt.jpg","null","mooney2","image-keyboard-response","305","991845","0.0-6.0-5.42","2645899","co37603","norming","","","","","","",""
"3118.119999999879","","","post_reveal_questions","survey-likert","306","994969","0.0-6.0-6.42","2645899","co37603","norming","","","{""aha"":3}","[0]","../img/tt/468tt.jpg","",""
"null","<div style=""font-size:60px;""> </div>","null","fixation","html-keyboard-response","307","995175","0.0-6.0-0.43","2645899","co37603","norming","","","","","","",""
"null","../img/tt/124tt.jpg","null","mooney1","image-keyboard-response","308","998178","0.0-6.0-1.43","2645899","co37603","norming","","","","","","",""
"3860.615000000107","","","post_mooney1_questions","survey-likert","309","1002041","0.0-6.0-2.43","2645899","co37603","norming","","","{""curiosity"":3,""confidence"":3}","[0,1]","../img/tt/124tt.jpg","",""
"3678.1550000001444","","","recognition","survey-text","310","1005721","0.0-6.0-3.43","2645899","co37603","norming","","","{""guess"":""pig""}","","../img/tt/124tt.jpg","",""
"null","../img/gs/124gs.jpg","null","reveal","image-keyboard-response","311","1007728","0.0-6.0-4.43","2645899","co37603","norming","","","","","","",""
"null","../img/tt/124tt.jpg","null","mooney2","image-keyboard-response","312","1009740","0.0-6.0-5.43","2645899","co37603","norming","","","","","","",""
"1962.8999999999069","","","post_reveal_questions","survey-likert","313","1011705","0.0-6.0-6.43","2645899","co37603","norming","","","{""aha"":3}","[0]","../img/tt/124tt.jpg","",""
"null","<div style=""font-size:60px;""> </div>","null","fixation","html-keyboard-response","314","1011908","0.0-6.0-0.44","2645899","co37603","norming","","","","","","",""
"null","../img/tt/358tt.jpg","null","mooney1","image-keyboard-response","315","1014911","0.0-6.0-1.44","2645899","co37603","norming","","","","","","",""
"3319.2750000000233","","","post_mooney1_questions","survey-likert","316","1018234","0.0-6.0-2.44","2645899","co37603","norming","","","{""curiosity"":3,""confidence"":1}","[0,1]","../img/tt/358tt.jpg","",""
"3526.269999999902","","","recognition","survey-text","317","1021761","0.0-6.0-3.44","2645899","co37603","norming","","","{""guess"":""hand""}","","../img/tt/358tt.jpg","",""
"null","../img/gs/358gs.jpg","null","reveal","image-keyboard-response","318","1023771","0.0-6.0-4.44","2645899","co37603","norming","","","","","","",""
"null","../img/tt/358tt.jpg","null","mooney2","image-keyboard-response","319","1025775","0.0-6.0-5.44","2645899","co37603","norming","","","","","","",""
"2167.4949999997625","","","post_reveal_questions","survey-likert","320","1027945","0.0-6.0-6.44","2645899","co37603","norming","","","{""aha"":5}","[0]","../img/tt/358tt.jpg","",""
"null","<div style=""font-size:60px;""> </div>","null","fixation","html-keyboard-response","321","1028155","0.0-6.0-0.45","2645899","co37603","norming","","","","","","",""
"null","../img/tt/307tt.jpg","null","mooney1","image-keyboard-response","322","1031165","0.0-6.0-1.45","2645899","co37603","norming","","","","","","",""
"3866.354999999632","","","post_mooney1_questions","survey-likert","323","1035034","0.0-6.0-2.45","2645899","co37603","norming","","","{""curiosity"":6,""confidence"":0}","[0,1]","../img/tt/307tt.jpg","",""
"774.1200000001118","","","recognition","survey-text","324","1035809","0.0-6.0-3.45","2645899","co37603","norming","","","{""guess"":""""}","","../img/tt/307tt.jpg","",""
"null","../img/gs/307gs.jpg","null","reveal","image-keyboard-response","325","1037812","0.0-6.0-4.45","2645899","co37603","norming","","","","","","",""
"null","../img/tt/307tt.jpg","null","mooney2","image-keyboard-response","326","1039822","0.0-6.0-5.45","2645899","co37603","norming","","","","","","",""
"2760.564999999595","","","post_reveal_questions","survey-likert","327","1042585","0.0-6.0-6.45","2645899","co37603","norming","","","{""aha"":3}","[0]","../img/tt/307tt.jpg","",""
"null","<div style=""font-size:60px;""> </div>","null","fixation","html-keyboard-response","328","1042786","0.0-6.0-0.46","2645899","co37603","norming","","","","","","",""
"null","../img/tt/032tt.jpg","null","mooney1","image-keyboard-response","329","1045794","0.0-6.0-1.46","2645899","co37603","norming","","","","","","",""
"3444.3300000003073","","","post_mooney1_questions","survey-likert","330","1049241","0.0-6.0-2.46","2645899","co37603","norming","","","{""curiosity"":6,""confidence"":1}","[0,1]","../img/tt/032tt.jpg","",""
"8686.30999999959","","","recognition","survey-text","331","1057929","0.0-6.0-3.46","2645899","co37603","norming","","","{""guess"":""snake""}","","../img/tt/032tt.jpg","",""
"null","../img/gs/032gs.jpg","null","reveal","image-keyboard-response","332","1059932","0.0-6.0-4.46","2645899","co37603","norming","","","","","","",""
"null","../img/tt/032tt.jpg","null","mooney2","image-keyboard-response","333","1061942","0.0-6.0-5.46","2645899","co37603","norming","","","","","","",""
"2625.500000000233","","","post_reveal_questions","survey-likert","334","1064569","0.0-6.0-6.46","2645899","co37603","norming","","","{""aha"":3}","[0]","../img/tt/032tt.jpg","",""
"null","<div style=""font-size:60px;""> </div>","null","fixation","html-keyboard-response","335","1064778","0.0-6.0-0.47","2645899","co37603","norming","","","","","","",""
"null","../img/tt/019tt.jpg","null","mooney1","image-keyboard-response","336","1067784","0.0-6.0-1.47","2645899","co37603","norming","","","","","","",""
"3894.2249999998603","","","post_mooney1_questions","survey-likert","337","1071682","0.0-6.0-2.47","2645899","co37603","norming","","","{""curiosity"":5,""confidence"":0}","[0,1]","../img/tt/019tt.jpg","",""
"1893.7649999996647","","","recognition","survey-text","338","1073577","0.0-6.0-3.47","2645899","co37603","norming","","","{""guess"":""""}","","../img/tt/019tt.jpg","",""
"null","../img/gs/019gs.jpg","null","reveal","image-keyboard-response","339","1075582","0.0-6.0-4.47","2645899","co37603","norming","","","","","","",""
"null","../img/tt/019tt.jpg","null","mooney2","image-keyboard-response","340","1077592","0.0-6.0-5.47","2645899","co37603","norming","","","","","","",""
"3080.3649999999907","","","post_reveal_questions","survey-likert","341","1080673","0.0-6.0-6.47","2645899","co37603","norming","","","{""aha"":3}","[0]","../img/tt/019tt.jpg","",""
"null","<div style=""font-size:60px;""> </div>","null","fixation","html-keyboard-response","342","1080880","0.0-6.0-0.48","2645899","co37603","norming","","","","","","",""
"null","../img/tt/584tt.jpg","null","mooney1","image-keyboard-response","343","1083883","0.0-6.0-1.48","2645899","co37603","norming","","","","","","",""
"3403.2649999998976","","","post_mooney1_questions","survey-likert","344","1087290","0.0-6.0-2.48","2645899","co37603","norming","","","{""curiosity"":6,""confidence"":0}","[0,1]","../img/tt/584tt.jpg","",""
"981.6299999996554","","","recognition","survey-text","345","1088273","0.0-6.0-3.48","2645899","co37603","norming","","","{""guess"":""""}","","../img/tt/584tt.jpg","",""
"null","../img/gs/584gs.jpg","null","reveal","image-keyboard-response","346","1090282","0.0-6.0-4.48","2645899","co37603","norming","","","","","","",""
"null","../img/tt/584tt.jpg","null","mooney2","image-keyboard-response","347","1092291","0.0-6.0-5.48","2645899","co37603","norming","","","","","","",""
"2076.215000000084","","","post_reveal_questions","survey-likert","348","1094369","0.0-6.0-6.48","2645899","co37603","norming","","","{""aha"":4}","[0]","../img/tt/584tt.jpg","",""
"null","<div style=""font-size:60px;""> </div>","null","fixation","html-keyboard-response","349","1094574","0.0-6.0-0.49","2645899","co37603","norming","","","","","","",""
"null","../img/tt/222tt.jpg","null","mooney1","image-keyboard-response","350","1097576","0.0-6.0-1.49","2645899","co37603","norming","","","","","","",""
"3541.9449999998324","","","post_mooney1_questions","survey-likert","351","1101121","0.0-6.0-2.49","2645899","co37603","norming","","","{""curiosity"":4,""confidence"":0}","[0,1]","../img/tt/222tt.jpg","",""
"3230.369999999879","","","recognition","survey-text","352","1104353","0.0-6.0-3.49","2645899","co37603","norming","","","{""guess"":""lake""}","","../img/tt/222tt.jpg","",""
"null","../img/gs/222gs.jpg","null","reveal","image-keyboard-response","353","1106355","0.0-6.0-4.49","2645899","co37603","norming","","","","","","",""
"null","../img/tt/222tt.jpg","null","mooney2","image-keyboard-response","354","1108364","0.0-6.0-5.49","2645899","co37603","norming","","","","","","",""
"1810.8149999997113","","","post_reveal_questions","survey-likert","355","1110177","0.0-6.0-6.49","2645899","co37603","norming","","","{""aha"":3}","[0]","../img/tt/222tt.jpg","",""
"null","<div style=""font-size:60px;""> </div>","null","fixation","html-keyboard-response","356","1110383","0.0-6.0-0.50","2645899","co37603","norming","","","","","","",""
"null","../img/tt/1250tt.jpg","null","mooney1","image-keyboard-response","357","1113386","0.0-6.0-1.50","2645899","co37603","norming","","","","","","",""
"4884.95999999973","","","post_mooney1_questions","survey-likert","358","1118273","0.0-6.0-2.50","2645899","co37603","norming","","","{""curiosity"":5,""confidence"":1}","[0,1]","../img/tt/1250tt.jpg","",""
"7974.154999999795","","","recognition","survey-text","359","1126249","0.0-6.0-3.50","2645899","co37603","norming","","","{""guess"":""farm animal""}","","../img/tt/1250tt.jpg","",""
"null","../img/gs/1250gs.jpg","null","reveal","image-keyboard-response","360","1128251","0.0-6.0-4.50","2645899","co37603","norming","","","","","","",""
"null","../img/tt/1250tt.jpg","null","mooney2","image-keyboard-response","361","1130252","0.0-6.0-5.50","2645899","co37603","norming","","","","","","",""
"1906.9500000001863","","","post_reveal_questions","survey-likert","362","1132161","0.0-6.0-6.50","2645899","co37603","norming","","","{""aha"":3}","[0]","../img/tt/1250tt.jpg","",""
"null","<div style=""font-size:60px;""> </div>","null","fixation","html-keyboard-response","363","1132368","0.0-6.0-0.51","2645899","co37603","norming","","","","","","",""
"null","../img/tt/296tt.jpg","null","mooney1","image-keyboard-response","364","1135376","0.0-6.0-1.51","2645899","co37603","norming","","","","","","",""
"3198.610000000568","","","post_mooney1_questions","survey-likert","365","1138576","0.0-6.0-2.51","2645899","co37603","norming","","","{""curiosity"":4,""confidence"":1}","[0,1]","../img/tt/296tt.jpg","",""
"3102.1750000000466","","","recognition","survey-text","366","1141680","0.0-6.0-3.51","2645899","co37603","norming","","","{""guess"":""sofa""}","","../img/tt/296tt.jpg","",""
"null","../img/gs/296gs.jpg","null","reveal","image-keyboard-response","367","1143683","0.0-6.0-4.51","2645899","co37603","norming","","","","","","",""
"null","../img/tt/296tt.jpg","null","mooney2","image-keyboard-response","368","1145695","0.0-6.0-5.51","2645899","co37603","norming","","","","","","",""
"3286.435000000056","","","post_reveal_questions","survey-likert","369","1148984","0.0-6.0-6.51","2645899","co37603","norming","","","{""aha"":5}","[0]","../img/tt/296tt.jpg","",""
"null","<div style=""font-size:60px;""> </div>","null","fixation","html-keyboard-response","370","1149193","0.0-6.0-0.52","2645899","co37603","norming","","","","","","",""
"null","../img/tt/598tt.jpg","null","mooney1","image-keyboard-response","371","1152197","0.0-6.0-1.52","2645899","co37603","norming","","","","","","",""
"2944.1399999998976","","","post_mooney1_questions","survey-likert","372","1155144","0.0-6.0-2.52","2645899","co37603","norming","","","{""curiosity"":6,""confidence"":0}","[0,1]","../img/tt/598tt.jpg","",""
"734.1950000000652","","","recognition","survey-text","373","1155880","0.0-6.0-3.52","2645899","co37603","norming","","","{""guess"":""""}","","../img/tt/598tt.jpg","",""
"null","../img/gs/598gs.jpg","null","reveal","image-keyboard-response","374","1157883","0.0-6.0-4.52","2645899","co37603","norming","","","","","","",""
"null","../img/tt/598tt.jpg","null","mooney2","image-keyboard-response","375","1159893","0.0-6.0-5.52","2645899","co37603","norming","","","","","","",""
"1864.2000000001863","","","post_reveal_questions","survey-likert","376","1161760","0.0-6.0-6.52","2645899","co37603","norming","","","{""aha"":3}","[0]","../img/tt/598tt.jpg","",""
"null","<div style=""font-size:60px;""> </div>","null","fixation","html-keyboard-response","377","1161963","0.0-6.0-0.53","2645899","co37603","norming","","","","","","",""
"null","../img/tt/126tt.jpg","null","mooney1","image-keyboard-response","378","1164974","0.0-6.0-1.53","2645899","co37603","norming","","","","","","",""
"4888.660000000149","","","post_mooney1_questions","survey-likert","379","1169864","0.0-6.0-2.53","2645899","co37603","norming","","","{""curiosity"":3,""confidence"":4}","[0,1]","../img/tt/126tt.jpg","",""
"3006.1649999998044","","","recognition","survey-text","380","1172872","0.0-6.0-3.53","2645899","co37603","norming","","","{""guess"":""cow""}","","../img/tt/126tt.jpg","",""
"null","../img/gs/126gs.jpg","null","reveal","image-keyboard-response","381","1174879","0.0-6.0-4.53","2645899","co37603","norming","","","","","","",""
"null","../img/tt/126tt.jpg","null","mooney2","image-keyboard-response","382","1176889","0.0-6.0-5.53","2645899","co37603","norming","","","","","","",""
"2220.0849999999627","","","post_reveal_questions","survey-likert","383","1179112","0.0-6.0-6.53","2645899","co37603","norming","","","{""aha"":3}","[0]","../img/tt/126tt.jpg","",""
"null","<div style=""font-size:60px;""> </div>","null","fixation","html-keyboard-response","384","1179314","0.0-6.0-0.54","2645899","co37603","norming","","","","","","",""
"null","../img/tt/517tt.jpg","null","mooney1","image-keyboard-response","385","1182317","0.0-6.0-1.54","2645899","co37603","norming","","","","","","",""
"3992.1550000004936","","","post_mooney1_questions","survey-likert","386","1186312","0.0-6.0-2.54","2645899","co37603","norming","","","{""curiosity"":4,""confidence"":4}","[0,1]","../img/tt/517tt.jpg","",""
"3822.125000000233","","","recognition","survey-text","387","1190136","0.0-6.0-3.54","2645899","co37603","norming","","","{""guess"":""brar""}","","../img/tt/517tt.jpg","",""
"null","../img/gs/517gs.jpg","null","reveal","image-keyboard-response","388","1192142","0.0-6.0-4.54","2645899","co37603","norming","","","","","","",""
"null","../img/tt/517tt.jpg","null","mooney2","image-keyboard-response","389","1194150","0.0-6.0-5.54","2645899","co37603","norming","","","","","","",""
"2335.054999999935","","","post_reveal_questions","survey-likert","390","1196488","0.0-6.0-6.54","2645899","co37603","norming","","","{""aha"":5}","[0]","../img/tt/517tt.jpg","",""
"null","<div style=""font-size:60px;""> </div>","null","fixation","html-keyboard-response","391","1196694","0.0-6.0-0.55","2645899","co37603","norming","","","","","","",""
"null","../img/tt/534tt.jpg","null","mooney1","image-keyboard-response","392","1199692","0.0-6.0-1.55","2645899","co37603","norming","","","","","","",""
"3494.6049999999814","","","post_mooney1_questions","survey-likert","393","1203188","0.0-6.0-2.55","2645899","co37603","norming","","","{""curiosity"":3,""confidence"":3}","[0,1]","../img/tt/534tt.jpg","",""
"4798.030000000494","","","recognition","survey-text","394","1207987","0.0-6.0-3.55","2645899","co37603","norming","","","{""guess"":""cactus""}","","../img/tt/534tt.jpg","",""
"null","../img/gs/534gs.jpg","null","reveal","image-keyboard-response","395","1209998","0.0-6.0-4.55","2645899","co37603","norming","","","","","","",""
"null","../img/tt/534tt.jpg","null","mooney2","image-keyboard-response","396","1212009","0.0-6.0-5.55","2645899","co37603","norming","","","","","","",""
"2288.2499999995343","","","post_reveal_questions","survey-likert","397","1214300","0.0-6.0-6.55","2645899","co37603","norming","","","{""aha"":6}","[0]","../img/tt/534tt.jpg","",""
"null","<div style=""font-size:60px;""> </div>","null","fixation","html-keyboard-response","398","1214510","0.0-6.0-0.56","2645899","co37603","norming","","","","","","",""
"null","../img/tt/1268tt.jpg","null","mooney1","image-keyboard-response","399","1217517","0.0-6.0-1.56","2645899","co37603","norming","","","","","","",""
"4291.210000000428","","","post_mooney1_questions","survey-likert","400","1221812","0.0-6.0-2.56","2645899","co37603","norming","","","{""curiosity"":5,""confidence"":2}","[0,1]","../img/tt/1268tt.jpg","",""
"838.1599999999162","","","recognition","survey-text","401","1222651","0.0-6.0-3.56","2645899","co37603","norming","","","{""guess"":""""}","","../img/tt/1268tt.jpg","",""
"null","../img/gs/1268gs.jpg","null","reveal","image-keyboard-response","402","1224660","0.0-6.0-4.56","2645899","co37603","norming","","","","","","",""
"null","../img/tt/1268tt.jpg","null","mooney2","image-keyboard-response","403","1226661","0.0-6.0-5.56","2645899","co37603","norming","","","","","","",""
"1683.9199999999255","","","post_reveal_questions","survey-likert","404","1228348","0.0-6.0-6.56","2645899","co37603","norming","","","{""aha"":3}","[0]","../img/tt/1268tt.jpg","",""
"null","<div style=""font-size:60px;""> </div>","null","fixation","html-keyboard-response","405","1228549","0.0-6.0-0.57","2645899","co37603","norming","","","","","","",""
"null","../img/tt/559tt.jpg","null","mooney1","image-keyboard-response","406","1231558","0.0-6.0-1.57","2645899","co37603","norming","","","","","","",""
"4083.1999999999534","","","post_mooney1_questions","survey-likert","407","1235644","0.0-6.0-2.57","2645899","co37603","norming","","","{""curiosity"":3,""confidence"":1}","[0,1]","../img/tt/559tt.jpg","",""
"605.9099999996834","","","recognition","survey-text","408","1236251","0.0-6.0-3.57","2645899","co37603","norming","","","{""guess"":""""}","","../img/tt/559tt.jpg","",""
"null","../img/gs/559gs.jpg","null","reveal","image-keyboard-response","409","1238258","0.0-6.0-4.57","2645899","co37603","norming","","","","","","",""
"null","../img/tt/559tt.jpg","null","mooney2","image-keyboard-response","410","1240269","0.0-6.0-5.57","2645899","co37603","norming","","","","","","",""
"2116.4749999998603","","","post_reveal_questions","survey-likert","411","1242388","0.0-6.0-6.57","2645899","co37603","norming","","","{""aha"":3}","[0]","../img/tt/559tt.jpg","",""
"null","<div style=""font-size:60px;""> </div>","null","fixation","html-keyboard-response","412","1242589","0.0-6.0-0.58","2645899","co37603","norming","","","","","","",""
"null","../img/tt/1143tt.jpg","null","mooney1","image-keyboard-response","413","1245591","0.0-6.0-1.58","2645899","co37603","norming","","","","","","",""
"5921.679999999935","","","post_mooney1_questions","survey-likert","414","1251516","0.0-6.0-2.58","2645899","co37603","norming","","","{""curiosity"":4,""confidence"":1}","[0,1]","../img/tt/1143tt.jpg","",""
"3829.559999999823","","","recognition","survey-text","415","1255347","0.0-6.0-3.58","2645899","co37603","norming","","","{""guess"":""bridge""}","","../img/tt/1143tt.jpg","",""
"null","../img/gs/1143gs.jpg","null","reveal","image-keyboard-response","416","1257353","0.0-6.0-4.58","2645899","co37603","norming","","","","","","",""
"null","../img/tt/1143tt.jpg","null","mooney2","image-keyboard-response","417","1259362","0.0-6.0-5.58","2645899","co37603","norming","","","","","","",""
"1807.6450000002515","","","post_reveal_questions","survey-likert","418","1261172","0.0-6.0-6.58","2645899","co37603","norming","","","{""aha"":4}","[0]","../img/tt/1143tt.jpg","",""
"null","<div style=""font-size:60px;""> </div>","null","fixation","html-keyboard-response","419","1261380","0.0-6.0-0.59","2645899","co37603","norming","","","","","","",""
"null","../img/tt/121tt.jpg","null","mooney1","image-keyboard-response","420","1264383","0.0-6.0-1.59","2645899","co37603","norming","","","","","","",""
"3562.9549999998417","","","post_mooney1_questions","survey-likert","421","1267949","0.0-6.0-2.59","2645899","co37603","norming","","","{""curiosity"":3,""confidence"":4}","[0,1]","../img/tt/121tt.jpg","",""
"12430.229999999981","","","recognition","survey-text","422","1280381","0.0-6.0-3.59","2645899","co37603","norming","","","{""guess"":""kenguru""}","","../img/tt/121tt.jpg","",""
"null","../img/gs/121gs.jpg","null","reveal","image-keyboard-response","423","1282383","0.0-6.0-4.59","2645899","co37603","norming","","","","","","",""
"null","../img/tt/121tt.jpg","null","mooney2","image-keyboard-response","424","1284385","0.0-6.0-5.59","2645899","co37603","norming","","","","","","",""
"2121.184999999823","","","post_reveal_questions","survey-likert","425","1286508","0.0-6.0-6.59","2645899","co37603","norming","","","{""aha"":4}","[0]","../img/tt/121tt.jpg","",""
"null","<div style=""font-size:60px;""> </div>","null","fixation","html-keyboard-response","426","1286710","0.0-6.0-0.60","2645899","co37603","norming","","","","","","",""
"null","../img/tt/273tt.jpg","null","mooney1","image-keyboard-response","427","1289715","0.0-6.0-1.60","2645899","co37603","norming","","","","","","",""
"4231.050000000279","","","post_mooney1_questions","survey-likert","428","1293949","0.0-6.0-2.60","2645899","co37603","norming","","","{""curiosity"":4,""confidence"":0}","[0,1]","../img/tt/273tt.jpg","",""
"1158.030000000028","","","recognition","survey-text","429","1295109","0.0-6.0-3.60","2645899","co37603","norming","","","{""guess"":""""}","","../img/tt/273tt.jpg","",""
"null","../img/gs/273gs.jpg","null","reveal","image-keyboard-response","430","1297111","0.0-6.0-4.60","2645899","co37603","norming","","","","","","",""
"null","../img/tt/273tt.jpg","null","mooney2","image-keyboard-response","431","1299120","0.0-6.0-5.60","2645899","co37603","norming","","","","","","",""
"2266.339999999851","","","post_reveal_questions","survey-likert","432","1301389","0.0-6.0-6.60","2645899","co37603","norming","","","{""aha"":3}","[0]","../img/tt/273tt.jpg","",""
"null","<div style=""font-size:60px;""> </div>","null","fixation","html-keyboard-response","433","1301599","0.0-6.0-0.61","2645899","co37603","norming","","","","","","",""
"null","../img/tt/477tt.jpg","null","mooney1","image-keyboard-response","434","1304610","0.0-6.0-1.61","2645899","co37603","norming","","","","","","",""
"4249.1450000002515","","","post_mooney1_questions","survey-likert","435","1308861","0.0-6.0-2.61","2645899","co37603","norming","","","{""curiosity"":4,""confidence"":2}","[0,1]","../img/tt/477tt.jpg","",""
"894.0349999996834","","","recognition","survey-text","436","1309757","0.0-6.0-3.61","2645899","co37603","norming","","","{""guess"":""""}","","../img/tt/477tt.jpg","",""
"null","../img/gs/477gs.jpg","null","reveal","image-keyboard-response","437","1311758","0.0-6.0-4.61","2645899","co37603","norming","","","","","","",""
"null","../img/tt/477tt.jpg","null","mooney2","image-keyboard-response","438","1313768","0.0-6.0-5.61","2645899","co37603","norming","","","","","","",""
"2377.6450000000186","","","post_reveal_questions","survey-likert","439","1316148","0.0-6.0-6.61","2645899","co37603","norming","","","{""aha"":5}","[0]","../img/tt/477tt.jpg","",""
"null","<div style=""font-size:60px;""> </div>","null","fixation","html-keyboard-response","440","1316357","0.0-6.0-0.62","2645899","co37603","norming","","","","","","",""
"null","../img/tt/1126tt.jpg","null","mooney1","image-keyboard-response","441","1319367","0.0-6.0-1.62","2645899","co37603","norming","","","","","","",""
"4782.530000000028","","","post_mooney1_questions","survey-likert","442","1324153","0.0-6.0-2.62","2645899","co37603","norming","","","{""curiosity"":3,""confidence"":0}","[0,1]","../img/tt/1126tt.jpg","",""
"854.0999999998603","","","recognition","survey-text","443","1325009","0.0-6.0-3.62","2645899","co37603","norming","","","{""guess"":""""}","","../img/tt/1126tt.jpg","",""
"null","../img/gs/1126gs.jpg","null","reveal","image-keyboard-response","444","1327019","0.0-6.0-4.62","2645899","co37603","norming","","","","","","",""
"null","../img/tt/1126tt.jpg","null","mooney2","image-keyboard-response","445","1329020","0.0-6.0-5.62","2645899","co37603","norming","","","","","","",""
"2619.8349999999627","","","post_reveal_questions","survey-likert","446","1331641","0.0-6.0-6.62","2645899","co37603","norming","","","{""aha"":1}","[0]","../img/tt/1126tt.jpg","",""
"null","<div style=""font-size:60px;""> </div>","null","fixation","html-keyboard-response","447","1331845","0.0-6.0-0.63","2645899","co37603","norming","","","","","","",""
"null","../img/tt/412tt.jpg","null","mooney1","image-keyboard-response","448","1334850","0.0-6.0-1.63","2645899","co37603","norming","","","","","","",""
"2891.3849999997765","","","post_mooney1_questions","survey-likert","449","1337745","0.0-6.0-2.63","2645899","co37603","norming","","","{""curiosity"":3,""confidence"":2}","[0,1]","../img/tt/412tt.jpg","",""
"3766.1800000001676","","","recognition","survey-text","450","1341513","0.0-6.0-3.63","2645899","co37603","norming","","","{""guess"":""lego""}","","../img/tt/412tt.jpg","",""
"null","../img/gs/412gs.jpg","null","reveal","image-keyboard-response","451","1343517","0.0-6.0-4.63","2645899","co37603","norming","","","","","","",""
"null","../img/tt/412tt.jpg","null","mooney2","image-keyboard-response","452","1345525","0.0-6.0-5.63","2645899","co37603","norming","","","","","","",""
"3497.314999999944","","","post_reveal_questions","survey-likert","453","1349025","0.0-6.0-6.63","2645899","co37603","norming","","","{""aha"":2}","[0]","../img/tt/412tt.jpg","",""
"null","<div style=""font-size:60px;""> </div>","null","fixation","html-keyboard-response","454","1349226","0.0-6.0-0.64","2645899","co37603","norming","","","","","","",""
"null","../img/tt/1118tt.jpg","null","mooney1","image-keyboard-response","455","1352230","0.0-6.0-1.64","2645899","co37603","norming","","","","","","",""
"3631.5749999999534","","","post_mooney1_questions","survey-likert","456","1355865","0.0-6.0-2.64","2645899","co37603","norming","","","{""curiosity"":1,""confidence"":2}","[0,1]","../img/tt/1118tt.jpg","",""
"3413.839999999851","","","recognition","survey-text","457","1359280","0.0-6.0-3.64","2645899","co37603","norming","","","{""guess"":""car""}","","../img/tt/1118tt.jpg","",""
"null","../img/gs/1118gs.jpg","null","reveal","image-keyboard-response","458","1361290","0.0-6.0-4.64","2645899","co37603","norming","","","","","","",""
"null","../img/tt/1118tt.jpg","null","mooney2","image-keyboard-response","459","1363292","0.0-6.0-5.64","2645899","co37603","norming","","","","","","",""
"2553.910000000149","","","post_reveal_questions","survey-likert","460","1365849","0.0-6.0-6.64","2645899","co37603","norming","","","{""aha"":4}","[0]","../img/tt/1118tt.jpg","",""
"null","<div style=""font-size:60px;""> </div>","null","fixation","html-keyboard-response","461","1366055","0.0-6.0-0.65","2645899","co37603","norming","","","","","","",""
"null","../img/tt/052tt.jpg","null","mooney1","image-keyboard-response","462","1369060","0.0-6.0-1.65","2645899","co37603","norming","","","","","","",""
"3385.804999999935","","","post_mooney1_questions","survey-likert","463","1372449","0.0-6.0-2.65","2645899","co37603","norming","","","{""curiosity"":3,""confidence"":1}","[0,1]","../img/tt/052tt.jpg","",""
"4453.945000000065","","","recognition","survey-text","464","1376904","0.0-6.0-3.65","2645899","co37603","norming","","","{""guess"":""watch""}","","../img/tt/052tt.jpg","",""
"null","../img/gs/052gs.jpg","null","reveal","image-keyboard-response","465","1378907","0.0-6.0-4.65","2645899","co37603","norming","","","","","","",""
"null","../img/tt/052tt.jpg","null","mooney2","image-keyboard-response","466","1380908","0.0-6.0-5.65","2645899","co37603","norming","","","","","","",""
"1889.8650000002235","","","post_reveal_questions","survey-likert","467","1382801","0.0-6.0-6.65","2645899","co37603","norming","","","{""aha"":3}","[0]","../img/tt/052tt.jpg","",""
"null","<div style=""font-size:60px;""> </div>","null","fixation","html-keyboard-response","468","1383008","0.0-6.0-0.66","2645899","co37603","norming","","","","","","",""
"null","../img/tt/435tt.jpg","null","mooney1","image-keyboard-response","469","1386011","0.0-6.0-1.66","2645899","co37603","norming","","","","","","",""
"3651.29000000027","","","post_mooney1_questions","survey-likert","470","1389665","0.0-6.0-2.66","2645899","co37603","norming","","","{""curiosity"":4,""confidence"":4}","[0,1]","../img/tt/435tt.jpg","",""
"6621.6699999999255","","","recognition","survey-text","471","1396288","0.0-6.0-3.66","2645899","co37603","norming","","","{""guess"":""tabele bals""}","","../img/tt/435tt.jpg","",""
"null","../img/gs/435gs.jpg","null","reveal","image-keyboard-response","472","1398290","0.0-6.0-4.66","2645899","co37603","norming","","","","","","",""
"null","../img/tt/435tt.jpg","null","mooney2","image-keyboard-response","473","1400298","0.0-6.0-5.66","2645899","co37603","norming","","","","","","",""
"2683.8350000001956","","","post_reveal_questions","survey-likert","474","1402985","0.0-6.0-6.66","2645899","co37603","norming","","","{""aha"":3}","[0]","../img/tt/435tt.jpg","",""
"null","<div style=""font-size:60px;""> </div>","null","fixation","html-keyboard-response","475","1403188","0.0-6.0-0.67","2645899","co37603","norming","","","","","","",""
"null","../img/tt/1078tt.jpg","null","mooney1","image-keyboard-response","476","1406194","0.0-6.0-1.67","2645899","co37603","norming","","","","","","",""
"4115.750000000466","","","post_mooney1_questions","survey-likert","477","1410313","0.0-6.0-2.67","2645899","co37603","norming","","","{""curiosity"":1,""confidence"":4}","[0,1]","../img/tt/1078tt.jpg","",""
"4165.679999999702","","","recognition","survey-text","478","1414481","0.0-6.0-3.67","2645899","co37603","norming","","","{""guess"":""boy ""}","","../img/tt/1078tt.jpg","",""
"null","../img/gs/1078gs.jpg","null","reveal","image-keyboard-response","479","1416489","0.0-6.0-4.67","2645899","co37603","norming","","","","","","",""
"null","../img/tt/1078tt.jpg","null","mooney2","image-keyboard-response","480","1418498","0.0-6.0-5.67","2645899","co37603","norming","","","","","","",""
"1627.9549999998417","","","post_reveal_questions","survey-likert","481","1420129","0.0-6.0-6.67","2645899","co37603","norming","","","{""aha"":3}","[0]","../img/tt/1078tt.jpg","",""
"null","<div style=""font-size:60px;""> </div>","null","fixation","html-keyboard-response","482","1420335","0.0-6.0-0.68","2645899","co37603","norming","","","","","","",""
"null","../img/tt/053tt.jpg","null","mooney1","image-keyboard-response","483","1423345","0.0-6.0-1.68","2645899","co37603","norming","","","","","","",""
"2923.899999999907","","","post_mooney1_questions","survey-likert","484","1426273","0.0-6.0-2.68","2645899","co37603","norming","","","{""curiosity"":4,""confidence"":3}","[0,1]","../img/tt/053tt.jpg","",""
"4750.26500000013","","","recognition","survey-text","485","1431025","0.0-6.0-3.68","2645899","co37603","norming","","","{""guess"":""worm""}","","../img/tt/053tt.jpg","",""
"null","../img/gs/053gs.jpg","null","reveal","image-keyboard-response","486","1433026","0.0-6.0-4.68","2645899","co37603","norming","","","","","","",""
"null","../img/tt/053tt.jpg","null","mooney2","image-keyboard-response","487","1435030","0.0-6.0-5.68","2645899","co37603","norming","","","","","","",""
"2527.994999999879","","","post_reveal_questions","survey-likert","488","1437561","0.0-6.0-6.68","2645899","co37603","norming","","","{""aha"":3}","[0]","../img/tt/053tt.jpg","",""
"null","<div style=""font-size:60px;""> </div>","null","fixation","html-keyboard-response","489","1437762","0.0-6.0-0.69","2645899","co37603","norming","","","","","","",""
"null","../img/tt/1070tt.jpg","null","mooney1","image-keyboard-response","490","1440775","0.0-6.0-1.69","2645899","co37603","norming","","","","","","",""
"4167.20999999973","","","post_mooney1_questions","survey-likert","491","1444937","0.0-6.0-2.69","2645899","co37603","norming","","","{""curiosity"":5,""confidence"":5}","[0,1]","../img/tt/1070tt.jpg","",""
"3037.635000000242","","","recognition","survey-text","492","1447977","0.0-6.0-3.69","2645899","co37603","norming","","","{""guess"":""cake""}","","../img/tt/1070tt.jpg","",""
"null","../img/gs/1070gs.jpg","null","reveal","image-keyboard-response","493","1449986","0.0-6.0-4.69","2645899","co37603","norming","","","","","","",""
"null","../img/tt/1070tt.jpg","null","mooney2","image-keyboard-response","494","1451993","0.0-6.0-5.69","2645899","co37603","norming","","","","","","",""
"2052.6399999998976","","","post_reveal_questions","survey-likert","495","1454049","0.0-6.0-6.69","2645899","co37603","norming","","","{""aha"":4}","[0]","../img/tt/1070tt.jpg","",""
"null","<div style=""font-size:60px;""> </div>","null","fixation","html-keyboard-response","496","1454251","0.0-6.0-0.70","2645899","co37603","norming","","","","","","",""
"null","../img/tt/1024tt.jpg","null","mooney1","image-keyboard-response","497","1457254","0.0-6.0-1.70","2645899","co37603","norming","","","","","","",""
"4271.095000000205","","","post_mooney1_questions","survey-likert","498","1461529","0.0-6.0-2.70","2645899","co37603","norming","","","{""curiosity"":3,""confidence"":3}","[0,1]","../img/tt/1024tt.jpg","",""
"7502.225000000326","","","recognition","survey-text","499","1469033","0.0-6.0-3.70","2645899","co37603","norming","","","{""guess"":""tennis women""}","","../img/tt/1024tt.jpg","",""
"null","../img/gs/1024gs.jpg","null","reveal","image-keyboard-response","500","1471034","0.0-6.0-4.70","2645899","co37603","norming","","","","","","",""
"null","../img/tt/1024tt.jpg","null","mooney2","image-keyboard-response","501","1473044","0.0-6.0-5.70","2645899","co37603","norming","","","","","","",""
"2291.5550000001676","","","post_reveal_questions","survey-likert","502","1475337","0.0-6.0-6.70","2645899","co37603","norming","","","{""aha"":5}","[0]","../img/tt/1024tt.jpg","",""
"null","<div style=""font-size:60px;""> </div>","null","fixation","html-keyboard-response","503","1475538","0.0-6.0-0.71","2645899","co37603","norming","","","","","","",""
"null","../img/tt/135tt.jpg","null","mooney1","image-keyboard-response","504","1478544","0.0-6.0-1.71","2645899","co37603","norming","","","","","","",""
"3319.029999999795","","","post_mooney1_questions","survey-likert","505","1481865","0.0-6.0-2.71","2645899","co37603","norming","","","{""curiosity"":4,""confidence"":4}","[0,1]","../img/tt/135tt.jpg","",""
"2790.189999999944","","","recognition","survey-text","506","1484657","0.0-6.0-3.71","2645899","co37603","norming","","","{""guess"":""wc""}","","../img/tt/135tt.jpg","",""
"null","../img/gs/135gs.jpg","null","reveal","image-keyboard-response","507","1486666","0.0-6.0-4.71","2645899","co37603","norming","","","","","","",""
"null","../img/tt/135tt.jpg","null","mooney2","image-keyboard-response","508","1488673","0.0-6.0-5.71","2645899","co37603","norming","","","","","","",""
"1646.7250000000931","","","post_reveal_questions","survey-likert","509","1490321","0.0-6.0-6.71","2645899","co37603","norming","","","{""aha"":5}","[0]","../img/tt/135tt.jpg","",""
"null","<div style=""font-size:60px;""> </div>","null","fixation","html-keyboard-response","510","1490530","0.0-6.0-0.72","2645899","co37603","norming","","","","","","",""
"null","../img/tt/522tt.jpg","null","mooney1","image-keyboard-response","511","1493540","0.0-6.0-1.72","2645899","co37603","norming","","","","","","",""
"2882.149999999907","","","post_mooney1_questions","survey-likert","512","1496425","0.0-6.0-2.72","2645899","co37603","norming","","","{""curiosity"":2,""confidence"":2}","[0,1]","../img/tt/522tt.jpg","",""
"749.8799999998882","","","recognition","survey-text","513","1497177","0.0-6.0-3.72","2645899","co37603","norming","","","{""guess"":""""}","","../img/tt/522tt.jpg","",""
"null","../img/gs/522gs.jpg","null","reveal","image-keyboard-response","514","1499179","0.0-6.0-4.72","2645899","co37603","norming","","","","","","",""
"null","../img/tt/522tt.jpg","null","mooney2","image-keyboard-response","515","1501189","0.0-6.0-5.72","2645899","co37603","norming","","","","","","",""
"2905.3600000001024","","","post_reveal_questions","survey-likert","516","1504097","0.0-6.0-6.72","2645899","co37603","norming","","","{""aha"":6}","[0]","../img/tt/522tt.jpg","",""
"null","<div style=""font-size:60px;""> </div>","null","fixation","html-keyboard-response","517","1504299","0.0-6.0-0.73","2645899","co37603","norming","","","","","","",""
"null","../img/tt/1048tt.jpg","null","mooney1","image-keyboard-response","518","1507311","0.0-6.0-1.73","2645899","co37603","norming","","","","","","",""
"3526.280000000028","","","post_mooney1_questions","survey-likert","519","1510841","0.0-6.0-2.73","2645899","co37603","norming","","","{""curiosity"":4,""confidence"":0}","[0,1]","../img/tt/1048tt.jpg","",""
"1142.1449999997858","","","recognition","survey-text","520","1511984","0.0-6.0-3.73","2645899","co37603","norming","","","{""guess"":""""}","","../img/tt/1048tt.jpg","",""
"null","../img/gs/1048gs.jpg","null","reveal","image-keyboard-response","521","1513987","0.0-6.0-4.73","2645899","co37603","norming","","","","","","",""
"null","../img/tt/1048tt.jpg","null","mooney2","image-keyboard-response","522","1515993","0.0-6.0-5.73","2645899","co37603","norming","","","","","","",""
"3651.9900000002235","","","post_reveal_questions","survey-likert","523","1519648","0.0-6.0-6.73","2645899","co37603","norming","","","{""aha"":5}","[0]","../img/tt/1048tt.jpg","",""
"null","<div style=""font-size:60px;""> </div>","null","fixation","html-keyboard-response","524","1519855","0.0-6.0-0.74","2645899","co37603","norming","","","","","","",""
"null","../img/tt/1276tt.jpg","null","mooney1","image-keyboard-response","525","1522862","0.0-6.0-1.74","2645899","co37603","norming","","","","","","",""
"3615.0800000000745","","","post_mooney1_questions","survey-likert","526","1526481","0.0-6.0-2.74","2645899","co37603","norming","","","{""curiosity"":2,""confidence"":0}","[0,1]","../img/tt/1276tt.jpg","",""
"685.8199999995995","","","recognition","survey-text","527","1527168","0.0-6.0-3.74","2645899","co37603","norming","","","{""guess"":""""}","","../img/tt/1276tt.jpg","",""
"null","../img/gs/1276gs.jpg","null","reveal","image-keyboard-response","528","1529173","0.0-6.0-4.74","2645899","co37603","norming","","","","","","",""
"null","../img/tt/1276tt.jpg","null","mooney2","image-keyboard-response","529","1531184","0.0-6.0-5.74","2645899","co37603","norming","","","","","","",""
"2846.1099999998696","","","post_reveal_questions","survey-likert","530","1534033","0.0-6.0-6.74","2645899","co37603","norming","","","{""aha"":3}","[0]","../img/tt/1276tt.jpg","",""
"null","<div style=""font-size:60px;""> </div>","null","fixation","html-keyboard-response","531","1534235","0.0-6.0-0.75","2645899","co37603","norming","","","","","","",""
"null","../img/tt/456tt.jpg","null","mooney1","image-keyboard-response","532","1537243","0.0-6.0-1.75","2645899","co37603","norming","","","","","","",""
"3626.7299999999814","","","post_mooney1_questions","survey-likert","533","1540873","0.0-6.0-2.75","2645899","co37603","norming","","","{""curiosity"":0,""confidence"":0}","[0,1]","../img/tt/456tt.jpg","",""
"718.0250000001397","","","recognition","survey-text","534","1541592","0.0-6.0-3.75","2645899","co37603","norming","","","{""guess"":""""}","","../img/tt/456tt.jpg","",""
"null","../img/gs/456gs.jpg","null","reveal","image-keyboard-response","535","1543602","0.0-6.0-4.75","2645899","co37603","norming","","","","","","",""
"null","../img/tt/456tt.jpg","null","mooney2","image-keyboard-response","536","1545613","0.0-6.0-5.75","2645899","co37603","norming","","","","","","",""
"2386.1400000001304","","","post_reveal_questions","survey-likert","537","1548000","0.0-6.0-6.75","2645899","co37603","norming","","","{""aha"":3}","[0]","../img/tt/456tt.jpg","",""
"null","<div style=""font-size:60px;""> </div>","null","fixation","html-keyboard-response","538","1548210","0.0-6.0-0.76","2645899","co37603","norming","","","","","","",""
"null","../img/tt/497tt.jpg","null","mooney1","image-keyboard-response","539","1551215","0.0-6.0-1.76","2645899","co37603","norming","","","","","","",""
"3661.6049999997485","","","post_mooney1_questions","survey-likert","540","1554881","0.0-6.0-2.76","2645899","co37603","norming","","","{""curiosity"":5,""confidence"":0}","[0,1]","../img/tt/497tt.jpg","",""
"1253.905000000028","","","recognition","survey-text","541","1556136","0.0-6.0-3.76","2645899","co37603","norming","","","{""guess"":""""}","","../img/tt/497tt.jpg","",""
"null","../img/gs/497gs.jpg","null","reveal","image-keyboard-response","542","1558144","0.0-6.0-4.76","2645899","co37603","norming","","","","","","",""
"null","../img/tt/497tt.jpg","null","mooney2","image-keyboard-response","543","1560154","0.0-6.0-5.76","2645899","co37603","norming","","","","","","",""
"1924.119999999879","","","post_reveal_questions","survey-likert","544","1562072","0.0-6.0-6.76","2645899","co37603","norming","","","{""aha"":3}","[0]","../img/tt/497tt.jpg","",""
"null","<div style=""font-size:60px;""> </div>","null","fixation","html-keyboard-response","545","1562280","0.0-6.0-0.77","2645899","co37603","norming","","","","","","",""
"null","../img/tt/603tt.jpg","null","mooney1","image-keyboard-response","546","1565284","0.0-6.0-1.77","2645899","co37603","norming","","","","","","",""
"3344.469999999972","","","post_mooney1_questions","survey-likert","547","1568632","0.0-6.0-2.77","2645899","co37603","norming","","","{""curiosity"":6,""confidence"":4}","[0,1]","../img/tt/603tt.jpg","",""
"2990.3250000001863","","","recognition","survey-text","548","1571623","0.0-6.0-3.77","2645899","co37603","norming","","","{""guess"":""cat""}","","../img/tt/603tt.jpg","",""
"null","../img/gs/603gs.jpg","null","reveal","image-keyboard-response","549","1573632","0.0-6.0-4.77","2645899","co37603","norming","","","","","","",""
"null","../img/tt/603tt.jpg","null","mooney2","image-keyboard-response","550","1575642","0.0-6.0-5.77","2645899","co37603","norming","","","","","","",""
"2419.1100000003353","","","post_reveal_questions","survey-likert","551","1578064","0.0-6.0-6.77","2645899","co37603","norming","","","{""aha"":3}","[0]","../img/tt/603tt.jpg","",""
"null","<div style=""font-size:60px;""> </div>","null","fixation","html-keyboard-response","552","1578265","0.0-6.0-0.78","2645899","co37603","norming","","","","","","",""
"null","../img/tt/301tt.jpg","null","mooney1","image-keyboard-response","553","1581269","0.0-6.0-1.78","2645899","co37603","norming","","","","","","",""
