"rt","stimulus","key_press","test_part","trial_type","trial_index","time_elapsed","internal_node_id","totalTime","subject","experiment_name","button_pressed","success","responses","question_order","currentStim","old","correct"
"11285.474999999991","Welcome to the experiment. This is an online experiment so please don't close the tab/window until we say goodbye.  Press any key to begin.","13","instructions","html-keyboard-response","0","11332","0.0-0.0","2856000","co37555","norming","","","","","","",""
"14470.709999999995","<div style='word-wrap: break-word; width: 900px'><h3>Please consider this information carefully before deciding whether to participate in this research</h3><ul style='text-align: left; font-size: .8em;'><li><b>Purpose of the research</b>: To examine how people process images.</li><li><b>What you will do in this research</b>:  Stimuli (images) will be presented on the computer and you will be asked different questions about them.</li><li><b>Time required</b>: Participation will take between 45 and 60 minutes to complete.</li><li><b>Risks</b>:  There are no anticipated risks associated with participating in this study. The effects of participating should be comparable to those you would experience from viewing a computer monitor for 30 minutes and using a mouse or keyboard.</li><li><b>Benefits</b>:  This study provides no benefits to you individually except for the credit. The study provides important information about the nature of perception and learning.</li><li><b>Confidentiality</b>:  Your participation in this study will remain confidential. No personally identifiable information will be associated with your data. Your de-identified data may be shared with other researchers and used in future projects.</li><li><b>Participation and withdrawal</b>:  Your participation in this study is completely voluntary and you may refuse to participate or you may choose to withdraw at any time without penalty.</li><li><b>How to contact the researchers</b>: If you have questions or concerns about your participation or payment, or want to request a summary of research findings, please contact Sander Van de Cruys (KU Leuven), at sander.vandecruys@kuleuven.be.</li></ul><p>The nature and purpose of this research have been sufficiently explained and I agree to participate in this study.  I understand that I am free to withdraw at any time without incurring any penalty.</p><p>Please consent by clicking the button below to continue. Otherwise, please exit the study at this time.</p></div>","","instructions","html-button-response","1","25804","0.0-1.0","2856000","co37555","norming","0","","","","","",""
"","","","instructions","fullscreen","2","30195","0.0-2.0","2856000","co37555","norming","","true","","","","",""
"34743.470000000016","","","sona","survey-html-form","3","64941","0.0-3.0","2856000","co37555","norming","","","[{""name"":""sonaid"",""value"":""37555""},{""name"":""debrief"",""value"":""yes""},{""name"":""datajoin"",""value"":""yes""}]","","","",""
"96166.29000000004","<div style='word-wrap: break-word; width: 900px'><h3>Instructions</h3><p>This experiment will have 3 parts. In the first part you will see a series of distorted images like the one below on the left. As you can see in the righthand image, the distorted images are derived from actual photographs. In what follows, you will <strong>briefly</strong> be presented with <strong>only</strong> the distorted image.</p> <div style='float: left; margin-right: 20px;'><img src='../img/018tt.jpg' height='250' width='250'></img></div><div style='float: right; margin-left: 20px;'><img src='../img/018gs.jpg' height='250' width='250'></img></div><p>Subsequently you will be asked a few questions about the image: One question on how <strong>curious</strong> you are about the solution and one on how <strong>confident</strong> you are that you know the solution.</p>Next, we ask you to make a guess on what is in the image. Note that it is OK to name just the <strong>basic level category</strong>. For example when you see a parrot in the image, 'parrot' will obviously be a correct answer but also correct is 'bird'. However, 'animal' will <strong>not</strong> be counted as a correct response. For the example above, 'rose' would be correct or 'flower', but not 'plant'. When soccer players are depicted, 'soccer', 'football', 'soccer players' will be correct, but not 'humans', 'outdoors', or 'sports'. You do not need to describe the image in full, just name the main object in it <strong>in one or two words</strong>. All images depict objects from one of the following broad level categories: animals, inanimate objects, plants, sports, vehicles, and food. Recognizing means knowing <strong>more</strong> than these broad labels for a given image. But we always encourage you to <strong>make a guess</strong> if you can. Note that you are allowed to use <strong>Dutch and English</strong> in your answers, whatever comes easiest for you.</p><p>Press any key to continue.</p></div>","13","instructions","html-keyboard-response","4","161107","0.0-4.0","2856000","co37555","norming","","","","","","",""
"23999.225000000006","<div style='word-wrap: break-word; width: 900px'><h3>Instructions</h3> <p>Next, the solution image will be revealed to you and you'll be asked to indicate how strong your <strong>aha-experience</strong> was after seeing the solution. This describes the positive feeling of the 'click' you sometimes experience, when the pieces of the 'puzzle' fall together and you suddenly have 'insight' in the image.</p><img src='aha.jpg' height='188' width='250'></img><p>Note that there are no right or wrong answers. We are interested in what <strong>you</strong> see in the image and how <strong>you</strong> feel about it.</p><p>Press any key to start the experiment.</p></div>","13","instructions","html-keyboard-response","5","185107","0.0-5.0","2856000","co37555","norming","","","","","","",""
"null","<div style=""font-size:60px;""> </div>","null","fixation","html-keyboard-response","6","185316","0.0-6.0-0.0","2856000","co37555","norming","","","","","","",""
"null","../img/tt/079tt.jpg","null","mooney1","image-keyboard-response","7","188322","0.0-6.0-1.0","2856000","co37555","norming","","","","","","",""
"11184.325000000012","","","post_mooney1_questions","survey-likert","8","199508","0.0-6.0-2.0","2856000","co37555","norming","","","{""curiosity"":3,""confidence"":4}","[0,1]","../img/tt/079tt.jpg","",""
"7685.350000000035","","","recognition","survey-text","9","207195","0.0-6.0-3.0","2856000","co37555","norming","","","{""guess"":""beer""}","","../img/tt/079tt.jpg","",""
"null","../img/gs/079gs.jpg","null","reveal","image-keyboard-response","10","209201","0.0-6.0-4.0","2856000","co37555","norming","","","","","","",""
"null","../img/tt/079tt.jpg","null","mooney2","image-keyboard-response","11","211210","0.0-6.0-5.0","2856000","co37555","norming","","","","","","",""
"5176.424999999988","","","post_reveal_questions","survey-likert","12","216387","0.0-6.0-6.0","2856000","co37555","norming","","","{""aha"":1}","[0]","../img/tt/079tt.jpg","",""
"null","<div style=""font-size:60px;""> </div>","null","fixation","html-keyboard-response","13","216590","0.0-6.0-0.1","2856000","co37555","norming","","","","","","",""
"null","../img/tt/1107tt.jpg","null","mooney1","image-keyboard-response","14","219600","0.0-6.0-1.1","2856000","co37555","norming","","","","","","",""
"22433.879999999976","","","post_mooney1_questions","survey-likert","15","242037","0.0-6.0-2.1","2856000","co37555","norming","","","{""curiosity"":5,""confidence"":0}","[0,1]","../img/tt/1107tt.jpg","",""
"3230.0350000000617","","","recognition","survey-text","16","245268","0.0-6.0-3.1","2856000","co37555","norming","","","{""guess"":""""}","","../img/tt/1107tt.jpg","",""
"null","../img/gs/1107gs.jpg","null","reveal","image-keyboard-response","17","247269","0.0-6.0-4.1","2856000","co37555","norming","","","","","","",""
"null","../img/tt/1107tt.jpg","null","mooney2","image-keyboard-response","18","249276","0.0-6.0-5.1","2856000","co37555","norming","","","","","","",""
"5183.455000000045","","","post_reveal_questions","survey-likert","19","254460","0.0-6.0-6.1","2856000","co37555","norming","","","{""aha"":5}","[0]","../img/tt/1107tt.jpg","",""
"null","<div style=""font-size:60px;""> </div>","null","fixation","html-keyboard-response","20","254669","0.0-6.0-0.2","2856000","co37555","norming","","","","","","",""
"null","../img/tt/456tt.jpg","null","mooney1","image-keyboard-response","21","257677","0.0-6.0-1.2","2856000","co37555","norming","","","","","","",""
"20342.95499999993","","","post_mooney1_questions","survey-likert","22","278021","0.0-6.0-2.2","2856000","co37555","norming","","","{""curiosity"":5,""confidence"":1}","[0,1]","../img/tt/456tt.jpg","",""
"14758.33500000008","","","recognition","survey-text","23","292689","0.0-6.0-3.2","2856000","co37555","norming","","","{""guess"":""""}","","../img/tt/456tt.jpg","",""
"null","../img/gs/456gs.jpg","null","reveal","image-keyboard-response","24","294696","0.0-6.0-4.2","2856000","co37555","norming","","","","","","",""
"null","../img/tt/456tt.jpg","null","mooney2","image-keyboard-response","25","296698","0.0-6.0-5.2","2856000","co37555","norming","","","","","","",""
"3837.3949999999604","","","post_reveal_questions","survey-likert","26","300537","0.0-6.0-6.2","2856000","co37555","norming","","","{""aha"":5}","[0]","../img/tt/456tt.jpg","",""
"null","<div style=""font-size:60px;""> </div>","null","fixation","html-keyboard-response","27","300745","0.0-6.0-0.3","2856000","co37555","norming","","","","","","",""
"null","../img/tt/1084tt.jpg","null","mooney1","image-keyboard-response","28","303749","0.0-6.0-1.3","2856000","co37555","norming","","","","","","",""
"6258.260000000009","","","post_mooney1_questions","survey-likert","29","310009","0.0-6.0-2.3","2856000","co37555","norming","","","{""curiosity"":4,""confidence"":1}","[0,1]","../img/tt/1084tt.jpg","",""
"4006.0599999999977","","","recognition","survey-text","30","314017","0.0-6.0-3.3","2856000","co37555","norming","","","{""guess"":""fruit""}","","../img/tt/1084tt.jpg","",""
"null","../img/gs/1084gs.jpg","null","reveal","image-keyboard-response","31","316020","0.0-6.0-4.3","2856000","co37555","norming","","","","","","",""
"null","../img/tt/1084tt.jpg","null","mooney2","image-keyboard-response","32","318025","0.0-6.0-5.3","2856000","co37555","norming","","","","","","",""
"2935.0149999999558","","","post_reveal_questions","survey-likert","33","320961","0.0-6.0-6.3","2856000","co37555","norming","","","{""aha"":4}","[0]","../img/tt/1084tt.jpg","",""
"null","<div style=""font-size:60px;""> </div>","null","fixation","html-keyboard-response","34","321164","0.0-6.0-0.4","2856000","co37555","norming","","","","","","",""
"null","../img/tt/1186tt.jpg","null","mooney1","image-keyboard-response","35","324167","0.0-6.0-1.4","2856000","co37555","norming","","","","","","",""
"4112.59500000003","","","post_mooney1_questions","survey-likert","36","328281","0.0-6.0-2.4","2856000","co37555","norming","","","{""curiosity"":6,""confidence"":0}","[0,1]","../img/tt/1186tt.jpg","",""
"710.4099999999744","","","recognition","survey-text","37","328993","0.0-6.0-3.4","2856000","co37555","norming","","","{""guess"":""""}","","../img/tt/1186tt.jpg","",""
"null","../img/gs/1186gs.jpg","null","reveal","image-keyboard-response","38","331000","0.0-6.0-4.4","2856000","co37555","norming","","","","","","",""
"null","../img/tt/1186tt.jpg","null","mooney2","image-keyboard-response","39","333006","0.0-6.0-5.4","2856000","co37555","norming","","","","","","",""
"2913.8700000000536","","","post_reveal_questions","survey-likert","40","335921","0.0-6.0-6.4","2856000","co37555","norming","","","{""aha"":5}","[0]","../img/tt/1186tt.jpg","",""
"null","<div style=""font-size:60px;""> </div>","null","fixation","html-keyboard-response","41","336125","0.0-6.0-0.5","2856000","co37555","norming","","","","","","",""
"null","../img/tt/468tt.jpg","null","mooney1","image-keyboard-response","42","339131","0.0-6.0-1.5","2856000","co37555","norming","","","","","","",""
"13564.669999999984","","","post_mooney1_questions","survey-likert","43","352609","0.0-6.0-2.5","2856000","co37555","norming","","","{""curiosity"":5,""confidence"":0}","[0,1]","../img/tt/468tt.jpg","",""
"870.2050000000745","","","recognition","survey-text","44","353481","0.0-6.0-3.5","2856000","co37555","norming","","","{""guess"":""""}","","../img/tt/468tt.jpg","",""
"null","../img/gs/468gs.jpg","null","reveal","image-keyboard-response","45","355490","0.0-6.0-4.5","2856000","co37555","norming","","","","","","",""
"null","../img/tt/468tt.jpg","null","mooney2","image-keyboard-response","46","357500","0.0-6.0-5.5","2856000","co37555","norming","","","","","","",""
"4323.045000000042","","","post_reveal_questions","survey-likert","47","361824","0.0-6.0-6.5","2856000","co37555","norming","","","{""aha"":4}","[0]","../img/tt/468tt.jpg","",""
"null","<div style=""font-size:60px;""> </div>","null","fixation","html-keyboard-response","48","362025","0.0-6.0-0.6","2856000","co37555","norming","","","","","","",""
"null","../img/tt/1142tt.jpg","null","mooney1","image-keyboard-response","49","365034","0.0-6.0-1.6","2856000","co37555","norming","","","","","","",""
"4117.834999999963","","","post_mooney1_questions","survey-likert","50","369153","0.0-6.0-2.6","2856000","co37555","norming","","","{""curiosity"":5,""confidence"":1}","[0,1]","../img/tt/1142tt.jpg","",""
"3550.2449999999953","","","recognition","survey-text","51","372705","0.0-6.0-3.6","2856000","co37555","norming","","","{""guess"":""tennis""}","","../img/tt/1142tt.jpg","",""
"null","../img/gs/1142gs.jpg","null","reveal","image-keyboard-response","52","374711","0.0-6.0-4.6","2856000","co37555","norming","","","","","","",""
"null","../img/tt/1142tt.jpg","null","mooney2","image-keyboard-response","53","376715","0.0-6.0-5.6","2856000","co37555","norming","","","","","","",""
"2387.625","","","post_reveal_questions","survey-likert","54","379105","0.0-6.0-6.6","2856000","co37555","norming","","","{""aha"":4}","[0]","../img/tt/1142tt.jpg","",""
"null","<div style=""font-size:60px;""> </div>","null","fixation","html-keyboard-response","55","379310","0.0-6.0-0.7","2856000","co37555","norming","","","","","","",""
"null","../img/tt/082tt.jpg","null","mooney1","image-keyboard-response","56","382318","0.0-6.0-1.7","2856000","co37555","norming","","","","","","",""
"3656.7399999999907","","","post_mooney1_questions","survey-likert","57","385977","0.0-6.0-2.7","2856000","co37555","norming","","","{""curiosity"":6,""confidence"":0}","[0,1]","../img/tt/082tt.jpg","",""
"790.015000000014","","","recognition","survey-text","58","386769","0.0-6.0-3.7","2856000","co37555","norming","","","{""guess"":""""}","","../img/tt/082tt.jpg","",""
"null","../img/gs/082gs.jpg","null","reveal","image-keyboard-response","59","388777","0.0-6.0-4.7","2856000","co37555","norming","","","","","","",""
"null","../img/tt/082tt.jpg","null","mooney2","image-keyboard-response","60","390778","0.0-6.0-5.7","2856000","co37555","norming","","","","","","",""
"2812.5849999999627","","","post_reveal_questions","survey-likert","61","393593","0.0-6.0-6.7","2856000","co37555","norming","","","{""aha"":6}","[0]","../img/tt/082tt.jpg","",""
"null","<div style=""font-size:60px;""> </div>","null","fixation","html-keyboard-response","62","393799","0.0-6.0-0.8","2856000","co37555","norming","","","","","","",""
"null","../img/tt/353tt.jpg","null","mooney1","image-keyboard-response","63","396804","0.0-6.0-1.8","2856000","co37555","norming","","","","","","",""
"11794.020000000019","","","post_mooney1_questions","survey-likert","64","408601","0.0-6.0-2.8","2856000","co37555","norming","","","{""curiosity"":6,""confidence"":0}","[0,1]","../img/tt/353tt.jpg","",""
"733.6149999999907","","","recognition","survey-text","65","409336","0.0-6.0-3.8","2856000","co37555","norming","","","{""guess"":""""}","","../img/tt/353tt.jpg","",""
"null","../img/gs/353gs.jpg","null","reveal","image-keyboard-response","66","411345","0.0-6.0-4.8","2856000","co37555","norming","","","","","","",""
"null","../img/tt/353tt.jpg","null","mooney2","image-keyboard-response","67","413255","0.0-6.0-5.8","2856000","co37555","norming","","","","","","",""
"2671.3450000000303","","","post_reveal_questions","survey-likert","68","415929","0.0-6.0-6.8","2856000","co37555","norming","","","{""aha"":6}","[0]","../img/tt/353tt.jpg","",""
"null","<div style=""font-size:60px;""> </div>","null","fixation","html-keyboard-response","69","416140","0.0-6.0-0.9","2856000","co37555","norming","","","","","","",""
"null","../img/tt/1123tt.jpg","null","mooney1","image-keyboard-response","70","419148","0.0-6.0-1.9","2856000","co37555","norming","","","","","","",""
"5186.504999999946","","","post_mooney1_questions","survey-likert","71","424337","0.0-6.0-2.9","2856000","co37555","norming","","","{""curiosity"":5,""confidence"":1}","[0,1]","../img/tt/1123tt.jpg","",""
"3422.2450000001118","","","recognition","survey-text","72","427761","0.0-6.0-3.9","2856000","co37555","norming","","","{""guess"":""basketbal""}","","../img/tt/1123tt.jpg","",""
"null","../img/gs/1123gs.jpg","null","reveal","image-keyboard-response","73","429769","0.0-6.0-4.9","2856000","co37555","norming","","","","","","",""
"null","../img/tt/1123tt.jpg","null","mooney2","image-keyboard-response","74","431776","0.0-6.0-5.9","2856000","co37555","norming","","","","","","",""
"2526.4150000000373","","","post_reveal_questions","survey-likert","75","434305","0.0-6.0-6.9","2856000","co37555","norming","","","{""aha"":5}","[0]","../img/tt/1123tt.jpg","",""
"null","<div style=""font-size:60px;""> </div>","null","fixation","html-keyboard-response","76","434516","0.0-6.0-0.10","2856000","co37555","norming","","","","","","",""
"null","../img/tt/1161tt.jpg","null","mooney1","image-keyboard-response","77","437527","0.0-6.0-1.10","2856000","co37555","norming","","","","","","",""
"5223.214999999967","","","post_mooney1_questions","survey-likert","78","442753","0.0-6.0-2.10","2856000","co37555","norming","","","{""curiosity"":5,""confidence"":1}","[0,1]","../img/tt/1161tt.jpg","",""
"7565.989999999991","","","recognition","survey-text","79","450321","0.0-6.0-3.10","2856000","co37555","norming","","","{""guess"":""berg beklimmen""}","","../img/tt/1161tt.jpg","",""
"null","../img/gs/1161gs.jpg","null","reveal","image-keyboard-response","80","452327","0.0-6.0-4.10","2856000","co37555","norming","","","","","","",""
"null","../img/tt/1161tt.jpg","null","mooney2","image-keyboard-response","81","454335","0.0-6.0-5.10","2856000","co37555","norming","","","","","","",""
"2183.9199999999255","","","post_reveal_questions","survey-likert","82","456521","0.0-6.0-6.10","2856000","co37555","norming","","","{""aha"":1}","[0]","../img/tt/1161tt.jpg","",""
"null","<div style=""font-size:60px;""> </div>","null","fixation","html-keyboard-response","83","456727","0.0-6.0-0.11","2856000","co37555","norming","","","","","","",""
"null","../img/tt/013tt.jpg","null","mooney1","image-keyboard-response","84","459730","0.0-6.0-1.11","2856000","co37555","norming","","","","","","",""
"2996.305000000051","","","post_mooney1_questions","survey-likert","85","462729","0.0-6.0-2.11","2856000","co37555","norming","","","{""curiosity"":6,""confidence"":0}","[0,1]","../img/tt/013tt.jpg","",""
"854.3300000000163","","","recognition","survey-text","86","463585","0.0-6.0-3.11","2856000","co37555","norming","","","{""guess"":""""}","","../img/tt/013tt.jpg","",""
"null","../img/gs/013gs.jpg","null","reveal","image-keyboard-response","87","465588","0.0-6.0-4.11","2856000","co37555","norming","","","","","","",""
"null","../img/tt/013tt.jpg","null","mooney2","image-keyboard-response","88","467596","0.0-6.0-5.11","2856000","co37555","norming","","","","","","",""
"2435.25","","","post_reveal_questions","survey-likert","89","470033","0.0-6.0-6.11","2856000","co37555","norming","","","{""aha"":5}","[0]","../img/tt/013tt.jpg","",""
"null","<div style=""font-size:60px;""> </div>","null","fixation","html-keyboard-response","90","470242","0.0-6.0-0.12","2856000","co37555","norming","","","","","","",""
"null","../img/tt/1151tt.jpg","null","mooney1","image-keyboard-response","91","473250","0.0-6.0-1.12","2856000","co37555","norming","","","","","","",""
"6932.239999999991","","","post_mooney1_questions","survey-likert","92","480091","0.0-6.0-2.12","2856000","co37555","norming","","","{""curiosity"":6,""confidence"":1}","[0,1]","../img/tt/1151tt.jpg","",""
"2998.2350000000442","","","recognition","survey-text","93","483091","0.0-6.0-3.12","2856000","co37555","norming","","","{""guess"":""koe""}","","../img/tt/1151tt.jpg","",""
"null","../img/gs/1151gs.jpg","null","reveal","image-keyboard-response","94","485101","0.0-6.0-4.12","2856000","co37555","norming","","","","","","",""
"null","../img/tt/1151tt.jpg","null","mooney2","image-keyboard-response","95","487104","0.0-6.0-5.12","2856000","co37555","norming","","","","","","",""
"3585.045000000042","","","post_reveal_questions","survey-likert","96","490691","0.0-6.0-6.12","2856000","co37555","norming","","","{""aha"":5}","[0]","../img/tt/1151tt.jpg","",""
"null","<div style=""font-size:60px;""> </div>","null","fixation","html-keyboard-response","97","490896","0.0-6.0-0.13","2856000","co37555","norming","","","","","","",""
"null","../img/tt/1072tt.jpg","null","mooney1","image-keyboard-response","98","493905","0.0-6.0-1.13","2856000","co37555","norming","","","","","","",""
"8417.530000000028","","","post_mooney1_questions","survey-likert","99","502323","0.0-6.0-2.13","2856000","co37555","norming","","","{""curiosity"":6,""confidence"":0}","[0,1]","../img/tt/1072tt.jpg","",""
"3718.1050000000396","","","recognition","survey-text","100","506043","0.0-6.0-3.13","2856000","co37555","norming","","","{""guess"":""""}","","../img/tt/1072tt.jpg","",""
"null","../img/gs/1072gs.jpg","null","reveal","image-keyboard-response","101","508053","0.0-6.0-4.13","2856000","co37555","norming","","","","","","",""
"null","../img/tt/1072tt.jpg","null","mooney2","image-keyboard-response","102","510057","0.0-6.0-5.13","2856000","co37555","norming","","","","","","",""
"2449.3000000000466","","","post_reveal_questions","survey-likert","103","512507","0.0-6.0-6.13","2856000","co37555","norming","","","{""aha"":5}","[0]","../img/tt/1072tt.jpg","",""
"null","<div style=""font-size:60px;""> </div>","null","fixation","html-keyboard-response","104","512717","0.0-6.0-0.14","2856000","co37555","norming","","","","","","",""
"null","../img/tt/111tt.jpg","null","mooney1","image-keyboard-response","105","515728","0.0-6.0-1.14","2856000","co37555","norming","","","","","","",""
"14248.335000000021","","","post_mooney1_questions","survey-likert","106","529979","0.0-6.0-2.14","2856000","co37555","norming","","","{""curiosity"":6,""confidence"":1}","[0,1]","../img/tt/111tt.jpg","",""
"11949.849999999977","","","recognition","survey-text","107","541836","0.0-6.0-3.14","2856000","co37555","norming","","","{""guess"":""vissen""}","","../img/tt/111tt.jpg","",""
"null","../img/gs/111gs.jpg","null","reveal","image-keyboard-response","108","543839","0.0-6.0-4.14","2856000","co37555","norming","","","","","","",""
"null","../img/tt/111tt.jpg","null","mooney2","image-keyboard-response","109","545844","0.0-6.0-5.14","2856000","co37555","norming","","","","","","",""
"3687.569999999949","","","post_reveal_questions","survey-likert","110","549533","0.0-6.0-6.14","2856000","co37555","norming","","","{""aha"":6}","[0]","../img/tt/111tt.jpg","",""
"null","<div style=""font-size:60px;""> </div>","null","fixation","html-keyboard-response","111","549739","0.0-6.0-0.15","2856000","co37555","norming","","","","","","",""
"null","../img/tt/270tt.jpg","null","mooney1","image-keyboard-response","112","552741","0.0-6.0-1.15","2856000","co37555","norming","","","","","","",""
"7741.384999999893","","","post_mooney1_questions","survey-likert","113","560485","0.0-6.0-2.15","2856000","co37555","norming","","","{""curiosity"":6,""confidence"":1}","[0,1]","../img/tt/270tt.jpg","",""
"3357.6849999999395","","","recognition","survey-text","114","563844","0.0-6.0-3.15","2856000","co37555","norming","","","{""guess"":""radiator""}","","../img/tt/270tt.jpg","",""
"null","../img/gs/270gs.jpg","null","reveal","image-keyboard-response","115","565850","0.0-6.0-4.15","2856000","co37555","norming","","","","","","",""
"null","../img/tt/270tt.jpg","null","mooney2","image-keyboard-response","116","567860","0.0-6.0-5.15","2856000","co37555","norming","","","","","","",""
"4815.464999999967","","","post_reveal_questions","survey-likert","117","572677","0.0-6.0-6.15","2856000","co37555","norming","","","{""aha"":6}","[0]","../img/tt/270tt.jpg","",""
"null","<div style=""font-size:60px;""> </div>","null","fixation","html-keyboard-response","118","572887","0.0-6.0-0.16","2856000","co37555","norming","","","","","","",""
"null","../img/tt/559tt.jpg","null","mooney1","image-keyboard-response","119","575898","0.0-6.0-1.16","2856000","co37555","norming","","","","","","",""
"4688.07500000007","","","post_mooney1_questions","survey-likert","120","580589","0.0-6.0-2.16","2856000","co37555","norming","","","{""curiosity"":6,""confidence"":0}","[0,1]","../img/tt/559tt.jpg","",""
"774.1499999999069","","","recognition","survey-text","121","581365","0.0-6.0-3.16","2856000","co37555","norming","","","{""guess"":""""}","","../img/tt/559tt.jpg","",""
"null","../img/gs/559gs.jpg","null","reveal","image-keyboard-response","122","583366","0.0-6.0-4.16","2856000","co37555","norming","","","","","","",""
"null","../img/tt/559tt.jpg","null","mooney2","image-keyboard-response","123","585374","0.0-6.0-5.16","2856000","co37555","norming","","","","","","",""
"4789.694999999949","","","post_reveal_questions","survey-likert","124","590165","0.0-6.0-6.16","2856000","co37555","norming","","","{""aha"":4}","[0]","../img/tt/559tt.jpg","",""
"null","<div style=""font-size:60px;""> </div>","null","fixation","html-keyboard-response","125","590366","0.0-6.0-0.17","2856000","co37555","norming","","","","","","",""
"null","../img/tt/580tt.jpg","null","mooney1","image-keyboard-response","126","593378","0.0-6.0-1.17","2856000","co37555","norming","","","","","","",""
"7368.4349999999395","","","post_mooney1_questions","survey-likert","127","600735","0.0-6.0-2.17","2856000","co37555","norming","","","{""curiosity"":6,""confidence"":0}","[0,1]","../img/tt/580tt.jpg","",""
"526.0299999999115","","","recognition","survey-text","128","601263","0.0-6.0-3.17","2856000","co37555","norming","","","{""guess"":""""}","","../img/tt/580tt.jpg","",""
"null","../img/gs/580gs.jpg","null","reveal","image-keyboard-response","129","603266","0.0-6.0-4.17","2856000","co37555","norming","","","","","","",""
"null","../img/tt/580tt.jpg","null","mooney2","image-keyboard-response","130","605274","0.0-6.0-5.17","2856000","co37555","norming","","","","","","",""
"3540.030000000028","","","post_reveal_questions","survey-likert","131","608815","0.0-6.0-6.17","2856000","co37555","norming","","","{""aha"":5}","[0]","../img/tt/580tt.jpg","",""
"null","<div style=""font-size:60px;""> </div>","null","fixation","html-keyboard-response","132","609018","0.0-6.0-0.18","2856000","co37555","norming","","","","","","",""
"null","../img/tt/1055tt.jpg","null","mooney1","image-keyboard-response","133","612020","0.0-6.0-1.18","2856000","co37555","norming","","","","","","",""
"6239.810000000056","","","post_mooney1_questions","survey-likert","134","618263","0.0-6.0-2.18","2856000","co37555","norming","","","{""curiosity"":6,""confidence"":1}","[0,1]","../img/tt/1055tt.jpg","",""
"3766.125","","","recognition","survey-text","135","622031","0.0-6.0-3.18","2856000","co37555","norming","","","{""guess"":""grot""}","","../img/tt/1055tt.jpg","",""
"null","../img/gs/1055gs.jpg","null","reveal","image-keyboard-response","136","624032","0.0-6.0-4.18","2856000","co37555","norming","","","","","","",""
"null","../img/tt/1055tt.jpg","null","mooney2","image-keyboard-response","137","626034","0.0-6.0-5.18","2856000","co37555","norming","","","","","","",""
"3290.2249999999767","","","post_reveal_questions","survey-likert","138","629327","0.0-6.0-6.18","2856000","co37555","norming","","","{""aha"":5}","[0]","../img/tt/1055tt.jpg","",""
"null","<div style=""font-size:60px;""> </div>","null","fixation","html-keyboard-response","139","629533","0.0-6.0-0.19","2856000","co37555","norming","","","","","","",""
"null","../img/tt/020tt.jpg","null","mooney1","image-keyboard-response","140","632538","0.0-6.0-1.19","2856000","co37555","norming","","","","","","",""
"6569.895000000019","","","post_mooney1_questions","survey-likert","141","639111","0.0-6.0-2.19","2856000","co37555","norming","","","{""curiosity"":6,""confidence"":0}","[0,1]","../img/tt/020tt.jpg","",""
"909.859999999986","","","recognition","survey-text","142","640023","0.0-6.0-3.19","2856000","co37555","norming","","","{""guess"":""""}","","../img/tt/020tt.jpg","",""
"null","../img/gs/020gs.jpg","null","reveal","image-keyboard-response","143","642029","0.0-6.0-4.19","2856000","co37555","norming","","","","","","",""
"null","../img/tt/020tt.jpg","null","mooney2","image-keyboard-response","144","644031","0.0-6.0-5.19","2856000","co37555","norming","","","","","","",""
"4541.969999999972","","","post_reveal_questions","survey-likert","145","648575","0.0-6.0-6.19","2856000","co37555","norming","","","{""aha"":4}","[0]","../img/tt/020tt.jpg","",""
"null","<div style=""font-size:60px;""> </div>","null","fixation","html-keyboard-response","146","648782","0.0-6.0-0.20","2856000","co37555","norming","","","","","","",""
"null","../img/tt/1012tt.jpg","null","mooney1","image-keyboard-response","147","651789","0.0-6.0-1.20","2856000","co37555","norming","","","","","","",""
"4576.664999999921","","","post_mooney1_questions","survey-likert","148","656367","0.0-6.0-2.20","2856000","co37555","norming","","","{""curiosity"":6,""confidence"":1}","[0,1]","../img/tt/1012tt.jpg","",""
"2622.1999999999534","","","recognition","survey-text","149","658998","0.0-6.0-3.20","2856000","co37555","norming","","","{""guess"":""berg""}","","../img/tt/1012tt.jpg","",""
"null","../img/gs/1012gs.jpg","null","reveal","image-keyboard-response","150","661002","0.0-6.0-4.20","2856000","co37555","norming","","","","","","",""
"null","../img/tt/1012tt.jpg","null","mooney2","image-keyboard-response","151","663006","0.0-6.0-5.20","2856000","co37555","norming","","","","","","",""
"2661.2299999999814","","","post_reveal_questions","survey-likert","152","665670","0.0-6.0-6.20","2856000","co37555","norming","","","{""aha"":5}","[0]","../img/tt/1012tt.jpg","",""
"null","<div style=""font-size:60px;""> </div>","null","fixation","html-keyboard-response","153","665876","0.0-6.0-0.21","2856000","co37555","norming","","","","","","",""
"null","../img/tt/440tt.jpg","null","mooney1","image-keyboard-response","154","668888","0.0-6.0-1.21","2856000","co37555","norming","","","","","","",""
"19099.75500000012","","","post_mooney1_questions","survey-likert","155","687990","0.0-6.0-2.21","2856000","co37555","norming","","","{""curiosity"":6,""confidence"":1}","[0,1]","../img/tt/440tt.jpg","",""
"12150.054999999935","","","recognition","survey-text","156","700142","0.0-6.0-3.21","2856000","co37555","norming","","","{""guess"":""paarden weide""}","","../img/tt/440tt.jpg","",""
"null","../img/gs/440gs.jpg","null","reveal","image-keyboard-response","157","702144","0.0-6.0-4.21","2856000","co37555","norming","","","","","","",""
"null","../img/tt/440tt.jpg","null","mooney2","image-keyboard-response","158","704146","0.0-6.0-5.21","2856000","co37555","norming","","","","","","",""
"2699.045000000042","","","post_reveal_questions","survey-likert","159","706846","0.0-6.0-6.21","2856000","co37555","norming","","","{""aha"":6}","[0]","../img/tt/440tt.jpg","",""
"null","<div style=""font-size:60px;""> </div>","null","fixation","html-keyboard-response","160","707047","0.0-6.0-0.22","2856000","co37555","norming","","","","","","",""
"null","../img/tt/306tt.jpg","null","mooney1","image-keyboard-response","161","710058","0.0-6.0-1.22","2856000","co37555","norming","","","","","","",""
"3849.04999999993","","","post_mooney1_questions","survey-likert","162","713910","0.0-6.0-2.22","2856000","co37555","norming","","","{""curiosity"":6,""confidence"":1}","[0,1]","../img/tt/306tt.jpg","",""
"5998.2200000000885","","","recognition","survey-text","163","719902","0.0-6.0-3.22","2856000","co37555","norming","","","{""guess"":""skieën""}","","../img/tt/306tt.jpg","",""
"null","../img/gs/306gs.jpg","null","reveal","image-keyboard-response","164","721907","0.0-6.0-4.22","2856000","co37555","norming","","","","","","",""
"null","../img/tt/306tt.jpg","null","mooney2","image-keyboard-response","165","723909","0.0-6.0-5.22","2856000","co37555","norming","","","","","","",""
"2599.329999999958","","","post_reveal_questions","survey-likert","166","726510","0.0-6.0-6.22","2856000","co37555","norming","","","{""aha"":5}","[0]","../img/tt/306tt.jpg","",""
"null","<div style=""font-size:60px;""> </div>","null","fixation","html-keyboard-response","167","726718","0.0-6.0-0.23","2856000","co37555","norming","","","","","","",""
"null","../img/tt/435tt.jpg","null","mooney1","image-keyboard-response","168","729726","0.0-6.0-1.23","2856000","co37555","norming","","","","","","",""
"5295.1699999999255","","","post_mooney1_questions","survey-likert","169","735022","0.0-6.0-2.23","2856000","co37555","norming","","","{""curiosity"":6,""confidence"":1}","[0,1]","../img/tt/435tt.jpg","",""
"4006.4000000001397","","","recognition","survey-text","170","739030","0.0-6.0-3.23","2856000","co37555","norming","","","{""guess"":""woonkamer""}","","../img/tt/435tt.jpg","",""
"null","../img/gs/435gs.jpg","null","reveal","image-keyboard-response","171","741040","0.0-6.0-4.23","2856000","co37555","norming","","","","","","",""
"null","../img/tt/435tt.jpg","null","mooney2","image-keyboard-response","172","743047","0.0-6.0-5.23","2856000","co37555","norming","","","","","","",""
"2878.9749999999767","","","post_reveal_questions","survey-likert","173","745926","0.0-6.0-6.23","2856000","co37555","norming","","","{""aha"":6}","[0]","../img/tt/435tt.jpg","",""
"null","<div style=""font-size:60px;""> </div>","null","fixation","html-keyboard-response","174","746135","0.0-6.0-0.24","2856000","co37555","norming","","","","","","",""
"null","../img/tt/1089tt.jpg","null","mooney1","image-keyboard-response","175","749144","0.0-6.0-1.24","2856000","co37555","norming","","","","","","",""
"4149.07500000007","","","post_mooney1_questions","survey-likert","176","753294","0.0-6.0-2.24","2856000","co37555","norming","","","{""curiosity"":6,""confidence"":0}","[0,1]","../img/tt/1089tt.jpg","",""
"1134.4899999999907","","","recognition","survey-text","177","754430","0.0-6.0-3.24","2856000","co37555","norming","","","{""guess"":""""}","","../img/tt/1089tt.jpg","",""
"null","../img/gs/1089gs.jpg","null","reveal","image-keyboard-response","178","756432","0.0-6.0-4.24","2856000","co37555","norming","","","","","","",""
"null","../img/tt/1089tt.jpg","null","mooney2","image-keyboard-response","179","758435","0.0-6.0-5.24","2856000","co37555","norming","","","","","","",""
"3985.640000000014","","","post_reveal_questions","survey-likert","180","762422","0.0-6.0-6.24","2856000","co37555","norming","","","{""aha"":6}","[0]","../img/tt/1089tt.jpg","",""
"null","<div style=""font-size:60px;""> </div>","null","fixation","html-keyboard-response","181","762625","0.0-6.0-0.25","2856000","co37555","norming","","","","","","",""
"null","../img/tt/1063tt.jpg","null","mooney1","image-keyboard-response","182","765628","0.0-6.0-1.25","2856000","co37555","norming","","","","","","",""
"3545.3300000000745","","","post_mooney1_questions","survey-likert","183","769174","0.0-6.0-2.25","2856000","co37555","norming","","","{""curiosity"":5,""confidence"":1}","[0,1]","../img/tt/1063tt.jpg","",""
"3493.8199999998324","","","recognition","survey-text","184","772670","0.0-6.0-3.25","2856000","co37555","norming","","","{""guess"":""kameel""}","","../img/tt/1063tt.jpg","",""
"null","../img/gs/1063gs.jpg","null","reveal","image-keyboard-response","185","774678","0.0-6.0-4.25","2856000","co37555","norming","","","","","","",""
"null","../img/tt/1063tt.jpg","null","mooney2","image-keyboard-response","186","776688","0.0-6.0-5.25","2856000","co37555","norming","","","","","","",""
"4188.349999999977","","","post_reveal_questions","survey-likert","187","780878","0.0-6.0-6.25","2856000","co37555","norming","","","{""aha"":5}","[0]","../img/tt/1063tt.jpg","",""
"null","<div style=""font-size:60px;""> </div>","null","fixation","html-keyboard-response","188","781082","0.0-6.0-0.26","2856000","co37555","norming","","","","","","",""
"null","../img/tt/064tt.jpg","null","mooney1","image-keyboard-response","189","784085","0.0-6.0-1.26","2856000","co37555","norming","","","","","","",""
"3254.274999999907","","","post_mooney1_questions","survey-likert","190","787342","0.0-6.0-2.26","2856000","co37555","norming","","","{""curiosity"":5,""confidence"":2}","[0,1]","../img/tt/064tt.jpg","",""
"3158.0449999999255","","","recognition","survey-text","191","790502","0.0-6.0-3.26","2856000","co37555","norming","","","{""guess"":""slang""}","","../img/tt/064tt.jpg","",""
"null","../img/gs/064gs.jpg","null","reveal","image-keyboard-response","192","792512","0.0-6.0-4.26","2856000","co37555","norming","","","","","","",""
"null","../img/tt/064tt.jpg","null","mooney2","image-keyboard-response","193","794521","0.0-6.0-5.26","2856000","co37555","norming","","","","","","",""
"3122.3649999998743","","","post_reveal_questions","survey-likert","194","797646","0.0-6.0-6.26","2856000","co37555","norming","","","{""aha"":4}","[0]","../img/tt/064tt.jpg","",""
"null","<div style=""font-size:60px;""> </div>","null","fixation","html-keyboard-response","195","797848","0.0-6.0-0.27","2856000","co37555","norming","","","","","","",""
"null","../img/tt/189tt.jpg","null","mooney1","image-keyboard-response","196","800857","0.0-6.0-1.27","2856000","co37555","norming","","","","","","",""
"6066.050000000047","","","post_mooney1_questions","survey-likert","197","806926","0.0-6.0-2.27","2856000","co37555","norming","","","{""curiosity"":5,""confidence"":1}","[0,1]","../img/tt/189tt.jpg","",""
"3654.4100000000326","","","recognition","survey-text","198","810582","0.0-6.0-3.27","2856000","co37555","norming","","","{""guess"":""windsurfen""}","","../img/tt/189tt.jpg","",""
"null","../img/gs/189gs.jpg","null","reveal","image-keyboard-response","199","812588","0.0-6.0-4.27","2856000","co37555","norming","","","","","","",""
"null","../img/tt/189tt.jpg","null","mooney2","image-keyboard-response","200","814599","0.0-6.0-5.27","2856000","co37555","norming","","","","","","",""
"2886.3499999999767","","","post_reveal_questions","survey-likert","201","817486","0.0-6.0-6.27","2856000","co37555","norming","","","{""aha"":6}","[0]","../img/tt/189tt.jpg","",""
"null","<div style=""font-size:60px;""> </div>","null","fixation","html-keyboard-response","202","817689","0.0-6.0-0.28","2856000","co37555","norming","","","","","","",""
"null","../img/tt/279tt.jpg","null","mooney1","image-keyboard-response","203","820696","0.0-6.0-1.28","2856000","co37555","norming","","","","","","",""
"4516.319999999949","","","post_mooney1_questions","survey-likert","204","825214","0.0-6.0-2.28","2856000","co37555","norming","","","{""curiosity"":6,""confidence"":0}","[0,1]","../img/tt/279tt.jpg","",""
"917.4350000000559","","","recognition","survey-text","205","826133","0.0-6.0-3.28","2856000","co37555","norming","","","{""guess"":""""}","","../img/tt/279tt.jpg","",""
"null","../img/gs/279gs.jpg","null","reveal","image-keyboard-response","206","828139","0.0-6.0-4.28","2856000","co37555","norming","","","","","","",""
"null","../img/tt/279tt.jpg","null","mooney2","image-keyboard-response","207","830145","0.0-6.0-5.28","2856000","co37555","norming","","","","","","",""
"3179.810000000056","","","post_reveal_questions","survey-likert","208","833326","0.0-6.0-6.28","2856000","co37555","norming","","","{""aha"":6}","[0]","../img/tt/279tt.jpg","",""
"null","<div style=""font-size:60px;""> </div>","null","fixation","html-keyboard-response","209","833529","0.0-6.0-0.29","2856000","co37555","norming","","","","","","",""
"null","../img/tt/599tt.jpg","null","mooney1","image-keyboard-response","210","836535","0.0-6.0-1.29","2856000","co37555","norming","","","","","","",""
"3270.125","","","post_mooney1_questions","survey-likert","211","839815","0.0-6.0-2.29","2856000","co37555","norming","","","{""curiosity"":5,""confidence"":1}","[0,1]","../img/tt/599tt.jpg","",""
"2869.9150000000373","","","recognition","survey-text","212","842687","0.0-6.0-3.29","2856000","co37555","norming","","","{""guess"":""uil""}","","../img/tt/599tt.jpg","",""
"null","../img/gs/599gs.jpg","null","reveal","image-keyboard-response","213","844689","0.0-6.0-4.29","2856000","co37555","norming","","","","","","",""
"null","../img/tt/599tt.jpg","null","mooney2","image-keyboard-response","214","846698","0.0-6.0-5.29","2856000","co37555","norming","","","","","","",""
"2436.670000000042","","","post_reveal_questions","survey-likert","215","849135","0.0-6.0-6.29","2856000","co37555","norming","","","{""aha"":3}","[0]","../img/tt/599tt.jpg","",""
"null","<div style=""font-size:60px;""> </div>","null","fixation","html-keyboard-response","216","849336","0.0-6.0-0.30","2856000","co37555","norming","","","","","","",""
"null","../img/tt/1247tt.jpg","null","mooney1","image-keyboard-response","217","852341","0.0-6.0-1.30","2856000","co37555","norming","","","","","","",""
"3793.1849999999395","","","post_mooney1_questions","survey-likert","218","856135","0.0-6.0-2.30","2856000","co37555","norming","","","{""curiosity"":5,""confidence"":1}","[0,1]","../img/tt/1247tt.jpg","",""
"2638.1650000000373","","","recognition","survey-text","219","858775","0.0-6.0-3.30","2856000","co37555","norming","","","{""guess"":""hond""}","","../img/tt/1247tt.jpg","",""
"null","../img/gs/1247gs.jpg","null","reveal","image-keyboard-response","220","860777","0.0-6.0-4.30","2856000","co37555","norming","","","","","","",""
"null","../img/tt/1247tt.jpg","null","mooney2","image-keyboard-response","221","862780","0.0-6.0-5.30","2856000","co37555","norming","","","","","","",""
"3290.2249999999767","","","post_reveal_questions","survey-likert","222","866071","0.0-6.0-6.30","2856000","co37555","norming","","","{""aha"":4}","[0]","../img/tt/1247tt.jpg","",""
"null","<div style=""font-size:60px;""> </div>","null","fixation","html-keyboard-response","223","866280","0.0-6.0-0.31","2856000","co37555","norming","","","","","","",""
"null","../img/tt/060tt.jpg","null","mooney1","image-keyboard-response","224","869291","0.0-6.0-1.31","2856000","co37555","norming","","","","","","",""
"3243.530000000028","","","post_mooney1_questions","survey-likert","225","872535","0.0-6.0-2.31","2856000","co37555","norming","","","{""curiosity"":5,""confidence"":0}","[0,1]","../img/tt/060tt.jpg","",""
"678.1199999999953","","","recognition","survey-text","226","873215","0.0-6.0-3.31","2856000","co37555","norming","","","{""guess"":""""}","","../img/tt/060tt.jpg","",""
"null","../img/gs/060gs.jpg","null","reveal","image-keyboard-response","227","875225","0.0-6.0-4.31","2856000","co37555","norming","","","","","","",""
"null","../img/tt/060tt.jpg","null","mooney2","image-keyboard-response","228","877228","0.0-6.0-5.31","2856000","co37555","norming","","","","","","",""
"3434.4150000000373","","","post_reveal_questions","survey-likert","229","880663","0.0-6.0-6.31","2856000","co37555","norming","","","{""aha"":4}","[0]","../img/tt/060tt.jpg","",""
"null","<div style=""font-size:60px;""> </div>","null","fixation","html-keyboard-response","230","880873","0.0-6.0-0.32","2856000","co37555","norming","","","","","","",""
"null","../img/tt/1200tt.jpg","null","mooney1","image-keyboard-response","231","883880","0.0-6.0-1.32","2856000","co37555","norming","","","","","","",""
"6478.8300000000745","","","post_mooney1_questions","survey-likert","232","890359","0.0-6.0-2.32","2856000","co37555","norming","","","{""curiosity"":5,""confidence"":1}","[0,1]","../img/tt/1200tt.jpg","",""
"4357.680000000051","","","recognition","survey-text","233","894719","0.0-6.0-3.32","2856000","co37555","norming","","","{""guess"":""schildpad""}","","../img/tt/1200tt.jpg","",""
"null","../img/gs/1200gs.jpg","null","reveal","image-keyboard-response","234","896725","0.0-6.0-4.32","2856000","co37555","norming","","","","","","",""
"null","../img/tt/1200tt.jpg","null","mooney2","image-keyboard-response","235","898732","0.0-6.0-5.32","2856000","co37555","norming","","","","","","",""
"2394.7149999999674","","","post_reveal_questions","survey-likert","236","901125","0.0-6.0-6.32","2856000","co37555","norming","","","{""aha"":5}","[0]","../img/tt/1200tt.jpg","",""
"null","<div style=""font-size:60px;""> </div>","null","fixation","html-keyboard-response","237","901331","0.0-6.0-0.33","2856000","co37555","norming","","","","","","",""
"null","../img/tt/567tt.jpg","null","mooney1","image-keyboard-response","238","904341","0.0-6.0-1.33","2856000","co37555","norming","","","","","","",""
"5183.130000000005","","","post_mooney1_questions","survey-likert","239","909525","0.0-6.0-2.33","2856000","co37555","norming","","","{""curiosity"":4,""confidence"":3}","[0,1]","../img/tt/567tt.jpg","",""
"5661.890000000014","","","recognition","survey-text","240","915189","0.0-6.0-3.33","2856000","co37555","norming","","","{""guess"":""broodrooster""}","","../img/tt/567tt.jpg","",""
"null","../img/gs/567gs.jpg","null","reveal","image-keyboard-response","241","917191","0.0-6.0-4.33","2856000","co37555","norming","","","","","","",""
"null","../img/tt/567tt.jpg","null","mooney2","image-keyboard-response","242","919198","0.0-6.0-5.33","2856000","co37555","norming","","","","","","",""
"2526.189999999944","","","post_reveal_questions","survey-likert","243","921725","0.0-6.0-6.33","2856000","co37555","norming","","","{""aha"":3}","[0]","../img/tt/567tt.jpg","",""
"null","<div style=""font-size:60px;""> </div>","null","fixation","html-keyboard-response","244","921927","0.0-6.0-0.34","2856000","co37555","norming","","","","","","",""
"null","../img/tt/010tt.jpg","null","mooney1","image-keyboard-response","245","924931","0.0-6.0-1.34","2856000","co37555","norming","","","","","","",""
"3713.100000000093","","","post_mooney1_questions","survey-likert","246","928645","0.0-6.0-2.34","2856000","co37555","norming","","","{""curiosity"":5,""confidence"":1}","[0,1]","../img/tt/010tt.jpg","",""
"2253.894999999902","","","recognition","survey-text","247","930901","0.0-6.0-3.34","2856000","co37555","norming","","","{""guess"":""vis""}","","../img/tt/010tt.jpg","",""
"null","../img/gs/010gs.jpg","null","reveal","image-keyboard-response","248","932907","0.0-6.0-4.34","2856000","co37555","norming","","","","","","",""
"null","../img/tt/010tt.jpg","null","mooney2","image-keyboard-response","249","934910","0.0-6.0-5.34","2856000","co37555","norming","","","","","","",""
"2493.8000000000466","","","post_reveal_questions","survey-likert","250","937405","0.0-6.0-6.34","2856000","co37555","norming","","","{""aha"":4}","[0]","../img/tt/010tt.jpg","",""
"null","<div style=""font-size:60px;""> </div>","null","fixation","html-keyboard-response","251","937616","0.0-6.0-0.35","2856000","co37555","norming","","","","","","",""
"null","../img/tt/1239tt.jpg","null","mooney1","image-keyboard-response","252","940625","0.0-6.0-1.35","2856000","co37555","norming","","","","","","",""
"3427.144999999902","","","post_mooney1_questions","survey-likert","253","944053","0.0-6.0-2.35","2856000","co37555","norming","","","{""curiosity"":6,""confidence"":0}","[0,1]","../img/tt/1239tt.jpg","",""
"877.8400000000838","","","recognition","survey-text","254","944933","0.0-6.0-3.35","2856000","co37555","norming","","","{""guess"":""""}","","../img/tt/1239tt.jpg","",""
"null","../img/gs/1239gs.jpg","null","reveal","image-keyboard-response","255","946940","0.0-6.0-4.35","2856000","co37555","norming","","","","","","",""
"null","../img/tt/1239tt.jpg","null","mooney2","image-keyboard-response","256","948950","0.0-6.0-5.35","2856000","co37555","norming","","","","","","",""
"3261.879999999772","","","post_reveal_questions","survey-likert","257","952213","0.0-6.0-6.35","2856000","co37555","norming","","","{""aha"":5}","[0]","../img/tt/1239tt.jpg","",""
"null","<div style=""font-size:60px;""> </div>","null","fixation","html-keyboard-response","258","952419","0.0-6.0-0.36","2856000","co37555","norming","","","","","","",""
"null","../img/tt/1130tt.jpg","null","mooney1","image-keyboard-response","259","955428","0.0-6.0-1.36","2856000","co37555","norming","","","","","","",""
"6480.660000000149","","","post_mooney1_questions","survey-likert","260","961905","0.0-6.0-2.36","2856000","co37555","norming","","","{""curiosity"":5,""confidence"":2}","[0,1]","../img/tt/1130tt.jpg","",""
"2829.884999999893","","","recognition","survey-text","261","964736","0.0-6.0-3.36","2856000","co37555","norming","","","{""guess"":""paard""}","","../img/tt/1130tt.jpg","",""
"null","../img/gs/1130gs.jpg","null","reveal","image-keyboard-response","262","966742","0.0-6.0-4.36","2856000","co37555","norming","","","","","","",""
"null","../img/tt/1130tt.jpg","null","mooney2","image-keyboard-response","263","968747","0.0-6.0-5.36","2856000","co37555","norming","","","","","","",""
"4996.415000000154","","","post_reveal_questions","survey-likert","264","973744","0.0-6.0-6.36","2856000","co37555","norming","","","{""aha"":4}","[0]","../img/tt/1130tt.jpg","",""
"null","<div style=""font-size:60px;""> </div>","null","fixation","html-keyboard-response","265","973949","0.0-6.0-0.37","2856000","co37555","norming","","","","","","",""
"null","../img/tt/1366tt.jpg","null","mooney1","image-keyboard-response","266","976958","0.0-6.0-1.37","2856000","co37555","norming","","","","","","",""
"10977.274999999907","","","post_mooney1_questions","survey-likert","267","987936","0.0-6.0-2.37","2856000","co37555","norming","","","{""curiosity"":5,""confidence"":0}","[0,1]","../img/tt/1366tt.jpg","",""
"589.8699999999953","","","recognition","survey-text","268","988528","0.0-6.0-3.37","2856000","co37555","norming","","","{""guess"":""""}","","../img/tt/1366tt.jpg","",""
"null","../img/gs/1366gs.jpg","null","reveal","image-keyboard-response","269","990539","0.0-6.0-4.37","2856000","co37555","norming","","","","","","",""
"null","../img/tt/1366tt.jpg","null","mooney2","image-keyboard-response","270","992540","0.0-6.0-5.37","2856000","co37555","norming","","","","","","",""
"5234.935000000172","","","post_reveal_questions","survey-likert","271","997776","0.0-6.0-6.37","2856000","co37555","norming","","","{""aha"":4}","[0]","../img/tt/1366tt.jpg","",""
"null","<div style=""font-size:60px;""> </div>","null","fixation","html-keyboard-response","272","997982","0.0-6.0-0.38","2856000","co37555","norming","","","","","","",""
"null","../img/tt/194tt.jpg","null","mooney1","image-keyboard-response","273","1000993","0.0-6.0-1.38","2856000","co37555","norming","","","","","","",""
"4094.3549999999814","","","post_mooney1_questions","survey-likert","274","1005088","0.0-6.0-2.38","2856000","co37555","norming","","","{""curiosity"":5,""confidence"":2}","[0,1]","../img/tt/194tt.jpg","",""
"3590.2349999998696","","","recognition","survey-text","275","1008680","0.0-6.0-3.38","2856000","co37555","norming","","","{""guess"":""vrouw harp""}","","../img/tt/194tt.jpg","",""
"null","../img/gs/194gs.jpg","null","reveal","image-keyboard-response","276","1010682","0.0-6.0-4.38","2856000","co37555","norming","","","","","","",""
"null","../img/tt/194tt.jpg","null","mooney2","image-keyboard-response","277","1012693","0.0-6.0-5.38","2856000","co37555","norming","","","","","","",""
"3258.8499999998603","","","post_reveal_questions","survey-likert","278","1015952","0.0-6.0-6.38","2856000","co37555","norming","","","{""aha"":2}","[0]","../img/tt/194tt.jpg","",""
"null","<div style=""font-size:60px;""> </div>","null","fixation","html-keyboard-response","279","1016154","0.0-6.0-0.39","2856000","co37555","norming","","","","","","",""
"null","../img/tt/1262tt.jpg","null","mooney1","image-keyboard-response","280","1019165","0.0-6.0-1.39","2856000","co37555","norming","","","","","","",""
"2840.8800000000047","","","post_mooney1_questions","survey-likert","281","1022016","0.0-6.0-2.39","2856000","co37555","norming","","","{""curiosity"":5,""confidence"":1}","[0,1]","../img/tt/1262tt.jpg","",""
"3446.4749999998603","","","recognition","survey-text","282","1025464","0.0-6.0-3.39","2856000","co37555","norming","","","{""guess"":""kameleon""}","","../img/tt/1262tt.jpg","",""
"null","../img/gs/1262gs.jpg","null","reveal","image-keyboard-response","283","1027471","0.0-6.0-4.39","2856000","co37555","norming","","","","","","",""
"null","../img/tt/1262tt.jpg","null","mooney2","image-keyboard-response","284","1029472","0.0-6.0-5.39","2856000","co37555","norming","","","","","","",""
"2397.7600000000093","","","post_reveal_questions","survey-likert","285","1031872","0.0-6.0-6.39","2856000","co37555","norming","","","{""aha"":4}","[0]","../img/tt/1262tt.jpg","",""
"null","<div style=""font-size:60px;""> </div>","null","fixation","html-keyboard-response","286","1032073","0.0-6.0-0.40","2856000","co37555","norming","","","","","","",""
"null","../img/tt/1146tt.jpg","null","mooney1","image-keyboard-response","287","1035085","0.0-6.0-1.40","2856000","co37555","norming","","","","","","",""
"5472.824999999837","","","post_mooney1_questions","survey-likert","288","1040561","0.0-6.0-2.40","2856000","co37555","norming","","","{""curiosity"":5,""confidence"":1}","[0,1]","../img/tt/1146tt.jpg","",""
"2861.965000000084","","","recognition","survey-text","289","1043424","0.0-6.0-3.40","2856000","co37555","norming","","","{""guess"":""windsurfen""}","","../img/tt/1146tt.jpg","",""
"null","../img/gs/1146gs.jpg","null","reveal","image-keyboard-response","290","1045425","0.0-6.0-4.40","2856000","co37555","norming","","","","","","",""
"null","../img/tt/1146tt.jpg","null","mooney2","image-keyboard-response","291","1047432","0.0-6.0-5.40","2856000","co37555","norming","","","","","","",""
"2391.7050000000745","","","post_reveal_questions","survey-likert","292","1049824","0.0-6.0-6.40","2856000","co37555","norming","","","{""aha"":5}","[0]","../img/tt/1146tt.jpg","",""
"null","<div style=""font-size:60px;""> </div>","null","fixation","html-keyboard-response","293","1050035","0.0-6.0-0.41","2856000","co37555","norming","","","","","","",""
"null","../img/tt/552tt.jpg","null","mooney1","image-keyboard-response","294","1053040","0.0-6.0-1.41","2856000","co37555","norming","","","","","","",""
"4981.945000000065","","","post_mooney1_questions","survey-likert","295","1058025","0.0-6.0-2.41","2856000","co37555","norming","","","{""curiosity"":5,""confidence"":1}","[0,1]","../img/tt/552tt.jpg","",""
"3622.155000000028","","","recognition","survey-text","296","1061648","0.0-6.0-3.41","2856000","co37555","norming","","","{""guess"":""vlinder""}","","../img/tt/552tt.jpg","",""
"null","../img/gs/552gs.jpg","null","reveal","image-keyboard-response","297","1063659","0.0-6.0-4.41","2856000","co37555","norming","","","","","","",""
"null","../img/tt/552tt.jpg","null","mooney2","image-keyboard-response","298","1065666","0.0-6.0-5.41","2856000","co37555","norming","","","","","","",""
"2876.2249999998603","","","post_reveal_questions","survey-likert","299","1068544","0.0-6.0-6.41","2856000","co37555","norming","","","{""aha"":4}","[0]","../img/tt/552tt.jpg","",""
"null","<div style=""font-size:60px;""> </div>","null","fixation","html-keyboard-response","300","1068752","0.0-6.0-0.42","2856000","co37555","norming","","","","","","",""
"null","../img/tt/1024tt.jpg","null","mooney1","image-keyboard-response","301","1071756","0.0-6.0-1.42","2856000","co37555","norming","","","","","","",""
"3194.975000000093","","","post_mooney1_questions","survey-likert","302","1074952","0.0-6.0-2.42","2856000","co37555","norming","","","{""curiosity"":5,""confidence"":2}","[0,1]","../img/tt/1024tt.jpg","",""
"3910.0450000001583","","","recognition","survey-text","303","1078864","0.0-6.0-3.42","2856000","co37555","norming","","","{""guess"":""tennis""}","","../img/tt/1024tt.jpg","",""
"null","../img/gs/1024gs.jpg","null","reveal","image-keyboard-response","304","1080874","0.0-6.0-4.42","2856000","co37555","norming","","","","","","",""
"null","../img/tt/1024tt.jpg","null","mooney2","image-keyboard-response","305","1082879","0.0-6.0-5.42","2856000","co37555","norming","","","","","","",""
"2457.179999999935","","","post_reveal_questions","survey-likert","306","1085339","0.0-6.0-6.42","2856000","co37555","norming","","","{""aha"":2}","[0]","../img/tt/1024tt.jpg","",""
"null","<div style=""font-size:60px;""> </div>","null","fixation","html-keyboard-response","307","1085545","0.0-6.0-0.43","2856000","co37555","norming","","","","","","",""
"null","../img/tt/1211tt.jpg","null","mooney1","image-keyboard-response","308","1088551","0.0-6.0-1.43","2856000","co37555","norming","","","","","","",""
"6041.270000000019","","","post_mooney1_questions","survey-likert","309","1094595","0.0-6.0-2.43","2856000","co37555","norming","","","{""curiosity"":5,""confidence"":0}","[0,1]","../img/tt/1211tt.jpg","",""
"630.1300000001211","","","recognition","survey-text","310","1095227","0.0-6.0-3.43","2856000","co37555","norming","","","{""guess"":""""}","","../img/tt/1211tt.jpg","",""
"null","../img/gs/1211gs.jpg","null","reveal","image-keyboard-response","311","1097234","0.0-6.0-4.43","2856000","co37555","norming","","","","","","",""
"null","../img/tt/1211tt.jpg","null","mooney2","image-keyboard-response","312","1099241","0.0-6.0-5.43","2856000","co37555","norming","","","","","","",""
"4407.405000000028","","","post_reveal_questions","survey-likert","313","1103651","0.0-6.0-6.43","2856000","co37555","norming","","","{""aha"":5}","[0]","../img/tt/1211tt.jpg","",""
"null","<div style=""font-size:60px;""> </div>","null","fixation","html-keyboard-response","314","1103854","0.0-6.0-0.44","2856000","co37555","norming","","","","","","",""
"null","../img/tt/1199tt.jpg","null","mooney1","image-keyboard-response","315","1106858","0.0-6.0-1.44","2856000","co37555","norming","","","","","","",""
"3560.0500000000466","","","post_mooney1_questions","survey-likert","316","1110419","0.0-6.0-2.44","2856000","co37555","norming","","","{""curiosity"":5,""confidence"":1}","[0,1]","../img/tt/1199tt.jpg","",""
"2429.809999999823","","","recognition","survey-text","317","1112851","0.0-6.0-3.44","2856000","co37555","norming","","","{""guess"":""dansen""}","","../img/tt/1199tt.jpg","",""
"null","../img/gs/1199gs.jpg","null","reveal","image-keyboard-response","318","1114859","0.0-6.0-4.44","2856000","co37555","norming","","","","","","",""
"null","../img/tt/1199tt.jpg","null","mooney2","image-keyboard-response","319","1116864","0.0-6.0-5.44","2856000","co37555","norming","","","","","","",""
"3009.7249999998603","","","post_reveal_questions","survey-likert","320","1119875","0.0-6.0-6.44","2856000","co37555","norming","","","{""aha"":3}","[0]","../img/tt/1199tt.jpg","",""
"null","<div style=""font-size:60px;""> </div>","null","fixation","html-keyboard-response","321","1120076","0.0-6.0-0.45","2856000","co37555","norming","","","","","","",""
"null","../img/tt/1227tt.jpg","null","mooney1","image-keyboard-response","322","1123079","0.0-6.0-1.45","2856000","co37555","norming","","","","","","",""
"3834.945000000065","","","post_mooney1_questions","survey-likert","323","1126915","0.0-6.0-2.45","2856000","co37555","norming","","","{""curiosity"":6,""confidence"":0}","[0,1]","../img/tt/1227tt.jpg","",""
"933.2800000000279","","","recognition","survey-text","324","1127851","0.0-6.0-3.45","2856000","co37555","norming","","","{""guess"":""""}","","../img/tt/1227tt.jpg","",""
"null","../img/gs/1227gs.jpg","null","reveal","image-keyboard-response","325","1129862","0.0-6.0-4.45","2856000","co37555","norming","","","","","","",""
"null","../img/tt/1227tt.jpg","null","mooney2","image-keyboard-response","326","1131870","0.0-6.0-5.45","2856000","co37555","norming","","","","","","",""
"2324.0049999998882","","","post_reveal_questions","survey-likert","327","1134195","0.0-6.0-6.45","2856000","co37555","norming","","","{""aha"":4}","[0]","../img/tt/1227tt.jpg","",""
"null","<div style=""font-size:60px;""> </div>","null","fixation","html-keyboard-response","328","1134396","0.0-6.0-0.46","2856000","co37555","norming","","","","","","",""
"null","../img/tt/126tt.jpg","null","mooney1","image-keyboard-response","329","1137402","0.0-6.0-1.46","2856000","co37555","norming","","","","","","",""
"9846.320000000065","","","post_mooney1_questions","survey-likert","330","1147249","0.0-6.0-2.46","2856000","co37555","norming","","","{""curiosity"":6,""confidence"":0}","[0,1]","../img/tt/126tt.jpg","",""
"678.1149999997579","","","recognition","survey-text","331","1147929","0.0-6.0-3.46","2856000","co37555","norming","","","{""guess"":""""}","","../img/tt/126tt.jpg","",""
"null","../img/gs/126gs.jpg","null","reveal","image-keyboard-response","332","1149935","0.0-6.0-4.46","2856000","co37555","norming","","","","","","",""
"null","../img/tt/126tt.jpg","null","mooney2","image-keyboard-response","333","1151939","0.0-6.0-5.46","2856000","co37555","norming","","","","","","",""
"2620.3850000000093","","","post_reveal_questions","survey-likert","334","1154561","0.0-6.0-6.46","2856000","co37555","norming","","","{""aha"":5}","[0]","../img/tt/126tt.jpg","",""
"null","<div style=""font-size:60px;""> </div>","null","fixation","html-keyboard-response","335","1154766","0.0-6.0-0.47","2856000","co37555","norming","","","","","","",""
"null","../img/tt/1148tt.jpg","null","mooney1","image-keyboard-response","336","1157771","0.0-6.0-1.47","2856000","co37555","norming","","","","","","",""
"6124.874999999767","","","post_mooney1_questions","survey-likert","337","1163897","0.0-6.0-2.47","2856000","co37555","norming","","","{""curiosity"":5,""confidence"":1}","[0,1]","../img/tt/1148tt.jpg","",""
"3246.125","","","recognition","survey-text","338","1167145","0.0-6.0-3.47","2856000","co37555","norming","","","{""guess"":""ballet""}","","../img/tt/1148tt.jpg","",""
"null","../img/gs/1148gs.jpg","null","reveal","image-keyboard-response","339","1169150","0.0-6.0-4.47","2856000","co37555","norming","","","","","","",""
"null","../img/tt/1148tt.jpg","null","mooney2","image-keyboard-response","340","1171158","0.0-6.0-5.47","2856000","co37555","norming","","","","","","",""
"2512.375","","","post_reveal_questions","survey-likert","341","1173672","0.0-6.0-6.47","2856000","co37555","norming","","","{""aha"":4}","[0]","../img/tt/1148tt.jpg","",""
"null","<div style=""font-size:60px;""> </div>","null","fixation","html-keyboard-response","342","1173874","0.0-6.0-0.48","2856000","co37555","norming","","","","","","",""
"null","../img/tt/1237tt.jpg","null","mooney1","image-keyboard-response","343","1176881","0.0-6.0-1.48","2856000","co37555","norming","","","","","","",""
"4206.215000000084","","","post_mooney1_questions","survey-likert","344","1181089","0.0-6.0-2.48","2856000","co37555","norming","","","{""curiosity"":6,""confidence"":0}","[0,1]","../img/tt/1237tt.jpg","",""
"621.7700000000186","","","recognition","survey-text","345","1181712","0.0-6.0-3.48","2856000","co37555","norming","","","{""guess"":""""}","","../img/tt/1237tt.jpg","",""
"null","../img/gs/1237gs.jpg","null","reveal","image-keyboard-response","346","1183719","0.0-6.0-4.48","2856000","co37555","norming","","","","","","",""
"null","../img/tt/1237tt.jpg","null","mooney2","image-keyboard-response","347","1185728","0.0-6.0-5.48","2856000","co37555","norming","","","","","","",""
"3264.179999999935","","","post_reveal_questions","survey-likert","348","1188993","0.0-6.0-6.48","2856000","co37555","norming","","","{""aha"":5}","[0]","../img/tt/1237tt.jpg","",""
"null","<div style=""font-size:60px;""> </div>","null","fixation","html-keyboard-response","349","1189194","0.0-6.0-0.49","2856000","co37555","norming","","","","","","",""
"null","../img/tt/1102tt.jpg","null","mooney1","image-keyboard-response","350","1192202","0.0-6.0-1.49","2856000","co37555","norming","","","","","","",""
"5531.540000000037","","","post_mooney1_questions","survey-likert","351","1197737","0.0-6.0-2.49","2856000","co37555","norming","","","{""curiosity"":6,""confidence"":1}","[0,1]","../img/tt/1102tt.jpg","",""
"3254.0400000000373","","","recognition","survey-text","352","1200993","0.0-6.0-3.49","2856000","co37555","norming","","","{""guess"":""berglandschap""}","","../img/tt/1102tt.jpg","",""
"null","../img/gs/1102gs.jpg","null","reveal","image-keyboard-response","353","1203002","0.0-6.0-4.49","2856000","co37555","norming","","","","","","",""
"null","../img/tt/1102tt.jpg","null","mooney2","image-keyboard-response","354","1205007","0.0-6.0-5.49","2856000","co37555","norming","","","","","","",""
"2223.4200000001583","","","post_reveal_questions","survey-likert","355","1207231","0.0-6.0-6.49","2856000","co37555","norming","","","{""aha"":5}","[0]","../img/tt/1102tt.jpg","",""
"null","<div style=""font-size:60px;""> </div>","null","fixation","html-keyboard-response","356","1207435","0.0-6.0-0.50","2856000","co37555","norming","","","","","","",""
"null","../img/tt/135tt.jpg","null","mooney1","image-keyboard-response","357","1210445","0.0-6.0-1.50","2856000","co37555","norming","","","","","","",""
"3535.0550000001676","","","post_mooney1_questions","survey-likert","358","1213983","0.0-6.0-2.50","2856000","co37555","norming","","","{""curiosity"":5,""confidence"":3}","[0,1]","../img/tt/135tt.jpg","",""
"2694.0500000000466","","","recognition","survey-text","359","1216679","0.0-6.0-3.50","2856000","co37555","norming","","","{""guess"":""toilet""}","","../img/tt/135tt.jpg","",""
"null","../img/gs/135gs.jpg","null","reveal","image-keyboard-response","360","1218680","0.0-6.0-4.50","2856000","co37555","norming","","","","","","",""
"null","../img/tt/135tt.jpg","null","mooney2","image-keyboard-response","361","1220685","0.0-6.0-5.50","2856000","co37555","norming","","","","","","",""
"13727.604999999981","","","post_reveal_questions","survey-likert","362","1234415","0.0-6.0-6.50","2856000","co37555","norming","","","{""aha"":2}","[0]","../img/tt/135tt.jpg","",""
"null","<div style=""font-size:60px;""> </div>","null","fixation","html-keyboard-response","363","1234617","0.0-6.0-0.51","2856000","co37555","norming","","","","","","",""
"null","../img/tt/1128tt.jpg","null","mooney1","image-keyboard-response","364","1237622","0.0-6.0-1.51","2856000","co37555","norming","","","","","","",""
"6934.405000000028","","","post_mooney1_questions","survey-likert","365","1244559","0.0-6.0-2.51","2856000","co37555","norming","","","{""curiosity"":4,""confidence"":2}","[0,1]","../img/tt/1128tt.jpg","",""
"3598.0250000001397","","","recognition","survey-text","366","1248159","0.0-6.0-3.51","2856000","co37555","norming","","","{""guess"":""pandabeer""}","","../img/tt/1128tt.jpg","",""
"null","../img/gs/1128gs.jpg","null","reveal","image-keyboard-response","367","1250161","0.0-6.0-4.51","2856000","co37555","norming","","","","","","",""
"null","../img/tt/1128tt.jpg","null","mooney2","image-keyboard-response","368","1252163","0.0-6.0-5.51","2856000","co37555","norming","","","","","","",""
"3265.2600000000093","","","post_reveal_questions","survey-likert","369","1255431","0.0-6.0-6.51","2856000","co37555","norming","","","{""aha"":6}","[0]","../img/tt/1128tt.jpg","",""
"null","<div style=""font-size:60px;""> </div>","null","fixation","html-keyboard-response","370","1255633","0.0-6.0-0.52","2856000","co37555","norming","","","","","","",""
"null","../img/tt/1283tt.jpg","null","mooney1","image-keyboard-response","371","1258637","0.0-6.0-1.52","2856000","co37555","norming","","","","","","",""
"2623.000000000233","","","post_mooney1_questions","survey-likert","372","1261263","0.0-6.0-2.52","2856000","co37555","norming","","","{""curiosity"":5,""confidence"":3}","[0,1]","../img/tt/1283tt.jpg","",""
"2214.309999999823","","","recognition","survey-text","373","1263480","0.0-6.0-3.52","2856000","co37555","norming","","","{""guess"":""vos""}","","../img/tt/1283tt.jpg","",""
"null","../img/gs/1283gs.jpg","null","reveal","image-keyboard-response","374","1265485","0.0-6.0-4.52","2856000","co37555","norming","","","","","","",""
"null","../img/tt/1283tt.jpg","null","mooney2","image-keyboard-response","375","1267487","0.0-6.0-5.52","2856000","co37555","norming","","","","","","",""
"2609.4250000000466","","","post_reveal_questions","survey-likert","376","1270097","0.0-6.0-6.52","2856000","co37555","norming","","","{""aha"":3}","[0]","../img/tt/1283tt.jpg","",""
"null","<div style=""font-size:60px;""> </div>","null","fixation","html-keyboard-response","377","1270299","0.0-6.0-0.53","2856000","co37555","norming","","","","","","",""
"null","../img/tt/1127tt.jpg","null","mooney1","image-keyboard-response","378","1273300","0.0-6.0-1.53","2856000","co37555","norming","","","","","","",""
"5226.5800000000745","","","post_mooney1_questions","survey-likert","379","1278529","0.0-6.0-2.53","2856000","co37555","norming","","","{""curiosity"":5,""confidence"":1}","[0,1]","../img/tt/1127tt.jpg","",""
"2870.524999999907","","","recognition","survey-text","380","1281401","0.0-6.0-3.53","2856000","co37555","norming","","","{""guess"":""judo""}","","../img/tt/1127tt.jpg","",""
"null","../img/gs/1127gs.jpg","null","reveal","image-keyboard-response","381","1283407","0.0-6.0-4.53","2856000","co37555","norming","","","","","","",""
"null","../img/tt/1127tt.jpg","null","mooney2","image-keyboard-response","382","1285409","0.0-6.0-5.53","2856000","co37555","norming","","","","","","",""
"2334.284999999916","","","post_reveal_questions","survey-likert","383","1287745","0.0-6.0-6.53","2856000","co37555","norming","","","{""aha"":3}","[0]","../img/tt/1127tt.jpg","",""
"null","<div style=""font-size:60px;""> </div>","null","fixation","html-keyboard-response","384","1287946","0.0-6.0-0.54","2856000","co37555","norming","","","","","","",""
"null","../img/tt/112tt.jpg","null","mooney1","image-keyboard-response","385","1290953","0.0-6.0-1.54","2856000","co37555","norming","","","","","","",""
"3622.375","","","post_mooney1_questions","survey-likert","386","1294577","0.0-6.0-2.54","2856000","co37555","norming","","","{""curiosity"":6,""confidence"":0}","[0,1]","../img/tt/112tt.jpg","",""
"750.1799999999348","","","recognition","survey-text","387","1295329","0.0-6.0-3.54","2856000","co37555","norming","","","{""guess"":""""}","","../img/tt/112tt.jpg","",""
"null","../img/gs/112gs.jpg","null","reveal","image-keyboard-response","388","1297339","0.0-6.0-4.54","2856000","co37555","norming","","","","","","",""
"null","../img/tt/112tt.jpg","null","mooney2","image-keyboard-response","389","1299341","0.0-6.0-5.54","2856000","co37555","norming","","","","","","",""
"5457.439999999944","","","post_reveal_questions","survey-likert","390","1304801","0.0-6.0-6.54","2856000","co37555","norming","","","{""aha"":5}","[0]","../img/tt/112tt.jpg","",""
"null","<div style=""font-size:60px;""> </div>","null","fixation","html-keyboard-response","391","1305002","0.0-6.0-0.55","2856000","co37555","norming","","","","","","",""
"null","../img/tt/1254tt.jpg","null","mooney1","image-keyboard-response","392","1308008","0.0-6.0-1.55","2856000","co37555","norming","","","","","","",""
"4637.84999999986","","","post_mooney1_questions","survey-likert","393","1312649","0.0-6.0-2.55","2856000","co37555","norming","","","{""curiosity"":6,""confidence"":0}","[0,1]","../img/tt/1254tt.jpg","",""
"613.9550000000745","","","recognition","survey-text","394","1313265","0.0-6.0-3.55","2856000","co37555","norming","","","{""guess"":""""}","","../img/tt/1254tt.jpg","",""
"null","../img/gs/1254gs.jpg","null","reveal","image-keyboard-response","395","1315269","0.0-6.0-4.55","2856000","co37555","norming","","","","","","",""
"null","../img/tt/1254tt.jpg","null","mooney2","image-keyboard-response","396","1317277","0.0-6.0-5.55","2856000","co37555","norming","","","","","","",""
"2257.5","","","post_reveal_questions","survey-likert","397","1319537","0.0-6.0-6.55","2856000","co37555","norming","","","{""aha"":6}","[0]","../img/tt/1254tt.jpg","",""
"null","<div style=""font-size:60px;""> </div>","null","fixation","html-keyboard-response","398","1319740","0.0-6.0-0.56","2856000","co37555","norming","","","","","","",""
"null","../img/tt/1255tt.jpg","null","mooney1","image-keyboard-response","399","1322743","0.0-6.0-1.56","2856000","co37555","norming","","","","","","",""
"4846.360000000102","","","post_mooney1_questions","survey-likert","400","1327584","0.0-6.0-2.56","2856000","co37555","norming","","","{""curiosity"":5,""confidence"":0}","[0,1]","../img/tt/1255tt.jpg","",""
"478.1300000001211","","","recognition","survey-text","401","1328064","0.0-6.0-3.56","2856000","co37555","norming","","","{""guess"":""""}","","../img/tt/1255tt.jpg","",""
"null","../img/gs/1255gs.jpg","null","reveal","image-keyboard-response","402","1330073","0.0-6.0-4.56","2856000","co37555","norming","","","","","","",""
"null","../img/tt/1255tt.jpg","null","mooney2","image-keyboard-response","403","1332077","0.0-6.0-5.56","2856000","co37555","norming","","","","","","",""
"2712.4000000001397","","","post_reveal_questions","survey-likert","404","1334792","0.0-6.0-6.56","2856000","co37555","norming","","","{""aha"":4}","[0]","../img/tt/1255tt.jpg","",""
"null","<div style=""font-size:60px;""> </div>","null","fixation","html-keyboard-response","405","1334998","0.0-6.0-0.57","2856000","co37555","norming","","","","","","",""
"null","../img/tt/1087tt.jpg","null","mooney1","image-keyboard-response","406","1338010","0.0-6.0-1.57","2856000","co37555","norming","","","","","","",""
"5643.215000000084","","","post_mooney1_questions","survey-likert","407","1343656","0.0-6.0-2.57","2856000","co37555","norming","","","{""curiosity"":5,""confidence"":1}","[0,1]","../img/tt/1087tt.jpg","",""
"3261.969999999972","","","recognition","survey-text","408","1346920","0.0-6.0-3.57","2856000","co37555","norming","","","{""guess"":""katten""}","","../img/tt/1087tt.jpg","",""
"null","../img/gs/1087gs.jpg","null","reveal","image-keyboard-response","409","1348927","0.0-6.0-4.57","2856000","co37555","norming","","","","","","",""
"null","../img/tt/1087tt.jpg","null","mooney2","image-keyboard-response","410","1350928","0.0-6.0-5.57","2856000","co37555","norming","","","","","","",""
"3486.744999999879","","","post_reveal_questions","survey-likert","411","1354416","0.0-6.0-6.57","2856000","co37555","norming","","","{""aha"":5}","[0]","../img/tt/1087tt.jpg","",""
"null","<div style=""font-size:60px;""> </div>","null","fixation","html-keyboard-response","412","1354626","0.0-6.0-0.58","2856000","co37555","norming","","","","","","",""
"null","../img/tt/1002tt.jpg","null","mooney1","image-keyboard-response","413","1357636","0.0-6.0-1.58","2856000","co37555","norming","","","","","","",""
"3514.405000000028","","","post_mooney1_questions","survey-likert","414","1361152","0.0-6.0-2.58","2856000","co37555","norming","","","{""curiosity"":6,""confidence"":0}","[0,1]","../img/tt/1002tt.jpg","",""
"870.0100000002421","","","recognition","survey-text","415","1362024","0.0-6.0-3.58","2856000","co37555","norming","","","{""guess"":""""}","","../img/tt/1002tt.jpg","",""
"null","../img/gs/1002gs.jpg","null","reveal","image-keyboard-response","416","1364027","0.0-6.0-4.58","2856000","co37555","norming","","","","","","",""
"null","../img/tt/1002tt.jpg","null","mooney2","image-keyboard-response","417","1366030","0.0-6.0-5.58","2856000","co37555","norming","","","","","","",""
"2753.304999999935","","","post_reveal_questions","survey-likert","418","1368784","0.0-6.0-6.58","2856000","co37555","norming","","","{""aha"":5}","[0]","../img/tt/1002tt.jpg","",""
"null","<div style=""font-size:60px;""> </div>","null","fixation","html-keyboard-response","419","1368985","0.0-6.0-0.59","2856000","co37555","norming","","","","","","",""
"null","../img/tt/1268tt.jpg","null","mooney1","image-keyboard-response","420","1371992","0.0-6.0-1.59","2856000","co37555","norming","","","","","","",""
"5005.114999999991","","","post_mooney1_questions","survey-likert","421","1377000","0.0-6.0-2.59","2856000","co37555","norming","","","{""curiosity"":6,""confidence"":0}","[0,1]","../img/tt/1268tt.jpg","",""
"734.5449999996927","","","recognition","survey-text","422","1377736","0.0-6.0-3.59","2856000","co37555","norming","","","{""guess"":""""}","","../img/tt/1268tt.jpg","",""
"null","../img/gs/1268gs.jpg","null","reveal","image-keyboard-response","423","1379746","0.0-6.0-4.59","2856000","co37555","norming","","","","","","",""
"null","../img/tt/1268tt.jpg","null","mooney2","image-keyboard-response","424","1381755","0.0-6.0-5.59","2856000","co37555","norming","","","","","","",""
"3931.6700000001583","","","post_reveal_questions","survey-likert","425","1385695","0.0-6.0-6.59","2856000","co37555","norming","","","{""aha"":4}","[0]","../img/tt/1268tt.jpg","",""
"null","<div style=""font-size:60px;""> </div>","null","fixation","html-keyboard-response","426","1385896","0.0-6.0-0.60","2856000","co37555","norming","","","","","","",""
"null","../img/tt/1234tt.jpg","null","mooney1","image-keyboard-response","427","1388903","0.0-6.0-1.60","2856000","co37555","norming","","","","","","",""
"12597.800000000047","","","post_mooney1_questions","survey-likert","428","1401503","0.0-6.0-2.60","2856000","co37555","norming","","","{""curiosity"":5,""confidence"":1}","[0,1]","../img/tt/1234tt.jpg","",""
"1989.9650000000838","","","recognition","survey-text","429","1403495","0.0-6.0-3.60","2856000","co37555","norming","","","{""guess"":""kikker""}","","../img/tt/1234tt.jpg","",""
"null","../img/gs/1234gs.jpg","null","reveal","image-keyboard-response","430","1405502","0.0-6.0-4.60","2856000","co37555","norming","","","","","","",""
"null","../img/tt/1234tt.jpg","null","mooney2","image-keyboard-response","431","1407513","0.0-6.0-5.60","2856000","co37555","norming","","","","","","",""
"2331.804999999935","","","post_reveal_questions","survey-likert","432","1409847","0.0-6.0-6.60","2856000","co37555","norming","","","{""aha"":5}","[0]","../img/tt/1234tt.jpg","",""
"null","<div style=""font-size:60px;""> </div>","null","fixation","html-keyboard-response","433","1410050","0.0-6.0-0.61","2856000","co37555","norming","","","","","","",""
"null","../img/tt/378tt.jpg","null","mooney1","image-keyboard-response","434","1413059","0.0-6.0-1.61","2856000","co37555","norming","","","","","","",""
"9881.524999999907","","","post_mooney1_questions","survey-likert","435","1422943","0.0-6.0-2.61","2856000","co37555","norming","","","{""curiosity"":5,""confidence"":0}","[0,1]","../img/tt/378tt.jpg","",""
"1246.029999999795","","","recognition","survey-text","436","1424191","0.0-6.0-3.61","2856000","co37555","norming","","","{""guess"":""""}","","../img/tt/378tt.jpg","",""
"null","../img/gs/378gs.jpg","null","reveal","image-keyboard-response","437","1426196","0.0-6.0-4.61","2856000","co37555","norming","","","","","","",""
"null","../img/tt/378tt.jpg","null","mooney2","image-keyboard-response","438","1428205","0.0-6.0-5.61","2856000","co37555","norming","","","","","","",""
"2495.2399999999907","","","post_reveal_questions","survey-likert","439","1430703","0.0-6.0-6.61","2856000","co37555","norming","","","{""aha"":5}","[0]","../img/tt/378tt.jpg","",""
"null","<div style=""font-size:60px;""> </div>","null","fixation","html-keyboard-response","440","1430911","0.0-6.0-0.62","2856000","co37555","norming","","","","","","",""
"null","../img/tt/1217tt.jpg","null","mooney1","image-keyboard-response","441","1433922","0.0-6.0-1.62","2856000","co37555","norming","","","","","","",""
"11251.084999999963","","","post_mooney1_questions","survey-likert","442","1445175","0.0-6.0-2.62","2856000","co37555","norming","","","{""curiosity"":5,""confidence"":0}","[0,1]","../img/tt/1217tt.jpg","",""
"654.2600000000093","","","recognition","survey-text","443","1445831","0.0-6.0-3.62","2856000","co37555","norming","","","{""guess"":""""}","","../img/tt/1217tt.jpg","",""
"null","../img/gs/1217gs.jpg","null","reveal","image-keyboard-response","444","1447841","0.0-6.0-4.62","2856000","co37555","norming","","","","","","",""
"null","../img/tt/1217tt.jpg","null","mooney2","image-keyboard-response","445","1449848","0.0-6.0-5.62","2856000","co37555","norming","","","","","","",""
"2725.564999999944","","","post_reveal_questions","survey-likert","446","1452575","0.0-6.0-6.62","2856000","co37555","norming","","","{""aha"":5}","[0]","../img/tt/1217tt.jpg","",""
"null","<div style=""font-size:60px;""> </div>","null","fixation","html-keyboard-response","447","1452785","0.0-6.0-0.63","2856000","co37555","norming","","","","","","",""
"null","../img/tt/524tt.jpg","null","mooney1","image-keyboard-response","448","1455797","0.0-6.0-1.63","2856000","co37555","norming","","","","","","",""
"3128.8499999998603","","","post_mooney1_questions","survey-likert","449","1458927","0.0-6.0-2.63","2856000","co37555","norming","","","{""curiosity"":5,""confidence"":2}","[0,1]","../img/tt/524tt.jpg","",""
"2550.159999999916","","","recognition","survey-text","450","1461478","0.0-6.0-3.63","2856000","co37555","norming","","","{""guess"":""olifant""}","","../img/tt/524tt.jpg","",""
"null","../img/gs/524gs.jpg","null","reveal","image-keyboard-response","451","1463486","0.0-6.0-4.63","2856000","co37555","norming","","","","","","",""
"null","../img/tt/524tt.jpg","null","mooney2","image-keyboard-response","452","1465491","0.0-6.0-5.63","2856000","co37555","norming","","","","","","",""
"2841.595000000205","","","post_reveal_questions","survey-likert","453","1468335","0.0-6.0-6.63","2856000","co37555","norming","","","{""aha"":5}","[0]","../img/tt/524tt.jpg","",""
"null","<div style=""font-size:60px;""> </div>","null","fixation","html-keyboard-response","454","1468536","0.0-6.0-0.64","2856000","co37555","norming","","","","","","",""
"null","../img/tt/1101tt.jpg","null","mooney1","image-keyboard-response","455","1471546","0.0-6.0-1.64","2856000","co37555","norming","","","","","","",""
"11513.080000000075","","","post_mooney1_questions","survey-likert","456","1483063","0.0-6.0-2.64","2856000","co37555","norming","","","{""curiosity"":5,""confidence"":1}","[0,1]","../img/tt/1101tt.jpg","",""
"2382.3349999999627","","","recognition","survey-text","457","1485447","0.0-6.0-3.64","2856000","co37555","norming","","","{""guess"":""voetbal""}","","../img/tt/1101tt.jpg","",""
"null","../img/gs/1101gs.jpg","null","reveal","image-keyboard-response","458","1487452","0.0-6.0-4.64","2856000","co37555","norming","","","","","","",""
"null","../img/tt/1101tt.jpg","null","mooney2","image-keyboard-response","459","1489455","0.0-6.0-5.64","2856000","co37555","norming","","","","","","",""
"2438.804999999935","","","post_reveal_questions","survey-likert","460","1491895","0.0-6.0-6.64","2856000","co37555","norming","","","{""aha"":3}","[0]","../img/tt/1101tt.jpg","",""
"null","<div style=""font-size:60px;""> </div>","null","fixation","html-keyboard-response","461","1492097","0.0-6.0-0.65","2856000","co37555","norming","","","","","","",""
"null","../img/tt/307tt.jpg","null","mooney1","image-keyboard-response","462","1495107","0.0-6.0-1.65","2856000","co37555","norming","","","","","","",""
"3818.9500000001863","","","post_mooney1_questions","survey-likert","463","1498927","0.0-6.0-2.65","2856000","co37555","norming","","","{""curiosity"":5,""confidence"":1}","[0,1]","../img/tt/307tt.jpg","",""
"1862.3149999999441","","","recognition","survey-text","464","1500791","0.0-6.0-3.65","2856000","co37555","norming","","","{""guess"":""schoen""}","","../img/tt/307tt.jpg","",""
"null","../img/gs/307gs.jpg","null","reveal","image-keyboard-response","465","1502800","0.0-6.0-4.65","2856000","co37555","norming","","","","","","",""
"null","../img/tt/307tt.jpg","null","mooney2","image-keyboard-response","466","1504812","0.0-6.0-5.65","2856000","co37555","norming","","","","","","",""
"2552.809999999823","","","post_reveal_questions","survey-likert","467","1507367","0.0-6.0-6.65","2856000","co37555","norming","","","{""aha"":4}","[0]","../img/tt/307tt.jpg","",""
"null","<div style=""font-size:60px;""> </div>","null","fixation","html-keyboard-response","468","1507568","0.0-6.0-0.66","2856000","co37555","norming","","","","","","",""
"null","../img/tt/1276tt.jpg","null","mooney1","image-keyboard-response","469","1510571","0.0-6.0-1.66","2856000","co37555","norming","","","","","","",""
"3832.5400000000373","","","post_mooney1_questions","survey-likert","470","1514407","0.0-6.0-2.66","2856000","co37555","norming","","","{""curiosity"":6,""confidence"":0}","[0,1]","../img/tt/1276tt.jpg","",""
"518.3300000000745","","","recognition","survey-text","471","1514927","0.0-6.0-3.66","2856000","co37555","norming","","","{""guess"":""""}","","../img/tt/1276tt.jpg","",""
"null","../img/gs/1276gs.jpg","null","reveal","image-keyboard-response","472","1516936","0.0-6.0-4.66","2856000","co37555","norming","","","","","","",""
"null","../img/tt/1276tt.jpg","null","mooney2","image-keyboard-response","473","1518946","0.0-6.0-5.66","2856000","co37555","norming","","","","","","",""
"3458.564999999944","","","post_reveal_questions","survey-likert","474","1522407","0.0-6.0-6.66","2856000","co37555","norming","","","{""aha"":3}","[0]","../img/tt/1276tt.jpg","",""
"null","<div style=""font-size:60px;""> </div>","null","fixation","html-keyboard-response","475","1522618","0.0-6.0-0.67","2856000","co37555","norming","","","","","","",""
"null","../img/tt/1226tt.jpg","null","mooney1","image-keyboard-response","476","1525630","0.0-6.0-1.67","2856000","co37555","norming","","","","","","",""
"6678.449999999953","","","post_mooney1_questions","survey-likert","477","1532311","0.0-6.0-2.67","2856000","co37555","norming","","","{""curiosity"":5,""confidence"":1}","[0,1]","../img/tt/1226tt.jpg","",""
"4685.995000000112","","","recognition","survey-text","478","1536999","0.0-6.0-3.67","2856000","co37555","norming","","","{""guess"":""papegaai""}","","../img/tt/1226tt.jpg","",""
"null","../img/gs/1226gs.jpg","null","reveal","image-keyboard-response","479","1539005","0.0-6.0-4.67","2856000","co37555","norming","","","","","","",""
"null","../img/tt/1226tt.jpg","null","mooney2","image-keyboard-response","480","1541016","0.0-6.0-5.67","2856000","co37555","norming","","","","","","",""
"9971.959999999963","","","post_reveal_questions","survey-likert","481","1550991","0.0-6.0-6.67","2856000","co37555","norming","","","{""aha"":3}","[0]","../img/tt/1226tt.jpg","",""
"null","<div style=""font-size:60px;""> </div>","null","fixation","html-keyboard-response","482","1551193","0.0-6.0-0.68","2856000","co37555","norming","","","","","","",""
"null","../img/tt/1188tt.jpg","null","mooney1","image-keyboard-response","483","1554195","0.0-6.0-1.68","2856000","co37555","norming","","","","","","",""
"2785.6450000002515","","","post_mooney1_questions","survey-likert","484","1556983","0.0-6.0-2.68","2856000","co37555","norming","","","{""curiosity"":4,""confidence"":3}","[0,1]","../img/tt/1188tt.jpg","",""
"2045.9450000000652","","","recognition","survey-text","485","1559031","0.0-6.0-3.68","2856000","co37555","norming","","","{""guess"":""wielrennen""}","","../img/tt/1188tt.jpg","",""
"null","../img/gs/1188gs.jpg","null","reveal","image-keyboard-response","486","1561033","0.0-6.0-4.68","2856000","co37555","norming","","","","","","",""
"null","../img/tt/1188tt.jpg","null","mooney2","image-keyboard-response","487","1563043","0.0-6.0-5.68","2856000","co37555","norming","","","","","","",""
"2689.899999999674","","","post_reveal_questions","survey-likert","488","1565735","0.0-6.0-6.68","2856000","co37555","norming","","","{""aha"":2}","[0]","../img/tt/1188tt.jpg","",""
"null","<div style=""font-size:60px;""> </div>","null","fixation","html-keyboard-response","489","1565941","0.0-6.0-0.69","2856000","co37555","norming","","","","","","",""
"null","../img/tt/1116tt.jpg","null","mooney1","image-keyboard-response","490","1568950","0.0-6.0-1.69","2856000","co37555","norming","","","","","","",""
"4289.83499999973","","","post_mooney1_questions","survey-likert","491","1573241","0.0-6.0-2.69","2856000","co37555","norming","","","{""curiosity"":5,""confidence"":1}","[0,1]","../img/tt/1116tt.jpg","",""
"2142.375","","","recognition","survey-text","492","1575385","0.0-6.0-3.69","2856000","co37555","norming","","","{""guess"":""strand""}","","../img/tt/1116tt.jpg","",""
"null","../img/gs/1116gs.jpg","null","reveal","image-keyboard-response","493","1577391","0.0-6.0-4.69","2856000","co37555","norming","","","","","","",""
"null","../img/tt/1116tt.jpg","null","mooney2","image-keyboard-response","494","1579393","0.0-6.0-5.69","2856000","co37555","norming","","","","","","",""
"3941.3850000000093","","","post_reveal_questions","survey-likert","495","1583337","0.0-6.0-6.69","2856000","co37555","norming","","","{""aha"":4}","[0]","../img/tt/1116tt.jpg","",""
"null","<div style=""font-size:60px;""> </div>","null","fixation","html-keyboard-response","496","1583544","0.0-6.0-0.70","2856000","co37555","norming","","","","","","",""
"null","../img/tt/108tt.jpg","null","mooney1","image-keyboard-response","497","1586549","0.0-6.0-1.70","2856000","co37555","norming","","","","","","",""
"3624.339999999851","","","post_mooney1_questions","survey-likert","498","1590177","0.0-6.0-2.70","2856000","co37555","norming","","","{""curiosity"":6,""confidence"":0}","[0,1]","../img/tt/108tt.jpg","",""
"846.1399999998976","","","recognition","survey-text","499","1591025","0.0-6.0-3.70","2856000","co37555","norming","","","{""guess"":""""}","","../img/tt/108tt.jpg","",""
"null","../img/gs/108gs.jpg","null","reveal","image-keyboard-response","500","1593030","0.0-6.0-4.70","2856000","co37555","norming","","","","","","",""
"null","../img/tt/108tt.jpg","null","mooney2","image-keyboard-response","501","1595042","0.0-6.0-5.70","2856000","co37555","norming","","","","","","",""
"2478.2700000000186","","","post_reveal_questions","survey-likert","502","1597521","0.0-6.0-6.70","2856000","co37555","norming","","","{""aha"":4}","[0]","../img/tt/108tt.jpg","",""
"null","<div style=""font-size:60px;""> </div>","null","fixation","html-keyboard-response","503","1597731","0.0-6.0-0.71","2856000","co37555","norming","","","","","","",""
"null","../img/tt/1269tt.jpg","null","mooney1","image-keyboard-response","504","1600741","0.0-6.0-1.71","2856000","co37555","norming","","","","","","",""
"6857","","","post_mooney1_questions","survey-likert","505","1607601","0.0-6.0-2.71","2856000","co37555","norming","","","{""curiosity"":5,""confidence"":3}","[0,1]","../img/tt/1269tt.jpg","",""
"1142.1599999999162","","","recognition","survey-text","506","1608745","0.0-6.0-3.71","2856000","co37555","norming","","","{""guess"":""dier""}","","../img/tt/1269tt.jpg","",""
"null","../img/gs/1269gs.jpg","null","reveal","image-keyboard-response","507","1610746","0.0-6.0-4.71","2856000","co37555","norming","","","","","","",""
"null","../img/tt/1269tt.jpg","null","mooney2","image-keyboard-response","508","1612754","0.0-6.0-5.71","2856000","co37555","norming","","","","","","",""
"3124.6349999997765","","","post_reveal_questions","survey-likert","509","1615881","0.0-6.0-6.71","2856000","co37555","norming","","","{""aha"":2}","[0]","../img/tt/1269tt.jpg","",""
"null","<div style=""font-size:60px;""> </div>","null","fixation","html-keyboard-response","510","1616083","0.0-6.0-0.72","2856000","co37555","norming","","","","","","",""
"null","../img/tt/052tt.jpg","null","mooney1","image-keyboard-response","511","1619087","0.0-6.0-1.72","2856000","co37555","norming","","","","","","",""
"2526.380000000121","","","post_mooney1_questions","survey-likert","512","1621617","0.0-6.0-2.72","2856000","co37555","norming","","","{""curiosity"":5,""confidence"":2}","[0,1]","../img/tt/052tt.jpg","",""
"1670.2500000002328","","","recognition","survey-text","513","1623289","0.0-6.0-3.72","2856000","co37555","norming","","","{""guess"":""trommel""}","","../img/tt/052tt.jpg","",""
"null","../img/gs/052gs.jpg","null","reveal","image-keyboard-response","514","1625294","0.0-6.0-4.72","2856000","co37555","norming","","","","","","",""
"null","../img/tt/052tt.jpg","null","mooney2","image-keyboard-response","515","1627304","0.0-6.0-5.72","2856000","co37555","norming","","","","","","",""
"2590.155000000028","","","post_reveal_questions","survey-likert","516","1629887","0.0-6.0-6.72","2856000","co37555","norming","","","{""aha"":4}","[0]","../img/tt/052tt.jpg","",""
"null","<div style=""font-size:60px;""> </div>","null","fixation","html-keyboard-response","517","1630097","0.0-6.0-0.73","2856000","co37555","norming","","","","","","",""
"null","../img/tt/1078tt.jpg","null","mooney1","image-keyboard-response","518","1633099","0.0-6.0-1.73","2856000","co37555","norming","","","","","","",""
"7451.854999999981","","","post_mooney1_questions","survey-likert","519","1640552","0.0-6.0-2.73","2856000","co37555","norming","","","{""curiosity"":5,""confidence"":1}","[0,1]","../img/tt/1078tt.jpg","",""
"1925.9850000001024","","","recognition","survey-text","520","1642479","0.0-6.0-3.73","2856000","co37555","norming","","","{""guess"":""schaatsen""}","","../img/tt/1078tt.jpg","",""
"null","../img/gs/1078gs.jpg","null","reveal","image-keyboard-response","521","1644490","0.0-6.0-4.73","2856000","co37555","norming","","","","","","",""
"null","../img/tt/1078tt.jpg","null","mooney2","image-keyboard-response","522","1646493","0.0-6.0-5.73","2856000","co37555","norming","","","","","","",""
"3145.2299999997485","","","post_reveal_questions","survey-likert","523","1649640","0.0-6.0-6.73","2856000","co37555","norming","","","{""aha"":3}","[0]","../img/tt/1078tt.jpg","",""
"null","<div style=""font-size:60px;""> </div>","null","fixation","html-keyboard-response","524","1649840","0.0-6.0-0.74","2856000","co37555","norming","","","","","","",""
"null","../img/tt/590tt.jpg","null","mooney1","image-keyboard-response","525","1652848","0.0-6.0-1.74","2856000","co37555","norming","","","","","","",""
"4203.960000000196","","","post_mooney1_questions","survey-likert","526","1657056","0.0-6.0-2.74","2856000","co37555","norming","","","{""curiosity"":6,""confidence"":0}","[0,1]","../img/tt/590tt.jpg","",""
"765.9950000001118","","","recognition","survey-text","527","1657823","0.0-6.0-3.74","2856000","co37555","norming","","","{""guess"":""""}","","../img/tt/590tt.jpg","",""
"null","../img/gs/590gs.jpg","null","reveal","image-keyboard-response","528","1659833","0.0-6.0-4.74","2856000","co37555","norming","","","","","","",""
"null","../img/tt/590tt.jpg","null","mooney2","image-keyboard-response","529","1661843","0.0-6.0-5.74","2856000","co37555","norming","","","","","","",""
"3443.804999999935","","","post_reveal_questions","survey-likert","530","1665287","0.0-6.0-6.74","2856000","co37555","norming","","","{""aha"":4}","[0]","../img/tt/590tt.jpg","",""
"null","<div style=""font-size:60px;""> </div>","null","fixation","html-keyboard-response","531","1665490","0.0-6.0-0.75","2856000","co37555","norming","","","","","","",""
"null","../img/tt/273tt.jpg","null","mooney1","image-keyboard-response","532","1668494","0.0-6.0-1.75","2856000","co37555","norming","","","","","","",""
"5375.020000000019","","","post_mooney1_questions","survey-likert","533","1673872","0.0-6.0-2.75","2856000","co37555","norming","","","{""curiosity"":5,""confidence"":0}","[0,1]","../img/tt/273tt.jpg","",""
"710.0399999998044","","","recognition","survey-text","534","1674583","0.0-6.0-3.75","2856000","co37555","norming","","","{""guess"":""""}","","../img/tt/273tt.jpg","",""
"null","../img/gs/273gs.jpg","null","reveal","image-keyboard-response","535","1676585","0.0-6.0-4.75","2856000","co37555","norming","","","","","","",""
"null","../img/tt/273tt.jpg","null","mooney2","image-keyboard-response","536","1678594","0.0-6.0-5.75","2856000","co37555","norming","","","","","","",""
"3570.8850000000093","","","post_reveal_questions","survey-likert","537","1682167","0.0-6.0-6.75","2856000","co37555","norming","","","{""aha"":5}","[0]","../img/tt/273tt.jpg","",""
"null","<div style=""font-size:60px;""> </div>","null","fixation","html-keyboard-response","538","1682368","0.0-6.0-0.76","2856000","co37555","norming","","","","","","",""
"null","../img/tt/1189tt.jpg","null","mooney1","image-keyboard-response","539","1685374","0.0-6.0-1.76","2856000","co37555","norming","","","","","","",""
"7144.995000000112","","","post_mooney1_questions","survey-likert","540","1692521","0.0-6.0-2.76","2856000","co37555","norming","","","{""curiosity"":6,""confidence"":0}","[0,1]","../img/tt/1189tt.jpg","",""
"3549.7099999999627","","","recognition","survey-text","541","1696072","0.0-6.0-3.76","2856000","co37555","norming","","","{""guess"":""""}","","../img/tt/1189tt.jpg","",""
"null","../img/gs/1189gs.jpg","null","reveal","image-keyboard-response","542","1698079","0.0-6.0-4.76","2856000","co37555","norming","","","","","","",""
"null","../img/tt/1189tt.jpg","null","mooney2","image-keyboard-response","543","1700087","0.0-6.0-5.76","2856000","co37555","norming","","","","","","",""
"2879.179999999935","","","post_reveal_questions","survey-likert","544","1702968","0.0-6.0-6.76","2856000","co37555","norming","","","{""aha"":5}","[0]","../img/tt/1189tt.jpg","",""
"null","<div style=""font-size:60px;""> </div>","null","fixation","html-keyboard-response","545","1703169","0.0-6.0-0.77","2856000","co37555","norming","","","","","","",""
"null","../img/tt/078tt.jpg","null","mooney1","image-keyboard-response","546","1706179","0.0-6.0-1.77","2856000","co37555","norming","","","","","","",""
"3906.9250000000466","","","post_mooney1_questions","survey-likert","547","1710089","0.0-6.0-2.77","2856000","co37555","norming","","","{""curiosity"":4,""confidence"":3}","[0,1]","../img/tt/078tt.jpg","",""
"1590.279999999795","","","recognition","survey-text","548","1711681","0.0-6.0-3.77","2856000","co37555","norming","","","{""guess"":""druiven""}","","../img/tt/078tt.jpg","",""
"null","../img/gs/078gs.jpg","null","reveal","image-keyboard-response","549","1713691","0.0-6.0-4.77","2856000","co37555","norming","","","","","","",""
"null","../img/tt/078tt.jpg","null","mooney2","image-keyboard-response","550","1715696","0.0-6.0-5.77","2856000","co37555","norming","","","","","","",""
"2502.619999999879","","","post_reveal_questions","survey-likert","551","1718200","0.0-6.0-6.77","2856000","co37555","norming","","","{""aha"":1}","[0]","../img/tt/078tt.jpg","",""
"null","<div style=""font-size:60px;""> </div>","null","fixation","html-keyboard-response","552","1718406","0.0-6.0-0.78","2856000","co37555","norming","","","","","","",""
