"rt","stimulus","key_press","test_part","trial_type","trial_index","time_elapsed","internal_node_id","totalTime","subject","experiment_name","button_pressed","success","responses","question_order","currentStim","old","correct"
"22600.624999999127","Welcome to the experiment. This is an online experiment so please don't close the tab/window until we say goodbye.  Press any key to begin.","70","instructions","html-keyboard-response","0","22615","0.0-0.0","2419285","co37534","norming","","","","","","",""
"3089.254999998957","<div style='word-wrap: break-word; width: 900px'><h3>Please consider this information carefully before deciding whether to participate in this research</h3><ul style='text-align: left; font-size: .8em;'><li><b>Purpose of the research</b>: To examine how people process images.</li><li><b>What you will do in this research</b>:  Stimuli (images) will be presented on the computer and you will be asked different questions about them.</li><li><b>Time required</b>: Participation will take between 45 and 60 minutes to complete.</li><li><b>Risks</b>:  There are no anticipated risks associated with participating in this study. The effects of participating should be comparable to those you would experience from viewing a computer monitor for 30 minutes and using a mouse or keyboard.</li><li><b>Benefits</b>:  This study provides no benefits to you individually except for the credit. The study provides important information about the nature of perception and learning.</li><li><b>Confidentiality</b>:  Your participation in this study will remain confidential. No personally identifiable information will be associated with your data. Your de-identified data may be shared with other researchers and used in future projects.</li><li><b>Participation and withdrawal</b>:  Your participation in this study is completely voluntary and you may refuse to participate or you may choose to withdraw at any time without penalty.</li><li><b>How to contact the researchers</b>: If you have questions or concerns about your participation or payment, or want to request a summary of research findings, please contact Sander Van de Cruys (KU Leuven), at sander.vandecruys@kuleuven.be.</li></ul><p>The nature and purpose of this research have been sufficiently explained and I agree to participate in this study.  I understand that I am free to withdraw at any time without incurring any penalty.</p><p>Please consent by clicking the button below to continue. Otherwise, please exit the study at this time.</p></div>","","instructions","html-button-response","1","25707","0.0-1.0","2419285","co37534","norming","0","","","","","",""
"","","","instructions","fullscreen","2","28996","0.0-2.0","2419285","co37534","norming","","true","","","","",""
"34316.194999999425","","","sona","survey-html-form","3","63314","0.0-3.0","2419285","co37534","norming","","","[{""name"":""sonaid"",""value"":""37534""},{""name"":""debrief"",""value"":""no""},{""name"":""datajoin"",""value"":""yes""}]","","","",""
"45018.55000000069","<div style='word-wrap: break-word; width: 900px'><h3>Instructions</h3><p>This experiment will have 3 parts. In the first part you will see a series of distorted images like the one below on the left. As you can see in the righthand image, the distorted images are derived from actual photographs. In what follows, you will <strong>briefly</strong> be presented with <strong>only</strong> the distorted image.</p> <div style='float: left; margin-right: 20px;'><img src='../img/018tt.jpg' height='250' width='250'></img></div><div style='float: right; margin-left: 20px;'><img src='../img/018gs.jpg' height='250' width='250'></img></div><p>Subsequently you will be asked a few questions about the image: One question on how <strong>curious</strong> you are about the solution and one on how <strong>confident</strong> you are that you know the solution.</p>Next, we ask you to make a guess on what is in the image. Note that it is OK to name just the <strong>basic level category</strong>. For example when you see a parrot in the image, 'parrot' will obviously be a correct answer but also correct is 'bird'. However, 'animal' will <strong>not</strong> be counted as a correct response. For the example above, 'rose' would be correct or 'flower', but not 'plant'. When soccer players are depicted, 'soccer', 'football', 'soccer players' will be correct, but not 'humans', 'outdoors', or 'sports'. You do not need to describe the image in full, just name the main object in it <strong>in one or two words</strong>. All images depict objects from one of the following broad level categories: animals, inanimate objects, plants, sports, vehicles, and food. Recognizing means knowing <strong>more</strong> than these broad labels for a given image. But we always encourage you to <strong>make a guess</strong> if you can. Note that you are allowed to use <strong>Dutch and English</strong> in your answers, whatever comes easiest for you.</p><p>Press any key to continue.</p></div>","78","instructions","html-keyboard-response","4","108337","0.0-4.0","2419285","co37534","norming","","","","","","",""
"13440.534999997908","<div style='word-wrap: break-word; width: 900px'><h3>Instructions</h3> <p>Next, the solution image will be revealed to you and you'll be asked to indicate how strong your <strong>aha-experience</strong> was after seeing the solution. This describes the positive feeling of the 'click' you sometimes experience, when the pieces of the 'puzzle' fall together and you suddenly have 'insight' in the image.</p><img src='aha.jpg' height='188' width='250'></img><p>Note that there are no right or wrong answers. We are interested in what <strong>you</strong> see in the image and how <strong>you</strong> feel about it.</p><p>Press any key to start the experiment.</p></div>","188","instructions","html-keyboard-response","5","121778","0.0-5.0","2419285","co37534","norming","","","","","","",""
"null","<div style=""font-size:60px;""> </div>","null","fixation","html-keyboard-response","6","121983","0.0-6.0-0.0","2419285","co37534","norming","","","","","","",""
"null","../img/tt/438tt.jpg","null","mooney1","image-keyboard-response","7","124990","0.0-6.0-1.0","2419285","co37534","norming","","","","","","",""
"8919.750000000931","","","post_mooney1_questions","survey-likert","8","133914","0.0-6.0-2.0","2419285","co37534","norming","","","{""curiosity"":4,""confidence"":0}","[0,1]","../img/tt/438tt.jpg","",""
"5261.6500000003725","","","recognition","survey-text","9","139178","0.0-6.0-3.0","2419285","co37534","norming","","","{""guess"":""""}","","../img/tt/438tt.jpg","",""
"null","../img/gs/438gs.jpg","null","reveal","image-keyboard-response","10","141179","0.0-6.0-4.0","2419285","co37534","norming","","","","","","",""
"null","../img/tt/438tt.jpg","null","mooney2","image-keyboard-response","11","143188","0.0-6.0-5.0","2419285","co37534","norming","","","","","","",""
"5635.644999998476","","","post_reveal_questions","survey-likert","12","148826","0.0-6.0-6.0","2419285","co37534","norming","","","{""aha"":4}","[0]","../img/tt/438tt.jpg","",""
"null","<div style=""font-size:60px;""> </div>","null","fixation","html-keyboard-response","13","149032","0.0-6.0-0.1","2419285","co37534","norming","","","","","","",""
"null","../img/tt/1196tt.jpg","null","mooney1","image-keyboard-response","14","152035","0.0-6.0-1.1","2419285","co37534","norming","","","","","","",""
"11660.479999998643","","","post_mooney1_questions","survey-likert","15","163698","0.0-6.0-2.1","2419285","co37534","norming","","","{""curiosity"":4,""confidence"":1}","[0,1]","../img/tt/1196tt.jpg","",""
"1021.7950000005658","","","recognition","survey-text","16","164722","0.0-6.0-3.1","2419285","co37534","norming","","","{""guess"":""""}","","../img/tt/1196tt.jpg","",""
"null","../img/gs/1196gs.jpg","null","reveal","image-keyboard-response","17","166727","0.0-6.0-4.1","2419285","co37534","norming","","","","","","",""
"null","../img/tt/1196tt.jpg","null","mooney2","image-keyboard-response","18","168732","0.0-6.0-5.1","2419285","co37534","norming","","","","","","",""
"3060.7749999981024","","","post_reveal_questions","survey-likert","19","171795","0.0-6.0-6.1","2419285","co37534","norming","","","{""aha"":4}","[0]","../img/tt/1196tt.jpg","",""
"null","<div style=""font-size:60px;""> </div>","null","fixation","html-keyboard-response","20","172000","0.0-6.0-0.2","2419285","co37534","norming","","","","","","",""
"null","../img/tt/1055tt.jpg","null","mooney1","image-keyboard-response","21","175006","0.0-6.0-1.2","2419285","co37534","norming","","","","","","",""
"4498.4500000027765","","","post_mooney1_questions","survey-likert","22","179507","0.0-6.0-2.2","2419285","co37534","norming","","","{""curiosity"":5,""confidence"":0}","[0,1]","../img/tt/1055tt.jpg","",""
"670.0799999998708","","","recognition","survey-text","23","180179","0.0-6.0-3.2","2419285","co37534","norming","","","{""guess"":""""}","","../img/tt/1055tt.jpg","",""
"null","../img/gs/1055gs.jpg","null","reveal","image-keyboard-response","24","182183","0.0-6.0-4.2","2419285","co37534","norming","","","","","","",""
"null","../img/tt/1055tt.jpg","null","mooney2","image-keyboard-response","25","184184","0.0-6.0-5.2","2419285","co37534","norming","","","","","","",""
"4656.865000000835","","","post_reveal_questions","survey-likert","26","188843","0.0-6.0-6.2","2419285","co37534","norming","","","{""aha"":3}","[0]","../img/tt/1055tt.jpg","",""
"null","<div style=""font-size:60px;""> </div>","null","fixation","html-keyboard-response","27","189050","0.0-6.0-0.3","2419285","co37534","norming","","","","","","",""
"null","../img/tt/080tt.jpg","null","mooney1","image-keyboard-response","28","192057","0.0-6.0-1.3","2419285","co37534","norming","","","","","","",""
"5671.93000000043","","","post_mooney1_questions","survey-likert","29","197731","0.0-6.0-2.3","2419285","co37534","norming","","","{""curiosity"":4,""confidence"":1}","[0,1]","../img/tt/080tt.jpg","",""
"2350.095000001602","","","recognition","survey-text","30","200083","0.0-6.0-3.3","2419285","co37534","norming","","","{""guess"":""flower""}","","../img/tt/080tt.jpg","",""
"null","../img/gs/080gs.jpg","null","reveal","image-keyboard-response","31","202086","0.0-6.0-4.3","2419285","co37534","norming","","","","","","",""
"null","../img/tt/080tt.jpg","null","mooney2","image-keyboard-response","32","204096","0.0-6.0-5.3","2419285","co37534","norming","","","","","","",""
"2385.519999999815","","","post_reveal_questions","survey-likert","33","206483","0.0-6.0-6.3","2419285","co37534","norming","","","{""aha"":4}","[0]","../img/tt/080tt.jpg","",""
"null","<div style=""font-size:60px;""> </div>","null","fixation","html-keyboard-response","34","206687","0.0-6.0-0.4","2419285","co37534","norming","","","","","","",""
"null","../img/tt/121tt.jpg","null","mooney1","image-keyboard-response","35","209689","0.0-6.0-1.4","2419285","co37534","norming","","","","","","",""
"6448.369999998249","","","post_mooney1_questions","survey-likert","36","216139","0.0-6.0-2.4","2419285","co37534","norming","","","{""curiosity"":2,""confidence"":0}","[0,1]","../img/tt/121tt.jpg","",""
"870.0549999994109","","","recognition","survey-text","37","217011","0.0-6.0-3.4","2419285","co37534","norming","","","{""guess"":""""}","","../img/tt/121tt.jpg","",""
"null","../img/gs/121gs.jpg","null","reveal","image-keyboard-response","38","219018","0.0-6.0-4.4","2419285","co37534","norming","","","","","","",""
"null","../img/tt/121tt.jpg","null","mooney2","image-keyboard-response","39","221023","0.0-6.0-5.4","2419285","co37534","norming","","","","","","",""
"4449.735000001965","","","post_reveal_questions","survey-likert","40","225475","0.0-6.0-6.4","2419285","co37534","norming","","","{""aha"":3}","[0]","../img/tt/121tt.jpg","",""
"null","<div style=""font-size:60px;""> </div>","null","fixation","html-keyboard-response","41","225683","0.0-6.0-0.5","2419285","co37534","norming","","","","","","",""
"null","../img/tt/1002tt.jpg","null","mooney1","image-keyboard-response","42","228689","0.0-6.0-1.5","2419285","co37534","norming","","","","","","",""
"3975.7099999987986","","","post_mooney1_questions","survey-likert","43","232664","0.0-6.0-2.5","2419285","co37534","norming","","","{""curiosity"":4,""confidence"":2}","[0,1]","../img/tt/1002tt.jpg","",""
"2022.1349999992526","","","recognition","survey-text","44","234688","0.0-6.0-3.5","2419285","co37534","norming","","","{""guess"":""rhino""}","","../img/tt/1002tt.jpg","",""
"null","../img/gs/1002gs.jpg","null","reveal","image-keyboard-response","45","236690","0.0-6.0-4.5","2419285","co37534","norming","","","","","","",""
"null","../img/tt/1002tt.jpg","null","mooney2","image-keyboard-response","46","238701","0.0-6.0-5.5","2419285","co37534","norming","","","","","","",""
"2873.069999997824","","","post_reveal_questions","survey-likert","47","241576","0.0-6.0-6.5","2419285","co37534","norming","","","{""aha"":5}","[0]","../img/tt/1002tt.jpg","",""
"null","<div style=""font-size:60px;""> </div>","null","fixation","html-keyboard-response","48","241782","0.0-6.0-0.6","2419285","co37534","norming","","","","","","",""
"null","../img/tt/584tt.jpg","null","mooney1","image-keyboard-response","49","244787","0.0-6.0-1.6","2419285","co37534","norming","","","","","","",""
"3522.1999999994296","","","post_mooney1_questions","survey-likert","50","248312","0.0-6.0-2.6","2419285","co37534","norming","","","{""curiosity"":4,""confidence"":1}","[0,1]","../img/tt/584tt.jpg","",""
"3142.339999998512","","","recognition","survey-text","51","251456","0.0-6.0-3.6","2419285","co37534","norming","","","{""guess"":""flower""}","","../img/tt/584tt.jpg","",""
"null","../img/gs/584gs.jpg","null","reveal","image-keyboard-response","52","253458","0.0-6.0-4.6","2419285","co37534","norming","","","","","","",""
"null","../img/tt/584tt.jpg","null","mooney2","image-keyboard-response","53","255461","0.0-6.0-5.6","2419285","co37534","norming","","","","","","",""
"3208.8999999978114","","","post_reveal_questions","survey-likert","54","258672","0.0-6.0-6.6","2419285","co37534","norming","","","{""aha"":4}","[0]","../img/tt/584tt.jpg","",""
"null","<div style=""font-size:60px;""> </div>","null","fixation","html-keyboard-response","55","258882","0.0-6.0-0.7","2419285","co37534","norming","","","","","","",""
"null","../img/tt/1061tt.jpg","null","mooney1","image-keyboard-response","56","261891","0.0-6.0-1.7","2419285","co37534","norming","","","","","","",""
"4266.6599999974715","","","post_mooney1_questions","survey-likert","57","266161","0.0-6.0-2.7","2419285","co37534","norming","","","{""curiosity"":5,""confidence"":1}","[0,1]","../img/tt/1061tt.jpg","",""
"8741.979999998875","","","recognition","survey-text","58","274904","0.0-6.0-3.7","2419285","co37534","norming","","","{""guess"":""playground""}","","../img/tt/1061tt.jpg","",""
"null","../img/gs/1061gs.jpg","null","reveal","image-keyboard-response","59","276913","0.0-6.0-4.7","2419285","co37534","norming","","","","","","",""
"null","../img/tt/1061tt.jpg","null","mooney2","image-keyboard-response","60","278919","0.0-6.0-5.7","2419285","co37534","norming","","","","","","",""
"3671.5100000001257","","","post_reveal_questions","survey-likert","61","282592","0.0-6.0-6.7","2419285","co37534","norming","","","{""aha"":5}","[0]","../img/tt/1061tt.jpg","",""
"null","<div style=""font-size:60px;""> </div>","null","fixation","html-keyboard-response","62","282803","0.0-6.0-0.8","2419285","co37534","norming","","","","","","",""
"null","../img/tt/1191tt.jpg","null","mooney1","image-keyboard-response","63","285811","0.0-6.0-1.8","2419285","co37534","norming","","","","","","",""
"7346.450000000885","","","post_mooney1_questions","survey-likert","64","293155","0.0-6.0-2.8","2419285","co37534","norming","","","{""curiosity"":5,""confidence"":2}","[0,1]","../img/tt/1191tt.jpg","",""
"3134.1599999977625","","","recognition","survey-text","65","296290","0.0-6.0-3.8","2419285","co37534","norming","","","{""guess"":""camels""}","","../img/tt/1191tt.jpg","",""
"null","../img/gs/1191gs.jpg","null","reveal","image-keyboard-response","66","298298","0.0-6.0-4.8","2419285","co37534","norming","","","","","","",""
"null","../img/tt/1191tt.jpg","null","mooney2","image-keyboard-response","67","300301","0.0-6.0-5.8","2419285","co37534","norming","","","","","","",""
"3227.9149999995134","","","post_reveal_questions","survey-likert","68","303531","0.0-6.0-6.8","2419285","co37534","norming","","","{""aha"":5}","[0]","../img/tt/1191tt.jpg","",""
"null","<div style=""font-size:60px;""> </div>","null","fixation","html-keyboard-response","69","303733","0.0-6.0-0.9","2419285","co37534","norming","","","","","","",""
"null","../img/tt/118tt.jpg","null","mooney1","image-keyboard-response","70","306735","0.0-6.0-1.9","2419285","co37534","norming","","","","","","",""
"5120.880000002217","","","post_mooney1_questions","survey-likert","71","311859","0.0-6.0-2.9","2419285","co37534","norming","","","{""curiosity"":4,""confidence"":0}","[0,1]","../img/tt/118tt.jpg","",""
"1814.0000000021537","","","recognition","survey-text","72","313675","0.0-6.0-3.9","2419285","co37534","norming","","","{""guess"":""""}","","../img/tt/118tt.jpg","",""
"null","../img/gs/118gs.jpg","null","reveal","image-keyboard-response","73","315677","0.0-6.0-4.9","2419285","co37534","norming","","","","","","",""
"null","../img/tt/118tt.jpg","null","mooney2","image-keyboard-response","74","317679","0.0-6.0-5.9","2419285","co37534","norming","","","","","","",""
"2582.220000000205","","","post_reveal_questions","survey-likert","75","320267","0.0-6.0-6.9","2419285","co37534","norming","","","{""aha"":2}","[0]","../img/tt/118tt.jpg","",""
"null","<div style=""font-size:60px;""> </div>","null","fixation","html-keyboard-response","76","320471","0.0-6.0-0.10","2419285","co37534","norming","","","","","","",""
"null","../img/tt/1142tt.jpg","null","mooney1","image-keyboard-response","77","323476","0.0-6.0-1.10","2419285","co37534","norming","","","","","","",""
"9108.984999998938","","","post_mooney1_questions","survey-likert","78","332587","0.0-6.0-2.10","2419285","co37534","norming","","","{""curiosity"":4,""confidence"":3}","[0,1]","../img/tt/1142tt.jpg","",""
"2253.6349999972736","","","recognition","survey-text","79","334842","0.0-6.0-3.10","2419285","co37534","norming","","","{""guess"":""sports""}","","../img/tt/1142tt.jpg","",""
"null","../img/gs/1142gs.jpg","null","reveal","image-keyboard-response","80","336848","0.0-6.0-4.10","2419285","co37534","norming","","","","","","",""
"null","../img/tt/1142tt.jpg","null","mooney2","image-keyboard-response","81","338849","0.0-6.0-5.10","2419285","co37534","norming","","","","","","",""
"2527.2949999999255","","","post_reveal_questions","survey-likert","82","341379","0.0-6.0-6.10","2419285","co37534","norming","","","{""aha"":5}","[0]","../img/tt/1142tt.jpg","",""
"null","<div style=""font-size:60px;""> </div>","null","fixation","html-keyboard-response","83","341586","0.0-6.0-0.11","2419285","co37534","norming","","","","","","",""
"null","../img/tt/123tt.jpg","null","mooney1","image-keyboard-response","84","344596","0.0-6.0-1.11","2419285","co37534","norming","","","","","","",""
"5876.169999999518","","","post_mooney1_questions","survey-likert","85","350475","0.0-6.0-2.11","2419285","co37534","norming","","","{""curiosity"":1,""confidence"":1}","[0,1]","../img/tt/123tt.jpg","",""
"1366.3549999982934","","","recognition","survey-text","86","351848","0.0-6.0-3.11","2419285","co37534","norming","","","{""guess"":""bag""}","","../img/tt/123tt.jpg","",""
"null","../img/gs/123gs.jpg","null","reveal","image-keyboard-response","87","353857","0.0-6.0-4.11","2419285","co37534","norming","","","","","","",""
"null","../img/tt/123tt.jpg","null","mooney2","image-keyboard-response","88","355861","0.0-6.0-5.11","2419285","co37534","norming","","","","","","",""
"2489.3450000018347","","","post_reveal_questions","survey-likert","89","358352","0.0-6.0-6.11","2419285","co37534","norming","","","{""aha"":5}","[0]","../img/tt/123tt.jpg","",""
"null","<div style=""font-size:60px;""> </div>","null","fixation","html-keyboard-response","90","358554","0.0-6.0-0.12","2419285","co37534","norming","","","","","","",""
"null","../img/tt/1126tt.jpg","null","mooney1","image-keyboard-response","91","361566","0.0-6.0-1.12","2419285","co37534","norming","","","","","","",""
"4504.215000000782","","","post_mooney1_questions","survey-likert","92","366073","0.0-6.0-2.12","2419285","co37534","norming","","","{""curiosity"":2,""confidence"":0}","[0,1]","../img/tt/1126tt.jpg","",""
"1131.999999997788","","","recognition","survey-text","93","367208","0.0-6.0-3.12","2419285","co37534","norming","","","{""guess"":""""}","","../img/tt/1126tt.jpg","",""
"null","../img/gs/1126gs.jpg","null","reveal","image-keyboard-response","94","369210","0.0-6.0-4.12","2419285","co37534","norming","","","","","","",""
"null","../img/tt/1126tt.jpg","null","mooney2","image-keyboard-response","95","371220","0.0-6.0-5.12","2419285","co37534","norming","","","","","","",""
"3866.020000001299","","","post_reveal_questions","survey-likert","96","375089","0.0-6.0-6.12","2419285","co37534","norming","","","{""aha"":4}","[0]","../img/tt/1126tt.jpg","",""
"null","<div style=""font-size:60px;""> </div>","null","fixation","html-keyboard-response","97","375296","0.0-6.0-0.13","2419285","co37534","norming","","","","","","",""
"null","../img/tt/076tt.jpg","null","mooney1","image-keyboard-response","98","378299","0.0-6.0-1.13","2419285","co37534","norming","","","","","","",""
"4323.1249999990105","","","post_mooney1_questions","survey-likert","99","382625","0.0-6.0-2.13","2419285","co37534","norming","","","{""curiosity"":5,""confidence"":1}","[0,1]","../img/tt/076tt.jpg","",""
"3005.9699999983422","","","recognition","survey-text","100","385632","0.0-6.0-3.13","2419285","co37534","norming","","","{""guess"":""roller skating""}","","../img/tt/076tt.jpg","",""
"null","../img/gs/076gs.jpg","null","reveal","image-keyboard-response","101","387639","0.0-6.0-4.13","2419285","co37534","norming","","","","","","",""
"null","../img/tt/076tt.jpg","null","mooney2","image-keyboard-response","102","389649","0.0-6.0-5.13","2419285","co37534","norming","","","","","","",""
"2861.945000000589","","","post_reveal_questions","survey-likert","103","392513","0.0-6.0-6.13","2419285","co37534","norming","","","{""aha"":4}","[0]","../img/tt/076tt.jpg","",""
"null","<div style=""font-size:60px;""> </div>","null","fixation","html-keyboard-response","104","392714","0.0-6.0-0.14","2419285","co37534","norming","","","","","","",""
"null","../img/tt/1363tt.jpg","null","mooney1","image-keyboard-response","105","395722","0.0-6.0-1.14","2419285","co37534","norming","","","","","","",""
"13227.469999997993","","","post_mooney1_questions","survey-likert","106","408953","0.0-6.0-2.14","2419285","co37534","norming","","","{""curiosity"":4,""confidence"":1}","[0,1]","../img/tt/1363tt.jpg","",""
"1118.4450000000652","","","recognition","survey-text","107","410072","0.0-6.0-3.14","2419285","co37534","norming","","","{""guess"":""""}","","../img/tt/1363tt.jpg","",""
"null","../img/gs/1363gs.jpg","null","reveal","image-keyboard-response","108","412078","0.0-6.0-4.14","2419285","co37534","norming","","","","","","",""
"null","../img/tt/1363tt.jpg","null","mooney2","image-keyboard-response","109","414081","0.0-6.0-5.14","2419285","co37534","norming","","","","","","",""
"2097.075000001467","","","post_reveal_questions","survey-likert","110","416180","0.0-6.0-6.14","2419285","co37534","norming","","","{""aha"":4}","[0]","../img/tt/1363tt.jpg","",""
"null","<div style=""font-size:60px;""> </div>","null","fixation","html-keyboard-response","111","416390","0.0-6.0-0.15","2419285","co37534","norming","","","","","","",""
"null","../img/tt/306tt.jpg","null","mooney1","image-keyboard-response","112","419395","0.0-6.0-1.15","2419285","co37534","norming","","","","","","",""
"5886.030000001483","","","post_mooney1_questions","survey-likert","113","425284","0.0-6.0-2.15","2419285","co37534","norming","","","{""curiosity"":5,""confidence"":1}","[0,1]","../img/tt/306tt.jpg","",""
"694.0199999990291","","","recognition","survey-text","114","425980","0.0-6.0-3.15","2419285","co37534","norming","","","{""guess"":""""}","","../img/tt/306tt.jpg","",""
"null","../img/gs/306gs.jpg","null","reveal","image-keyboard-response","115","427981","0.0-6.0-4.15","2419285","co37534","norming","","","","","","",""
"null","../img/tt/306tt.jpg","null","mooney2","image-keyboard-response","116","429984","0.0-6.0-5.15","2419285","co37534","norming","","","","","","",""
"2721.9250000016764","","","post_reveal_questions","survey-likert","117","432708","0.0-6.0-6.15","2419285","co37534","norming","","","{""aha"":5}","[0]","../img/tt/306tt.jpg","",""
"null","<div style=""font-size:60px;""> </div>","null","fixation","html-keyboard-response","118","432910","0.0-6.0-0.16","2419285","co37534","norming","","","","","","",""
"null","../img/tt/046tt.jpg","null","mooney1","image-keyboard-response","119","435918","0.0-6.0-1.16","2419285","co37534","norming","","","","","","",""
"5242.740000001504","","","post_mooney1_questions","survey-likert","120","441164","0.0-6.0-2.16","2419285","co37534","norming","","","{""curiosity"":4,""confidence"":1}","[0,1]","../img/tt/046tt.jpg","",""
"3830.054999998538","","","recognition","survey-text","121","444996","0.0-6.0-3.16","2419285","co37534","norming","","","{""guess"":""tree""}","","../img/tt/046tt.jpg","",""
"null","../img/gs/046gs.jpg","null","reveal","image-keyboard-response","122","446998","0.0-6.0-4.16","2419285","co37534","norming","","","","","","",""
"null","../img/tt/046tt.jpg","null","mooney2","image-keyboard-response","123","449000","0.0-6.0-5.16","2419285","co37534","norming","","","","","","",""
"3217.594999998226","","","post_reveal_questions","survey-likert","124","452220","0.0-6.0-6.16","2419285","co37534","norming","","","{""aha"":4}","[0]","../img/tt/046tt.jpg","",""
"null","<div style=""font-size:60px;""> </div>","null","fixation","html-keyboard-response","125","452429","0.0-6.0-0.17","2419285","co37534","norming","","","","","","",""
"null","../img/tt/1276tt.jpg","null","mooney1","image-keyboard-response","126","455437","0.0-6.0-1.17","2419285","co37534","norming","","","","","","",""
"7052.15500000125","","","post_mooney1_questions","survey-likert","127","462492","0.0-6.0-2.17","2419285","co37534","norming","","","{""curiosity"":4,""confidence"":1}","[0,1]","../img/tt/1276tt.jpg","",""
"3150.209999999788","","","recognition","survey-text","128","465644","0.0-6.0-3.17","2419285","co37534","norming","","","{""guess"":""bird""}","","../img/tt/1276tt.jpg","",""
"null","../img/gs/1276gs.jpg","null","reveal","image-keyboard-response","129","467651","0.0-6.0-4.17","2419285","co37534","norming","","","","","","",""
"null","../img/tt/1276tt.jpg","null","mooney2","image-keyboard-response","130","469653","0.0-6.0-5.17","2419285","co37534","norming","","","","","","",""
"1740.7749999983935","","","post_reveal_questions","survey-likert","131","471396","0.0-6.0-6.17","2419285","co37534","norming","","","{""aha"":4}","[0]","../img/tt/1276tt.jpg","",""
"null","<div style=""font-size:60px;""> </div>","null","fixation","html-keyboard-response","132","471604","0.0-6.0-0.18","2419285","co37534","norming","","","","","","",""
"null","../img/tt/405tt.jpg","null","mooney1","image-keyboard-response","133","474613","0.0-6.0-1.18","2419285","co37534","norming","","","","","","",""
"5036.8149999994785","","","post_mooney1_questions","survey-likert","134","479652","0.0-6.0-2.18","2419285","co37534","norming","","","{""curiosity"":3,""confidence"":0}","[0,1]","../img/tt/405tt.jpg","",""
"1046.0399999974761","","","recognition","survey-text","135","480700","0.0-6.0-3.18","2419285","co37534","norming","","","{""guess"":""""}","","../img/tt/405tt.jpg","",""
"null","../img/gs/405gs.jpg","null","reveal","image-keyboard-response","136","482704","0.0-6.0-4.18","2419285","co37534","norming","","","","","","",""
"null","../img/tt/405tt.jpg","null","mooney2","image-keyboard-response","137","484715","0.0-6.0-5.18","2419285","co37534","norming","","","","","","",""
"4926.419999999809","","","post_reveal_questions","survey-likert","138","489644","0.0-6.0-6.18","2419285","co37534","norming","","","{""aha"":3}","[0]","../img/tt/405tt.jpg","",""
"null","<div style=""font-size:60px;""> </div>","null","fixation","html-keyboard-response","139","489846","0.0-6.0-0.19","2419285","co37534","norming","","","","","","",""
"null","../img/tt/318tt.jpg","null","mooney1","image-keyboard-response","140","492857","0.0-6.0-1.19","2419285","co37534","norming","","","","","","",""
"7528.010000001814","","","post_mooney1_questions","survey-likert","141","500388","0.0-6.0-2.19","2419285","co37534","norming","","","{""curiosity"":2,""confidence"":1}","[0,1]","../img/tt/318tt.jpg","",""
"1038.345000000787","","","recognition","survey-text","142","501428","0.0-6.0-3.19","2419285","co37534","norming","","","{""guess"":""""}","","../img/tt/318tt.jpg","",""
"null","../img/gs/318gs.jpg","null","reveal","image-keyboard-response","143","503429","0.0-6.0-4.19","2419285","co37534","norming","","","","","","",""
"null","../img/tt/318tt.jpg","null","mooney2","image-keyboard-response","144","505432","0.0-6.0-5.19","2419285","co37534","norming","","","","","","",""
"2009.6300000004703","","","post_reveal_questions","survey-likert","145","507444","0.0-6.0-6.19","2419285","co37534","norming","","","{""aha"":2}","[0]","../img/tt/318tt.jpg","",""
"null","<div style=""font-size:60px;""> </div>","null","fixation","html-keyboard-response","146","507647","0.0-6.0-0.20","2419285","co37534","norming","","","","","","",""
"null","../img/tt/001tt.jpg","null","mooney1","image-keyboard-response","147","510655","0.0-6.0-1.20","2419285","co37534","norming","","","","","","",""
"4073.664999999921","","","post_mooney1_questions","survey-likert","148","514732","0.0-6.0-2.20","2419285","co37534","norming","","","{""curiosity"":1,""confidence"":1}","[0,1]","../img/tt/001tt.jpg","",""
"2982.40000000078","","","recognition","survey-text","149","517716","0.0-6.0-3.20","2419285","co37534","norming","","","{""guess"":""bird""}","","../img/tt/001tt.jpg","",""
"null","../img/gs/001gs.jpg","null","reveal","image-keyboard-response","150","519720","0.0-6.0-4.20","2419285","co37534","norming","","","","","","",""
"null","../img/tt/001tt.jpg","null","mooney2","image-keyboard-response","151","521722","0.0-6.0-5.20","2419285","co37534","norming","","","","","","",""
"7559.704999999725","","","post_reveal_questions","survey-likert","152","529284","0.0-6.0-6.20","2419285","co37534","norming","","","{""aha"":3}","[0]","../img/tt/001tt.jpg","",""
"null","<div style=""font-size:60px;""> </div>","null","fixation","html-keyboard-response","153","529491","0.0-6.0-0.21","2419285","co37534","norming","","","","","","",""
"null","../img/tt/534tt.jpg","null","mooney1","image-keyboard-response","154","532497","0.0-6.0-1.21","2419285","co37534","norming","","","","","","",""
"4201.5400000017835","","","post_mooney1_questions","survey-likert","155","536697","0.0-6.0-2.21","2419285","co37534","norming","","","{""curiosity"":3,""confidence"":1}","[0,1]","../img/tt/534tt.jpg","",""
"3406.1099999998696","","","recognition","survey-text","156","540104","0.0-6.0-3.21","2419285","co37534","norming","","","{""guess"":""cactus""}","","../img/tt/534tt.jpg","",""
"null","../img/gs/534gs.jpg","null","reveal","image-keyboard-response","157","542106","0.0-6.0-4.21","2419285","co37534","norming","","","","","","",""
"null","../img/tt/534tt.jpg","null","mooney2","image-keyboard-response","158","544115","0.0-6.0-5.21","2419285","co37534","norming","","","","","","",""
"3659.335000000312","","","post_reveal_questions","survey-likert","159","547776","0.0-6.0-6.21","2419285","co37534","norming","","","{""aha"":3}","[0]","../img/tt/534tt.jpg","",""
"null","<div style=""font-size:60px;""> </div>","null","fixation","html-keyboard-response","160","547987","0.0-6.0-0.22","2419285","co37534","norming","","","","","","",""
"null","../img/tt/082tt.jpg","null","mooney1","image-keyboard-response","161","550990","0.0-6.0-1.22","2419285","co37534","norming","","","","","","",""
"3792.095000000787","","","post_mooney1_questions","survey-likert","162","554785","0.0-6.0-2.22","2419285","co37534","norming","","","{""curiosity"":3,""confidence"":3}","[0,1]","../img/tt/082tt.jpg","",""
"2174.2049999992596","","","recognition","survey-text","163","556960","0.0-6.0-3.22","2419285","co37534","norming","","","{""guess"":""parrot""}","","../img/tt/082tt.jpg","",""
"null","../img/gs/082gs.jpg","null","reveal","image-keyboard-response","164","558963","0.0-6.0-4.22","2419285","co37534","norming","","","","","","",""
"null","../img/tt/082tt.jpg","null","mooney2","image-keyboard-response","165","560967","0.0-6.0-5.22","2419285","co37534","norming","","","","","","",""
"3791.6399999995483","","","post_reveal_questions","survey-likert","166","564760","0.0-6.0-6.22","2419285","co37534","norming","","","{""aha"":3}","[0]","../img/tt/082tt.jpg","",""
"null","<div style=""font-size:60px;""> </div>","null","fixation","html-keyboard-response","167","564968","0.0-6.0-0.23","2419285","co37534","norming","","","","","","",""
"null","../img/tt/1151tt.jpg","null","mooney1","image-keyboard-response","168","567974","0.0-6.0-1.23","2419285","co37534","norming","","","","","","",""
"5103.37000000081","","","post_mooney1_questions","survey-likert","169","573081","0.0-6.0-2.23","2419285","co37534","norming","","","{""curiosity"":3,""confidence"":0}","[0,1]","../img/tt/1151tt.jpg","",""
"1109.9250000006286","","","recognition","survey-text","170","574192","0.0-6.0-3.23","2419285","co37534","norming","","","{""guess"":""""}","","../img/tt/1151tt.jpg","",""
"null","../img/gs/1151gs.jpg","null","reveal","image-keyboard-response","171","576199","0.0-6.0-4.23","2419285","co37534","norming","","","","","","",""
"null","../img/tt/1151tt.jpg","null","mooney2","image-keyboard-response","172","578205","0.0-6.0-5.23","2419285","co37534","norming","","","","","","",""
"5033.425000001444","","","post_reveal_questions","survey-likert","173","583241","0.0-6.0-6.23","2419285","co37534","norming","","","{""aha"":2}","[0]","../img/tt/1151tt.jpg","",""
"null","<div style=""font-size:60px;""> </div>","null","fixation","html-keyboard-response","174","583450","0.0-6.0-0.24","2419285","co37534","norming","","","","","","",""
"null","../img/tt/064tt.jpg","null","mooney1","image-keyboard-response","175","586459","0.0-6.0-1.24","2419285","co37534","norming","","","","","","",""
"6180.629999998957","","","post_mooney1_questions","survey-likert","176","592641","0.0-6.0-2.24","2419285","co37534","norming","","","{""curiosity"":2,""confidence"":0}","[0,1]","../img/tt/064tt.jpg","",""
"1005.6900000016904","","","recognition","survey-text","177","593649","0.0-6.0-3.24","2419285","co37534","norming","","","{""guess"":""""}","","../img/tt/064tt.jpg","",""
"null","../img/gs/064gs.jpg","null","reveal","image-keyboard-response","178","595655","0.0-6.0-4.24","2419285","co37534","norming","","","","","","",""
"null","../img/tt/064tt.jpg","null","mooney2","image-keyboard-response","179","597657","0.0-6.0-5.24","2419285","co37534","norming","","","","","","",""
"2785.3350000004284","","","post_reveal_questions","survey-likert","180","600444","0.0-6.0-6.24","2419285","co37534","norming","","","{""aha"":2}","[0]","../img/tt/064tt.jpg","",""
"null","<div style=""font-size:60px;""> </div>","null","fixation","html-keyboard-response","181","600654","0.0-6.0-0.25","2419285","co37534","norming","","","","","","",""
"null","../img/tt/091tt.jpg","null","mooney1","image-keyboard-response","182","603659","0.0-6.0-1.25","2419285","co37534","norming","","","","","","",""
"4222.7700000002515","","","post_mooney1_questions","survey-likert","183","607884","0.0-6.0-2.25","2419285","co37534","norming","","","{""curiosity"":2,""confidence"":1}","[0,1]","../img/tt/091tt.jpg","",""
"2454.0000000015134","","","recognition","survey-text","184","610340","0.0-6.0-3.25","2419285","co37534","norming","","","{""guess"":""crocodile""}","","../img/tt/091tt.jpg","",""
"null","../img/gs/091gs.jpg","null","reveal","image-keyboard-response","185","612346","0.0-6.0-4.25","2419285","co37534","norming","","","","","","",""
"null","../img/tt/091tt.jpg","null","mooney2","image-keyboard-response","186","614346","0.0-6.0-5.25","2419285","co37534","norming","","","","","","",""
"2823.6749999996973","","","post_reveal_questions","survey-likert","187","617172","0.0-6.0-6.25","2419285","co37534","norming","","","{""aha"":3}","[0]","../img/tt/091tt.jpg","",""
"null","<div style=""font-size:60px;""> </div>","null","fixation","html-keyboard-response","188","617376","0.0-6.0-0.26","2419285","co37534","norming","","","","","","",""
"null","../img/tt/329tt.jpg","null","mooney1","image-keyboard-response","189","620387","0.0-6.0-1.26","2419285","co37534","norming","","","","","","",""
"4528.37500000163","","","post_mooney1_questions","survey-likert","190","624916","0.0-6.0-2.26","2419285","co37534","norming","","","{""curiosity"":3,""confidence"":0}","[0,1]","../img/tt/329tt.jpg","",""
"893.850000000326","","","recognition","survey-text","191","625812","0.0-6.0-3.26","2419285","co37534","norming","","","{""guess"":""""}","","../img/tt/329tt.jpg","",""
"null","../img/gs/329gs.jpg","null","reveal","image-keyboard-response","192","627819","0.0-6.0-4.26","2419285","co37534","norming","","","","","","",""
"null","../img/tt/329tt.jpg","null","mooney2","image-keyboard-response","193","629822","0.0-6.0-5.26","2419285","co37534","norming","","","","","","",""
"2748.180000002263","","","post_reveal_questions","survey-likert","194","632572","0.0-6.0-6.26","2419285","co37534","norming","","","{""aha"":2}","[0]","../img/tt/329tt.jpg","",""
"null","<div style=""font-size:60px;""> </div>","null","fixation","html-keyboard-response","195","632776","0.0-6.0-0.27","2419285","co37534","norming","","","","","","",""
"null","../img/tt/1004tt.jpg","null","mooney1","image-keyboard-response","196","635782","0.0-6.0-1.27","2419285","co37534","norming","","","","","","",""
"6195.939999997849","","","post_mooney1_questions","survey-likert","197","641980","0.0-6.0-2.27","2419285","co37534","norming","","","{""curiosity"":1,""confidence"":1}","[0,1]","../img/tt/1004tt.jpg","",""
"1630.1700000003912","","","recognition","survey-text","198","643612","0.0-6.0-3.27","2419285","co37534","norming","","","{""guess"":""grass""}","","../img/tt/1004tt.jpg","",""
"null","../img/gs/1004gs.jpg","null","reveal","image-keyboard-response","199","645622","0.0-6.0-4.27","2419285","co37534","norming","","","","","","",""
"null","../img/tt/1004tt.jpg","null","mooney2","image-keyboard-response","200","647624","0.0-6.0-5.27","2419285","co37534","norming","","","","","","",""
"3338.204999999958","","","post_reveal_questions","survey-likert","201","650964","0.0-6.0-6.27","2419285","co37534","norming","","","{""aha"":4}","[0]","../img/tt/1004tt.jpg","",""
"null","<div style=""font-size:60px;""> </div>","null","fixation","html-keyboard-response","202","651168","0.0-6.0-0.28","2419285","co37534","norming","","","","","","",""
"null","../img/tt/378tt.jpg","null","mooney1","image-keyboard-response","203","654179","0.0-6.0-1.28","2419285","co37534","norming","","","","","","",""
"3774.600000000675","","","post_mooney1_questions","survey-likert","204","657955","0.0-6.0-2.28","2419285","co37534","norming","","","{""curiosity"":0,""confidence"":0}","[0,1]","../img/tt/378tt.jpg","",""
"974.115000000922","","","recognition","survey-text","205","658931","0.0-6.0-3.28","2419285","co37534","norming","","","{""guess"":""""}","","../img/tt/378tt.jpg","",""
"null","../img/gs/378gs.jpg","null","reveal","image-keyboard-response","206","660938","0.0-6.0-4.28","2419285","co37534","norming","","","","","","",""
"null","../img/tt/378tt.jpg","null","mooney2","image-keyboard-response","207","662941","0.0-6.0-5.28","2419285","co37534","norming","","","","","","",""
"2436.259999998496","","","post_reveal_questions","survey-likert","208","665379","0.0-6.0-6.28","2419285","co37534","norming","","","{""aha"":2}","[0]","../img/tt/378tt.jpg","",""
"null","<div style=""font-size:60px;""> </div>","null","fixation","html-keyboard-response","209","665583","0.0-6.0-0.29","2419285","co37534","norming","","","","","","",""
"null","../img/tt/081tt.jpg","null","mooney1","image-keyboard-response","210","668587","0.0-6.0-1.29","2419285","co37534","norming","","","","","","",""
"4294.090000002994","","","post_mooney1_questions","survey-likert","211","672883","0.0-6.0-2.29","2419285","co37534","norming","","","{""curiosity"":1,""confidence"":0}","[0,1]","../img/tt/081tt.jpg","",""
"2918.1599999974715","","","recognition","survey-text","212","675803","0.0-6.0-3.29","2419285","co37534","norming","","","{""guess"":""frog""}","","../img/tt/081tt.jpg","",""
"null","../img/gs/081gs.jpg","null","reveal","image-keyboard-response","213","677809","0.0-6.0-4.29","2419285","co37534","norming","","","","","","",""
"null","../img/tt/081tt.jpg","null","mooney2","image-keyboard-response","214","679811","0.0-6.0-5.29","2419285","co37534","norming","","","","","","",""
"2189.8050000017975","","","post_reveal_questions","survey-likert","215","682003","0.0-6.0-6.29","2419285","co37534","norming","","","{""aha"":2}","[0]","../img/tt/081tt.jpg","",""
"null","<div style=""font-size:60px;""> </div>","null","fixation","html-keyboard-response","216","682206","0.0-6.0-0.30","2419285","co37534","norming","","","","","","",""
"null","../img/tt/1269tt.jpg","null","mooney1","image-keyboard-response","217","685211","0.0-6.0-1.30","2419285","co37534","norming","","","","","","",""
"5829.689999998664","","","post_mooney1_questions","survey-likert","218","691043","0.0-6.0-2.30","2419285","co37534","norming","","","{""curiosity"":2,""confidence"":2}","[0,1]","../img/tt/1269tt.jpg","",""
"1405.8000000005122","","","recognition","survey-text","219","692451","0.0-6.0-3.30","2419285","co37534","norming","","","{""guess"":""cat""}","","../img/tt/1269tt.jpg","",""
"null","../img/gs/1269gs.jpg","null","reveal","image-keyboard-response","220","694457","0.0-6.0-4.30","2419285","co37534","norming","","","","","","",""
"null","../img/tt/1269tt.jpg","null","mooney2","image-keyboard-response","221","696462","0.0-6.0-5.30","2419285","co37534","norming","","","","","","",""
"3076.5600000013364","","","post_reveal_questions","survey-likert","222","699539","0.0-6.0-6.30","2419285","co37534","norming","","","{""aha"":3}","[0]","../img/tt/1269tt.jpg","",""
"null","<div style=""font-size:60px;""> </div>","null","fixation","html-keyboard-response","223","699741","0.0-6.0-0.31","2419285","co37534","norming","","","","","","",""
"null","../img/tt/1078tt.jpg","null","mooney1","image-keyboard-response","224","702745","0.0-6.0-1.31","2419285","co37534","norming","","","","","","",""
"8919.334999998682","","","post_mooney1_questions","survey-likert","225","711668","0.0-6.0-2.31","2419285","co37534","norming","","","{""curiosity"":3,""confidence"":1}","[0,1]","../img/tt/1078tt.jpg","",""
"11485.839999997523","","","recognition","survey-text","226","723149","0.0-6.0-3.31","2419285","co37534","norming","","","{""guess"":""skating""}","","../img/tt/1078tt.jpg","",""
"null","../img/gs/1078gs.jpg","null","reveal","image-keyboard-response","227","725155","0.0-6.0-4.31","2419285","co37534","norming","","","","","","",""
"null","../img/tt/1078tt.jpg","null","mooney2","image-keyboard-response","228","727157","0.0-6.0-5.31","2419285","co37534","norming","","","","","","",""
"1869.1999999973923","","","post_reveal_questions","survey-likert","229","729029","0.0-6.0-6.31","2419285","co37534","norming","","","{""aha"":2}","[0]","../img/tt/1078tt.jpg","",""
"null","<div style=""font-size:60px;""> </div>","null","fixation","html-keyboard-response","230","729231","0.0-6.0-0.32","2419285","co37534","norming","","","","","","",""
"null","../img/tt/1226tt.jpg","null","mooney1","image-keyboard-response","231","732235","0.0-6.0-1.32","2419285","co37534","norming","","","","","","",""
"5527.555000000517","","","post_mooney1_questions","survey-likert","232","737765","0.0-6.0-2.32","2419285","co37534","norming","","","{""curiosity"":1,""confidence"":1}","[0,1]","../img/tt/1226tt.jpg","",""
"2750.159999999567","","","recognition","survey-text","233","740517","0.0-6.0-3.32","2419285","co37534","norming","","","{""guess"":""goose""}","","../img/tt/1226tt.jpg","",""
"null","../img/gs/1226gs.jpg","null","reveal","image-keyboard-response","234","742524","0.0-6.0-4.32","2419285","co37534","norming","","","","","","",""
"null","../img/tt/1226tt.jpg","null","mooney2","image-keyboard-response","235","744533","0.0-6.0-5.32","2419285","co37534","norming","","","","","","",""
"2149.359999999404","","","post_reveal_questions","survey-likert","236","746685","0.0-6.0-6.32","2419285","co37534","norming","","","{""aha"":2}","[0]","../img/tt/1226tt.jpg","",""
"null","<div style=""font-size:60px;""> </div>","null","fixation","html-keyboard-response","237","746886","0.0-6.0-0.33","2419285","co37534","norming","","","","","","",""
"null","../img/tt/055tt.jpg","null","mooney1","image-keyboard-response","238","749890","0.0-6.0-1.33","2419285","co37534","norming","","","","","","",""
"3512.334999999497","","","post_mooney1_questions","survey-likert","239","753405","0.0-6.0-2.33","2419285","co37534","norming","","","{""curiosity"":1,""confidence"":0}","[0,1]","../img/tt/055tt.jpg","",""
"574.4149999991059","","","recognition","survey-text","240","753981","0.0-6.0-3.33","2419285","co37534","norming","","","{""guess"":""""}","","../img/tt/055tt.jpg","",""
"null","../img/gs/055gs.jpg","null","reveal","image-keyboard-response","241","755982","0.0-6.0-4.33","2419285","co37534","norming","","","","","","",""
"null","../img/tt/055tt.jpg","null","mooney2","image-keyboard-response","242","757985","0.0-6.0-5.33","2419285","co37534","norming","","","","","","",""
"3225.4649999995017","","","post_reveal_questions","survey-likert","243","761212","0.0-6.0-6.33","2419285","co37534","norming","","","{""aha"":3}","[0]","../img/tt/055tt.jpg","",""
"null","<div style=""font-size:60px;""> </div>","null","fixation","html-keyboard-response","244","761420","0.0-6.0-0.34","2419285","co37534","norming","","","","","","",""
"null","../img/tt/184tt.jpg","null","mooney1","image-keyboard-response","245","764423","0.0-6.0-1.34","2419285","co37534","norming","","","","","","",""
"4060.1999999999534","","","post_mooney1_questions","survey-likert","246","768485","0.0-6.0-2.34","2419285","co37534","norming","","","{""curiosity"":1,""confidence"":0}","[0,1]","../img/tt/184tt.jpg","",""
"861.944999996922","","","recognition","survey-text","247","769348","0.0-6.0-3.34","2419285","co37534","norming","","","{""guess"":""""}","","../img/tt/184tt.jpg","",""
"null","../img/gs/184gs.jpg","null","reveal","image-keyboard-response","248","771351","0.0-6.0-4.34","2419285","co37534","norming","","","","","","",""
"null","../img/tt/184tt.jpg","null","mooney2","image-keyboard-response","249","773354","0.0-6.0-5.34","2419285","co37534","norming","","","","","","",""
"2024.1499999974621","","","post_reveal_questions","survey-likert","250","775381","0.0-6.0-6.34","2419285","co37534","norming","","","{""aha"":1}","[0]","../img/tt/184tt.jpg","",""
"null","<div style=""font-size:60px;""> </div>","null","fixation","html-keyboard-response","251","775583","0.0-6.0-0.35","2419285","co37534","norming","","","","","","",""
"null","../img/tt/032tt.jpg","null","mooney1","image-keyboard-response","252","778595","0.0-6.0-1.35","2419285","co37534","norming","","","","","","",""
"2894.57499999844","","","post_mooney1_questions","survey-likert","253","781493","0.0-6.0-2.35","2419285","co37534","norming","","","{""curiosity"":1,""confidence"":0}","[0,1]","../img/tt/032tt.jpg","",""
"2590.1200000008103","","","recognition","survey-text","254","784084","0.0-6.0-3.35","2419285","co37534","norming","","","{""guess"":""animal""}","","../img/tt/032tt.jpg","",""
"null","../img/gs/032gs.jpg","null","reveal","image-keyboard-response","255","786090","0.0-6.0-4.35","2419285","co37534","norming","","","","","","",""
"null","../img/tt/032tt.jpg","null","mooney2","image-keyboard-response","256","788093","0.0-6.0-5.35","2419285","co37534","norming","","","","","","",""
"3542.434999999474","","","post_reveal_questions","survey-likert","257","791636","0.0-6.0-6.35","2419285","co37534","norming","","","{""aha"":2}","[0]","../img/tt/032tt.jpg","",""
"null","<div style=""font-size:60px;""> </div>","null","fixation","html-keyboard-response","258","791841","0.0-6.0-0.36","2419285","co37534","norming","","","","","","",""
"null","../img/tt/1175tt.jpg","null","mooney1","image-keyboard-response","259","794844","0.0-6.0-1.36","2419285","co37534","norming","","","","","","",""
"3253.4850000010338","","","post_mooney1_questions","survey-likert","260","798101","0.0-6.0-2.36","2419285","co37534","norming","","","{""curiosity"":1,""confidence"":0}","[0,1]","../img/tt/1175tt.jpg","",""
"1190.0100000021048","","","recognition","survey-text","261","799292","0.0-6.0-3.36","2419285","co37534","norming","","","{""guess"":""""}","","../img/tt/1175tt.jpg","",""
"null","../img/gs/1175gs.jpg","null","reveal","image-keyboard-response","262","801293","0.0-6.0-4.36","2419285","co37534","norming","","","","","","",""
"null","../img/tt/1175tt.jpg","null","mooney2","image-keyboard-response","263","803296","0.0-6.0-5.36","2419285","co37534","norming","","","","","","",""
"2306.1649999981746","","","post_reveal_questions","survey-likert","264","805604","0.0-6.0-6.36","2419285","co37534","norming","","","{""aha"":2}","[0]","../img/tt/1175tt.jpg","",""
"null","<div style=""font-size:60px;""> </div>","null","fixation","html-keyboard-response","265","805806","0.0-6.0-0.37","2419285","co37534","norming","","","","","","",""
"null","../img/tt/1096tt.jpg","null","mooney1","image-keyboard-response","266","808814","0.0-6.0-1.37","2419285","co37534","norming","","","","","","",""
"4396.359999998822","","","post_mooney1_questions","survey-likert","267","813213","0.0-6.0-2.37","2419285","co37534","norming","","","{""curiosity"":1,""confidence"":1}","[0,1]","../img/tt/1096tt.jpg","",""
"3877.829999997746","","","recognition","survey-text","268","817092","0.0-6.0-3.37","2419285","co37534","norming","","","{""guess"":""jumping""}","","../img/tt/1096tt.jpg","",""
"null","../img/gs/1096gs.jpg","null","reveal","image-keyboard-response","269","819099","0.0-6.0-4.37","2419285","co37534","norming","","","","","","",""
"null","../img/tt/1096tt.jpg","null","mooney2","image-keyboard-response","270","821100","0.0-6.0-5.37","2419285","co37534","norming","","","","","","",""
"3439.124999997206","","","post_reveal_questions","survey-likert","271","824540","0.0-6.0-6.37","2419285","co37534","norming","","","{""aha"":2}","[0]","../img/tt/1096tt.jpg","",""
"null","<div style=""font-size:60px;""> </div>","null","fixation","html-keyboard-response","272","824748","0.0-6.0-0.38","2419285","co37534","norming","","","","","","",""
"null","../img/tt/559tt.jpg","null","mooney1","image-keyboard-response","273","827753","0.0-6.0-1.38","2419285","co37534","norming","","","","","","",""
"4105.175000000629","","","post_mooney1_questions","survey-likert","274","831861","0.0-6.0-2.38","2419285","co37534","norming","","","{""curiosity"":2,""confidence"":1}","[0,1]","../img/tt/559tt.jpg","",""
"3870.009999998845","","","recognition","survey-text","275","835732","0.0-6.0-3.38","2419285","co37534","norming","","","{""guess"":""saddle""}","","../img/tt/559tt.jpg","",""
"null","../img/gs/559gs.jpg","null","reveal","image-keyboard-response","276","837734","0.0-6.0-4.38","2419285","co37534","norming","","","","","","",""
"null","../img/tt/559tt.jpg","null","mooney2","image-keyboard-response","277","839739","0.0-6.0-5.38","2419285","co37534","norming","","","","","","",""
"1559.6949999999488","","","post_reveal_questions","survey-likert","278","841301","0.0-6.0-6.38","2419285","co37534","norming","","","{""aha"":2}","[0]","../img/tt/559tt.jpg","",""
"null","<div style=""font-size:60px;""> </div>","null","fixation","html-keyboard-response","279","841507","0.0-6.0-0.39","2419285","co37534","norming","","","","","","",""
"null","../img/tt/1224tt.jpg","null","mooney1","image-keyboard-response","280","844519","0.0-6.0-1.39","2419285","co37534","norming","","","","","","",""
"5547.444999996573","","","post_mooney1_questions","survey-likert","281","850068","0.0-6.0-2.39","2419285","co37534","norming","","","{""curiosity"":2,""confidence"":1}","[0,1]","../img/tt/1224tt.jpg","",""
"3374.1550000013085","","","recognition","survey-text","282","853445","0.0-6.0-3.39","2419285","co37534","norming","","","{""guess"":""people""}","","../img/tt/1224tt.jpg","",""
"null","../img/gs/1224gs.jpg","null","reveal","image-keyboard-response","283","855450","0.0-6.0-4.39","2419285","co37534","norming","","","","","","",""
"null","../img/tt/1224tt.jpg","null","mooney2","image-keyboard-response","284","857452","0.0-6.0-5.39","2419285","co37534","norming","","","","","","",""
"6342.479999999399","","","post_reveal_questions","survey-likert","285","863797","0.0-6.0-6.39","2419285","co37534","norming","","","{""aha"":1}","[0]","../img/tt/1224tt.jpg","",""
"null","<div style=""font-size:60px;""> </div>","null","fixation","html-keyboard-response","286","864003","0.0-6.0-0.40","2419285","co37534","norming","","","","","","",""
"null","../img/tt/124tt.jpg","null","mooney1","image-keyboard-response","287","867007","0.0-6.0-1.40","2419285","co37534","norming","","","","","","",""
"6579.164999999222","","","post_mooney1_questions","survey-likert","288","873589","0.0-6.0-2.40","2419285","co37534","norming","","","{""curiosity"":2,""confidence"":4}","[0,1]","../img/tt/124tt.jpg","",""
"2461.914999999921","","","recognition","survey-text","289","876053","0.0-6.0-3.40","2419285","co37534","norming","","","{""guess"":""gorilla""}","","../img/tt/124tt.jpg","",""
"null","../img/gs/124gs.jpg","null","reveal","image-keyboard-response","290","878054","0.0-6.0-4.40","2419285","co37534","norming","","","","","","",""
"null","../img/tt/124tt.jpg","null","mooney2","image-keyboard-response","291","880057","0.0-6.0-5.40","2419285","co37534","norming","","","","","","",""
"3090.1599999997998","","","post_reveal_questions","survey-likert","292","883148","0.0-6.0-6.40","2419285","co37534","norming","","","{""aha"":3}","[0]","../img/tt/124tt.jpg","",""
"null","<div style=""font-size:60px;""> </div>","null","fixation","html-keyboard-response","293","883350","0.0-6.0-0.41","2419285","co37534","norming","","","","","","",""
"null","../img/tt/1040tt.jpg","null","mooney1","image-keyboard-response","294","886352","0.0-6.0-1.41","2419285","co37534","norming","","","","","","",""
"4923.675000001909","","","post_mooney1_questions","survey-likert","295","891277","0.0-6.0-2.41","2419285","co37534","norming","","","{""curiosity"":1,""confidence"":1}","[0,1]","../img/tt/1040tt.jpg","",""
"1941.7649999996647","","","recognition","survey-text","296","893220","0.0-6.0-3.41","2419285","co37534","norming","","","{""guess"":""person""}","","../img/tt/1040tt.jpg","",""
"null","../img/gs/1040gs.jpg","null","reveal","image-keyboard-response","297","895223","0.0-6.0-4.41","2419285","co37534","norming","","","","","","",""
"null","../img/tt/1040tt.jpg","null","mooney2","image-keyboard-response","298","897224","0.0-6.0-5.41","2419285","co37534","norming","","","","","","",""
"3251.640000002226","","","post_reveal_questions","survey-likert","299","900476","0.0-6.0-6.41","2419285","co37534","norming","","","{""aha"":2}","[0]","../img/tt/1040tt.jpg","",""
"null","<div style=""font-size:60px;""> </div>","null","fixation","html-keyboard-response","300","900677","0.0-6.0-0.42","2419285","co37534","norming","","","","","","",""
"null","../img/tt/358tt.jpg","null","mooney1","image-keyboard-response","301","903679","0.0-6.0-1.42","2419285","co37534","norming","","","","","","",""
"5539.160000000265","","","post_mooney1_questions","survey-likert","302","909221","0.0-6.0-2.42","2419285","co37534","norming","","","{""curiosity"":2,""confidence"":1}","[0,1]","../img/tt/358tt.jpg","",""
"2709.8450000012526","","","recognition","survey-text","303","911932","0.0-6.0-3.42","2419285","co37534","norming","","","{""guess"":""dog""}","","../img/tt/358tt.jpg","",""
"null","../img/gs/358gs.jpg","null","reveal","image-keyboard-response","304","913940","0.0-6.0-4.42","2419285","co37534","norming","","","","","","",""
"null","../img/tt/358tt.jpg","null","mooney2","image-keyboard-response","305","915947","0.0-6.0-5.42","2419285","co37534","norming","","","","","","",""
"2724.7100000021746","","","post_reveal_questions","survey-likert","306","918677","0.0-6.0-6.42","2419285","co37534","norming","","","{""aha"":2}","[0]","../img/tt/358tt.jpg","",""
"null","<div style=""font-size:60px;""> </div>","null","fixation","html-keyboard-response","307","918879","0.0-6.0-0.43","2419285","co37534","norming","","","","","","",""
"null","../img/tt/357tt.jpg","null","mooney1","image-keyboard-response","308","921882","0.0-6.0-1.43","2419285","co37534","norming","","","","","","",""
"2568.31500000041","","","post_mooney1_questions","survey-likert","309","924452","0.0-6.0-2.43","2419285","co37534","norming","","","{""curiosity"":1,""confidence"":1}","[0,1]","../img/tt/357tt.jpg","",""
"2606.165000001085","","","recognition","survey-text","310","927060","0.0-6.0-3.43","2419285","co37534","norming","","","{""guess"":""eagle""}","","../img/tt/357tt.jpg","",""
"null","../img/gs/357gs.jpg","null","reveal","image-keyboard-response","311","929069","0.0-6.0-4.43","2419285","co37534","norming","","","","","","",""
"null","../img/tt/357tt.jpg","null","mooney2","image-keyboard-response","312","931077","0.0-6.0-5.43","2419285","co37534","norming","","","","","","",""
"2221.1999999999534","","","post_reveal_questions","survey-likert","313","933300","0.0-6.0-6.43","2419285","co37534","norming","","","{""aha"":1}","[0]","../img/tt/357tt.jpg","",""
"null","<div style=""font-size:60px;""> </div>","null","fixation","html-keyboard-response","314","933501","0.0-6.0-0.44","2419285","co37534","norming","","","","","","",""
"null","../img/tt/412tt.jpg","null","mooney1","image-keyboard-response","315","936507","0.0-6.0-1.44","2419285","co37534","norming","","","","","","",""
"2951.8050000006333","","","post_mooney1_questions","survey-likert","316","939460","0.0-6.0-2.44","2419285","co37534","norming","","","{""curiosity"":0,""confidence"":0}","[0,1]","../img/tt/412tt.jpg","",""
"1389.6000000021886","","","recognition","survey-text","317","940852","0.0-6.0-3.44","2419285","co37534","norming","","","{""guess"":""""}","","../img/tt/412tt.jpg","",""
"null","../img/gs/412gs.jpg","null","reveal","image-keyboard-response","318","942854","0.0-6.0-4.44","2419285","co37534","norming","","","","","","",""
"null","../img/tt/412tt.jpg","null","mooney2","image-keyboard-response","319","944861","0.0-6.0-5.44","2419285","co37534","norming","","","","","","",""
"2924.5350000018952","","","post_reveal_questions","survey-likert","320","947788","0.0-6.0-6.44","2419285","co37534","norming","","","{""aha"":4}","[0]","../img/tt/412tt.jpg","",""
"null","<div style=""font-size:60px;""> </div>","null","fixation","html-keyboard-response","321","947994","0.0-6.0-0.45","2419285","co37534","norming","","","","","","",""
"null","../img/tt/1048tt.jpg","null","mooney1","image-keyboard-response","322","951001","0.0-6.0-1.45","2419285","co37534","norming","","","","","","",""
"6040.049999999581","","","post_mooney1_questions","survey-likert","323","957045","0.0-6.0-2.45","2419285","co37534","norming","","","{""curiosity"":2,""confidence"":0}","[0,1]","../img/tt/1048tt.jpg","",""
"1373.6900000002934","","","recognition","survey-text","324","958420","0.0-6.0-3.45","2419285","co37534","norming","","","{""guess"":""""}","","../img/tt/1048tt.jpg","",""
"null","../img/gs/1048gs.jpg","null","reveal","image-keyboard-response","325","960424","0.0-6.0-4.45","2419285","co37534","norming","","","","","","",""
"null","../img/tt/1048tt.jpg","null","mooney2","image-keyboard-response","326","962428","0.0-6.0-5.45","2419285","co37534","norming","","","","","","",""
"1927.6849999987753","","","post_reveal_questions","survey-likert","327","964357","0.0-6.0-6.45","2419285","co37534","norming","","","{""aha"":3}","[0]","../img/tt/1048tt.jpg","",""
"null","<div style=""font-size:60px;""> </div>","null","fixation","html-keyboard-response","328","964558","0.0-6.0-0.46","2419285","co37534","norming","","","","","","",""
"null","../img/tt/1250tt.jpg","null","mooney1","image-keyboard-response","329","967563","0.0-6.0-1.46","2419285","co37534","norming","","","","","","",""
"3607.7650000007125","","","post_mooney1_questions","survey-likert","330","971173","0.0-6.0-2.46","2419285","co37534","norming","","","{""curiosity"":1,""confidence"":1}","[0,1]","../img/tt/1250tt.jpg","",""
"749.8799999994226","","","recognition","survey-text","331","971925","0.0-6.0-3.46","2419285","co37534","norming","","","{""guess"":""""}","","../img/tt/1250tt.jpg","",""
"null","../img/gs/1250gs.jpg","null","reveal","image-keyboard-response","332","973928","0.0-6.0-4.46","2419285","co37534","norming","","","","","","",""
"null","../img/tt/1250tt.jpg","null","mooney2","image-keyboard-response","333","975930","0.0-6.0-5.46","2419285","co37534","norming","","","","","","",""
"3160.3599999981234","","","post_reveal_questions","survey-likert","334","979093","0.0-6.0-6.46","2419285","co37534","norming","","","{""aha"":5}","[0]","../img/tt/1250tt.jpg","",""
"null","<div style=""font-size:60px;""> </div>","null","fixation","html-keyboard-response","335","979296","0.0-6.0-0.47","2419285","co37534","norming","","","","","","",""
"null","../img/tt/1154tt.jpg","null","mooney1","image-keyboard-response","336","982299","0.0-6.0-1.47","2419285","co37534","norming","","","","","","",""
"3551.8149999988964","","","post_mooney1_questions","survey-likert","337","985853","0.0-6.0-2.47","2419285","co37534","norming","","","{""curiosity"":1,""confidence"":1}","[0,1]","../img/tt/1154tt.jpg","",""
"1989.5849999993807","","","recognition","survey-text","338","987845","0.0-6.0-3.47","2419285","co37534","norming","","","{""guess"":""animal""}","","../img/tt/1154tt.jpg","",""
"null","../img/gs/1154gs.jpg","null","reveal","image-keyboard-response","339","989846","0.0-6.0-4.47","2419285","co37534","norming","","","","","","",""
"null","../img/tt/1154tt.jpg","null","mooney2","image-keyboard-response","340","991849","0.0-6.0-5.47","2419285","co37534","norming","","","","","","",""
"2409.5500000002794","","","post_reveal_questions","survey-likert","341","994261","0.0-6.0-6.47","2419285","co37534","norming","","","{""aha"":4}","[0]","../img/tt/1154tt.jpg","",""
"null","<div style=""font-size:60px;""> </div>","null","fixation","html-keyboard-response","342","994462","0.0-6.0-0.48","2419285","co37534","norming","","","","","","",""
"null","../img/tt/1146tt.jpg","null","mooney1","image-keyboard-response","343","997469","0.0-6.0-1.48","2419285","co37534","norming","","","","","","",""
"13804.830000001006","","","post_mooney1_questions","survey-likert","344","1011277","0.0-6.0-2.48","2419285","co37534","norming","","","{""curiosity"":1,""confidence"":1}","[0,1]","../img/tt/1146tt.jpg","",""
"2118.174999999581","","","recognition","survey-text","345","1013397","0.0-6.0-3.48","2419285","co37534","norming","","","{""guess"":""arrowing""}","","../img/tt/1146tt.jpg","",""
"null","../img/gs/1146gs.jpg","null","reveal","image-keyboard-response","346","1015407","0.0-6.0-4.48","2419285","co37534","norming","","","","","","",""
"null","../img/tt/1146tt.jpg","null","mooney2","image-keyboard-response","347","1017417","0.0-6.0-5.48","2419285","co37534","norming","","","","","","",""
"1985.994999999064","","","post_reveal_questions","survey-likert","348","1019405","0.0-6.0-6.48","2419285","co37534","norming","","","{""aha"":3}","[0]","../img/tt/1146tt.jpg","",""
"null","<div style=""font-size:60px;""> </div>","null","fixation","html-keyboard-response","349","1019609","0.0-6.0-0.49","2419285","co37534","norming","","","","","","",""
"null","../img/tt/094tt.jpg","null","mooney1","image-keyboard-response","350","1022616","0.0-6.0-1.49","2419285","co37534","norming","","","","","","",""
"5921.9899999988265","","","post_mooney1_questions","survey-likert","351","1028541","0.0-6.0-2.49","2419285","co37534","norming","","","{""curiosity"":2,""confidence"":0}","[0,1]","../img/tt/094tt.jpg","",""
"814.1900000009919","","","recognition","survey-text","352","1029357","0.0-6.0-3.49","2419285","co37534","norming","","","{""guess"":""""}","","../img/tt/094tt.jpg","",""
"null","../img/gs/094gs.jpg","null","reveal","image-keyboard-response","353","1031358","0.0-6.0-4.49","2419285","co37534","norming","","","","","","",""
"null","../img/tt/094tt.jpg","null","mooney2","image-keyboard-response","354","1033360","0.0-6.0-5.49","2419285","co37534","norming","","","","","","",""
"1977.8350000014761","","","post_reveal_questions","survey-likert","355","1035341","0.0-6.0-6.49","2419285","co37534","norming","","","{""aha"":2}","[0]","../img/tt/094tt.jpg","",""
"null","<div style=""font-size:60px;""> </div>","null","fixation","html-keyboard-response","356","1035543","0.0-6.0-0.50","2419285","co37534","norming","","","","","","",""
"null","../img/tt/1353tt.jpg","null","mooney1","image-keyboard-response","357","1038553","0.0-6.0-1.50","2419285","co37534","norming","","","","","","",""
"4497.7799999979325","","","post_mooney1_questions","survey-likert","358","1043053","0.0-6.0-2.50","2419285","co37534","norming","","","{""curiosity"":4,""confidence"":0}","[0,1]","../img/tt/1353tt.jpg","",""
"686.034999998752","","","recognition","survey-text","359","1043741","0.0-6.0-3.50","2419285","co37534","norming","","","{""guess"":""""}","","../img/tt/1353tt.jpg","",""
"null","../img/gs/1353gs.jpg","null","reveal","image-keyboard-response","360","1045744","0.0-6.0-4.50","2419285","co37534","norming","","","","","","",""
"null","../img/tt/1353tt.jpg","null","mooney2","image-keyboard-response","361","1047751","0.0-6.0-5.50","2419285","co37534","norming","","","","","","",""
"2347.3149999992456","","","post_reveal_questions","survey-likert","362","1050101","0.0-6.0-6.50","2419285","co37534","norming","","","{""aha"":1}","[0]","../img/tt/1353tt.jpg","",""
"null","<div style=""font-size:60px;""> </div>","null","fixation","html-keyboard-response","363","1050312","0.0-6.0-0.51","2419285","co37534","norming","","","","","","",""
"null","../img/tt/008tt.jpg","null","mooney1","image-keyboard-response","364","1053317","0.0-6.0-1.51","2419285","co37534","norming","","","","","","",""
"4772.735000002198","","","post_mooney1_questions","survey-likert","365","1058093","0.0-6.0-2.51","2419285","co37534","norming","","","{""curiosity"":2,""confidence"":1}","[0,1]","../img/tt/008tt.jpg","",""
"2021.8649999988265","","","recognition","survey-text","366","1060117","0.0-6.0-3.51","2419285","co37534","norming","","","{""guess"":""shooting""}","","../img/tt/008tt.jpg","",""
"null","../img/gs/008gs.jpg","null","reveal","image-keyboard-response","367","1062121","0.0-6.0-4.51","2419285","co37534","norming","","","","","","",""
"null","../img/tt/008tt.jpg","null","mooney2","image-keyboard-response","368","1064130","0.0-6.0-5.51","2419285","co37534","norming","","","","","","",""
"2072.2700000004843","","","post_reveal_questions","survey-likert","369","1066205","0.0-6.0-6.51","2419285","co37534","norming","","","{""aha"":3}","[0]","../img/tt/008tt.jpg","",""
"null","<div style=""font-size:60px;""> </div>","null","fixation","html-keyboard-response","370","1066406","0.0-6.0-0.52","2419285","co37534","norming","","","","","","",""
"null","../img/tt/1037tt.jpg","null","mooney1","image-keyboard-response","371","1069407","0.0-6.0-1.52","2419285","co37534","norming","","","","","","",""
"4802.800000001444","","","post_mooney1_questions","survey-likert","372","1074213","0.0-6.0-2.52","2419285","co37534","norming","","","{""curiosity"":0,""confidence"":0}","[0,1]","../img/tt/1037tt.jpg","",""
"734.0849999999627","","","recognition","survey-text","373","1074949","0.0-6.0-3.52","2419285","co37534","norming","","","{""guess"":""""}","","../img/tt/1037tt.jpg","",""
"null","../img/gs/1037gs.jpg","null","reveal","image-keyboard-response","374","1076958","0.0-6.0-4.52","2419285","co37534","norming","","","","","","",""
"null","../img/tt/1037tt.jpg","null","mooney2","image-keyboard-response","375","1078968","0.0-6.0-5.52","2419285","co37534","norming","","","","","","",""
"3618.7099999987986","","","post_reveal_questions","survey-likert","376","1082589","0.0-6.0-6.52","2419285","co37534","norming","","","{""aha"":3}","[0]","../img/tt/1037tt.jpg","",""
"null","<div style=""font-size:60px;""> </div>","null","fixation","html-keyboard-response","377","1082795","0.0-6.0-0.53","2419285","co37534","norming","","","","","","",""
"null","../img/tt/1116tt.jpg","null","mooney1","image-keyboard-response","378","1085799","0.0-6.0-1.53","2419285","co37534","norming","","","","","","",""
"4147.91999999946","","","post_mooney1_questions","survey-likert","379","1089950","0.0-6.0-2.53","2419285","co37534","norming","","","{""curiosity"":1,""confidence"":0}","[0,1]","../img/tt/1116tt.jpg","",""
"893.994999998482","","","recognition","survey-text","380","1090846","0.0-6.0-3.53","2419285","co37534","norming","","","{""guess"":""""}","","../img/tt/1116tt.jpg","",""
"null","../img/gs/1116gs.jpg","null","reveal","image-keyboard-response","381","1092848","0.0-6.0-4.53","2419285","co37534","norming","","","","","","",""
"null","../img/tt/1116tt.jpg","null","mooney2","image-keyboard-response","382","1094851","0.0-6.0-5.53","2419285","co37534","norming","","","","","","",""
"3488.6899999983143","","","post_reveal_questions","survey-likert","383","1098342","0.0-6.0-6.53","2419285","co37534","norming","","","{""aha"":2}","[0]","../img/tt/1116tt.jpg","",""
"null","<div style=""font-size:60px;""> </div>","null","fixation","html-keyboard-response","384","1098544","0.0-6.0-0.54","2419285","co37534","norming","","","","","","",""
"null","../img/tt/084tt.jpg","null","mooney1","image-keyboard-response","385","1101546","0.0-6.0-1.54","2419285","co37534","norming","","","","","","",""
"4408.699999999953","","","post_mooney1_questions","survey-likert","386","1105958","0.0-6.0-2.54","2419285","co37534","norming","","","{""curiosity"":2,""confidence"":0}","[0,1]","../img/tt/084tt.jpg","",""
"685.975000000326","","","recognition","survey-text","387","1106646","0.0-6.0-3.54","2419285","co37534","norming","","","{""guess"":""""}","","../img/tt/084tt.jpg","",""
"null","../img/gs/084gs.jpg","null","reveal","image-keyboard-response","388","1108656","0.0-6.0-4.54","2419285","co37534","norming","","","","","","",""
"null","../img/tt/084tt.jpg","null","mooney2","image-keyboard-response","389","1110665","0.0-6.0-5.54","2419285","co37534","norming","","","","","","",""
"1970.0799999991432","","","post_reveal_questions","survey-likert","390","1112638","0.0-6.0-6.54","2419285","co37534","norming","","","{""aha"":3}","[0]","../img/tt/084tt.jpg","",""
"null","<div style=""font-size:60px;""> </div>","null","fixation","html-keyboard-response","391","1112839","0.0-6.0-0.55","2419285","co37534","norming","","","","","","",""
"null","../img/tt/307tt.jpg","null","mooney1","image-keyboard-response","392","1115842","0.0-6.0-1.55","2419285","co37534","norming","","","","","","",""
"4825.395000000019","","","post_mooney1_questions","survey-likert","393","1120670","0.0-6.0-2.55","2419285","co37534","norming","","","{""curiosity"":2,""confidence"":1}","[0,1]","../img/tt/307tt.jpg","",""
"1605.8799999991897","","","recognition","survey-text","394","1122278","0.0-6.0-3.55","2419285","co37534","norming","","","{""guess"":""shoes""}","","../img/tt/307tt.jpg","",""
"null","../img/gs/307gs.jpg","null","reveal","image-keyboard-response","395","1124285","0.0-6.0-4.55","2419285","co37534","norming","","","","","","",""
"null","../img/tt/307tt.jpg","null","mooney2","image-keyboard-response","396","1126295","0.0-6.0-5.55","2419285","co37534","norming","","","","","","",""
"2324.0999999979977","","","post_reveal_questions","survey-likert","397","1128622","0.0-6.0-6.55","2419285","co37534","norming","","","{""aha"":3}","[0]","../img/tt/307tt.jpg","",""
"null","<div style=""font-size:60px;""> </div>","null","fixation","html-keyboard-response","398","1128829","0.0-6.0-0.56","2419285","co37534","norming","","","","","","",""
"null","../img/tt/436tt.jpg","null","mooney1","image-keyboard-response","399","1131833","0.0-6.0-1.56","2419285","co37534","norming","","","","","","",""
"4490.079999999609","","","post_mooney1_questions","survey-likert","400","1136326","0.0-6.0-2.56","2419285","co37534","norming","","","{""curiosity"":1,""confidence"":1}","[0,1]","../img/tt/436tt.jpg","",""
"1966.1899999990128","","","recognition","survey-text","401","1138294","0.0-6.0-3.56","2419285","co37534","norming","","","{""guess"":""reptile""}","","../img/tt/436tt.jpg","",""
"null","../img/gs/436gs.jpg","null","reveal","image-keyboard-response","402","1140301","0.0-6.0-4.56","2419285","co37534","norming","","","","","","",""
"null","../img/tt/436tt.jpg","null","mooney2","image-keyboard-response","403","1142307","0.0-6.0-5.56","2419285","co37534","norming","","","","","","",""
"3024.8000000028405","","","post_reveal_questions","survey-likert","404","1145332","0.0-6.0-6.56","2419285","co37534","norming","","","{""aha"":3}","[0]","../img/tt/436tt.jpg","",""
"null","<div style=""font-size:60px;""> </div>","null","fixation","html-keyboard-response","405","1145533","0.0-6.0-0.57","2419285","co37534","norming","","","","","","",""
"null","../img/tt/1190tt.jpg","null","mooney1","image-keyboard-response","406","1148537","0.0-6.0-1.57","2419285","co37534","norming","","","","","","",""
"3704.68999999878","","","post_mooney1_questions","survey-likert","407","1152245","0.0-6.0-2.57","2419285","co37534","norming","","","{""curiosity"":1,""confidence"":0}","[0,1]","../img/tt/1190tt.jpg","",""
"1245.9850000014994","","","recognition","survey-text","408","1153492","0.0-6.0-3.57","2419285","co37534","norming","","","{""guess"":""""}","","../img/tt/1190tt.jpg","",""
"null","../img/gs/1190gs.jpg","null","reveal","image-keyboard-response","409","1155499","0.0-6.0-4.57","2419285","co37534","norming","","","","","","",""
"null","../img/tt/1190tt.jpg","null","mooney2","image-keyboard-response","410","1157501","0.0-6.0-5.57","2419285","co37534","norming","","","","","","",""
"2293.1749999988824","","","post_reveal_questions","survey-likert","411","1159796","0.0-6.0-6.57","2419285","co37534","norming","","","{""aha"":2}","[0]","../img/tt/1190tt.jpg","",""
"null","<div style=""font-size:60px;""> </div>","null","fixation","html-keyboard-response","412","1160002","0.0-6.0-0.58","2419285","co37534","norming","","","","","","",""
"null","../img/tt/481tt.jpg","null","mooney1","image-keyboard-response","413","1163005","0.0-6.0-1.58","2419285","co37534","norming","","","","","","",""
"3916.064999997616","","","post_mooney1_questions","survey-likert","414","1166924","0.0-6.0-2.58","2419285","co37534","norming","","","{""curiosity"":2,""confidence"":0}","[0,1]","../img/tt/481tt.jpg","",""
"678.4050000023562","","","recognition","survey-text","415","1167604","0.0-6.0-3.58","2419285","co37534","norming","","","{""guess"":""""}","","../img/tt/481tt.jpg","",""
"null","../img/gs/481gs.jpg","null","reveal","image-keyboard-response","416","1169615","0.0-6.0-4.58","2419285","co37534","norming","","","","","","",""
"null","../img/tt/481tt.jpg","null","mooney2","image-keyboard-response","417","1171617","0.0-6.0-5.58","2419285","co37534","norming","","","","","","",""
"1728.5149999989662","","","post_reveal_questions","survey-likert","418","1173348","0.0-6.0-6.58","2419285","co37534","norming","","","{""aha"":2}","[0]","../img/tt/481tt.jpg","",""
"null","<div style=""font-size:60px;""> </div>","null","fixation","html-keyboard-response","419","1173556","0.0-6.0-0.59","2419285","co37534","norming","","","","","","",""
"null","../img/tt/477tt.jpg","null","mooney1","image-keyboard-response","420","1176558","0.0-6.0-1.59","2419285","co37534","norming","","","","","","",""
"4026.7300000013784","","","post_mooney1_questions","survey-likert","421","1180588","0.0-6.0-2.59","2419285","co37534","norming","","","{""curiosity"":1,""confidence"":0}","[0,1]","../img/tt/477tt.jpg","",""
"878.1349999988452","","","recognition","survey-text","422","1181468","0.0-6.0-3.59","2419285","co37534","norming","","","{""guess"":""""}","","../img/tt/477tt.jpg","",""
"null","../img/gs/477gs.jpg","null","reveal","image-keyboard-response","423","1183477","0.0-6.0-4.59","2419285","co37534","norming","","","","","","",""
"null","../img/tt/477tt.jpg","null","mooney2","image-keyboard-response","424","1185481","0.0-6.0-5.59","2419285","co37534","norming","","","","","","",""
"1672.0800000003073","","","post_reveal_questions","survey-likert","425","1187156","0.0-6.0-6.59","2419285","co37534","norming","","","{""aha"":1}","[0]","../img/tt/477tt.jpg","",""
"null","<div style=""font-size:60px;""> </div>","null","fixation","html-keyboard-response","426","1187362","0.0-6.0-0.60","2419285","co37534","norming","","","","","","",""
"null","../img/tt/270tt.jpg","null","mooney1","image-keyboard-response","427","1190368","0.0-6.0-1.60","2419285","co37534","norming","","","","","","",""
"4265.049999997951","","","post_mooney1_questions","survey-likert","428","1194637","0.0-6.0-2.60","2419285","co37534","norming","","","{""curiosity"":2,""confidence"":1}","[0,1]","../img/tt/270tt.jpg","",""
"757.9850000003353","","","recognition","survey-text","429","1195396","0.0-6.0-3.60","2419285","co37534","norming","","","{""guess"":""""}","","../img/tt/270tt.jpg","",""
"null","../img/gs/270gs.jpg","null","reveal","image-keyboard-response","430","1197398","0.0-6.0-4.60","2419285","co37534","norming","","","","","","",""
"null","../img/tt/270tt.jpg","null","mooney2","image-keyboard-response","431","1199407","0.0-6.0-5.60","2419285","co37534","norming","","","","","","",""
"2299.105000001844","","","post_reveal_questions","survey-likert","432","1201708","0.0-6.0-6.60","2419285","co37534","norming","","","{""aha"":3}","[0]","../img/tt/270tt.jpg","",""
"null","<div style=""font-size:60px;""> </div>","null","fixation","html-keyboard-response","433","1201916","0.0-6.0-0.61","2419285","co37534","norming","","","","","","",""
"null","../img/tt/112tt.jpg","null","mooney1","image-keyboard-response","434","1204924","0.0-6.0-1.61","2419285","co37534","norming","","","","","","",""
"4778.010000001872","","","post_mooney1_questions","survey-likert","435","1209705","0.0-6.0-2.61","2419285","co37534","norming","","","{""curiosity"":1,""confidence"":1}","[0,1]","../img/tt/112tt.jpg","",""
"5869.94000000041","","","recognition","survey-text","436","1215577","0.0-6.0-3.61","2419285","co37534","norming","","","{""guess"":""pocketknife""}","","../img/tt/112tt.jpg","",""
"null","../img/gs/112gs.jpg","null","reveal","image-keyboard-response","437","1217585","0.0-6.0-4.61","2419285","co37534","norming","","","","","","",""
"null","../img/tt/112tt.jpg","null","mooney2","image-keyboard-response","438","1219595","0.0-6.0-5.61","2419285","co37534","norming","","","","","","",""
"2259.909999997122","","","post_reveal_questions","survey-likert","439","1221857","0.0-6.0-6.61","2419285","co37534","norming","","","{""aha"":3}","[0]","../img/tt/112tt.jpg","",""
"null","<div style=""font-size:60px;""> </div>","null","fixation","html-keyboard-response","440","1222058","0.0-6.0-0.62","2419285","co37534","norming","","","","","","",""
"null","../img/tt/1272tt.jpg","null","mooney1","image-keyboard-response","441","1225060","0.0-6.0-1.62","2419285","co37534","norming","","","","","","",""
"4425.8049999990035","","","post_mooney1_questions","survey-likert","442","1229489","0.0-6.0-2.62","2419285","co37534","norming","","","{""curiosity"":1,""confidence"":1}","[0,1]","../img/tt/1272tt.jpg","",""
"3510.259999999078","","","recognition","survey-text","443","1233001","0.0-6.0-3.62","2419285","co37534","norming","","","{""guess"":""snake""}","","../img/tt/1272tt.jpg","",""
"null","../img/gs/1272gs.jpg","null","reveal","image-keyboard-response","444","1235005","0.0-6.0-4.62","2419285","co37534","norming","","","","","","",""
"null","../img/tt/1272tt.jpg","null","mooney2","image-keyboard-response","445","1237009","0.0-6.0-5.62","2419285","co37534","norming","","","","","","",""
"2373.545000002254","","","post_reveal_questions","survey-likert","446","1239385","0.0-6.0-6.62","2419285","co37534","norming","","","{""aha"":3}","[0]","../img/tt/1272tt.jpg","",""
"null","<div style=""font-size:60px;""> </div>","null","fixation","html-keyboard-response","447","1239588","0.0-6.0-0.63","2419285","co37534","norming","","","","","","",""
"null","../img/tt/1084tt.jpg","null","mooney1","image-keyboard-response","448","1242591","0.0-6.0-1.63","2419285","co37534","norming","","","","","","",""
"3215.1000000012573","","","post_mooney1_questions","survey-likert","449","1245809","0.0-6.0-2.63","2419285","co37534","norming","","","{""curiosity"":1,""confidence"":1}","[0,1]","../img/tt/1084tt.jpg","",""
"1686.4349999995902","","","recognition","survey-text","450","1247497","0.0-6.0-3.63","2419285","co37534","norming","","","{""guess"":""cheese""}","","../img/tt/1084tt.jpg","",""
"null","../img/gs/1084gs.jpg","null","reveal","image-keyboard-response","451","1249508","0.0-6.0-4.63","2419285","co37534","norming","","","","","","",""
"null","../img/tt/1084tt.jpg","null","mooney2","image-keyboard-response","452","1251518","0.0-6.0-5.63","2419285","co37534","norming","","","","","","",""
"2904.2899999984074","","","post_reveal_questions","survey-likert","453","1254425","0.0-6.0-6.63","2419285","co37534","norming","","","{""aha"":2}","[0]","../img/tt/1084tt.jpg","",""
"null","<div style=""font-size:60px;""> </div>","null","fixation","html-keyboard-response","454","1254632","0.0-6.0-0.64","2419285","co37534","norming","","","","","","",""
"null","../img/tt/1130tt.jpg","null","mooney1","image-keyboard-response","455","1257636","0.0-6.0-1.64","2419285","co37534","norming","","","","","","",""
"4105.309999999125","","","post_mooney1_questions","survey-likert","456","1261746","0.0-6.0-2.64","2419285","co37534","norming","","","{""curiosity"":2,""confidence"":3}","[0,1]","../img/tt/1130tt.jpg","",""
"1973.9049999990966","","","recognition","survey-text","457","1263721","0.0-6.0-3.64","2419285","co37534","norming","","","{""guess"":""cycling""}","","../img/tt/1130tt.jpg","",""
"null","../img/gs/1130gs.jpg","null","reveal","image-keyboard-response","458","1265729","0.0-6.0-4.64","2419285","co37534","norming","","","","","","",""
"null","../img/tt/1130tt.jpg","null","mooney2","image-keyboard-response","459","1267730","0.0-6.0-5.64","2419285","co37534","norming","","","","","","",""
"2734.10000000149","","","post_reveal_questions","survey-likert","460","1270467","0.0-6.0-6.64","2419285","co37534","norming","","","{""aha"":3}","[0]","../img/tt/1130tt.jpg","",""
"null","<div style=""font-size:60px;""> </div>","null","fixation","html-keyboard-response","461","1270668","0.0-6.0-0.65","2419285","co37534","norming","","","","","","",""
"null","../img/tt/1268tt.jpg","null","mooney1","image-keyboard-response","462","1273672","0.0-6.0-1.65","2419285","co37534","norming","","","","","","",""
"5143.240000001388","","","post_mooney1_questions","survey-likert","463","1278819","0.0-6.0-2.65","2419285","co37534","norming","","","{""curiosity"":0,""confidence"":0}","[0,1]","../img/tt/1268tt.jpg","",""
"781.9199999975972","","","recognition","survey-text","464","1279602","0.0-6.0-3.65","2419285","co37534","norming","","","{""guess"":""""}","","../img/tt/1268tt.jpg","",""
"null","../img/gs/1268gs.jpg","null","reveal","image-keyboard-response","465","1281603","0.0-6.0-4.65","2419285","co37534","norming","","","","","","",""
"null","../img/tt/1268tt.jpg","null","mooney2","image-keyboard-response","466","1283613","0.0-6.0-5.65","2419285","co37534","norming","","","","","","",""
"2306.7699999990873","","","post_reveal_questions","survey-likert","467","1285922","0.0-6.0-6.65","2419285","co37534","norming","","","{""aha"":1}","[0]","../img/tt/1268tt.jpg","",""
"null","<div style=""font-size:60px;""> </div>","null","fixation","html-keyboard-response","468","1286124","0.0-6.0-0.66","2419285","co37534","norming","","","","","","",""
"null","../img/tt/517tt.jpg","null","mooney1","image-keyboard-response","469","1289128","0.0-6.0-1.66","2419285","co37534","norming","","","","","","",""
"3903.6449999986216","","","post_mooney1_questions","survey-likert","470","1293035","0.0-6.0-2.66","2419285","co37534","norming","","","{""curiosity"":1,""confidence"":1}","[0,1]","../img/tt/517tt.jpg","",""
"1886.6549999983981","","","recognition","survey-text","471","1294923","0.0-6.0-3.66","2419285","co37534","norming","","","{""guess"":""panda""}","","../img/tt/517tt.jpg","",""
"null","../img/gs/517gs.jpg","null","reveal","image-keyboard-response","472","1296932","0.0-6.0-4.66","2419285","co37534","norming","","","","","","",""
"null","../img/tt/517tt.jpg","null","mooney2","image-keyboard-response","473","1298943","0.0-6.0-5.66","2419285","co37534","norming","","","","","","",""
"3304.8400000005495","","","post_reveal_questions","survey-likert","474","1302251","0.0-6.0-6.66","2419285","co37534","norming","","","{""aha"":1}","[0]","../img/tt/517tt.jpg","",""
"null","<div style=""font-size:60px;""> </div>","null","fixation","html-keyboard-response","475","1302452","0.0-6.0-0.67","2419285","co37534","norming","","","","","","",""
"null","../img/tt/1228tt.jpg","null","mooney1","image-keyboard-response","476","1305454","0.0-6.0-1.67","2419285","co37534","norming","","","","","","",""
"4569.164999997243","","","post_mooney1_questions","survey-likert","477","1310027","0.0-6.0-2.67","2419285","co37534","norming","","","{""curiosity"":0,""confidence"":0}","[0,1]","../img/tt/1228tt.jpg","",""
"645.9899999971967","","","recognition","survey-text","478","1310675","0.0-6.0-3.67","2419285","co37534","norming","","","{""guess"":""""}","","../img/tt/1228tt.jpg","",""
"null","../img/gs/1228gs.jpg","null","reveal","image-keyboard-response","479","1312677","0.0-6.0-4.67","2419285","co37534","norming","","","","","","",""
"null","../img/tt/1228tt.jpg","null","mooney2","image-keyboard-response","480","1314689","0.0-6.0-5.67","2419285","co37534","norming","","","","","","",""
"3374.745000001043","","","post_reveal_questions","survey-likert","481","1318067","0.0-6.0-6.67","2419285","co37534","norming","","","{""aha"":1}","[0]","../img/tt/1228tt.jpg","",""
"null","<div style=""font-size:60px;""> </div>","null","fixation","html-keyboard-response","482","1318270","0.0-6.0-0.68","2419285","co37534","norming","","","","","","",""
"null","../img/tt/380tt.jpg","null","mooney1","image-keyboard-response","483","1321282","0.0-6.0-1.68","2419285","co37534","norming","","","","","","",""
"6381.884999998845","","","post_mooney1_questions","survey-likert","484","1327668","0.0-6.0-2.68","2419285","co37534","norming","","","{""curiosity"":0,""confidence"":1}","[0,1]","../img/tt/380tt.jpg","",""
"822.0449999971315","","","recognition","survey-text","485","1328492","0.0-6.0-3.68","2419285","co37534","norming","","","{""guess"":""""}","","../img/tt/380tt.jpg","",""
"null","../img/gs/380gs.jpg","null","reveal","image-keyboard-response","486","1330493","0.0-6.0-4.68","2419285","co37534","norming","","","","","","",""
"null","../img/tt/380tt.jpg","null","mooney2","image-keyboard-response","487","1332497","0.0-6.0-5.68","2419285","co37534","norming","","","","","","",""
"2089.2899999998044","","","post_reveal_questions","survey-likert","488","1334587","0.0-6.0-6.68","2419285","co37534","norming","","","{""aha"":1}","[0]","../img/tt/380tt.jpg","",""
"null","<div style=""font-size:60px;""> </div>","null","fixation","html-keyboard-response","489","1334788","0.0-6.0-0.69","2419285","co37534","norming","","","","","","",""
"null","../img/tt/078tt.jpg","null","mooney1","image-keyboard-response","490","1337793","0.0-6.0-1.69","2419285","co37534","norming","","","","","","",""
"5679.055000000633","","","post_mooney1_questions","survey-likert","491","1343476","0.0-6.0-2.69","2419285","co37534","norming","","","{""curiosity"":2,""confidence"":3}","[0,1]","../img/tt/078tt.jpg","",""
"1622.0199999990873","","","recognition","survey-text","492","1345100","0.0-6.0-3.69","2419285","co37534","norming","","","{""guess"":""grapes""}","","../img/tt/078tt.jpg","",""
"null","../img/gs/078gs.jpg","null","reveal","image-keyboard-response","493","1347107","0.0-6.0-4.69","2419285","co37534","norming","","","","","","",""
"null","../img/tt/078tt.jpg","null","mooney2","image-keyboard-response","494","1349115","0.0-6.0-5.69","2419285","co37534","norming","","","","","","",""
"2941.37499999837","","","post_reveal_questions","survey-likert","495","1352060","0.0-6.0-6.69","2419285","co37534","norming","","","{""aha"":3}","[0]","../img/tt/078tt.jpg","",""
"null","<div style=""font-size:60px;""> </div>","null","fixation","html-keyboard-response","496","1352262","0.0-6.0-0.70","2419285","co37534","norming","","","","","","",""
"null","../img/tt/1156tt.jpg","null","mooney1","image-keyboard-response","497","1355264","0.0-6.0-1.70","2419285","co37534","norming","","","","","","",""
"5336.18000000203","","","post_mooney1_questions","survey-likert","498","1360604","0.0-6.0-2.70","2419285","co37534","norming","","","{""curiosity"":1,""confidence"":0}","[0,1]","../img/tt/1156tt.jpg","",""
"813.6699999994598","","","recognition","survey-text","499","1361419","0.0-6.0-3.70","2419285","co37534","norming","","","{""guess"":""""}","","../img/tt/1156tt.jpg","",""
"null","../img/gs/1156gs.jpg","null","reveal","image-keyboard-response","500","1363422","0.0-6.0-4.70","2419285","co37534","norming","","","","","","",""
"null","../img/tt/1156tt.jpg","null","mooney2","image-keyboard-response","501","1365434","0.0-6.0-5.70","2419285","co37534","norming","","","","","","",""
"2111.1249999995343","","","post_reveal_questions","survey-likert","502","1367548","0.0-6.0-6.70","2419285","co37534","norming","","","{""aha"":2}","[0]","../img/tt/1156tt.jpg","",""
"null","<div style=""font-size:60px;""> </div>","null","fixation","html-keyboard-response","503","1367753","0.0-6.0-0.71","2419285","co37534","norming","","","","","","",""
"null","../img/tt/056tt.jpg","null","mooney1","image-keyboard-response","504","1370765","0.0-6.0-1.71","2419285","co37534","norming","","","","","","",""
"3187.1900000006426","","","post_mooney1_questions","survey-likert","505","1373956","0.0-6.0-2.71","2419285","co37534","norming","","","{""curiosity"":0,""confidence"":0}","[0,1]","../img/tt/056tt.jpg","",""
"597.8350000006612","","","recognition","survey-text","506","1374555","0.0-6.0-3.71","2419285","co37534","norming","","","{""guess"":""""}","","../img/tt/056tt.jpg","",""
"null","../img/gs/056gs.jpg","null","reveal","image-keyboard-response","507","1376563","0.0-6.0-4.71","2419285","co37534","norming","","","","","","",""
"null","../img/tt/056tt.jpg","null","mooney2","image-keyboard-response","508","1378566","0.0-6.0-5.71","2419285","co37534","norming","","","","","","",""
"1779.1399999987334","","","post_reveal_questions","survey-likert","509","1380348","0.0-6.0-6.71","2419285","co37534","norming","","","{""aha"":2}","[0]","../img/tt/056tt.jpg","",""
"null","<div style=""font-size:60px;""> </div>","null","fixation","html-keyboard-response","510","1380549","0.0-6.0-0.72","2419285","co37534","norming","","","","","","",""
"null","../img/tt/1262tt.jpg","null","mooney1","image-keyboard-response","511","1383554","0.0-6.0-1.72","2419285","co37534","norming","","","","","","",""
"3302.5500000002794","","","post_mooney1_questions","survey-likert","512","1386862","0.0-6.0-2.72","2419285","co37534","norming","","","{""curiosity"":2,""confidence"":1}","[0,1]","../img/tt/1262tt.jpg","",""
"1774.085000000894","","","recognition","survey-text","513","1388637","0.0-6.0-3.72","2419285","co37534","norming","","","{""guess"":""parrot""}","","../img/tt/1262tt.jpg","",""
"null","../img/gs/1262gs.jpg","null","reveal","image-keyboard-response","514","1390642","0.0-6.0-4.72","2419285","co37534","norming","","","","","","",""
"null","../img/tt/1262tt.jpg","null","mooney2","image-keyboard-response","515","1392646","0.0-6.0-5.72","2419285","co37534","norming","","","","","","",""
"2301.2100000015926","","","post_reveal_questions","survey-likert","516","1394949","0.0-6.0-6.72","2419285","co37534","norming","","","{""aha"":3}","[0]","../img/tt/1262tt.jpg","",""
"null","<div style=""font-size:60px;""> </div>","null","fixation","html-keyboard-response","517","1395158","0.0-6.0-0.73","2419285","co37534","norming","","","","","","",""
"null","../img/tt/1128tt.jpg","null","mooney1","image-keyboard-response","518","1398162","0.0-6.0-1.73","2419285","co37534","norming","","","","","","",""
"2872.684999998426","","","post_mooney1_questions","survey-likert","519","1401038","0.0-6.0-2.73","2419285","co37534","norming","","","{""curiosity"":1,""confidence"":1}","[0,1]","../img/tt/1128tt.jpg","",""
"1998.1249999981374","","","recognition","survey-text","520","1403038","0.0-6.0-3.73","2419285","co37534","norming","","","{""guess"":""monkeys""}","","../img/tt/1128tt.jpg","",""
"null","../img/gs/1128gs.jpg","null","reveal","image-keyboard-response","521","1405039","0.0-6.0-4.73","2419285","co37534","norming","","","","","","",""
"null","../img/tt/1128tt.jpg","null","mooney2","image-keyboard-response","522","1407041","0.0-6.0-5.73","2419285","co37534","norming","","","","","","",""
"2377.604999997886","","","post_reveal_questions","survey-likert","523","1409422","0.0-6.0-6.73","2419285","co37534","norming","","","{""aha"":3}","[0]","../img/tt/1128tt.jpg","",""
"null","<div style=""font-size:60px;""> </div>","null","fixation","html-keyboard-response","524","1409629","0.0-6.0-0.74","2419285","co37534","norming","","","","","","",""
"null","../img/tt/1123tt.jpg","null","mooney1","image-keyboard-response","525","1412633","0.0-6.0-1.74","2419285","co37534","norming","","","","","","",""
"3562.6050000027753","","","post_mooney1_questions","survey-likert","526","1416198","0.0-6.0-2.74","2419285","co37534","norming","","","{""curiosity"":1,""confidence"":1}","[0,1]","../img/tt/1123tt.jpg","",""
"1830.140000001993","","","recognition","survey-text","527","1418030","0.0-6.0-3.74","2419285","co37534","norming","","","{""guess"":""soccer""}","","../img/tt/1123tt.jpg","",""
"null","../img/gs/1123gs.jpg","null","reveal","image-keyboard-response","528","1420031","0.0-6.0-4.74","2419285","co37534","norming","","","","","","",""
"null","../img/tt/1123tt.jpg","null","mooney2","image-keyboard-response","529","1422039","0.0-6.0-5.74","2419285","co37534","norming","","","","","","",""
"2275.2999999974854","","","post_reveal_questions","survey-likert","530","1424317","0.0-6.0-6.74","2419285","co37534","norming","","","{""aha"":3}","[0]","../img/tt/1123tt.jpg","",""
"null","<div style=""font-size:60px;""> </div>","null","fixation","html-keyboard-response","531","1424519","0.0-6.0-0.75","2419285","co37534","norming","","","","","","",""
"null","../img/tt/010tt.jpg","null","mooney1","image-keyboard-response","532","1427523","0.0-6.0-1.75","2419285","co37534","norming","","","","","","",""
"4054.850000000326","","","post_mooney1_questions","survey-likert","533","1431582","0.0-6.0-2.75","2419285","co37534","norming","","","{""curiosity"":0,""confidence"":0}","[0,1]","../img/tt/010tt.jpg","",""
"485.9700000016019","","","recognition","survey-text","534","1432069","0.0-6.0-3.75","2419285","co37534","norming","","","{""guess"":""""}","","../img/tt/010tt.jpg","",""
"null","../img/gs/010gs.jpg","null","reveal","image-keyboard-response","535","1434073","0.0-6.0-4.75","2419285","co37534","norming","","","","","","",""
"null","../img/tt/010tt.jpg","null","mooney2","image-keyboard-response","536","1436082","0.0-6.0-5.75","2419285","co37534","norming","","","","","","",""
"2080.775000002235","","","post_reveal_questions","survey-likert","537","1438165","0.0-6.0-6.75","2419285","co37534","norming","","","{""aha"":2}","[0]","../img/tt/010tt.jpg","",""
"null","<div style=""font-size:60px;""> </div>","null","fixation","html-keyboard-response","538","1438368","0.0-6.0-0.76","2419285","co37534","norming","","","","","","",""
"null","../img/tt/1236tt.jpg","null","mooney1","image-keyboard-response","539","1441380","0.0-6.0-1.76","2419285","co37534","norming","","","","","","",""
"5336.294999997364","","","post_mooney1_questions","survey-likert","540","1446719","0.0-6.0-2.76","2419285","co37534","norming","","","{""curiosity"":1,""confidence"":0}","[0,1]","../img/tt/1236tt.jpg","",""
"678.025000001071","","","recognition","survey-text","541","1447398","0.0-6.0-3.76","2419285","co37534","norming","","","{""guess"":""""}","","../img/tt/1236tt.jpg","",""
"null","../img/gs/1236gs.jpg","null","reveal","image-keyboard-response","542","1449405","0.0-6.0-4.76","2419285","co37534","norming","","","","","","",""
"null","../img/tt/1236tt.jpg","null","mooney2","image-keyboard-response","543","1451407","0.0-6.0-5.76","2419285","co37534","norming","","","","","","",""
"3373.6600000010803","","","post_reveal_questions","survey-likert","544","1454782","0.0-6.0-6.76","2419285","co37534","norming","","","{""aha"":4}","[0]","../img/tt/1236tt.jpg","",""
"null","<div style=""font-size:60px;""> </div>","null","fixation","html-keyboard-response","545","1454984","0.0-6.0-0.77","2419285","co37534","norming","","","","","","",""
"null","../img/tt/580tt.jpg","null","mooney1","image-keyboard-response","546","1457991","0.0-6.0-1.77","2419285","co37534","norming","","","","","","",""
"3676.664999999106","","","post_mooney1_questions","survey-likert","547","1461671","0.0-6.0-2.77","2419285","co37534","norming","","","{""curiosity"":0,""confidence"":0}","[0,1]","../img/tt/580tt.jpg","",""
"797.6699999999255","","","recognition","survey-text","548","1462470","0.0-6.0-3.77","2419285","co37534","norming","","","{""guess"":""""}","","../img/tt/580tt.jpg","",""
"null","../img/gs/580gs.jpg","null","reveal","image-keyboard-response","549","1464471","0.0-6.0-4.77","2419285","co37534","norming","","","","","","",""
"null","../img/tt/580tt.jpg","null","mooney2","image-keyboard-response","550","1466473","0.0-6.0-5.77","2419285","co37534","norming","","","","","","",""
"3804.8350000027567","","","post_reveal_questions","survey-likert","551","1470278","0.0-6.0-6.77","2419285","co37534","norming","","","{""aha"":3}","[0]","../img/tt/580tt.jpg","",""
"null","<div style=""font-size:60px;""> </div>","null","fixation","html-keyboard-response","552","1470480","0.0-6.0-0.78","2419285","co37534","norming","","","","","","",""
"null","../img/tt/1012tt.jpg","null","mooney1","image-keyboard-response","553","1473482","0.0-6.0-1.78","2419285","co37534","norming","","","","","","",""
