"rt","stimulus","key_press","test_part","trial_type","trial_index","time_elapsed","internal_node_id","totalTime","subject","experiment_name","button_pressed","success","responses","question_order","currentStim","old","correct"
"31843.105000036303","Welcome to the experiment. This is an online experiment so please don't close the tab/window until we say goodbye.  Press any key to begin.","75","instructions","html-keyboard-response","0","31850","0.0-0.0","3533906","co37708","norming","","","","","","",""
"1856.5400000079535","<div style='word-wrap: break-word; width: 900px'><h3>Please consider this information carefully before deciding whether to participate in this research</h3><ul style='text-align: left; font-size: .8em;'><li><b>Purpose of the research</b>: To examine how people process images.</li><li><b>What you will do in this research</b>:  Stimuli (images) will be presented on the computer and you will be asked different questions about them.</li><li><b>Time required</b>: Participation will take between 45 and 60 minutes to complete.</li><li><b>Risks</b>:  There are no anticipated risks associated with participating in this study. The effects of participating should be comparable to those you would experience from viewing a computer monitor for 30 minutes and using a mouse or keyboard.</li><li><b>Benefits</b>:  This study provides no benefits to you individually except for the credit. The study provides important information about the nature of perception and learning.</li><li><b>Confidentiality</b>:  Your participation in this study will remain confidential. No personally identifiable information will be associated with your data. Your de-identified data may be shared with other researchers and used in future projects.</li><li><b>Participation and withdrawal</b>:  Your participation in this study is completely voluntary and you may refuse to participate or you may choose to withdraw at any time without penalty.</li><li><b>How to contact the researchers</b>: If you have questions or concerns about your participation or payment, or want to request a summary of research findings, please contact Sander Van de Cruys (KU Leuven), at sander.vandecruys@kuleuven.be.</li></ul><p>The nature and purpose of this research have been sufficiently explained and I agree to participate in this study.  I understand that I am free to withdraw at any time without incurring any penalty.</p><p>Please consent by clicking the button below to continue. Otherwise, please exit the study at this time.</p></div>","","instructions","html-button-response","1","33709","0.0-1.0","3533906","co37708","norming","0","","","","","",""
"","","","instructions","fullscreen","2","41021","0.0-2.0","3533906","co37708","norming","","true","","","","",""
"30091.81999997236","","","sona","survey-html-form","3","71118","0.0-3.0","3533906","co37708","norming","","","[{""name"":""sonaid"",""value"":""37708""},{""name"":""debrief"",""value"":""yes""},{""name"":""datajoin"",""value"":""yes""}]","","","",""
"34522.225000022445","<div style='word-wrap: break-word; width: 900px'><h3>Instructions</h3><p>This experiment will have 3 parts. In the first part you will see a series of distorted images like the one below on the left. As you can see in the righthand image, the distorted images are derived from actual photographs. In what follows, you will <strong>briefly</strong> be presented with <strong>only</strong> the distorted image.</p> <div style='float: left; margin-right: 20px;'><img src='../img/018tt.jpg' height='250' width='250'></img></div><div style='float: right; margin-left: 20px;'><img src='../img/018gs.jpg' height='250' width='250'></img></div><p>Subsequently you will be asked a few questions about the image: One question on how <strong>curious</strong> you are about the solution and one on how <strong>confident</strong> you are that you know the solution.</p>Next, we ask you to make a guess on what is in the image. Note that it is OK to name just the <strong>basic level category</strong>. For example when you see a parrot in the image, 'parrot' will obviously be a correct answer but also correct is 'bird'. However, 'animal' will <strong>not</strong> be counted as a correct response. For the example above, 'rose' would be correct or 'flower', but not 'plant'. When soccer players are depicted, 'soccer', 'football', 'soccer players' will be correct, but not 'humans', 'outdoors', or 'sports'. You do not need to describe the image in full, just name the main object in it <strong>in one or two words</strong>. All images depict objects from one of the following broad level categories: animals, inanimate objects, plants, sports, vehicles, and food. Recognizing means knowing <strong>more</strong> than these broad labels for a given image. But we always encourage you to <strong>make a guess</strong> if you can. Note that you are allowed to use <strong>Dutch and English</strong> in your answers, whatever comes easiest for you.</p><p>Press any key to continue.</p></div>","75","instructions","html-keyboard-response","4","105642","0.0-4.0","3533906","co37708","norming","","","","","","",""
"17338.17000000272","<div style='word-wrap: break-word; width: 900px'><h3>Instructions</h3> <p>Next, the solution image will be revealed to you and you'll be asked to indicate how strong your <strong>aha-experience</strong> was after seeing the solution. This describes the positive feeling of the 'click' you sometimes experience, when the pieces of the 'puzzle' fall together and you suddenly have 'insight' in the image.</p><img src='aha.jpg' height='188' width='250'></img><p>Note that there are no right or wrong answers. We are interested in what <strong>you</strong> see in the image and how <strong>you</strong> feel about it.</p><p>Press any key to start the experiment.</p></div>","77","instructions","html-keyboard-response","5","122982","0.0-5.0","3533906","co37708","norming","","","","","","",""
"null","<div style=""font-size:60px;""> </div>","null","fixation","html-keyboard-response","6","123184","0.0-6.0-0.0","3533906","co37708","norming","","","","","","",""
"null","../img/tt/032tt.jpg","null","mooney1","image-keyboard-response","7","126190","0.0-6.0-1.0","3533906","co37708","norming","","","","","","",""
"10340.800000005402","","","post_mooney1_questions","survey-likert","8","136535","0.0-6.0-2.0","3533906","co37708","norming","","","{""curiosity"":3,""confidence"":2}","[0,1]","../img/tt/032tt.jpg","",""
"6622.685000009369","","","recognition","survey-text","9","143166","0.0-6.0-3.0","3533906","co37708","norming","","","{""guess"":""cow""}","","../img/tt/032tt.jpg","",""
"null","../img/gs/032gs.jpg","null","reveal","image-keyboard-response","10","145171","0.0-6.0-4.0","3533906","co37708","norming","","","","","","",""
"null","../img/tt/032tt.jpg","null","mooney2","image-keyboard-response","11","147178","0.0-6.0-5.0","3533906","co37708","norming","","","","","","",""
"3624.5299999718554","","","post_reveal_questions","survey-likert","12","150804","0.0-6.0-6.0","3533906","co37708","norming","","","{""aha"":4}","[0]","../img/tt/032tt.jpg","",""
"null","<div style=""font-size:60px;""> </div>","null","fixation","html-keyboard-response","13","151011","0.0-6.0-0.1","3533906","co37708","norming","","","","","","",""
"null","../img/tt/1024tt.jpg","null","mooney1","image-keyboard-response","14","154014","0.0-6.0-1.1","3533906","co37708","norming","","","","","","",""
"17428.625000000466","","","post_mooney1_questions","survey-likert","15","171445","0.0-6.0-2.1","3533906","co37708","norming","","","{""curiosity"":3,""confidence"":0}","[0,1]","../img/tt/1024tt.jpg","",""
"3137.9350000061095","","","recognition","survey-text","16","174588","0.0-6.0-3.1","3533906","co37708","norming","","","{""guess"":""""}","","../img/tt/1024tt.jpg","",""
"null","../img/gs/1024gs.jpg","null","reveal","image-keyboard-response","17","176591","0.0-6.0-4.1","3533906","co37708","norming","","","","","","",""
"null","../img/tt/1024tt.jpg","null","mooney2","image-keyboard-response","18","178595","0.0-6.0-5.1","3533906","co37708","norming","","","","","","",""
"7191.005000029691","","","post_reveal_questions","survey-likert","19","185788","0.0-6.0-6.1","3533906","co37708","norming","","","{""aha"":4}","[0]","../img/tt/1024tt.jpg","",""
"null","<div style=""font-size:60px;""> </div>","null","fixation","html-keyboard-response","20","185993","0.0-6.0-0.2","3533906","co37708","norming","","","","","","",""
"null","../img/tt/515tt.jpg","null","mooney1","image-keyboard-response","21","188999","0.0-6.0-1.2","3533906","co37708","norming","","","","","","",""
"4898.739999975078","","","post_mooney1_questions","survey-likert","22","193900","0.0-6.0-2.2","3533906","co37708","norming","","","{""curiosity"":4,""confidence"":1}","[0,1]","../img/tt/515tt.jpg","",""
"3501.879999996163","","","recognition","survey-text","23","197408","0.0-6.0-3.2","3533906","co37708","norming","","","{""guess"":""flower""}","","../img/tt/515tt.jpg","",""
"null","../img/gs/515gs.jpg","null","reveal","image-keyboard-response","24","199410","0.0-6.0-4.2","3533906","co37708","norming","","","","","","",""
"null","../img/tt/515tt.jpg","null","mooney2","image-keyboard-response","25","201412","0.0-6.0-5.2","3533906","co37708","norming","","","","","","",""
"2766.1300000036135","","","post_reveal_questions","survey-likert","26","204180","0.0-6.0-6.2","3533906","co37708","norming","","","{""aha"":2}","[0]","../img/tt/515tt.jpg","",""
"null","<div style=""font-size:60px;""> </div>","null","fixation","html-keyboard-response","27","204385","0.0-6.0-0.3","3533906","co37708","norming","","","","","","",""
"null","../img/tt/534tt.jpg","null","mooney1","image-keyboard-response","28","207390","0.0-6.0-1.3","3533906","co37708","norming","","","","","","",""
"8380.115000007208","","","post_mooney1_questions","survey-likert","29","215772","0.0-6.0-2.3","3533906","co37708","norming","","","{""curiosity"":6,""confidence"":0}","[0,1]","../img/tt/534tt.jpg","",""
"1929.9100000062026","","","recognition","survey-text","30","217708","0.0-6.0-3.3","3533906","co37708","norming","","","{""guess"":""""}","","../img/tt/534tt.jpg","",""
"null","../img/gs/534gs.jpg","null","reveal","image-keyboard-response","31","219714","0.0-6.0-4.3","3533906","co37708","norming","","","","","","",""
"null","../img/tt/534tt.jpg","null","mooney2","image-keyboard-response","32","221719","0.0-6.0-5.3","3533906","co37708","norming","","","","","","",""
"5235.054999997374","","","post_reveal_questions","survey-likert","33","226956","0.0-6.0-6.3","3533906","co37708","norming","","","{""aha"":3}","[0]","../img/tt/534tt.jpg","",""
"null","<div style=""font-size:60px;""> </div>","null","fixation","html-keyboard-response","34","227163","0.0-6.0-0.4","3533906","co37708","norming","","","","","","",""
"null","../img/tt/590tt.jpg","null","mooney1","image-keyboard-response","35","230181","0.0-6.0-1.4","3533906","co37708","norming","","","","","","",""
"14275.49500000896","","","post_mooney1_questions","survey-likert","36","244460","0.0-6.0-2.4","3533906","co37708","norming","","","{""curiosity"":3,""confidence"":3}","[0,1]","../img/tt/590tt.jpg","",""
"6921.42500000773","","","recognition","survey-text","37","251388","0.0-6.0-3.4","3533906","co37708","norming","","","{""guess"":""student at table""}","","../img/tt/590tt.jpg","",""
"null","../img/gs/590gs.jpg","null","reveal","image-keyboard-response","38","253393","0.0-6.0-4.4","3533906","co37708","norming","","","","","","",""
"null","../img/tt/590tt.jpg","null","mooney2","image-keyboard-response","39","255398","0.0-6.0-5.4","3533906","co37708","norming","","","","","","",""
"26004.429999971762","","","post_reveal_questions","survey-likert","40","281404","0.0-6.0-6.4","3533906","co37708","norming","","","{""aha"":1}","[0]","../img/tt/590tt.jpg","",""
"null","<div style=""font-size:60px;""> </div>","null","fixation","html-keyboard-response","41","281609","0.0-6.0-0.5","3533906","co37708","norming","","","","","","",""
"null","../img/tt/438tt.jpg","null","mooney1","image-keyboard-response","42","284612","0.0-6.0-1.5","3533906","co37708","norming","","","","","","",""
"5568.540000007488","","","post_mooney1_questions","survey-likert","43","290183","0.0-6.0-2.5","3533906","co37708","norming","","","{""curiosity"":3,""confidence"":0}","[0,1]","../img/tt/438tt.jpg","",""
"2685.949999955483","","","recognition","survey-text","44","292877","0.0-6.0-3.5","3533906","co37708","norming","","","{""guess"":""snake""}","","../img/tt/438tt.jpg","",""
"null","../img/gs/438gs.jpg","null","reveal","image-keyboard-response","45","294882","0.0-6.0-4.5","3533906","co37708","norming","","","","","","",""
"null","../img/tt/438tt.jpg","null","mooney2","image-keyboard-response","46","296886","0.0-6.0-5.5","3533906","co37708","norming","","","","","","",""
"4708.760000008624","","","post_reveal_questions","survey-likert","47","301596","0.0-6.0-6.5","3533906","co37708","norming","","","{""aha"":6}","[0]","../img/tt/438tt.jpg","",""
"null","<div style=""font-size:60px;""> </div>","null","fixation","html-keyboard-response","48","301805","0.0-6.0-0.6","3533906","co37708","norming","","","","","","",""
"null","../img/tt/1102tt.jpg","null","mooney1","image-keyboard-response","49","304808","0.0-6.0-1.6","3533906","co37708","norming","","","","","","",""
"5089.9699999718","","","post_mooney1_questions","survey-likert","50","309901","0.0-6.0-2.6","3533906","co37708","norming","","","{""curiosity"":3,""confidence"":0}","[0,1]","../img/tt/1102tt.jpg","",""
"6974.394999968354","","","recognition","survey-text","51","316881","0.0-6.0-3.6","3533906","co37708","norming","","","{""guess"":""bushes and grass""}","","../img/tt/1102tt.jpg","",""
"null","../img/gs/1102gs.jpg","null","reveal","image-keyboard-response","52","318882","0.0-6.0-4.6","3533906","co37708","norming","","","","","","",""
"null","../img/tt/1102tt.jpg","null","mooney2","image-keyboard-response","53","320887","0.0-6.0-5.6","3533906","co37708","norming","","","","","","",""
"2507.205000030808","","","post_reveal_questions","survey-likert","54","323397","0.0-6.0-6.6","3533906","co37708","norming","","","{""aha"":3}","[0]","../img/tt/1102tt.jpg","",""
"null","<div style=""font-size:60px;""> </div>","null","fixation","html-keyboard-response","55","323603","0.0-6.0-0.7","3533906","co37708","norming","","","","","","",""
"null","../img/tt/064tt.jpg","null","mooney1","image-keyboard-response","56","326608","0.0-6.0-1.7","3533906","co37708","norming","","","","","","",""
"5914.084999996703","","","post_mooney1_questions","survey-likert","57","332525","0.0-6.0-2.7","3533906","co37708","norming","","","{""curiosity"":4,""confidence"":2}","[0,1]","../img/tt/064tt.jpg","",""
"4556.884999969043","","","recognition","survey-text","58","337087","0.0-6.0-3.7","3533906","co37708","norming","","","{""guess"":""turtle ""}","","../img/tt/064tt.jpg","",""
"null","../img/gs/064gs.jpg","null","reveal","image-keyboard-response","59","339091","0.0-6.0-4.7","3533906","co37708","norming","","","","","","",""
"null","../img/tt/064tt.jpg","null","mooney2","image-keyboard-response","60","341094","0.0-6.0-5.7","3533906","co37708","norming","","","","","","",""
"2996.7450000112876","","","post_reveal_questions","survey-likert","61","344092","0.0-6.0-6.7","3533906","co37708","norming","","","{""aha"":1}","[0]","../img/tt/064tt.jpg","",""
"null","<div style=""font-size:60px;""> </div>","null","fixation","html-keyboard-response","62","344297","0.0-6.0-0.8","3533906","co37708","norming","","","","","","",""
"null","../img/tt/1123tt.jpg","null","mooney1","image-keyboard-response","63","347300","0.0-6.0-1.8","3533906","co37708","norming","","","","","","",""
"4030.3100000019185","","","post_mooney1_questions","survey-likert","64","351333","0.0-6.0-2.8","3533906","co37708","norming","","","{""curiosity"":3,""confidence"":3}","[0,1]","../img/tt/1123tt.jpg","",""
"6985.820000001695","","","recognition","survey-text","65","358324","0.0-6.0-3.8","3533906","co37708","norming","","","{""guess"":""basketball and plaxer""}","","../img/tt/1123tt.jpg","",""
"null","../img/gs/1123gs.jpg","null","reveal","image-keyboard-response","66","360330","0.0-6.0-4.8","3533906","co37708","norming","","","","","","",""
"null","../img/tt/1123tt.jpg","null","mooney2","image-keyboard-response","67","362333","0.0-6.0-5.8","3533906","co37708","norming","","","","","","",""
"4069.080000044778","","","post_reveal_questions","survey-likert","68","366404","0.0-6.0-6.8","3533906","co37708","norming","","","{""aha"":1}","[0]","../img/tt/1123tt.jpg","",""
"null","<div style=""font-size:60px;""> </div>","null","fixation","html-keyboard-response","69","366613","0.0-6.0-0.9","3533906","co37708","norming","","","","","","",""
"null","../img/tt/055tt.jpg","null","mooney1","image-keyboard-response","70","369616","0.0-6.0-1.9","3533906","co37708","norming","","","","","","",""
"4074.814999999944","","","post_mooney1_questions","survey-likert","71","373694","0.0-6.0-2.9","3533906","co37708","norming","","","{""curiosity"":4,""confidence"":1}","[0,1]","../img/tt/055tt.jpg","",""
"1782.2350000496954","","","recognition","survey-text","72","375483","0.0-6.0-3.9","3533906","co37708","norming","","","{""guess"":""cow""}","","../img/tt/055tt.jpg","",""
"null","../img/gs/055gs.jpg","null","reveal","image-keyboard-response","73","377485","0.0-6.0-4.9","3533906","co37708","norming","","","","","","",""
"null","../img/tt/055tt.jpg","null","mooney2","image-keyboard-response","74","379488","0.0-6.0-5.9","3533906","co37708","norming","","","","","","",""
"3794.62500003865","","","post_reveal_questions","survey-likert","75","383285","0.0-6.0-6.9","3533906","co37708","norming","","","{""aha"":4}","[0]","../img/tt/055tt.jpg","",""
"null","<div style=""font-size:60px;""> </div>","null","fixation","html-keyboard-response","76","383490","0.0-6.0-0.10","3533906","co37708","norming","","","","","","",""
"null","../img/tt/1072tt.jpg","null","mooney1","image-keyboard-response","77","386494","0.0-6.0-1.10","3533906","co37708","norming","","","","","","",""
"3700.460000021849","","","post_mooney1_questions","survey-likert","78","390197","0.0-6.0-2.10","3533906","co37708","norming","","","{""curiosity"":3,""confidence"":3}","[0,1]","../img/tt/1072tt.jpg","",""
"1127.9499999945983","","","recognition","survey-text","79","391334","0.0-6.0-3.10","3533906","co37708","norming","","","{""guess"":""cat""}","","../img/tt/1072tt.jpg","",""
"null","../img/gs/1072gs.jpg","null","reveal","image-keyboard-response","80","393340","0.0-6.0-4.10","3533906","co37708","norming","","","","","","",""
"null","../img/tt/1072tt.jpg","null","mooney2","image-keyboard-response","81","395343","0.0-6.0-5.10","3533906","co37708","norming","","","","","","",""
"4732.079999987036","","","post_reveal_questions","survey-likert","82","400077","0.0-6.0-6.10","3533906","co37708","norming","","","{""aha"":1}","[0]","../img/tt/1072tt.jpg","",""
"null","<div style=""font-size:60px;""> </div>","null","fixation","html-keyboard-response","83","400283","0.0-6.0-0.11","3533906","co37708","norming","","","","","","",""
"null","../img/tt/296tt.jpg","null","mooney1","image-keyboard-response","84","403288","0.0-6.0-1.11","3533906","co37708","norming","","","","","","",""
"4105.775000003632","","","post_mooney1_questions","survey-likert","85","407397","0.0-6.0-2.11","3533906","co37708","norming","","","{""curiosity"":3,""confidence"":1}","[0,1]","../img/tt/296tt.jpg","",""
"5496.824999980163","","","recognition","survey-text","86","412899","0.0-6.0-3.11","3533906","co37708","norming","","","{""guess"":""skateboard""}","","../img/tt/296tt.jpg","",""
"null","../img/gs/296gs.jpg","null","reveal","image-keyboard-response","87","414905","0.0-6.0-4.11","3533906","co37708","norming","","","","","","",""
"null","../img/tt/296tt.jpg","null","mooney2","image-keyboard-response","88","416911","0.0-6.0-5.11","3533906","co37708","norming","","","","","","",""
"5340.084999974351","","","post_reveal_questions","survey-likert","89","422253","0.0-6.0-6.11","3533906","co37708","norming","","","{""aha"":1}","[0]","../img/tt/296tt.jpg","",""
"null","<div style=""font-size:60px;""> </div>","null","fixation","html-keyboard-response","90","422459","0.0-6.0-0.12","3533906","co37708","norming","","","","","","",""
"null","../img/tt/1200tt.jpg","null","mooney1","image-keyboard-response","91","425465","0.0-6.0-1.12","3533906","co37708","norming","","","","","","",""
"5674.644999962766","","","post_mooney1_questions","survey-likert","92","431141","0.0-6.0-2.12","3533906","co37708","norming","","","{""curiosity"":5,""confidence"":0}","[0,1]","../img/tt/1200tt.jpg","",""
"871.515000006184","","","recognition","survey-text","93","432020","0.0-6.0-3.12","3533906","co37708","norming","","","{""guess"":""""}","","../img/tt/1200tt.jpg","",""
"null","../img/gs/1200gs.jpg","null","reveal","image-keyboard-response","94","434022","0.0-6.0-4.12","3533906","co37708","norming","","","","","","",""
"null","../img/tt/1200tt.jpg","null","mooney2","image-keyboard-response","95","436027","0.0-6.0-5.12","3533906","co37708","norming","","","","","","",""
"3535.135000012815","","","post_reveal_questions","survey-likert","96","439564","0.0-6.0-6.12","3533906","co37708","norming","","","{""aha"":3}","[0]","../img/tt/1200tt.jpg","",""
"null","<div style=""font-size:60px;""> </div>","null","fixation","html-keyboard-response","97","439771","0.0-6.0-0.13","3533906","co37708","norming","","","","","","",""
"null","../img/tt/1037tt.jpg","null","mooney1","image-keyboard-response","98","442778","0.0-6.0-1.13","3533906","co37708","norming","","","","","","",""
"5424.394999979995","","","post_mooney1_questions","survey-likert","99","448204","0.0-6.0-2.13","3533906","co37708","norming","","","{""curiosity"":3,""confidence"":1}","[0,1]","../img/tt/1037tt.jpg","",""
"3145.9150000009686","","","recognition","survey-text","100","451356","0.0-6.0-3.13","3533906","co37708","norming","","","{""guess"":""formula 1""}","","../img/tt/1037tt.jpg","",""
"null","../img/gs/1037gs.jpg","null","reveal","image-keyboard-response","101","453357","0.0-6.0-4.13","3533906","co37708","norming","","","","","","",""
"null","../img/tt/1037tt.jpg","null","mooney2","image-keyboard-response","102","455364","0.0-6.0-5.13","3533906","co37708","norming","","","","","","",""
"3390.2949999901466","","","post_reveal_questions","survey-likert","103","458756","0.0-6.0-6.13","3533906","co37708","norming","","","{""aha"":2}","[0]","../img/tt/1037tt.jpg","",""
"null","<div style=""font-size:60px;""> </div>","null","fixation","html-keyboard-response","104","458962","0.0-6.0-0.14","3533906","co37708","norming","","","","","","",""
"null","../img/tt/1048tt.jpg","null","mooney1","image-keyboard-response","105","461970","0.0-6.0-1.14","3533906","co37708","norming","","","","","","",""
"6583.540000021458","","","post_mooney1_questions","survey-likert","106","468556","0.0-6.0-2.14","3533906","co37708","norming","","","{""curiosity"":3,""confidence"":0}","[0,1]","../img/tt/1048tt.jpg","",""
"1738.0699999630451","","","recognition","survey-text","107","470299","0.0-6.0-3.14","3533906","co37708","norming","","","{""guess"":""""}","","../img/tt/1048tt.jpg","",""
"null","../img/gs/1048gs.jpg","null","reveal","image-keyboard-response","108","472301","0.0-6.0-4.14","3533906","co37708","norming","","","","","","",""
"null","../img/tt/1048tt.jpg","null","mooney2","image-keyboard-response","109","474307","0.0-6.0-5.14","3533906","co37708","norming","","","","","","",""
"2543.195000034757","","","post_reveal_questions","survey-likert","110","476852","0.0-6.0-6.14","3533906","co37708","norming","","","{""aha"":5}","[0]","../img/tt/1048tt.jpg","",""
"null","<div style=""font-size:60px;""> </div>","null","fixation","html-keyboard-response","111","477057","0.0-6.0-0.15","3533906","co37708","norming","","","","","","",""
"null","../img/tt/1235tt.jpg","null","mooney1","image-keyboard-response","112","480060","0.0-6.0-1.15","3533906","co37708","norming","","","","","","",""
"7269.770000013523","","","post_mooney1_questions","survey-likert","113","487332","0.0-6.0-2.15","3533906","co37708","norming","","","{""curiosity"":3,""confidence"":1}","[0,1]","../img/tt/1235tt.jpg","",""
"2284.4700000132434","","","recognition","survey-text","114","489622","0.0-6.0-3.15","3533906","co37708","norming","","","{""guess"":""hamster""}","","../img/tt/1235tt.jpg","",""
"null","../img/gs/1235gs.jpg","null","reveal","image-keyboard-response","115","491624","0.0-6.0-4.15","3533906","co37708","norming","","","","","","",""
"null","../img/tt/1235tt.jpg","null","mooney2","image-keyboard-response","116","493627","0.0-6.0-5.15","3533906","co37708","norming","","","","","","",""
"2895.1649999944493","","","post_reveal_questions","survey-likert","117","496524","0.0-6.0-6.15","3533906","co37708","norming","","","{""aha"":1}","[0]","../img/tt/1235tt.jpg","",""
"null","<div style=""font-size:60px;""> </div>","null","fixation","html-keyboard-response","118","496730","0.0-6.0-0.16","3533906","co37708","norming","","","","","","",""
"null","../img/tt/405tt.jpg","null","mooney1","image-keyboard-response","119","499733","0.0-6.0-1.16","3533906","co37708","norming","","","","","","",""
"4828.789999999572","","","post_mooney1_questions","survey-likert","120","504564","0.0-6.0-2.16","3533906","co37708","norming","","","{""curiosity"":5,""confidence"":2}","[0,1]","../img/tt/405tt.jpg","",""
"1641.7249999940395","","","recognition","survey-text","121","506212","0.0-6.0-3.16","3533906","co37708","norming","","","{""guess"":""dog""}","","../img/tt/405tt.jpg","",""
"null","../img/gs/405gs.jpg","null","reveal","image-keyboard-response","122","508214","0.0-6.0-4.16","3533906","co37708","norming","","","","","","",""
"null","../img/tt/405tt.jpg","null","mooney2","image-keyboard-response","123","510220","0.0-6.0-5.16","3533906","co37708","norming","","","","","","",""
"3221.7100000125356","","","post_reveal_questions","survey-likert","124","513444","0.0-6.0-6.16","3533906","co37708","norming","","","{""aha"":4}","[0]","../img/tt/405tt.jpg","",""
"null","<div style=""font-size:60px;""> </div>","null","fixation","html-keyboard-response","125","513651","0.0-6.0-0.17","3533906","co37708","norming","","","","","","",""
"null","../img/tt/1276tt.jpg","null","mooney1","image-keyboard-response","126","516657","0.0-6.0-1.17","3533906","co37708","norming","","","","","","",""
"5400.894999969751","","","post_mooney1_questions","survey-likert","127","522061","0.0-6.0-2.17","3533906","co37708","norming","","","{""curiosity"":4,""confidence"":1}","[0,1]","../img/tt/1276tt.jpg","",""
"2055.770000035409","","","recognition","survey-text","128","524122","0.0-6.0-3.17","3533906","co37708","norming","","","{""guess"":""grass""}","","../img/tt/1276tt.jpg","",""
"null","../img/gs/1276gs.jpg","null","reveal","image-keyboard-response","129","526128","0.0-6.0-4.17","3533906","co37708","norming","","","","","","",""
"null","../img/tt/1276tt.jpg","null","mooney2","image-keyboard-response","130","528131","0.0-6.0-5.17","3533906","co37708","norming","","","","","","",""
"3110.6150000123307","","","post_reveal_questions","survey-likert","131","531244","0.0-6.0-6.17","3533906","co37708","norming","","","{""aha"":4}","[0]","../img/tt/1276tt.jpg","",""
"null","<div style=""font-size:60px;""> </div>","null","fixation","html-keyboard-response","132","531452","0.0-6.0-0.18","3533906","co37708","norming","","","","","","",""
"null","../img/tt/1078tt.jpg","null","mooney1","image-keyboard-response","133","534455","0.0-6.0-1.18","3533906","co37708","norming","","","","","","",""
"5682.420000026468","","","post_mooney1_questions","survey-likert","134","540140","0.0-6.0-2.18","3533906","co37708","norming","","","{""curiosity"":6,""confidence"":3}","[0,1]","../img/tt/1078tt.jpg","",""
"15342.919999966398","","","recognition","survey-text","135","555488","0.0-6.0-3.18","3533906","co37708","norming","","","{""guess"":""café/bar""}","","../img/tt/1078tt.jpg","",""
"null","../img/gs/1078gs.jpg","null","reveal","image-keyboard-response","136","557490","0.0-6.0-4.18","3533906","co37708","norming","","","","","","",""
"null","../img/tt/1078tt.jpg","null","mooney2","image-keyboard-response","137","559496","0.0-6.0-5.18","3533906","co37708","norming","","","","","","",""
"5921.849999984261","","","post_reveal_questions","survey-likert","138","565420","0.0-6.0-6.18","3533906","co37708","norming","","","{""aha"":5}","[0]","../img/tt/1078tt.jpg","",""
"null","<div style=""font-size:60px;""> </div>","null","fixation","html-keyboard-response","139","565625","0.0-6.0-0.19","3533906","co37708","norming","","","","","","",""
"null","../img/tt/1043tt.jpg","null","mooney1","image-keyboard-response","140","568628","0.0-6.0-1.19","3533906","co37708","norming","","","","","","",""
"10213.824999984354","","","post_mooney1_questions","survey-likert","141","578844","0.0-6.0-2.19","3533906","co37708","norming","","","{""curiosity"":3,""confidence"":0}","[0,1]","../img/tt/1043tt.jpg","",""
"1042.4399999901652","","","recognition","survey-text","142","579892","0.0-6.0-3.19","3533906","co37708","norming","","","{""guess"":""""}","","../img/tt/1043tt.jpg","",""
"null","../img/gs/1043gs.jpg","null","reveal","image-keyboard-response","143","581894","0.0-6.0-4.19","3533906","co37708","norming","","","","","","",""
"null","../img/tt/1043tt.jpg","null","mooney2","image-keyboard-response","144","583899","0.0-6.0-5.19","3533906","co37708","norming","","","","","","",""
"4543.064999976195","","","post_reveal_questions","survey-likert","145","588444","0.0-6.0-6.19","3533906","co37708","norming","","","{""aha"":3}","[0]","../img/tt/1043tt.jpg","",""
"null","<div style=""font-size:60px;""> </div>","null","fixation","html-keyboard-response","146","588648","0.0-6.0-0.20","3533906","co37708","norming","","","","","","",""
"null","../img/tt/1242tt.jpg","null","mooney1","image-keyboard-response","147","591654","0.0-6.0-1.20","3533906","co37708","norming","","","","","","",""
"9243.365000002086","","","post_mooney1_questions","survey-likert","148","600900","0.0-6.0-2.20","3533906","co37708","norming","","","{""curiosity"":5,""confidence"":0}","[0,1]","../img/tt/1242tt.jpg","",""
"1234.4299999531358","","","recognition","survey-text","149","602140","0.0-6.0-3.20","3533906","co37708","norming","","","{""guess"":""""}","","../img/tt/1242tt.jpg","",""
"null","../img/gs/1242gs.jpg","null","reveal","image-keyboard-response","150","604145","0.0-6.0-4.20","3533906","co37708","norming","","","","","","",""
"null","../img/tt/1242tt.jpg","null","mooney2","image-keyboard-response","151","606148","0.0-6.0-5.20","3533906","co37708","norming","","","","","","",""
"4453.615000005811","","","post_reveal_questions","survey-likert","152","610604","0.0-6.0-6.20","3533906","co37708","norming","","","{""aha"":4}","[0]","../img/tt/1242tt.jpg","",""
"null","<div style=""font-size:60px;""> </div>","null","fixation","html-keyboard-response","153","610809","0.0-6.0-0.21","3533906","co37708","norming","","","","","","",""
"null","../img/tt/1148tt.jpg","null","mooney1","image-keyboard-response","154","613815","0.0-6.0-1.21","3533906","co37708","norming","","","","","","",""
"4050.9450000245124","","","post_mooney1_questions","survey-likert","155","617869","0.0-6.0-2.21","3533906","co37708","norming","","","{""curiosity"":3,""confidence"":1}","[0,1]","../img/tt/1148tt.jpg","",""
"3052.5500000221655","","","recognition","survey-text","156","620927","0.0-6.0-3.21","3533906","co37708","norming","","","{""guess"":""sitting women""}","","../img/tt/1148tt.jpg","",""
"null","../img/gs/1148gs.jpg","null","reveal","image-keyboard-response","157","622929","0.0-6.0-4.21","3533906","co37708","norming","","","","","","",""
"null","../img/tt/1148tt.jpg","null","mooney2","image-keyboard-response","158","624931","0.0-6.0-5.21","3533906","co37708","norming","","","","","","",""
"3478.739999991376","","","post_reveal_questions","survey-likert","159","628412","0.0-6.0-6.21","3533906","co37708","norming","","","{""aha"":4}","[0]","../img/tt/1148tt.jpg","",""
"null","<div style=""font-size:60px;""> </div>","null","fixation","html-keyboard-response","160","628618","0.0-6.0-0.22","3533906","co37708","norming","","","","","","",""
"null","../img/tt/1122tt.jpg","null","mooney1","image-keyboard-response","161","631620","0.0-6.0-1.22","3533906","co37708","norming","","","","","","",""
"5029.80000001844","","","post_mooney1_questions","survey-likert","162","636652","0.0-6.0-2.22","3533906","co37708","norming","","","{""curiosity"":5,""confidence"":1}","[0,1]","../img/tt/1122tt.jpg","",""
"2970.2050000196323","","","recognition","survey-text","163","639628","0.0-6.0-3.22","3533906","co37708","norming","","","{""guess"":""stage""}","","../img/tt/1122tt.jpg","",""
"null","../img/gs/1122gs.jpg","null","reveal","image-keyboard-response","164","641634","0.0-6.0-4.22","3533906","co37708","norming","","","","","","",""
"null","../img/tt/1122tt.jpg","null","mooney2","image-keyboard-response","165","643638","0.0-6.0-5.22","3533906","co37708","norming","","","","","","",""
"2763.6700000148267","","","post_reveal_questions","survey-likert","166","646404","0.0-6.0-6.22","3533906","co37708","norming","","","{""aha"":4}","[0]","../img/tt/1122tt.jpg","",""
"null","<div style=""font-size:60px;""> </div>","null","fixation","html-keyboard-response","167","646609","0.0-6.0-0.23","3533906","co37708","norming","","","","","","",""
"null","../img/tt/522tt.jpg","null","mooney1","image-keyboard-response","168","649614","0.0-6.0-1.23","3533906","co37708","norming","","","","","","",""
"6011.895000003278","","","post_mooney1_questions","survey-likert","169","655628","0.0-6.0-2.23","3533906","co37708","norming","","","{""curiosity"":5,""confidence"":0}","[0,1]","../img/tt/522tt.jpg","",""
"786.3200000138022","","","recognition","survey-text","170","656420","0.0-6.0-3.23","3533906","co37708","norming","","","{""guess"":""""}","","../img/tt/522tt.jpg","",""
"null","../img/gs/522gs.jpg","null","reveal","image-keyboard-response","171","658422","0.0-6.0-4.23","3533906","co37708","norming","","","","","","",""
"null","../img/tt/522tt.jpg","null","mooney2","image-keyboard-response","172","660425","0.0-6.0-5.23","3533906","co37708","norming","","","","","","",""
"6376.484999957029","","","post_reveal_questions","survey-likert","173","666804","0.0-6.0-6.23","3533906","co37708","norming","","","{""aha"":5}","[0]","../img/tt/522tt.jpg","",""
"null","<div style=""font-size:60px;""> </div>","null","fixation","html-keyboard-response","174","667009","0.0-6.0-0.24","3533906","co37708","norming","","","","","","",""
"null","../img/tt/112tt.jpg","null","mooney1","image-keyboard-response","175","670013","0.0-6.0-1.24","3533906","co37708","norming","","","","","","",""
"8317.219999968074","","","post_mooney1_questions","survey-likert","176","678332","0.0-6.0-2.24","3533906","co37708","norming","","","{""curiosity"":3,""confidence"":1}","[0,1]","../img/tt/112tt.jpg","",""
"5009.779999963939","","","recognition","survey-text","177","683348","0.0-6.0-3.24","3533906","co37708","norming","","","{""guess"":""bottle and glass""}","","../img/tt/112tt.jpg","",""
"null","../img/gs/112gs.jpg","null","reveal","image-keyboard-response","178","685350","0.0-6.0-4.24","3533906","co37708","norming","","","","","","",""
"null","../img/tt/112tt.jpg","null","mooney2","image-keyboard-response","179","687356","0.0-6.0-5.24","3533906","co37708","norming","","","","","","",""
"2333.074999973178","","","post_reveal_questions","survey-likert","180","689692","0.0-6.0-6.24","3533906","co37708","norming","","","{""aha"":4}","[0]","../img/tt/112tt.jpg","",""
"null","<div style=""font-size:60px;""> </div>","null","fixation","html-keyboard-response","181","689897","0.0-6.0-0.25","3533906","co37708","norming","","","","","","",""
"null","../img/tt/1234tt.jpg","null","mooney1","image-keyboard-response","182","692902","0.0-6.0-1.25","3533906","co37708","norming","","","","","","",""
"3468.7750000157394","","","post_mooney1_questions","survey-likert","183","696372","0.0-6.0-2.25","3533906","co37708","norming","","","{""curiosity"":2,""confidence"":1}","[0,1]","../img/tt/1234tt.jpg","",""
"1407.3000000207685","","","recognition","survey-text","184","697785","0.0-6.0-3.25","3533906","co37708","norming","","","{""guess"":""lake""}","","../img/tt/1234tt.jpg","",""
"null","../img/gs/1234gs.jpg","null","reveal","image-keyboard-response","185","699787","0.0-6.0-4.25","3533906","co37708","norming","","","","","","",""
"null","../img/tt/1234tt.jpg","null","mooney2","image-keyboard-response","186","701790","0.0-6.0-5.25","3533906","co37708","norming","","","","","","",""
"3868.064999987837","","","post_reveal_questions","survey-likert","187","705660","0.0-6.0-6.25","3533906","co37708","norming","","","{""aha"":2}","[0]","../img/tt/1234tt.jpg","",""
"null","<div style=""font-size:60px;""> </div>","null","fixation","html-keyboard-response","188","705869","0.0-6.0-0.26","3533906","co37708","norming","","","","","","",""
"null","../img/tt/1006tt.jpg","null","mooney1","image-keyboard-response","189","708874","0.0-6.0-1.26","3533906","co37708","norming","","","","","","",""
"5343.634999997448","","","post_mooney1_questions","survey-likert","190","714220","0.0-6.0-2.26","3533906","co37708","norming","","","{""curiosity"":6,""confidence"":3}","[0,1]","../img/tt/1006tt.jpg","",""
"2287.2150000184774","","","recognition","survey-text","191","716513","0.0-6.0-3.26","3533906","co37708","norming","","","{""guess"":""sheep""}","","../img/tt/1006tt.jpg","",""
"null","../img/gs/1006gs.jpg","null","reveal","image-keyboard-response","192","718518","0.0-6.0-4.26","3533906","co37708","norming","","","","","","",""
"null","../img/tt/1006tt.jpg","null","mooney2","image-keyboard-response","193","720521","0.0-6.0-5.26","3533906","co37708","norming","","","","","","",""
"1984.6499999985099","","","post_reveal_questions","survey-likert","194","722508","0.0-6.0-6.26","3533906","co37708","norming","","","{""aha"":0}","[0]","../img/tt/1006tt.jpg","",""
"null","<div style=""font-size:60px;""> </div>","null","fixation","html-keyboard-response","195","722713","0.0-6.0-0.27","3533906","co37708","norming","","","","","","",""
"null","../img/tt/580tt.jpg","null","mooney1","image-keyboard-response","196","725715","0.0-6.0-1.27","3533906","co37708","norming","","","","","","",""
"6006.814999971539","","","post_mooney1_questions","survey-likert","197","731725","0.0-6.0-2.27","3533906","co37708","norming","","","{""curiosity"":3,""confidence"":2}","[0,1]","../img/tt/580tt.jpg","",""
"2962.294999975711","","","recognition","survey-text","198","734693","0.0-6.0-3.27","3533906","co37708","norming","","","{""guess"":""pigs""}","","../img/tt/580tt.jpg","",""
"null","../img/gs/580gs.jpg","null","reveal","image-keyboard-response","199","736698","0.0-6.0-4.27","3533906","co37708","norming","","","","","","",""
"null","../img/tt/580tt.jpg","null","mooney2","image-keyboard-response","200","738705","0.0-6.0-5.27","3533906","co37708","norming","","","","","","",""
"3289.870000036899","","","post_reveal_questions","survey-likert","201","741997","0.0-6.0-6.27","3533906","co37708","norming","","","{""aha"":4}","[0]","../img/tt/580tt.jpg","",""
"null","<div style=""font-size:60px;""> </div>","null","fixation","html-keyboard-response","202","742202","0.0-6.0-0.28","3533906","co37708","norming","","","","","","",""
"null","../img/tt/1127tt.jpg","null","mooney1","image-keyboard-response","203","745207","0.0-6.0-1.28","3533906","co37708","norming","","","","","","",""
"5882.240000006277","","","post_mooney1_questions","survey-likert","204","751092","0.0-6.0-2.28","3533906","co37708","norming","","","{""curiosity"":6,""confidence"":2}","[0,1]","../img/tt/1127tt.jpg","",""
"3330.584999988787","","","recognition","survey-text","205","754428","0.0-6.0-3.28","3533906","co37708","norming","","","{""guess"":""walking men""}","","../img/tt/1127tt.jpg","",""
"null","../img/gs/1127gs.jpg","null","reveal","image-keyboard-response","206","756434","0.0-6.0-4.28","3533906","co37708","norming","","","","","","",""
"null","../img/tt/1127tt.jpg","null","mooney2","image-keyboard-response","207","758440","0.0-6.0-5.28","3533906","co37708","norming","","","","","","",""
"4921.204999962356","","","post_reveal_questions","survey-likert","208","763364","0.0-6.0-6.28","3533906","co37708","norming","","","{""aha"":2}","[0]","../img/tt/1127tt.jpg","",""
"null","<div style=""font-size:60px;""> </div>","null","fixation","html-keyboard-response","209","763570","0.0-6.0-0.29","3533906","co37708","norming","","","","","","",""
"null","../img/tt/019tt.jpg","null","mooney1","image-keyboard-response","210","766575","0.0-6.0-1.29","3533906","co37708","norming","","","","","","",""
"6515.220000001136","","","post_mooney1_questions","survey-likert","211","773092","0.0-6.0-2.29","3533906","co37708","norming","","","{""curiosity"":5,""confidence"":2}","[0,1]","../img/tt/019tt.jpg","",""
"1802.529999986291","","","recognition","survey-text","212","774901","0.0-6.0-3.29","3533906","co37708","norming","","","{""guess"":""legs""}","","../img/tt/019tt.jpg","",""
"null","../img/gs/019gs.jpg","null","reveal","image-keyboard-response","213","776903","0.0-6.0-4.29","3533906","co37708","norming","","","","","","",""
"null","../img/tt/019tt.jpg","null","mooney2","image-keyboard-response","214","778908","0.0-6.0-5.29","3533906","co37708","norming","","","","","","",""
"3254.735000024084","","","post_reveal_questions","survey-likert","215","782165","0.0-6.0-6.29","3533906","co37708","norming","","","{""aha"":4}","[0]","../img/tt/019tt.jpg","",""
"null","<div style=""font-size:60px;""> </div>","null","fixation","html-keyboard-response","216","782372","0.0-6.0-0.30","3533906","co37708","norming","","","","","","",""
"null","../img/tt/307tt.jpg","null","mooney1","image-keyboard-response","217","785378","0.0-6.0-1.30","3533906","co37708","norming","","","","","","",""
"3311.124999949243","","","post_mooney1_questions","survey-likert","218","788692","0.0-6.0-2.30","3533906","co37708","norming","","","{""curiosity"":5,""confidence"":2}","[0,1]","../img/tt/307tt.jpg","",""
"2557.0600000210106","","","recognition","survey-text","219","791255","0.0-6.0-3.30","3533906","co37708","norming","","","{""guess"":""turtle ""}","","../img/tt/307tt.jpg","",""
"null","../img/gs/307gs.jpg","null","reveal","image-keyboard-response","220","793258","0.0-6.0-4.30","3533906","co37708","norming","","","","","","",""
"null","../img/tt/307tt.jpg","null","mooney2","image-keyboard-response","221","795260","0.0-6.0-5.30","3533906","co37708","norming","","","","","","",""
"3029.7949999803677","","","post_reveal_questions","survey-likert","222","798292","0.0-6.0-6.30","3533906","co37708","norming","","","{""aha"":2}","[0]","../img/tt/307tt.jpg","",""
"null","<div style=""font-size:60px;""> </div>","null","fixation","html-keyboard-response","223","798500","0.0-6.0-0.31","3533906","co37708","norming","","","","","","",""
"null","../img/tt/549tt.jpg","null","mooney1","image-keyboard-response","224","801506","0.0-6.0-1.31","3533906","co37708","norming","","","","","","",""
"3894.674999988638","","","post_mooney1_questions","survey-likert","225","805405","0.0-6.0-2.31","3533906","co37708","norming","","","{""curiosity"":4,""confidence"":1}","[0,1]","../img/tt/549tt.jpg","",""
"5062.5050000380725","","","recognition","survey-text","226","810473","0.0-6.0-3.31","3533906","co37708","norming","","","{""guess"":""baby birds""}","","../img/tt/549tt.jpg","",""
"null","../img/gs/549gs.jpg","null","reveal","image-keyboard-response","227","812475","0.0-6.0-4.31","3533906","co37708","norming","","","","","","",""
"null","../img/tt/549tt.jpg","null","mooney2","image-keyboard-response","228","814478","0.0-6.0-5.31","3533906","co37708","norming","","","","","","",""
"2964.1450000344776","","","post_reveal_questions","survey-likert","229","817444","0.0-6.0-6.31","3533906","co37708","norming","","","{""aha"":5}","[0]","../img/tt/549tt.jpg","",""
"null","<div style=""font-size:60px;""> </div>","null","fixation","html-keyboard-response","230","817649","0.0-6.0-0.32","3533906","co37708","norming","","","","","","",""
"null","../img/tt/1261tt.jpg","null","mooney1","image-keyboard-response","231","820651","0.0-6.0-1.32","3533906","co37708","norming","","","","","","",""
"4830.535000015516","","","post_mooney1_questions","survey-likert","232","825485","0.0-6.0-2.32","3533906","co37708","norming","","","{""curiosity"":4,""confidence"":0}","[0,1]","../img/tt/1261tt.jpg","",""
"1569.9700000113808","","","recognition","survey-text","233","827060","0.0-6.0-3.32","3533906","co37708","norming","","","{""guess"":""""}","","../img/tt/1261tt.jpg","",""
"null","../img/gs/1261gs.jpg","null","reveal","image-keyboard-response","234","829063","0.0-6.0-4.32","3533906","co37708","norming","","","","","","",""
"null","../img/tt/1261tt.jpg","null","mooney2","image-keyboard-response","235","831067","0.0-6.0-5.32","3533906","co37708","norming","","","","","","",""
"3928.1150000169873","","","post_reveal_questions","survey-likert","236","834996","0.0-6.0-6.32","3533906","co37708","norming","","","{""aha"":3}","[0]","../img/tt/1261tt.jpg","",""
"null","<div style=""font-size:60px;""> </div>","null","fixation","html-keyboard-response","237","835202","0.0-6.0-0.33","3533906","co37708","norming","","","","","","",""
"null","../img/tt/1053tt.jpg","null","mooney1","image-keyboard-response","238","838209","0.0-6.0-1.33","3533906","co37708","norming","","","","","","",""
"4993.429999973159","","","post_mooney1_questions","survey-likert","239","843204","0.0-6.0-2.33","3533906","co37708","norming","","","{""curiosity"":5,""confidence"":1}","[0,1]","../img/tt/1053tt.jpg","",""
"2178.2250000396743","","","recognition","survey-text","240","845388","0.0-6.0-3.33","3533906","co37708","norming","","","{""guess"":""beef""}","","../img/tt/1053tt.jpg","",""
"null","../img/gs/1053gs.jpg","null","reveal","image-keyboard-response","241","847392","0.0-6.0-4.33","3533906","co37708","norming","","","","","","",""
"null","../img/tt/1053tt.jpg","null","mooney2","image-keyboard-response","242","849394","0.0-6.0-5.33","3533906","co37708","norming","","","","","","",""
"3631.0649999650195","","","post_reveal_questions","survey-likert","243","853028","0.0-6.0-6.33","3533906","co37708","norming","","","{""aha"":1}","[0]","../img/tt/1053tt.jpg","",""
"null","<div style=""font-size:60px;""> </div>","null","fixation","html-keyboard-response","244","853236","0.0-6.0-0.34","3533906","co37708","norming","","","","","","",""
"null","../img/tt/1278tt.jpg","null","mooney1","image-keyboard-response","245","856240","0.0-6.0-1.34","3533906","co37708","norming","","","","","","",""
"5465.9999999566935","","","post_mooney1_questions","survey-likert","246","861708","0.0-6.0-2.34","3533906","co37708","norming","","","{""curiosity"":2,""confidence"":0}","[0,1]","../img/tt/1278tt.jpg","",""
"4984.905000019353","","","recognition","survey-text","247","866699","0.0-6.0-3.34","3533906","co37708","norming","","","{""guess"":""animal""}","","../img/tt/1278tt.jpg","",""
"null","../img/gs/1278gs.jpg","null","reveal","image-keyboard-response","248","868701","0.0-6.0-4.34","3533906","co37708","norming","","","","","","",""
"null","../img/tt/1278tt.jpg","null","mooney2","image-keyboard-response","249","870704","0.0-6.0-5.34","3533906","co37708","norming","","","","","","",""
"2865.9800000023097","","","post_reveal_questions","survey-likert","250","873572","0.0-6.0-6.34","3533906","co37708","norming","","","{""aha"":4}","[0]","../img/tt/1278tt.jpg","",""
"null","<div style=""font-size:60px;""> </div>","null","fixation","html-keyboard-response","251","873777","0.0-6.0-0.35","3533906","co37708","norming","","","","","","",""
"null","../img/tt/1089tt.jpg","null","mooney1","image-keyboard-response","252","876780","0.0-6.0-1.35","3533906","co37708","norming","","","","","","",""
"4822.07999995444","","","post_mooney1_questions","survey-likert","253","881604","0.0-6.0-2.35","3533906","co37708","norming","","","{""curiosity"":3,""confidence"":1}","[0,1]","../img/tt/1089tt.jpg","",""
"2343.560000008438","","","recognition","survey-text","254","883954","0.0-6.0-3.35","3533906","co37708","norming","","","{""guess"":""car""}","","../img/tt/1089tt.jpg","",""
"null","../img/gs/1089gs.jpg","null","reveal","image-keyboard-response","255","885959","0.0-6.0-4.35","3533906","co37708","norming","","","","","","",""
"null","../img/tt/1089tt.jpg","null","mooney2","image-keyboard-response","256","887961","0.0-6.0-5.35","3533906","co37708","norming","","","","","","",""
"6760.745000035968","","","post_reveal_questions","survey-likert","257","894723","0.0-6.0-6.35","3533906","co37708","norming","","","{""aha"":3}","[0]","../img/tt/1089tt.jpg","",""
"null","<div style=""font-size:60px;""> </div>","null","fixation","html-keyboard-response","258","894928","0.0-6.0-0.36","3533906","co37708","norming","","","","","","",""
"null","../img/tt/081tt.jpg","null","mooney1","image-keyboard-response","259","897935","0.0-6.0-1.36","3533906","co37708","norming","","","","","","",""
"4762.159999983851","","","post_mooney1_questions","survey-likert","260","902700","0.0-6.0-2.36","3533906","co37708","norming","","","{""curiosity"":4,""confidence"":0}","[0,1]","../img/tt/081tt.jpg","",""
"2986.009999993257","","","recognition","survey-text","261","905692","0.0-6.0-3.36","3533906","co37708","norming","","","{""guess"":""""}","","../img/tt/081tt.jpg","",""
"null","../img/gs/081gs.jpg","null","reveal","image-keyboard-response","262","907695","0.0-6.0-4.36","3533906","co37708","norming","","","","","","",""
"null","../img/tt/081tt.jpg","null","mooney2","image-keyboard-response","263","909700","0.0-6.0-5.36","3533906","co37708","norming","","","","","","",""
"2470.1849999837577","","","post_reveal_questions","survey-likert","264","912172","0.0-6.0-6.36","3533906","co37708","norming","","","{""aha"":2}","[0]","../img/tt/081tt.jpg","",""
"null","<div style=""font-size:60px;""> </div>","null","fixation","html-keyboard-response","265","912376","0.0-6.0-0.37","3533906","co37708","norming","","","","","","",""
"null","../img/tt/001tt.jpg","null","mooney1","image-keyboard-response","266","915382","0.0-6.0-1.37","3533906","co37708","norming","","","","","","",""
"4964.380000019446","","","post_mooney1_questions","survey-likert","267","920348","0.0-6.0-2.37","3533906","co37708","norming","","","{""curiosity"":3,""confidence"":1}","[0,1]","../img/tt/001tt.jpg","",""
"1693.3050000225194","","","recognition","survey-text","268","922047","0.0-6.0-3.37","3533906","co37708","norming","","","{""guess"":""cow""}","","../img/tt/001tt.jpg","",""
"null","../img/gs/001gs.jpg","null","reveal","image-keyboard-response","269","924051","0.0-6.0-4.37","3533906","co37708","norming","","","","","","",""
"null","../img/tt/001tt.jpg","null","mooney2","image-keyboard-response","270","926053","0.0-6.0-5.37","3533906","co37708","norming","","","","","","",""
"1892.7099999855272","","","post_reveal_questions","survey-likert","271","927948","0.0-6.0-6.37","3533906","co37708","norming","","","{""aha"":4}","[0]","../img/tt/001tt.jpg","",""
"null","<div style=""font-size:60px;""> </div>","null","fixation","html-keyboard-response","272","928155","0.0-6.0-0.38","3533906","co37708","norming","","","","","","",""
"null","../img/tt/357tt.jpg","null","mooney1","image-keyboard-response","273","931162","0.0-6.0-1.38","3533906","co37708","norming","","","","","","",""
"4846.499999985099","","","post_mooney1_questions","survey-likert","274","936012","0.0-6.0-2.38","3533906","co37708","norming","","","{""curiosity"":4,""confidence"":0}","[0,1]","../img/tt/357tt.jpg","",""
"713.3100000210106","","","recognition","survey-text","275","936731","0.0-6.0-3.38","3533906","co37708","norming","","","{""guess"":""""}","","../img/tt/357tt.jpg","",""
"null","../img/gs/357gs.jpg","null","reveal","image-keyboard-response","276","938733","0.0-6.0-4.38","3533906","co37708","norming","","","","","","",""
"null","../img/tt/357tt.jpg","null","mooney2","image-keyboard-response","277","940738","0.0-6.0-5.38","3533906","co37708","norming","","","","","","",""
"3240.2749999891967","","","post_reveal_questions","survey-likert","278","943980","0.0-6.0-6.38","3533906","co37708","norming","","","{""aha"":3}","[0]","../img/tt/357tt.jpg","",""
"null","<div style=""font-size:60px;""> </div>","null","fixation","html-keyboard-response","279","944185","0.0-6.0-0.39","3533906","co37708","norming","","","","","","",""
"null","../img/tt/1279tt.jpg","null","mooney1","image-keyboard-response","280","947188","0.0-6.0-1.39","3533906","co37708","norming","","","","","","",""
"4429.594999994151","","","post_mooney1_questions","survey-likert","281","951620","0.0-6.0-2.39","3533906","co37708","norming","","","{""curiosity"":4,""confidence"":1}","[0,1]","../img/tt/1279tt.jpg","",""
"2635.7650000136346","","","recognition","survey-text","282","954262","0.0-6.0-3.39","3533906","co37708","norming","","","{""guess"":""goats""}","","../img/tt/1279tt.jpg","",""
"null","../img/gs/1279gs.jpg","null","reveal","image-keyboard-response","283","956267","0.0-6.0-4.39","3533906","co37708","norming","","","","","","",""
"null","../img/tt/1279tt.jpg","null","mooney2","image-keyboard-response","284","958268","0.0-6.0-5.39","3533906","co37708","norming","","","","","","",""
"3037.4900000169873","","","post_reveal_questions","survey-likert","285","961308","0.0-6.0-6.39","3533906","co37708","norming","","","{""aha"":2}","[0]","../img/tt/1279tt.jpg","",""
"null","<div style=""font-size:60px;""> </div>","null","fixation","html-keyboard-response","286","961513","0.0-6.0-0.40","3533906","co37708","norming","","","","","","",""
"null","../img/tt/1290tt.jpg","null","mooney1","image-keyboard-response","287","964516","0.0-6.0-1.40","3533906","co37708","norming","","","","","","",""
"5421.655000012834","","","post_mooney1_questions","survey-likert","288","969940","0.0-6.0-2.40","3533906","co37708","norming","","","{""curiosity"":3,""confidence"":1}","[0,1]","../img/tt/1290tt.jpg","",""
"6761.109999963082","","","recognition","survey-text","289","976707","0.0-6.0-3.40","3533906","co37708","norming","","","{""guess"":""nets hanging""}","","../img/tt/1290tt.jpg","",""
"null","../img/gs/1290gs.jpg","null","reveal","image-keyboard-response","290","978713","0.0-6.0-4.40","3533906","co37708","norming","","","","","","",""
"null","../img/tt/1290tt.jpg","null","mooney2","image-keyboard-response","291","980717","0.0-6.0-5.40","3533906","co37708","norming","","","","","","",""
"18604.374999995343","","","post_reveal_questions","survey-likert","292","999324","0.0-6.0-6.40","3533906","co37708","norming","","","{""aha"":3}","[0]","../img/tt/1290tt.jpg","",""
"null","<div style=""font-size:60px;""> </div>","null","fixation","html-keyboard-response","293","999531","0.0-6.0-0.41","3533906","co37708","norming","","","","","","",""
"null","../img/tt/1217tt.jpg","null","mooney1","image-keyboard-response","294","1002537","0.0-6.0-1.41","3533906","co37708","norming","","","","","","",""
"5534.799999964889","","","post_mooney1_questions","survey-likert","295","1008076","0.0-6.0-2.41","3533906","co37708","norming","","","{""curiosity"":2,""confidence"":1}","[0,1]","../img/tt/1217tt.jpg","",""
"2071.3850000174716","","","recognition","survey-text","296","1010154","0.0-6.0-3.41","3533906","co37708","norming","","","{""guess"":""cow""}","","../img/tt/1217tt.jpg","",""
"null","../img/gs/1217gs.jpg","null","reveal","image-keyboard-response","297","1012156","0.0-6.0-4.41","3533906","co37708","norming","","","","","","",""
"null","../img/tt/1217tt.jpg","null","mooney2","image-keyboard-response","298","1014159","0.0-6.0-5.41","3533906","co37708","norming","","","","","","",""
"2690.394999983255","","","post_reveal_questions","survey-likert","299","1016852","0.0-6.0-6.41","3533906","co37708","norming","","","{""aha"":4}","[0]","../img/tt/1217tt.jpg","",""
"null","<div style=""font-size:60px;""> </div>","null","fixation","html-keyboard-response","300","1017057","0.0-6.0-0.42","3533906","co37708","norming","","","","","","",""
"null","../img/tt/1066tt.jpg","null","mooney1","image-keyboard-response","301","1020061","0.0-6.0-1.42","3533906","co37708","norming","","","","","","",""
"4468.289999989793","","","post_mooney1_questions","survey-likert","302","1024533","0.0-6.0-2.42","3533906","co37708","norming","","","{""curiosity"":5,""confidence"":1}","[0,1]","../img/tt/1066tt.jpg","",""
"9754.765000019688","","","recognition","survey-text","303","1034293","0.0-6.0-3.42","3533906","co37708","norming","","","{""guess"":""room las""}","","../img/tt/1066tt.jpg","",""
"null","../img/gs/1066gs.jpg","null","reveal","image-keyboard-response","304","1036296","0.0-6.0-4.42","3533906","co37708","norming","","","","","","",""
"null","../img/tt/1066tt.jpg","null","mooney2","image-keyboard-response","305","1038300","0.0-6.0-5.42","3533906","co37708","norming","","","","","","",""
"2981.915000011213","","","post_reveal_questions","survey-likert","306","1041284","0.0-6.0-6.42","3533906","co37708","norming","","","{""aha"":3}","[0]","../img/tt/1066tt.jpg","",""
"null","<div style=""font-size:60px;""> </div>","null","fixation","html-keyboard-response","307","1041489","0.0-6.0-0.43","3533906","co37708","norming","","","","","","",""
"null","../img/tt/1061tt.jpg","null","mooney1","image-keyboard-response","308","1044496","0.0-6.0-1.43","3533906","co37708","norming","","","","","","",""
"5057.129999971949","","","post_mooney1_questions","survey-likert","309","1049556","0.0-6.0-2.43","3533906","co37708","norming","","","{""curiosity"":4,""confidence"":1}","[0,1]","../img/tt/1061tt.jpg","",""
"3848.915000038687","","","recognition","survey-text","310","1053410","0.0-6.0-3.43","3533906","co37708","norming","","","{""guess"":""running people""}","","../img/tt/1061tt.jpg","",""
"null","../img/gs/1061gs.jpg","null","reveal","image-keyboard-response","311","1055412","0.0-6.0-4.43","3533906","co37708","norming","","","","","","",""
"null","../img/tt/1061tt.jpg","null","mooney2","image-keyboard-response","312","1057414","0.0-6.0-5.43","3533906","co37708","norming","","","","","","",""
"1916.0099999862723","","","post_reveal_questions","survey-likert","313","1059332","0.0-6.0-6.43","3533906","co37708","norming","","","{""aha"":1}","[0]","../img/tt/1061tt.jpg","",""
"null","<div style=""font-size:60px;""> </div>","null","fixation","html-keyboard-response","314","1059537","0.0-6.0-0.44","3533906","co37708","norming","","","","","","",""
"null","../img/tt/076tt.jpg","null","mooney1","image-keyboard-response","315","1062541","0.0-6.0-1.44","3533906","co37708","norming","","","","","","",""
"3931.914999964647","","","post_mooney1_questions","survey-likert","316","1066476","0.0-6.0-2.44","3533906","co37708","norming","","","{""curiosity"":2,""confidence"":1}","[0,1]","../img/tt/076tt.jpg","",""
"10963.010000006761","","","recognition","survey-text","317","1077445","0.0-6.0-3.44","3533906","co37708","norming","","","{""guess"":""roller plates ""}","","../img/tt/076tt.jpg","",""
"null","../img/gs/076gs.jpg","null","reveal","image-keyboard-response","318","1079448","0.0-6.0-4.44","3533906","co37708","norming","","","","","","",""
"null","../img/tt/076tt.jpg","null","mooney2","image-keyboard-response","319","1081450","0.0-6.0-5.44","3533906","co37708","norming","","","","","","",""
"5415.529999998398","","","post_reveal_questions","survey-likert","320","1086868","0.0-6.0-6.44","3533906","co37708","norming","","","{""aha"":2}","[0]","../img/tt/076tt.jpg","",""
"null","<div style=""font-size:60px;""> </div>","null","fixation","html-keyboard-response","321","1087073","0.0-6.0-0.45","3533906","co37708","norming","","","","","","",""
"null","../img/tt/416tt.jpg","null","mooney1","image-keyboard-response","322","1090077","0.0-6.0-1.45","3533906","co37708","norming","","","","","","",""
"3373.169999977108","","","post_mooney1_questions","survey-likert","323","1093452","0.0-6.0-2.45","3533906","co37708","norming","","","{""curiosity"":0,""confidence"":0}","[0,1]","../img/tt/416tt.jpg","",""
"873.3299999730662","","","recognition","survey-text","324","1094331","0.0-6.0-3.45","3533906","co37708","norming","","","{""guess"":""""}","","../img/tt/416tt.jpg","",""
"null","../img/gs/416gs.jpg","null","reveal","image-keyboard-response","325","1096336","0.0-6.0-4.45","3533906","co37708","norming","","","","","","",""
"null","../img/tt/416tt.jpg","null","mooney2","image-keyboard-response","326","1098339","0.0-6.0-5.45","3533906","co37708","norming","","","","","","",""
"3734.7650000010617","","","post_reveal_questions","survey-likert","327","1102077","0.0-6.0-6.45","3533906","co37708","norming","","","{""aha"":4}","[0]","../img/tt/416tt.jpg","",""
"null","<div style=""font-size:60px;""> </div>","null","fixation","html-keyboard-response","328","1102282","0.0-6.0-0.46","3533906","co37708","norming","","","","","","",""
"null","../img/tt/300tt.jpg","null","mooney1","image-keyboard-response","329","1105286","0.0-6.0-1.46","3533906","co37708","norming","","","","","","",""
"4803.599999984726","","","post_mooney1_questions","survey-likert","330","1110092","0.0-6.0-2.46","3533906","co37708","norming","","","{""curiosity"":3,""confidence"":1}","[0,1]","../img/tt/300tt.jpg","",""
"3797.8949999669567","","","recognition","survey-text","331","1113896","0.0-6.0-3.46","3533906","co37708","norming","","","{""guess"":""person hugging""}","","../img/tt/300tt.jpg","",""
"null","../img/gs/300gs.jpg","null","reveal","image-keyboard-response","332","1115898","0.0-6.0-4.46","3533906","co37708","norming","","","","","","",""
"null","../img/tt/300tt.jpg","null","mooney2","image-keyboard-response","333","1117901","0.0-6.0-5.46","3533906","co37708","norming","","","","","","",""
"1924.7349999495782","","","post_reveal_questions","survey-likert","334","1119828","0.0-6.0-6.46","3533906","co37708","norming","","","{""aha"":2}","[0]","../img/tt/300tt.jpg","",""
"null","<div style=""font-size:60px;""> </div>","null","fixation","html-keyboard-response","335","1120034","0.0-6.0-0.47","3533906","co37708","norming","","","","","","",""
"null","../img/tt/319tt.jpg","null","mooney1","image-keyboard-response","336","1123039","0.0-6.0-1.47","3533906","co37708","norming","","","","","","",""
"3138.405000034254","","","post_mooney1_questions","survey-likert","337","1126180","0.0-6.0-2.47","3533906","co37708","norming","","","{""curiosity"":1,""confidence"":3}","[0,1]","../img/tt/319tt.jpg","",""
"1589.1500000143424","","","recognition","survey-text","338","1127775","0.0-6.0-3.47","3533906","co37708","norming","","","{""guess"":""cow""}","","../img/tt/319tt.jpg","",""
"null","../img/gs/319gs.jpg","null","reveal","image-keyboard-response","339","1129779","0.0-6.0-4.47","3533906","co37708","norming","","","","","","",""
"null","../img/tt/319tt.jpg","null","mooney2","image-keyboard-response","340","1131784","0.0-6.0-5.47","3533906","co37708","norming","","","","","","",""
"3009.365000005346","","","post_reveal_questions","survey-likert","341","1134796","0.0-6.0-6.47","3533906","co37708","norming","","","{""aha"":3}","[0]","../img/tt/319tt.jpg","",""
"null","<div style=""font-size:60px;""> </div>","null","fixation","html-keyboard-response","342","1135001","0.0-6.0-0.48","3533906","co37708","norming","","","","","","",""
"null","../img/tt/063tt.jpg","null","mooney1","image-keyboard-response","343","1138005","0.0-6.0-1.48","3533906","co37708","norming","","","","","","",""
"4131.50499999756","","","post_mooney1_questions","survey-likert","344","1142140","0.0-6.0-2.48","3533906","co37708","norming","","","{""curiosity"":2,""confidence"":1}","[0,1]","../img/tt/063tt.jpg","",""
"2160.870000021532","","","recognition","survey-text","345","1144310","0.0-6.0-3.48","3533906","co37708","norming","","","{""guess"":""books""}","","../img/tt/063tt.jpg","",""
"null","../img/gs/063gs.jpg","null","reveal","image-keyboard-response","346","1146312","0.0-6.0-4.48","3533906","co37708","norming","","","","","","",""
"null","../img/tt/063tt.jpg","null","mooney2","image-keyboard-response","347","1148314","0.0-6.0-5.48","3533906","co37708","norming","","","","","","",""
"1735.5250000255182","","","post_reveal_questions","survey-likert","348","1150052","0.0-6.0-6.48","3533906","co37708","norming","","","{""aha"":2}","[0]","../img/tt/063tt.jpg","",""
"null","<div style=""font-size:60px;""> </div>","null","fixation","html-keyboard-response","349","1150262","0.0-6.0-0.49","3533906","co37708","norming","","","","","","",""
"null","../img/tt/1154tt.jpg","null","mooney1","image-keyboard-response","350","1153267","0.0-6.0-1.49","3533906","co37708","norming","","","","","","",""
"6774.814999953378","","","post_mooney1_questions","survey-likert","351","1160045","0.0-6.0-2.49","3533906","co37708","norming","","","{""curiosity"":3,""confidence"":1}","[0,1]","../img/tt/1154tt.jpg","",""
"40851.19499999564","","","recognition","survey-text","352","1200901","0.0-6.0-3.49","3533906","co37708","norming","","","{""guess"":""merry-go-round""}","","../img/tt/1154tt.jpg","",""
"null","../img/gs/1154gs.jpg","null","reveal","image-keyboard-response","353","1202906","0.0-6.0-4.49","3533906","co37708","norming","","","","","","",""
"null","../img/tt/1154tt.jpg","null","mooney2","image-keyboard-response","354","1204908","0.0-6.0-5.49","3533906","co37708","norming","","","","","","",""
"2782.314999960363","","","post_reveal_questions","survey-likert","355","1207693","0.0-6.0-6.49","3533906","co37708","norming","","","{""aha"":4}","[0]","../img/tt/1154tt.jpg","",""
"null","<div style=""font-size:60px;""> </div>","null","fixation","html-keyboard-response","356","1207897","0.0-6.0-0.50","3533906","co37708","norming","","","","","","",""
"null","../img/tt/049tt.jpg","null","mooney1","image-keyboard-response","357","1210900","0.0-6.0-1.50","3533906","co37708","norming","","","","","","",""
"8422.02499997802","","","post_mooney1_questions","survey-likert","358","1219324","0.0-6.0-2.50","3533906","co37708","norming","","","{""curiosity"":2,""confidence"":1}","[0,1]","../img/tt/049tt.jpg","",""
"2841.8149999924935","","","recognition","survey-text","359","1222172","0.0-6.0-3.50","3533906","co37708","norming","","","{""guess"":""animal""}","","../img/tt/049tt.jpg","",""
"null","../img/gs/049gs.jpg","null","reveal","image-keyboard-response","360","1224174","0.0-6.0-4.50","3533906","co37708","norming","","","","","","",""
"null","../img/tt/049tt.jpg","null","mooney2","image-keyboard-response","361","1226177","0.0-6.0-5.50","3533906","co37708","norming","","","","","","",""
"2176.8300000112504","","","post_reveal_questions","survey-likert","362","1228356","0.0-6.0-6.50","3533906","co37708","norming","","","{""aha"":4}","[0]","../img/tt/049tt.jpg","",""
"null","<div style=""font-size:60px;""> </div>","null","fixation","html-keyboard-response","363","1228562","0.0-6.0-0.51","3533906","co37708","norming","","","","","","",""
"null","../img/tt/1254tt.jpg","null","mooney1","image-keyboard-response","364","1231564","0.0-6.0-1.51","3533906","co37708","norming","","","","","","",""
"7405.624999955762","","","post_mooney1_questions","survey-likert","365","1238972","0.0-6.0-2.51","3533906","co37708","norming","","","{""curiosity"":3,""confidence"":1}","[0,1]","../img/tt/1254tt.jpg","",""
"1073.644999996759","","","recognition","survey-text","366","1240051","0.0-6.0-3.51","3533906","co37708","norming","","","{""guess"":""""}","","../img/tt/1254tt.jpg","",""
"null","../img/gs/1254gs.jpg","null","reveal","image-keyboard-response","367","1242053","0.0-6.0-4.51","3533906","co37708","norming","","","","","","",""
"null","../img/tt/1254tt.jpg","null","mooney2","image-keyboard-response","368","1244059","0.0-6.0-5.51","3533906","co37708","norming","","","","","","",""
"1598.7399999867193","","","post_reveal_questions","survey-likert","369","1245660","0.0-6.0-6.51","3533906","co37708","norming","","","{""aha"":4}","[0]","../img/tt/1254tt.jpg","",""
"null","<div style=""font-size:60px;""> </div>","null","fixation","html-keyboard-response","370","1245865","0.0-6.0-0.52","3533906","co37708","norming","","","","","","",""
"null","../img/tt/412tt.jpg","null","mooney1","image-keyboard-response","371","1248868","0.0-6.0-1.52","3533906","co37708","norming","","","","","","",""
"3974.434999981895","","","post_mooney1_questions","survey-likert","372","1252844","0.0-6.0-2.52","3533906","co37708","norming","","","{""curiosity"":5,""confidence"":2}","[0,1]","../img/tt/412tt.jpg","",""
"1742.865000036545","","","recognition","survey-text","373","1254593","0.0-6.0-3.52","3533906","co37708","norming","","","{""guess"":""bottle""}","","../img/tt/412tt.jpg","",""
"null","../img/gs/412gs.jpg","null","reveal","image-keyboard-response","374","1256596","0.0-6.0-4.52","3533906","co37708","norming","","","","","","",""
"null","../img/tt/412tt.jpg","null","mooney2","image-keyboard-response","375","1258603","0.0-6.0-5.52","3533906","co37708","norming","","","","","","",""
"1823.305000027176","","","post_reveal_questions","survey-likert","376","1260428","0.0-6.0-6.52","3533906","co37708","norming","","","{""aha"":0}","[0]","../img/tt/412tt.jpg","",""
"null","<div style=""font-size:60px;""> </div>","null","fixation","html-keyboard-response","377","1260635","0.0-6.0-0.53","3533906","co37708","norming","","","","","","",""
"null","../img/tt/1146tt.jpg","null","mooney1","image-keyboard-response","378","1263639","0.0-6.0-1.53","3533906","co37708","norming","","","","","","",""
"6067.039999994449","","","post_mooney1_questions","survey-likert","379","1269708","0.0-6.0-2.53","3533906","co37708","norming","","","{""curiosity"":5,""confidence"":2}","[0,1]","../img/tt/1146tt.jpg","",""
"2351.0800000512972","","","recognition","survey-text","380","1272065","0.0-6.0-3.53","3533906","co37708","norming","","","{""guess"":""bow""}","","../img/tt/1146tt.jpg","",""
"null","../img/gs/1146gs.jpg","null","reveal","image-keyboard-response","381","1274067","0.0-6.0-4.53","3533906","co37708","norming","","","","","","",""
"null","../img/tt/1146tt.jpg","null","mooney2","image-keyboard-response","382","1276069","0.0-6.0-5.53","3533906","co37708","norming","","","","","","",""
"2861.4999999990687","","","post_reveal_questions","survey-likert","383","1278932","0.0-6.0-6.53","3533906","co37708","norming","","","{""aha"":0}","[0]","../img/tt/1146tt.jpg","",""
"null","<div style=""font-size:60px;""> </div>","null","fixation","html-keyboard-response","384","1279141","0.0-6.0-0.54","3533906","co37708","norming","","","","","","",""
"null","../img/tt/1270tt.jpg","null","mooney1","image-keyboard-response","385","1282148","0.0-6.0-1.54","3533906","co37708","norming","","","","","","",""
"4325.164999987464","","","post_mooney1_questions","survey-likert","386","1286476","0.0-6.0-2.54","3533906","co37708","norming","","","{""curiosity"":4,""confidence"":0}","[0,1]","../img/tt/1270tt.jpg","",""
"754.0849999641068","","","recognition","survey-text","387","1287236","0.0-6.0-3.54","3533906","co37708","norming","","","{""guess"":""""}","","../img/tt/1270tt.jpg","",""
"null","../img/gs/1270gs.jpg","null","reveal","image-keyboard-response","388","1289241","0.0-6.0-4.54","3533906","co37708","norming","","","","","","",""
"null","../img/tt/1270tt.jpg","null","mooney2","image-keyboard-response","389","1291244","0.0-6.0-5.54","3533906","co37708","norming","","","","","","",""
"1509.3999999808148","","","post_reveal_questions","survey-likert","390","1292756","0.0-6.0-6.54","3533906","co37708","norming","","","{""aha"":5}","[0]","../img/tt/1270tt.jpg","",""
"null","<div style=""font-size:60px;""> </div>","null","fixation","html-keyboard-response","391","1292961","0.0-6.0-0.55","3533906","co37708","norming","","","","","","",""
"null","../img/tt/036tt.jpg","null","mooney1","image-keyboard-response","392","1295965","0.0-6.0-1.55","3533906","co37708","norming","","","","","","",""
"4356.160000024829","","","post_mooney1_questions","survey-likert","393","1300324","0.0-6.0-2.55","3533906","co37708","norming","","","{""curiosity"":3,""confidence"":1}","[0,1]","../img/tt/036tt.jpg","",""
"1800.3000000026077","","","recognition","survey-text","394","1302132","0.0-6.0-3.55","3533906","co37708","norming","","","{""guess"":""plant""}","","../img/tt/036tt.jpg","",""
"null","../img/gs/036gs.jpg","null","reveal","image-keyboard-response","395","1304136","0.0-6.0-4.55","3533906","co37708","norming","","","","","","",""
"null","../img/tt/036tt.jpg","null","mooney2","image-keyboard-response","396","1306140","0.0-6.0-5.55","3533906","co37708","norming","","","","","","",""
"2516.9500000192784","","","post_reveal_questions","survey-likert","397","1308660","0.0-6.0-6.55","3533906","co37708","norming","","","{""aha"":4}","[0]","../img/tt/036tt.jpg","",""
"null","<div style=""font-size:60px;""> </div>","null","fixation","html-keyboard-response","398","1308864","0.0-6.0-0.56","3533906","co37708","norming","","","","","","",""
"null","../img/tt/079tt.jpg","null","mooney1","image-keyboard-response","399","1311872","0.0-6.0-1.56","3533906","co37708","norming","","","","","","",""
"4320.460000017192","","","post_mooney1_questions","survey-likert","400","1316196","0.0-6.0-2.56","3533906","co37708","norming","","","{""curiosity"":3,""confidence"":1}","[0,1]","../img/tt/079tt.jpg","",""
"1642.0749999815598","","","recognition","survey-text","401","1317844","0.0-6.0-3.56","3533906","co37708","norming","","","{""guess"":""bear""}","","../img/tt/079tt.jpg","",""
"null","../img/gs/079gs.jpg","null","reveal","image-keyboard-response","402","1319847","0.0-6.0-4.56","3533906","co37708","norming","","","","","","",""
"null","../img/tt/079tt.jpg","null","mooney2","image-keyboard-response","403","1321850","0.0-6.0-5.56","3533906","co37708","norming","","","","","","",""
"3775.855000014417","","","post_reveal_questions","survey-likert","404","1325628","0.0-6.0-6.56","3533906","co37708","norming","","","{""aha"":2}","[0]","../img/tt/079tt.jpg","",""
"null","<div style=""font-size:60px;""> </div>","null","fixation","html-keyboard-response","405","1325833","0.0-6.0-0.57","3533906","co37708","norming","","","","","","",""
"null","../img/tt/524tt.jpg","null","mooney1","image-keyboard-response","406","1328836","0.0-6.0-1.57","3533906","co37708","norming","","","","","","",""
"8828.46500002779","","","post_mooney1_questions","survey-likert","407","1337668","0.0-6.0-2.57","3533906","co37708","norming","","","{""curiosity"":5,""confidence"":2}","[0,1]","../img/tt/524tt.jpg","",""
"3622.9849999654107","","","recognition","survey-text","408","1341296","0.0-6.0-3.57","3533906","co37708","norming","","","{""guess"":""back elephant""}","","../img/tt/524tt.jpg","",""
"null","../img/gs/524gs.jpg","null","reveal","image-keyboard-response","409","1343298","0.0-6.0-4.57","3533906","co37708","norming","","","","","","",""
"null","../img/tt/524tt.jpg","null","mooney2","image-keyboard-response","410","1345300","0.0-6.0-5.57","3533906","co37708","norming","","","","","","",""
"3758.3449999801815","","","post_reveal_questions","survey-likert","411","1349060","0.0-6.0-6.57","3533906","co37708","norming","","","{""aha"":4}","[0]","../img/tt/524tt.jpg","",""
"null","<div style=""font-size:60px;""> </div>","null","fixation","html-keyboard-response","412","1349270","0.0-6.0-0.58","3533906","co37708","norming","","","","","","",""
"null","../img/tt/124tt.jpg","null","mooney1","image-keyboard-response","413","1352274","0.0-6.0-1.58","3533906","co37708","norming","","","","","","",""
"6951.200000010431","","","post_mooney1_questions","survey-likert","414","1359228","0.0-6.0-2.58","3533906","co37708","norming","","","{""curiosity"":4,""confidence"":1}","[0,1]","../img/tt/124tt.jpg","",""
"2066.1200000322424","","","recognition","survey-text","415","1361300","0.0-6.0-3.58","3533906","co37708","norming","","","{""guess"":""monkey""}","","../img/tt/124tt.jpg","",""
"null","../img/gs/124gs.jpg","null","reveal","image-keyboard-response","416","1363305","0.0-6.0-4.58","3533906","co37708","norming","","","","","","",""
"null","../img/tt/124tt.jpg","null","mooney2","image-keyboard-response","417","1365308","0.0-6.0-5.58","3533906","co37708","norming","","","","","","",""
"3645.535000017844","","","post_reveal_questions","survey-likert","418","1368956","0.0-6.0-6.58","3533906","co37708","norming","","","{""aha"":2}","[0]","../img/tt/124tt.jpg","",""
"null","<div style=""font-size:60px;""> </div>","null","fixation","html-keyboard-response","419","1369163","0.0-6.0-0.59","3533906","co37708","norming","","","","","","",""
"null","../img/tt/1130tt.jpg","null","mooney1","image-keyboard-response","420","1372168","0.0-6.0-1.59","3533906","co37708","norming","","","","","","",""
"3465.0450000190176","","","post_mooney1_questions","survey-likert","421","1375636","0.0-6.0-2.59","3533906","co37708","norming","","","{""curiosity"":4,""confidence"":2}","[0,1]","../img/tt/1130tt.jpg","",""
"4998.554999998305","","","recognition","survey-text","422","1380639","0.0-6.0-3.59","3533906","co37708","norming","","","{""guess"":""tennis player""}","","../img/tt/1130tt.jpg","",""
"null","../img/gs/1130gs.jpg","null","reveal","image-keyboard-response","423","1382642","0.0-6.0-4.59","3533906","co37708","norming","","","","","","",""
"null","../img/tt/1130tt.jpg","null","mooney2","image-keyboard-response","424","1384645","0.0-6.0-5.59","3533906","co37708","norming","","","","","","",""
"3404.7800000407733","","","post_reveal_questions","survey-likert","425","1388051","0.0-6.0-6.59","3533906","co37708","norming","","","{""aha"":3}","[0]","../img/tt/1130tt.jpg","",""
"null","<div style=""font-size:60px;""> </div>","null","fixation","html-keyboard-response","426","1388256","0.0-6.0-0.60","3533906","co37708","norming","","","","","","",""
"null","../img/tt/1191tt.jpg","null","mooney1","image-keyboard-response","427","1391259","0.0-6.0-1.60","3533906","co37708","norming","","","","","","",""
"5693.700000003446","","","post_mooney1_questions","survey-likert","428","1396956","0.0-6.0-2.60","3533906","co37708","norming","","","{""curiosity"":4,""confidence"":1}","[0,1]","../img/tt/1191tt.jpg","",""
"6397.065000026487","","","recognition","survey-text","429","1403359","0.0-6.0-3.60","3533906","co37708","norming","","","{""guess"":""people sports""}","","../img/tt/1191tt.jpg","",""
"null","../img/gs/1191gs.jpg","null","reveal","image-keyboard-response","430","1405363","0.0-6.0-4.60","3533906","co37708","norming","","","","","","",""
"null","../img/tt/1191tt.jpg","null","mooney2","image-keyboard-response","431","1407366","0.0-6.0-5.60","3533906","co37708","norming","","","","","","",""
"2075.0450000050478","","","post_reveal_questions","survey-likert","432","1409443","0.0-6.0-6.60","3533906","co37708","norming","","","{""aha"":2}","[0]","../img/tt/1191tt.jpg","",""
"null","<div style=""font-size:60px;""> </div>","null","fixation","html-keyboard-response","433","1409649","0.0-6.0-0.61","3533906","co37708","norming","","","","","","",""
"null","../img/tt/078tt.jpg","null","mooney1","image-keyboard-response","434","1412654","0.0-6.0-1.61","3533906","co37708","norming","","","","","","",""
"5243.055000028107","","","post_mooney1_questions","survey-likert","435","1417900","0.0-6.0-2.61","3533906","co37708","norming","","","{""curiosity"":3,""confidence"":0}","[0,1]","../img/tt/078tt.jpg","",""
"785.7099999673665","","","recognition","survey-text","436","1418691","0.0-6.0-3.61","3533906","co37708","norming","","","{""guess"":""""}","","../img/tt/078tt.jpg","",""
"null","../img/gs/078gs.jpg","null","reveal","image-keyboard-response","437","1420694","0.0-6.0-4.61","3533906","co37708","norming","","","","","","",""
"null","../img/tt/078tt.jpg","null","mooney2","image-keyboard-response","438","1422701","0.0-6.0-5.61","3533906","co37708","norming","","","","","","",""
"3995.565000048373","","","post_reveal_questions","survey-likert","439","1426700","0.0-6.0-6.61","3533906","co37708","norming","","","{""aha"":4}","[0]","../img/tt/078tt.jpg","",""
"null","<div style=""font-size:60px;""> </div>","null","fixation","html-keyboard-response","440","1426905","0.0-6.0-0.62","3533906","co37708","norming","","","","","","",""
"null","../img/tt/1362tt.jpg","null","mooney1","image-keyboard-response","441","1429908","0.0-6.0-1.62","3533906","co37708","norming","","","","","","",""
"10885.659999970812","","","post_mooney1_questions","survey-likert","442","1440797","0.0-6.0-2.62","3533906","co37708","norming","","","{""curiosity"":5,""confidence"":2}","[0,1]","../img/tt/1362tt.jpg","",""
"3886.5099999820814","","","recognition","survey-text","443","1444689","0.0-6.0-3.62","3533906","co37708","norming","","","{""guess"":""pot and pan""}","","../img/tt/1362tt.jpg","",""
"null","../img/gs/1362gs.jpg","null","reveal","image-keyboard-response","444","1446691","0.0-6.0-4.62","3533906","co37708","norming","","","","","","",""
"null","../img/tt/1362tt.jpg","null","mooney2","image-keyboard-response","445","1448694","0.0-6.0-5.62","3533906","co37708","norming","","","","","","",""
"3220.01500002807","","","post_reveal_questions","survey-likert","446","1451916","0.0-6.0-6.62","3533906","co37708","norming","","","{""aha"":0}","[0]","../img/tt/1362tt.jpg","",""
"null","<div style=""font-size:60px;""> </div>","null","fixation","html-keyboard-response","447","1452124","0.0-6.0-0.63","3533906","co37708","norming","","","","","","",""
"null","../img/tt/1004tt.jpg","null","mooney1","image-keyboard-response","448","1455132","0.0-6.0-1.63","3533906","co37708","norming","","","","","","",""
"4004.629999981262","","","post_mooney1_questions","survey-likert","449","1459140","0.0-6.0-2.63","3533906","co37708","norming","","","{""curiosity"":4,""confidence"":0}","[0,1]","../img/tt/1004tt.jpg","",""
"706.5549999824725","","","recognition","survey-text","450","1459852","0.0-6.0-3.63","3533906","co37708","norming","","","{""guess"":""""}","","../img/tt/1004tt.jpg","",""
"null","../img/gs/1004gs.jpg","null","reveal","image-keyboard-response","451","1461855","0.0-6.0-4.63","3533906","co37708","norming","","","","","","",""
"null","../img/tt/1004tt.jpg","null","mooney2","image-keyboard-response","452","1463857","0.0-6.0-5.63","3533906","co37708","norming","","","","","","",""
"1896.4250000426546","","","post_reveal_questions","survey-likert","453","1465756","0.0-6.0-6.63","3533906","co37708","norming","","","{""aha"":2}","[0]","../img/tt/1004tt.jpg","",""
"null","<div style=""font-size:60px;""> </div>","null","fixation","html-keyboard-response","454","1465962","0.0-6.0-0.64","3533906","co37708","norming","","","","","","",""
"null","../img/tt/1107tt.jpg","null","mooney1","image-keyboard-response","455","1468965","0.0-6.0-1.64","3533906","co37708","norming","","","","","","",""
"3188.270000042394","","","post_mooney1_questions","survey-likert","456","1472156","0.0-6.0-2.64","3533906","co37708","norming","","","{""curiosity"":3,""confidence"":0}","[0,1]","../img/tt/1107tt.jpg","",""
"938.1300000241026","","","recognition","survey-text","457","1473100","0.0-6.0-3.64","3533906","co37708","norming","","","{""guess"":""""}","","../img/tt/1107tt.jpg","",""
"null","../img/gs/1107gs.jpg","null","reveal","image-keyboard-response","458","1475101","0.0-6.0-4.64","3533906","co37708","norming","","","","","","",""
"null","../img/tt/1107tt.jpg","null","mooney2","image-keyboard-response","459","1477106","0.0-6.0-5.64","3533906","co37708","norming","","","","","","",""
"2152.5499999988824","","","post_reveal_questions","survey-likert","460","1479260","0.0-6.0-6.64","3533906","co37708","norming","","","{""aha"":1}","[0]","../img/tt/1107tt.jpg","",""
"null","<div style=""font-size:60px;""> </div>","null","fixation","html-keyboard-response","461","1479465","0.0-6.0-0.65","3533906","co37708","norming","","","","","","",""
"null","../img/tt/044tt.jpg","null","mooney1","image-keyboard-response","462","1482468","0.0-6.0-1.65","3533906","co37708","norming","","","","","","",""
"4541.0050000064075","","","post_mooney1_questions","survey-likert","463","1487012","0.0-6.0-2.65","3533906","co37708","norming","","","{""curiosity"":5,""confidence"":1}","[0,1]","../img/tt/044tt.jpg","",""
"12570.490000012796","","","recognition","survey-text","464","1499589","0.0-6.0-3.65","3533906","co37708","norming","","","{""guess"":""desk, computer""}","","../img/tt/044tt.jpg","",""
"null","../img/gs/044gs.jpg","null","reveal","image-keyboard-response","465","1501591","0.0-6.0-4.65","3533906","co37708","norming","","","","","","",""
"null","../img/tt/044tt.jpg","null","mooney2","image-keyboard-response","466","1503595","0.0-6.0-5.65","3533906","co37708","norming","","","","","","",""
"2670.2299999888055","","","post_reveal_questions","survey-likert","467","1506268","0.0-6.0-6.65","3533906","co37708","norming","","","{""aha"":4}","[0]","../img/tt/044tt.jpg","",""
"null","<div style=""font-size:60px;""> </div>","null","fixation","html-keyboard-response","468","1506477","0.0-6.0-0.66","3533906","co37708","norming","","","","","","",""
"null","../img/tt/497tt.jpg","null","mooney1","image-keyboard-response","469","1509480","0.0-6.0-1.66","3533906","co37708","norming","","","","","","",""
"5050.025000004098","","","post_mooney1_questions","survey-likert","470","1514532","0.0-6.0-2.66","3533906","co37708","norming","","","{""curiosity"":3,""confidence"":1}","[0,1]","../img/tt/497tt.jpg","",""
"1730.2650000201538","","","recognition","survey-text","471","1516269","0.0-6.0-3.66","3533906","co37708","norming","","","{""guess"":""fruit""}","","../img/tt/497tt.jpg","",""
"null","../img/gs/497gs.jpg","null","reveal","image-keyboard-response","472","1518272","0.0-6.0-4.66","3533906","co37708","norming","","","","","","",""
"null","../img/tt/497tt.jpg","null","mooney2","image-keyboard-response","473","1520277","0.0-6.0-5.66","3533906","co37708","norming","","","","","","",""
"2572.9400000418536","","","post_reveal_questions","survey-likert","474","1522852","0.0-6.0-6.66","3533906","co37708","norming","","","{""aha"":4}","[0]","../img/tt/497tt.jpg","",""
"null","<div style=""font-size:60px;""> </div>","null","fixation","html-keyboard-response","475","1523060","0.0-6.0-0.67","3533906","co37708","norming","","","","","","",""
"null","../img/tt/080tt.jpg","null","mooney1","image-keyboard-response","476","1526064","0.0-6.0-1.67","3533906","co37708","norming","","","","","","",""
"5294.639999978244","","","post_mooney1_questions","survey-likert","477","1531364","0.0-6.0-2.67","3533906","co37708","norming","","","{""curiosity"":4,""confidence"":1}","[0,1]","../img/tt/080tt.jpg","",""
"2692.4049999797717","","","recognition","survey-text","478","1534063","0.0-6.0-3.67","3533906","co37708","norming","","","{""guess"":""big lamp""}","","../img/tt/080tt.jpg","",""
"null","../img/gs/080gs.jpg","null","reveal","image-keyboard-response","479","1536065","0.0-6.0-4.67","3533906","co37708","norming","","","","","","",""
"null","../img/tt/080tt.jpg","null","mooney2","image-keyboard-response","480","1538074","0.0-6.0-5.67","3533906","co37708","norming","","","","","","",""
"2870.374999998603","","","post_reveal_questions","survey-likert","481","1540948","0.0-6.0-6.67","3533906","co37708","norming","","","{""aha"":4}","[0]","../img/tt/080tt.jpg","",""
"null","<div style=""font-size:60px;""> </div>","null","fixation","html-keyboard-response","482","1541154","0.0-6.0-0.68","3533906","co37708","norming","","","","","","",""
"null","../img/tt/1199tt.jpg","null","mooney1","image-keyboard-response","483","1544159","0.0-6.0-1.68","3533906","co37708","norming","","","","","","",""
"5593.990000023041","","","post_mooney1_questions","survey-likert","484","1549757","0.0-6.0-2.68","3533906","co37708","norming","","","{""curiosity"":3,""confidence"":1}","[0,1]","../img/tt/1199tt.jpg","",""
"3161.275000020396","","","recognition","survey-text","485","1552924","0.0-6.0-3.68","3533906","co37708","norming","","","{""guess"":""person in bed""}","","../img/tt/1199tt.jpg","",""
"null","../img/gs/1199gs.jpg","null","reveal","image-keyboard-response","486","1554930","0.0-6.0-4.68","3533906","co37708","norming","","","","","","",""
"null","../img/tt/1199tt.jpg","null","mooney2","image-keyboard-response","487","1556932","0.0-6.0-5.68","3533906","co37708","norming","","","","","","",""
"2909.4850000110455","","","post_reveal_questions","survey-likert","488","1559844","0.0-6.0-6.68","3533906","co37708","norming","","","{""aha"":4}","[0]","../img/tt/1199tt.jpg","",""
"null","<div style=""font-size:60px;""> </div>","null","fixation","html-keyboard-response","489","1560050","0.0-6.0-0.69","3533906","co37708","norming","","","","","","",""
"null","../img/tt/1086tt.jpg","null","mooney1","image-keyboard-response","490","1563053","0.0-6.0-1.69","3533906","co37708","norming","","","","","","",""
"6125.390000001062","","","post_mooney1_questions","survey-likert","491","1569180","0.0-6.0-2.69","3533906","co37708","norming","","","{""curiosity"":5,""confidence"":1}","[0,1]","../img/tt/1086tt.jpg","",""
"6681.849999993574","","","recognition","survey-text","492","1575868","0.0-6.0-3.69","3533906","co37708","norming","","","{""guess"":""sleeping person""}","","../img/tt/1086tt.jpg","",""
"null","../img/gs/1086gs.jpg","null","reveal","image-keyboard-response","493","1577873","0.0-6.0-4.69","3533906","co37708","norming","","","","","","",""
"null","../img/tt/1086tt.jpg","null","mooney2","image-keyboard-response","494","1579876","0.0-6.0-5.69","3533906","co37708","norming","","","","","","",""
"9958.110000006855","","","post_reveal_questions","survey-likert","495","1589836","0.0-6.0-6.69","3533906","co37708","norming","","","{""aha"":3}","[0]","../img/tt/1086tt.jpg","",""
"null","<div style=""font-size:60px;""> </div>","null","fixation","html-keyboard-response","496","1590046","0.0-6.0-0.70","3533906","co37708","norming","","","","","","",""
"null","../img/tt/1087tt.jpg","null","mooney1","image-keyboard-response","497","1593052","0.0-6.0-1.70","3533906","co37708","norming","","","","","","",""
"4397.104999981821","","","post_mooney1_questions","survey-likert","498","1597452","0.0-6.0-2.70","3533906","co37708","norming","","","{""curiosity"":4,""confidence"":1}","[0,1]","../img/tt/1087tt.jpg","",""
"40050.62999995425","","","recognition","survey-text","499","1637508","0.0-6.0-3.70","3533906","co37708","norming","","","{""guess"":""eared seal""}","","../img/tt/1087tt.jpg","",""
"null","../img/gs/1087gs.jpg","null","reveal","image-keyboard-response","500","1639509","0.0-6.0-4.70","3533906","co37708","norming","","","","","","",""
"null","../img/tt/1087tt.jpg","null","mooney2","image-keyboard-response","501","1641517","0.0-6.0-5.70","3533906","co37708","norming","","","","","","",""
"3747.5349999731407","","","post_reveal_questions","survey-likert","502","1645267","0.0-6.0-6.70","3533906","co37708","norming","","","{""aha"":3}","[0]","../img/tt/1087tt.jpg","",""
"null","<div style=""font-size:60px;""> </div>","null","fixation","html-keyboard-response","503","1645476","0.0-6.0-0.71","3533906","co37708","norming","","","","","","",""
"null","../img/tt/598tt.jpg","null","mooney1","image-keyboard-response","504","1648481","0.0-6.0-1.71","3533906","co37708","norming","","","","","","",""
"5151.1800000444055","","","post_mooney1_questions","survey-likert","505","1653636","0.0-6.0-2.71","3533906","co37708","norming","","","{""curiosity"":3,""confidence"":0}","[0,1]","../img/tt/598tt.jpg","",""
"810.5950000463054","","","recognition","survey-text","506","1654452","0.0-6.0-3.71","3533906","co37708","norming","","","{""guess"":""""}","","../img/tt/598tt.jpg","",""
"null","../img/gs/598gs.jpg","null","reveal","image-keyboard-response","507","1656456","0.0-6.0-4.71","3533906","co37708","norming","","","","","","",""
"null","../img/tt/598tt.jpg","null","mooney2","image-keyboard-response","508","1658460","0.0-6.0-5.71","3533906","co37708","norming","","","","","","",""
"2804.7549999901094","","","post_reveal_questions","survey-likert","509","1661267","0.0-6.0-6.71","3533906","co37708","norming","","","{""aha"":4}","[0]","../img/tt/598tt.jpg","",""
"null","<div style=""font-size:60px;""> </div>","null","fixation","html-keyboard-response","510","1661474","0.0-6.0-0.72","3533906","co37708","norming","","","","","","",""
"null","../img/tt/189tt.jpg","null","mooney1","image-keyboard-response","511","1664479","0.0-6.0-1.72","3533906","co37708","norming","","","","","","",""
"5993.759999983013","","","post_mooney1_questions","survey-likert","512","1670476","0.0-6.0-2.72","3533906","co37708","norming","","","{""curiosity"":5,""confidence"":2}","[0,1]","../img/tt/189tt.jpg","",""
"3389.1299999668263","","","recognition","survey-text","513","1673872","0.0-6.0-3.72","3533906","co37708","norming","","","{""guess"":""breakdance""}","","../img/tt/189tt.jpg","",""
"null","../img/gs/189gs.jpg","null","reveal","image-keyboard-response","514","1675875","0.0-6.0-4.72","3533906","co37708","norming","","","","","","",""
"null","../img/tt/189tt.jpg","null","mooney2","image-keyboard-response","515","1677880","0.0-6.0-5.72","3533906","co37708","norming","","","","","","",""
"2472.4999999743886","","","post_reveal_questions","survey-likert","516","1680355","0.0-6.0-6.72","3533906","co37708","norming","","","{""aha"":4}","[0]","../img/tt/189tt.jpg","",""
"null","<div style=""font-size:60px;""> </div>","null","fixation","html-keyboard-response","517","1680564","0.0-6.0-0.73","3533906","co37708","norming","","","","","","",""
"null","../img/tt/1125tt.jpg","null","mooney1","image-keyboard-response","518","1683566","0.0-6.0-1.73","3533906","co37708","norming","","","","","","",""
"4020.444999972824","","","post_mooney1_questions","survey-likert","519","1687588","0.0-6.0-2.73","3533906","co37708","norming","","","{""curiosity"":4,""confidence"":1}","[0,1]","../img/tt/1125tt.jpg","",""
"5227.705000026617","","","recognition","survey-text","520","1692822","0.0-6.0-3.73","3533906","co37708","norming","","","{""guess"":""sitting person""}","","../img/tt/1125tt.jpg","",""
"null","../img/gs/1125gs.jpg","null","reveal","image-keyboard-response","521","1694826","0.0-6.0-4.73","3533906","co37708","norming","","","","","","",""
"null","../img/tt/1125tt.jpg","null","mooney2","image-keyboard-response","522","1696829","0.0-6.0-5.73","3533906","co37708","norming","","","","","","",""
"4004.8400000086986","","","post_reveal_questions","survey-likert","523","1700836","0.0-6.0-6.73","3533906","co37708","norming","","","{""aha"":4}","[0]","../img/tt/1125tt.jpg","",""
"null","<div style=""font-size:60px;""> </div>","null","fixation","html-keyboard-response","524","1701040","0.0-6.0-0.74","3533906","co37708","norming","","","","","","",""
"null","../img/tt/1156tt.jpg","null","mooney1","image-keyboard-response","525","1704046","0.0-6.0-1.74","3533906","co37708","norming","","","","","","",""
"5115.170000004582","","","post_mooney1_questions","survey-likert","526","1709164","0.0-6.0-2.74","3533906","co37708","norming","","","{""curiosity"":6,""confidence"":2}","[0,1]","../img/tt/1156tt.jpg","",""
"4540.99499998847","","","recognition","survey-text","527","1713711","0.0-6.0-3.74","3533906","co37708","norming","","","{""guess"":""person at the beach""}","","../img/tt/1156tt.jpg","",""
"null","../img/gs/1156gs.jpg","null","reveal","image-keyboard-response","528","1715717","0.0-6.0-4.74","3533906","co37708","norming","","","","","","",""
"null","../img/tt/1156tt.jpg","null","mooney2","image-keyboard-response","529","1717720","0.0-6.0-5.74","3533906","co37708","norming","","","","","","",""
"4722.19000000041","","","post_reveal_questions","survey-likert","530","1722444","0.0-6.0-6.74","3533906","co37708","norming","","","{""aha"":3}","[0]","../img/tt/1156tt.jpg","",""
"null","<div style=""font-size:60px;""> </div>","null","fixation","html-keyboard-response","531","1722649","0.0-6.0-0.75","3533906","co37708","norming","","","","","","",""
"null","../img/tt/1353tt.jpg","null","mooney1","image-keyboard-response","532","1725652","0.0-6.0-1.75","3533906","co37708","norming","","","","","","",""
"3931.3799999654293","","","post_mooney1_questions","survey-likert","533","1729588","0.0-6.0-2.75","3533906","co37708","norming","","","{""curiosity"":4,""confidence"":0}","[0,1]","../img/tt/1353tt.jpg","",""
"1537.7650000154972","","","recognition","survey-text","534","1731132","0.0-6.0-3.75","3533906","co37708","norming","","","{""guess"":""""}","","../img/tt/1353tt.jpg","",""
"null","../img/gs/1353gs.jpg","null","reveal","image-keyboard-response","535","1733135","0.0-6.0-4.75","3533906","co37708","norming","","","","","","",""
"null","../img/tt/1353tt.jpg","null","mooney2","image-keyboard-response","536","1735138","0.0-6.0-5.75","3533906","co37708","norming","","","","","","",""
"2767.2749999910593","","","post_reveal_questions","survey-likert","537","1737908","0.0-6.0-6.75","3533906","co37708","norming","","","{""aha"":5}","[0]","../img/tt/1353tt.jpg","",""
"null","<div style=""font-size:60px;""> </div>","null","fixation","html-keyboard-response","538","1738120","0.0-6.0-0.76","3533906","co37708","norming","","","","","","",""
"null","../img/tt/1260tt.jpg","null","mooney1","image-keyboard-response","539","1741122","0.0-6.0-1.76","3533906","co37708","norming","","","","","","",""
"3686.870000034105","","","post_mooney1_questions","survey-likert","540","1744812","0.0-6.0-2.76","3533906","co37708","norming","","","{""curiosity"":4,""confidence"":1}","[0,1]","../img/tt/1260tt.jpg","",""
"1762.8249999834225","","","recognition","survey-text","541","1746581","0.0-6.0-3.76","3533906","co37708","norming","","","{""guess"":""sand""}","","../img/tt/1260tt.jpg","",""
"null","../img/gs/1260gs.jpg","null","reveal","image-keyboard-response","542","1748584","0.0-6.0-4.76","3533906","co37708","norming","","","","","","",""
"null","../img/tt/1260tt.jpg","null","mooney2","image-keyboard-response","543","1750587","0.0-6.0-5.76","3533906","co37708","norming","","","","","","",""
"2093.3850000146776","","","post_reveal_questions","survey-likert","544","1752684","0.0-6.0-6.76","3533906","co37708","norming","","","{""aha"":4}","[0]","../img/tt/1260tt.jpg","",""
"null","<div style=""font-size:60px;""> </div>","null","fixation","html-keyboard-response","545","1752889","0.0-6.0-0.77","3533906","co37708","norming","","","","","","",""
"null","../img/tt/1101tt.jpg","null","mooney1","image-keyboard-response","546","1755893","0.0-6.0-1.77","3533906","co37708","norming","","","","","","",""
"3316.6499999933876","","","post_mooney1_questions","survey-likert","547","1759212","0.0-6.0-2.77","3533906","co37708","norming","","","{""curiosity"":3,""confidence"":1}","[0,1]","../img/tt/1101tt.jpg","",""
"11397.02999999281","","","recognition","survey-text","548","1770615","0.0-6.0-3.77","3533906","co37708","norming","","","{""guess"":""peron""}","","../img/tt/1101tt.jpg","",""
"null","../img/gs/1101gs.jpg","null","reveal","image-keyboard-response","549","1772620","0.0-6.0-4.77","3533906","co37708","norming","","","","","","",""
"null","../img/tt/1101tt.jpg","null","mooney2","image-keyboard-response","550","1774627","0.0-6.0-5.77","3533906","co37708","norming","","","","","","",""
"2575.0499999849126","","","post_reveal_questions","survey-likert","551","1777204","0.0-6.0-6.77","3533906","co37708","norming","","","{""aha"":4}","[0]","../img/tt/1101tt.jpg","",""
