"rt","stimulus","key_press","test_part","trial_type","trial_index","time_elapsed","internal_node_id","totalTime","subject","experiment_name","button_pressed","success","responses","question_order","currentStim","old","correct"
"21081.98500000003","Welcome to the experiment. This is an online experiment so please don't close the tab/window until we say goodbye.  Press any key to begin.","13","instructions","html-keyboard-response","0","21095","0.0-0.0","2471362","co37933","norming","","","","","","",""
"1782.2550000000774","<div style='word-wrap: break-word; width: 900px'><h3>Please consider this information carefully before deciding whether to participate in this research</h3><ul style='text-align: left; font-size: .8em;'><li><b>Purpose of the research</b>: To examine how people process images.</li><li><b>What you will do in this research</b>:  Stimuli (images) will be presented on the computer and you will be asked different questions about them.</li><li><b>Time required</b>: Participation will take between 45 and 60 minutes to complete.</li><li><b>Risks</b>:  There are no anticipated risks associated with participating in this study. The effects of participating should be comparable to those you would experience from viewing a computer monitor for 30 minutes and using a mouse or keyboard.</li><li><b>Benefits</b>:  This study provides no benefits to you individually except for the credit. The study provides important information about the nature of perception and learning.</li><li><b>Confidentiality</b>:  Your participation in this study will remain confidential. No personally identifiable information will be associated with your data. Your de-identified data may be shared with other researchers and used in future projects.</li><li><b>Participation and withdrawal</b>:  Your participation in this study is completely voluntary and you may refuse to participate or you may choose to withdraw at any time without penalty.</li><li><b>How to contact the researchers</b>: If you have questions or concerns about your participation or payment, or want to request a summary of research findings, please contact Sander Van de Cruys (KU Leuven), at sander.vandecruys@kuleuven.be.</li></ul><p>The nature and purpose of this research have been sufficiently explained and I agree to participate in this study.  I understand that I am free to withdraw at any time without incurring any penalty.</p><p>Please consent by clicking the button below to continue. Otherwise, please exit the study at this time.</p></div>","","instructions","html-button-response","1","22878","0.0-1.0","2471362","co37933","norming","0","","","","","",""
"","","","instructions","fullscreen","2","26867","0.0-2.0","2471362","co37933","norming","","true","","","","",""
"49304.744999999915","","","sona","survey-html-form","3","76180","0.0-3.0","2471362","co37933","norming","","","[{""name"":""sonaid"",""value"":""37933""},{""name"":""debrief"",""value"":""yes""},{""name"":""datajoin"",""value"":""yes""}]","","","",""
"17202.575000000026","<div style='word-wrap: break-word; width: 900px'><h3>Instructions</h3><p>This experiment will have 3 parts. In the first part you will see a series of distorted images like the one below on the left. As you can see in the righthand image, the distorted images are derived from actual photographs. In what follows, you will <strong>briefly</strong> be presented with <strong>only</strong> the distorted image.</p> <div style='float: left; margin-right: 20px;'><img src='../img/018tt.jpg' height='250' width='250'></img></div><div style='float: right; margin-left: 20px;'><img src='../img/018gs.jpg' height='250' width='250'></img></div><p>Subsequently you will be asked a few questions about the image: One question on how <strong>curious</strong> you are about the solution and one on how <strong>confident</strong> you are that you know the solution.</p>Next, we ask you to make a guess on what is in the image. Note that it is OK to name just the <strong>basic level category</strong>. For example when you see a parrot in the image, 'parrot' will obviously be a correct answer but also correct is 'bird'. However, 'animal' will <strong>not</strong> be counted as a correct response. For the example above, 'rose' would be correct or 'flower', but not 'plant'. When soccer players are depicted, 'soccer', 'football', 'soccer players' will be correct, but not 'humans', 'outdoors', or 'sports'. You do not need to describe the image in full, just name the main object in it <strong>in one or two words</strong>. All images depict objects from one of the following broad level categories: animals, inanimate objects, plants, sports, vehicles, and food. Recognizing means knowing <strong>more</strong> than these broad labels for a given image. But we always encourage you to <strong>make a guess</strong> if you can. Note that you are allowed to use <strong>Dutch and English</strong> in your answers, whatever comes easiest for you.</p><p>Press any key to continue.</p></div>","32","instructions","html-keyboard-response","4","93383","0.0-4.0","2471362","co37933","norming","","","","","","",""
"3664.2200000001176","<div style='word-wrap: break-word; width: 900px'><h3>Instructions</h3> <p>Next, the solution image will be revealed to you and you'll be asked to indicate how strong your <strong>aha-experience</strong> was after seeing the solution. This describes the positive feeling of the 'click' you sometimes experience, when the pieces of the 'puzzle' fall together and you suddenly have 'insight' in the image.</p><img src='aha.jpg' height='188' width='250'></img><p>Note that there are no right or wrong answers. We are interested in what <strong>you</strong> see in the image and how <strong>you</strong> feel about it.</p><p>Press any key to start the experiment.</p></div>","32","instructions","html-keyboard-response","5","97048","0.0-5.0","2471362","co37933","norming","","","","","","",""
"null","<div style=""font-size:60px;""> </div>","null","fixation","html-keyboard-response","6","97254","0.0-6.0-0.0","2471362","co37933","norming","","","","","","",""
"null","../img/tt/552tt.jpg","null","mooney1","image-keyboard-response","7","100268","0.0-6.0-1.0","2471362","co37933","norming","","","","","","",""
"10209.434999999983","","","post_mooney1_questions","survey-likert","8","110481","0.0-6.0-2.0","2471362","co37933","norming","","","{""curiosity"":2,""confidence"":4}","[0,1]","../img/tt/552tt.jpg","",""
"9029.16499999992","","","recognition","survey-text","9","119512","0.0-6.0-3.0","2471362","co37933","norming","","","{""guess"":""rat""}","","../img/tt/552tt.jpg","",""
"null","../img/gs/552gs.jpg","null","reveal","image-keyboard-response","10","121520","0.0-6.0-4.0","2471362","co37933","norming","","","","","","",""
"null","../img/tt/552tt.jpg","null","mooney2","image-keyboard-response","11","123528","0.0-6.0-5.0","2471362","co37933","norming","","","","","","",""
"4261.715000000084","","","post_reveal_questions","survey-likert","12","127792","0.0-6.0-6.0","2471362","co37933","norming","","","{""aha"":5}","[0]","../img/tt/552tt.jpg","",""
"null","<div style=""font-size:60px;""> </div>","null","fixation","html-keyboard-response","13","128002","0.0-6.0-0.1","2471362","co37933","norming","","","","","","",""
"null","../img/tt/1143tt.jpg","null","mooney1","image-keyboard-response","14","131011","0.0-6.0-1.1","2471362","co37933","norming","","","","","","",""
"5011.53999999995","","","post_mooney1_questions","survey-likert","15","136024","0.0-6.0-2.1","2471362","co37933","norming","","","{""curiosity"":6,""confidence"":0}","[0,1]","../img/tt/1143tt.jpg","",""
"2637.83999999988","","","recognition","survey-text","16","138664","0.0-6.0-3.1","2471362","co37933","norming","","","{""guess"":""""}","","../img/tt/1143tt.jpg","",""
"null","../img/gs/1143gs.jpg","null","reveal","image-keyboard-response","17","140671","0.0-6.0-4.1","2471362","co37933","norming","","","","","","",""
"null","../img/tt/1143tt.jpg","null","mooney2","image-keyboard-response","18","142680","0.0-6.0-5.1","2471362","co37933","norming","","","","","","",""
"3821.5199999999604","","","post_reveal_questions","survey-likert","19","146504","0.0-6.0-6.1","2471362","co37933","norming","","","{""aha"":3}","[0]","../img/tt/1143tt.jpg","",""
"null","<div style=""font-size:60px;""> </div>","null","fixation","html-keyboard-response","20","146714","0.0-6.0-0.2","2471362","co37933","norming","","","","","","",""
"null","../img/tt/1024tt.jpg","null","mooney1","image-keyboard-response","21","149719","0.0-6.0-1.2","2471362","co37933","norming","","","","","","",""
"3469.869999999879","","","post_mooney1_questions","survey-likert","22","153192","0.0-6.0-2.2","2471362","co37933","norming","","","{""curiosity"":5,""confidence"":1}","[0,1]","../img/tt/1024tt.jpg","",""
"1510.054999999993","","","recognition","survey-text","23","154703","0.0-6.0-3.2","2471362","co37933","norming","","","{""guess"":""""}","","../img/tt/1024tt.jpg","",""
"null","../img/gs/1024gs.jpg","null","reveal","image-keyboard-response","24","156712","0.0-6.0-4.2","2471362","co37933","norming","","","","","","",""
"null","../img/tt/1024tt.jpg","null","mooney2","image-keyboard-response","25","158716","0.0-6.0-5.2","2471362","co37933","norming","","","","","","",""
"2945.2799999999115","","","post_reveal_questions","survey-likert","26","161664","0.0-6.0-6.2","2471362","co37933","norming","","","{""aha"":1}","[0]","../img/tt/1024tt.jpg","",""
"null","<div style=""font-size:60px;""> </div>","null","fixation","html-keyboard-response","27","161865","0.0-6.0-0.3","2471362","co37933","norming","","","","","","",""
"null","../img/tt/1353tt.jpg","null","mooney1","image-keyboard-response","28","164867","0.0-6.0-1.3","2471362","co37933","norming","","","","","","",""
"3914.719999999972","","","post_mooney1_questions","survey-likert","29","168784","0.0-6.0-2.3","2471362","co37933","norming","","","{""curiosity"":5,""confidence"":1}","[0,1]","../img/tt/1353tt.jpg","",""
"990.0250000000524","","","recognition","survey-text","30","169775","0.0-6.0-3.3","2471362","co37933","norming","","","{""guess"":""""}","","../img/tt/1353tt.jpg","",""
"null","../img/gs/1353gs.jpg","null","reveal","image-keyboard-response","31","171786","0.0-6.0-4.3","2471362","co37933","norming","","","","","","",""
"null","../img/tt/1353tt.jpg","null","mooney2","image-keyboard-response","32","173796","0.0-6.0-5.3","2471362","co37933","norming","","","","","","",""
"2545.695000000007","","","post_reveal_questions","survey-likert","33","176344","0.0-6.0-6.3","2471362","co37933","norming","","","{""aha"":4}","[0]","../img/tt/1353tt.jpg","",""
"null","<div style=""font-size:60px;""> </div>","null","fixation","html-keyboard-response","34","176554","0.0-6.0-0.4","2471362","co37933","norming","","","","","","",""
"null","../img/tt/1250tt.jpg","null","mooney1","image-keyboard-response","35","179562","0.0-6.0-1.4","2471362","co37933","norming","","","","","","",""
"6483.234999999899","","","post_mooney1_questions","survey-likert","36","186048","0.0-6.0-2.4","2471362","co37933","norming","","","{""curiosity"":5,""confidence"":1}","[0,1]","../img/tt/1250tt.jpg","",""
"1222.2749999998778","","","recognition","survey-text","37","187272","0.0-6.0-3.4","2471362","co37933","norming","","","{""guess"":""""}","","../img/tt/1250tt.jpg","",""
"null","../img/gs/1250gs.jpg","null","reveal","image-keyboard-response","38","189273","0.0-6.0-4.4","2471362","co37933","norming","","","","","","",""
"null","../img/tt/1250tt.jpg","null","mooney2","image-keyboard-response","39","191283","0.0-6.0-5.4","2471362","co37933","norming","","","","","","",""
"2803.194999999949","","","post_reveal_questions","survey-likert","40","194088","0.0-6.0-6.4","2471362","co37933","norming","","","{""aha"":3}","[0]","../img/tt/1250tt.jpg","",""
"null","<div style=""font-size:60px;""> </div>","null","fixation","html-keyboard-response","41","194289","0.0-6.0-0.5","2471362","co37933","norming","","","","","","",""
"null","../img/tt/1070tt.jpg","null","mooney1","image-keyboard-response","42","197292","0.0-6.0-1.5","2471362","co37933","norming","","","","","","",""
"4490.3749999998545","","","post_mooney1_questions","survey-likert","43","201780","0.0-6.0-2.5","2471362","co37933","norming","","","{""curiosity"":2,""confidence"":3}","[0,1]","../img/tt/1070tt.jpg","",""
"2173.9950000001118","","","recognition","survey-text","44","203956","0.0-6.0-3.5","2471362","co37933","norming","","","{""guess"":""cake""}","","../img/tt/1070tt.jpg","",""
"null","../img/gs/1070gs.jpg","null","reveal","image-keyboard-response","45","205957","0.0-6.0-4.5","2471362","co37933","norming","","","","","","",""
"null","../img/tt/1070tt.jpg","null","mooney2","image-keyboard-response","46","207960","0.0-6.0-5.5","2471362","co37933","norming","","","","","","",""
"5314.149999999936","","","post_reveal_questions","survey-likert","47","213276","0.0-6.0-6.5","2471362","co37933","norming","","","{""aha"":1}","[0]","../img/tt/1070tt.jpg","",""
"null","<div style=""font-size:60px;""> </div>","null","fixation","html-keyboard-response","48","213485","0.0-6.0-0.6","2471362","co37933","norming","","","","","","",""
"null","../img/tt/1235tt.jpg","null","mooney1","image-keyboard-response","49","216492","0.0-6.0-1.6","2471362","co37933","norming","","","","","","",""
"3829.0950000000594","","","post_mooney1_questions","survey-likert","50","220324","0.0-6.0-2.6","2471362","co37933","norming","","","{""curiosity"":4,""confidence"":3}","[0,1]","../img/tt/1235tt.jpg","",""
"2254.4149999998917","","","recognition","survey-text","51","222580","0.0-6.0-3.6","2471362","co37933","norming","","","{""guess"":""pony""}","","../img/tt/1235tt.jpg","",""
"null","../img/gs/1235gs.jpg","null","reveal","image-keyboard-response","52","224582","0.0-6.0-4.6","2471362","co37933","norming","","","","","","",""
"null","../img/tt/1235tt.jpg","null","mooney2","image-keyboard-response","53","226584","0.0-6.0-5.6","2471362","co37933","norming","","","","","","",""
"3010.2150000000256","","","post_reveal_questions","survey-likert","54","229596","0.0-6.0-6.6","2471362","co37933","norming","","","{""aha"":4}","[0]","../img/tt/1235tt.jpg","",""
"null","<div style=""font-size:60px;""> </div>","null","fixation","html-keyboard-response","55","229802","0.0-6.0-0.7","2471362","co37933","norming","","","","","","",""
"null","../img/tt/098tt.jpg","null","mooney1","image-keyboard-response","56","232808","0.0-6.0-1.7","2471362","co37933","norming","","","","","","",""
"6705.874999999884","","","post_mooney1_questions","survey-likert","57","239516","0.0-6.0-2.7","2471362","co37933","norming","","","{""curiosity"":4,""confidence"":2}","[0,1]","../img/tt/098tt.jpg","",""
"3606.3249999999825","","","recognition","survey-text","58","243124","0.0-6.0-3.7","2471362","co37933","norming","","","{""guess"":""butterfly""}","","../img/tt/098tt.jpg","",""
"null","../img/gs/098gs.jpg","null","reveal","image-keyboard-response","59","245132","0.0-6.0-4.7","2471362","co37933","norming","","","","","","",""
"null","../img/tt/098tt.jpg","null","mooney2","image-keyboard-response","60","247136","0.0-6.0-5.7","2471362","co37933","norming","","","","","","",""
"2641.920000000042","","","post_reveal_questions","survey-likert","61","249780","0.0-6.0-6.7","2471362","co37933","norming","","","{""aha"":1}","[0]","../img/tt/098tt.jpg","",""
"null","<div style=""font-size:60px;""> </div>","null","fixation","html-keyboard-response","62","249982","0.0-6.0-0.8","2471362","co37933","norming","","","","","","",""
"null","../img/tt/010tt.jpg","null","mooney1","image-keyboard-response","63","252991","0.0-6.0-1.8","2471362","co37933","norming","","","","","","",""
"4602.350000000122","","","post_mooney1_questions","survey-likert","64","257596","0.0-6.0-2.8","2471362","co37933","norming","","","{""curiosity"":4,""confidence"":1}","[0,1]","../img/tt/010tt.jpg","",""
"2550.53999999995","","","recognition","survey-text","65","260155","0.0-6.0-3.8","2471362","co37933","norming","","","{""guess"":""insect""}","","../img/tt/010tt.jpg","",""
"null","../img/gs/010gs.jpg","null","reveal","image-keyboard-response","66","262156","0.0-6.0-4.8","2471362","co37933","norming","","","","","","",""
"null","../img/tt/010tt.jpg","null","mooney2","image-keyboard-response","67","264166","0.0-6.0-5.8","2471362","co37933","norming","","","","","","",""
"2961.9649999999674","","","post_reveal_questions","survey-likert","68","267131","0.0-6.0-6.8","2471362","co37933","norming","","","{""aha"":0}","[0]","../img/tt/010tt.jpg","",""
"null","<div style=""font-size:60px;""> </div>","null","fixation","html-keyboard-response","69","267334","0.0-6.0-0.9","2471362","co37933","norming","","","","","","",""
"null","../img/tt/194tt.jpg","null","mooney1","image-keyboard-response","70","270337","0.0-6.0-1.9","2471362","co37933","norming","","","","","","",""
"3943.1050000000396","","","post_mooney1_questions","survey-likert","71","274283","0.0-6.0-2.9","2471362","co37933","norming","","","{""curiosity"":0,""confidence"":5}","[0,1]","../img/tt/194tt.jpg","",""
"5310.339999999967","","","recognition","survey-text","72","279595","0.0-6.0-3.9","2471362","co37933","norming","","","{""guess"":""vrouw met een harp""}","","../img/tt/194tt.jpg","",""
"null","../img/gs/194gs.jpg","null","reveal","image-keyboard-response","73","281599","0.0-6.0-4.9","2471362","co37933","norming","","","","","","",""
"null","../img/tt/194tt.jpg","null","mooney2","image-keyboard-response","74","283601","0.0-6.0-5.9","2471362","co37933","norming","","","","","","",""
"1663.2599999997765","","","post_reveal_questions","survey-likert","75","285267","0.0-6.0-6.9","2471362","co37933","norming","","","{""aha"":1}","[0]","../img/tt/194tt.jpg","",""
"null","<div style=""font-size:60px;""> </div>","null","fixation","html-keyboard-response","76","285469","0.0-6.0-0.10","2471362","co37933","norming","","","","","","",""
"null","../img/tt/1128tt.jpg","null","mooney1","image-keyboard-response","77","288473","0.0-6.0-1.10","2471362","co37933","norming","","","","","","",""
"4279.27999999997","","","post_mooney1_questions","survey-likert","78","292755","0.0-6.0-2.10","2471362","co37933","norming","","","{""curiosity"":5,""confidence"":1}","[0,1]","../img/tt/1128tt.jpg","",""
"4662.59999999986","","","recognition","survey-text","79","297419","0.0-6.0-3.10","2471362","co37933","norming","","","{""guess"":""""}","","../img/tt/1128tt.jpg","",""
"null","../img/gs/1128gs.jpg","null","reveal","image-keyboard-response","80","299421","0.0-6.0-4.10","2471362","co37933","norming","","","","","","",""
"null","../img/tt/1128tt.jpg","null","mooney2","image-keyboard-response","81","301427","0.0-6.0-5.10","2471362","co37933","norming","","","","","","",""
"1814.570000000007","","","post_reveal_questions","survey-likert","82","303243","0.0-6.0-6.10","2471362","co37933","norming","","","{""aha"":3}","[0]","../img/tt/1128tt.jpg","",""
"null","<div style=""font-size:60px;""> </div>","null","fixation","html-keyboard-response","83","303451","0.0-6.0-0.11","2471362","co37933","norming","","","","","","",""
"null","../img/tt/1290tt.jpg","null","mooney1","image-keyboard-response","84","306461","0.0-6.0-1.11","2471362","co37933","norming","","","","","","",""
"3867.545000000042","","","post_mooney1_questions","survey-likert","85","310331","0.0-6.0-2.11","2471362","co37933","norming","","","{""curiosity"":5,""confidence"":1}","[0,1]","../img/tt/1290tt.jpg","",""
"2734.1800000001676","","","recognition","survey-text","86","313067","0.0-6.0-3.11","2471362","co37933","norming","","","{""guess"":""monkey""}","","../img/tt/1290tt.jpg","",""
"null","../img/gs/1290gs.jpg","null","reveal","image-keyboard-response","87","315068","0.0-6.0-4.11","2471362","co37933","norming","","","","","","",""
"null","../img/tt/1290tt.jpg","null","mooney2","image-keyboard-response","88","317078","0.0-6.0-5.11","2471362","co37933","norming","","","","","","",""
"3594.344999999972","","","post_reveal_questions","survey-likert","89","320669","0.0-6.0-6.11","2471362","co37933","norming","","","{""aha"":2}","[0]","../img/tt/1290tt.jpg","",""
"null","<div style=""font-size:60px;""> </div>","null","fixation","html-keyboard-response","90","320877","0.0-6.0-0.12","2471362","co37933","norming","","","","","","",""
"null","../img/tt/046tt.jpg","null","mooney1","image-keyboard-response","91","323885","0.0-6.0-1.12","2471362","co37933","norming","","","","","","",""
"4734.715000000084","","","post_mooney1_questions","survey-likert","92","328621","0.0-6.0-2.12","2471362","co37933","norming","","","{""curiosity"":2,""confidence"":4}","[0,1]","../img/tt/046tt.jpg","",""
"1782.2699999999022","","","recognition","survey-text","93","330405","0.0-6.0-3.12","2471362","co37933","norming","","","{""guess"":""dog""}","","../img/tt/046tt.jpg","",""
"null","../img/gs/046gs.jpg","null","reveal","image-keyboard-response","94","332411","0.0-6.0-4.12","2471362","co37933","norming","","","","","","",""
"null","../img/tt/046tt.jpg","null","mooney2","image-keyboard-response","95","334412","0.0-6.0-5.12","2471362","co37933","norming","","","","","","",""
"8359.184999999998","","","post_reveal_questions","survey-likert","96","342772","0.0-6.0-6.12","2471362","co37933","norming","","","{""aha"":0}","[0]","../img/tt/046tt.jpg","",""
"null","<div style=""font-size:60px;""> </div>","null","fixation","html-keyboard-response","97","342982","0.0-6.0-0.13","2471362","co37933","norming","","","","","","",""
"null","../img/tt/1269tt.jpg","null","mooney1","image-keyboard-response","98","345985","0.0-6.0-1.13","2471362","co37933","norming","","","","","","",""
"6473.134999999951","","","post_mooney1_questions","survey-likert","99","352461","0.0-6.0-2.13","2471362","co37933","norming","","","{""curiosity"":1,""confidence"":4}","[0,1]","../img/tt/1269tt.jpg","",""
"2838.2549999998882","","","recognition","survey-text","100","355301","0.0-6.0-3.13","2471362","co37933","norming","","","{""guess"":""squirrel""}","","../img/tt/1269tt.jpg","",""
"null","../img/gs/1269gs.jpg","null","reveal","image-keyboard-response","101","357310","0.0-6.0-4.13","2471362","co37933","norming","","","","","","",""
"null","../img/tt/1269tt.jpg","null","mooney2","image-keyboard-response","102","359312","0.0-6.0-5.13","2471362","co37933","norming","","","","","","",""
"1883.1700000001001","","","post_reveal_questions","survey-likert","103","361197","0.0-6.0-6.13","2471362","co37933","norming","","","{""aha"":1}","[0]","../img/tt/1269tt.jpg","",""
"null","<div style=""font-size:60px;""> </div>","null","fixation","html-keyboard-response","104","361398","0.0-6.0-0.14","2471362","co37933","norming","","","","","","",""
"null","../img/tt/1125tt.jpg","null","mooney1","image-keyboard-response","105","364409","0.0-6.0-1.14","2471362","co37933","norming","","","","","","",""
"4401.145000000019","","","post_mooney1_questions","survey-likert","106","368813","0.0-6.0-2.14","2471362","co37933","norming","","","{""curiosity"":5,""confidence"":1}","[0,1]","../img/tt/1125tt.jpg","",""
"2054.3700000000536","","","recognition","survey-text","107","370869","0.0-6.0-3.14","2471362","co37933","norming","","","{""guess"":""piano""}","","../img/tt/1125tt.jpg","",""
"null","../img/gs/1125gs.jpg","null","reveal","image-keyboard-response","108","372875","0.0-6.0-4.14","2471362","co37933","norming","","","","","","",""
"null","../img/tt/1125tt.jpg","null","mooney2","image-keyboard-response","109","374878","0.0-6.0-5.14","2471362","co37933","norming","","","","","","",""
"3212.5049999999464","","","post_reveal_questions","survey-likert","110","378093","0.0-6.0-6.14","2471362","co37933","norming","","","{""aha"":2}","[0]","../img/tt/1125tt.jpg","",""
"null","<div style=""font-size:60px;""> </div>","null","fixation","html-keyboard-response","111","378298","0.0-6.0-0.15","2471362","co37933","norming","","","","","","",""
"null","../img/tt/438tt.jpg","null","mooney1","image-keyboard-response","112","381312","0.0-6.0-1.15","2471362","co37933","norming","","","","","","",""
"4001.7600000001257","","","post_mooney1_questions","survey-likert","113","385316","0.0-6.0-2.15","2471362","co37933","norming","","","{""curiosity"":5,""confidence"":0}","[0,1]","../img/tt/438tt.jpg","",""
"662.1350000000675","","","recognition","survey-text","114","385980","0.0-6.0-3.15","2471362","co37933","norming","","","{""guess"":""""}","","../img/tt/438tt.jpg","",""
"null","../img/gs/438gs.jpg","null","reveal","image-keyboard-response","115","387982","0.0-6.0-4.15","2471362","co37933","norming","","","","","","",""
"null","../img/tt/438tt.jpg","null","mooney2","image-keyboard-response","116","389984","0.0-6.0-5.15","2471362","co37933","norming","","","","","","",""
"3258.104999999923","","","post_reveal_questions","survey-likert","117","393244","0.0-6.0-6.15","2471362","co37933","norming","","","{""aha"":3}","[0]","../img/tt/438tt.jpg","",""
"null","<div style=""font-size:60px;""> </div>","null","fixation","html-keyboard-response","118","393446","0.0-6.0-0.16","2471362","co37933","norming","","","","","","",""
"null","../img/tt/534tt.jpg","null","mooney1","image-keyboard-response","119","396449","0.0-6.0-1.16","2471362","co37933","norming","","","","","","",""
"4112.910000000033","","","post_mooney1_questions","survey-likert","120","400564","0.0-6.0-2.16","2471362","co37933","norming","","","{""curiosity"":4,""confidence"":1}","[0,1]","../img/tt/534tt.jpg","",""
"646.0250000000233","","","recognition","survey-text","121","401212","0.0-6.0-3.16","2471362","co37933","norming","","","{""guess"":""""}","","../img/tt/534tt.jpg","",""
"null","../img/gs/534gs.jpg","null","reveal","image-keyboard-response","122","403213","0.0-6.0-4.16","2471362","co37933","norming","","","","","","",""
"null","../img/tt/534tt.jpg","null","mooney2","image-keyboard-response","123","405218","0.0-6.0-5.16","2471362","co37933","norming","","","","","","",""
"3744.325000000128","","","post_reveal_questions","survey-likert","124","408964","0.0-6.0-6.16","2471362","co37933","norming","","","{""aha"":3}","[0]","../img/tt/534tt.jpg","",""
"null","<div style=""font-size:60px;""> </div>","null","fixation","html-keyboard-response","125","409168","0.0-6.0-0.17","2471362","co37933","norming","","","","","","",""
"null","../img/tt/084tt.jpg","null","mooney1","image-keyboard-response","126","412178","0.0-6.0-1.17","2471362","co37933","norming","","","","","","",""
"4247.240000000165","","","post_mooney1_questions","survey-likert","127","416428","0.0-6.0-2.17","2471362","co37933","norming","","","{""curiosity"":1,""confidence"":4}","[0,1]","../img/tt/084tt.jpg","",""
"2622.2399999999325","","","recognition","survey-text","128","419052","0.0-6.0-3.17","2471362","co37933","norming","","","{""guess"":""pigeon""}","","../img/tt/084tt.jpg","",""
"null","../img/gs/084gs.jpg","null","reveal","image-keyboard-response","129","421054","0.0-6.0-4.17","2471362","co37933","norming","","","","","","",""
"null","../img/tt/084tt.jpg","null","mooney2","image-keyboard-response","130","423057","0.0-6.0-5.17","2471362","co37933","norming","","","","","","",""
"1594.8949999999022","","","post_reveal_questions","survey-likert","131","424652","0.0-6.0-6.17","2471362","co37933","norming","","","{""aha"":3}","[0]","../img/tt/084tt.jpg","",""
"null","<div style=""font-size:60px;""> </div>","null","fixation","html-keyboard-response","132","424860","0.0-6.0-0.18","2471362","co37933","norming","","","","","","",""
"null","../img/tt/318tt.jpg","null","mooney1","image-keyboard-response","133","427864","0.0-6.0-1.18","2471362","co37933","norming","","","","","","",""
"4731.899999999965","","","post_mooney1_questions","survey-likert","134","432596","0.0-6.0-2.18","2471362","co37933","norming","","","{""curiosity"":4,""confidence"":1}","[0,1]","../img/tt/318tt.jpg","",""
"1437.9750000000931","","","recognition","survey-text","135","434036","0.0-6.0-3.18","2471362","co37933","norming","","","{""guess"":""""}","","../img/tt/318tt.jpg","",""
"null","../img/gs/318gs.jpg","null","reveal","image-keyboard-response","136","436042","0.0-6.0-4.18","2471362","co37933","norming","","","","","","",""
"null","../img/tt/318tt.jpg","null","mooney2","image-keyboard-response","137","438044","0.0-6.0-5.18","2471362","co37933","norming","","","","","","",""
"2326.1500000000815","","","post_reveal_questions","survey-likert","138","440372","0.0-6.0-6.18","2471362","co37933","norming","","","{""aha"":2}","[0]","../img/tt/318tt.jpg","",""
"null","<div style=""font-size:60px;""> </div>","null","fixation","html-keyboard-response","139","440573","0.0-6.0-0.19","2471362","co37933","norming","","","","","","",""
"null","../img/tt/1146tt.jpg","null","mooney1","image-keyboard-response","140","443580","0.0-6.0-1.19","2471362","co37933","norming","","","","","","",""
"4653.15499999997","","","post_mooney1_questions","survey-likert","141","448236","0.0-6.0-2.19","2471362","co37933","norming","","","{""curiosity"":4,""confidence"":3}","[0,1]","../img/tt/1146tt.jpg","",""
"7373.934999999881","","","recognition","survey-text","142","455612","0.0-6.0-3.19","2471362","co37933","norming","","","{""guess"":""man met gestrekte benen ""}","","../img/tt/1146tt.jpg","",""
"null","../img/gs/1146gs.jpg","null","reveal","image-keyboard-response","143","457621","0.0-6.0-4.19","2471362","co37933","norming","","","","","","",""
"null","../img/tt/1146tt.jpg","null","mooney2","image-keyboard-response","144","459630","0.0-6.0-5.19","2471362","co37933","norming","","","","","","",""
"3723.965000000142","","","post_reveal_questions","survey-likert","145","463356","0.0-6.0-6.19","2471362","co37933","norming","","","{""aha"":0}","[0]","../img/tt/1146tt.jpg","",""
"null","<div style=""font-size:60px;""> </div>","null","fixation","html-keyboard-response","146","463561","0.0-6.0-0.20","2471362","co37933","norming","","","","","","",""
"null","../img/tt/1122tt.jpg","null","mooney1","image-keyboard-response","147","466568","0.0-6.0-1.20","2471362","co37933","norming","","","","","","",""
"4321.104999999981","","","post_mooney1_questions","survey-likert","148","470892","0.0-6.0-2.20","2471362","co37933","norming","","","{""curiosity"":5,""confidence"":1}","[0,1]","../img/tt/1122tt.jpg","",""
"1806.1900000000605","","","recognition","survey-text","149","472700","0.0-6.0-3.20","2471362","co37933","norming","","","{""guess"":""tank""}","","../img/tt/1122tt.jpg","",""
"null","../img/gs/1122gs.jpg","null","reveal","image-keyboard-response","150","474710","0.0-6.0-4.20","2471362","co37933","norming","","","","","","",""
"null","../img/tt/1122tt.jpg","null","mooney2","image-keyboard-response","151","476713","0.0-6.0-5.20","2471362","co37933","norming","","","","","","",""
"2936.5999999999767","","","post_reveal_questions","survey-likert","152","479652","0.0-6.0-6.20","2471362","co37933","norming","","","{""aha"":4}","[0]","../img/tt/1122tt.jpg","",""
"null","<div style=""font-size:60px;""> </div>","null","fixation","html-keyboard-response","153","479856","0.0-6.0-0.21","2471362","co37933","norming","","","","","","",""
"null","../img/tt/412tt.jpg","null","mooney1","image-keyboard-response","154","482860","0.0-6.0-1.21","2471362","co37933","norming","","","","","","",""
"4357.40000000014","","","post_mooney1_questions","survey-likert","155","487220","0.0-6.0-2.21","2471362","co37933","norming","","","{""curiosity"":1,""confidence"":5}","[0,1]","../img/tt/412tt.jpg","",""
"4918.20000000007","","","recognition","survey-text","156","492140","0.0-6.0-3.21","2471362","co37933","norming","","","{""guess"":""verrekijker""}","","../img/tt/412tt.jpg","",""
"null","../img/gs/412gs.jpg","null","reveal","image-keyboard-response","157","494145","0.0-6.0-4.21","2471362","co37933","norming","","","","","","",""
"null","../img/tt/412tt.jpg","null","mooney2","image-keyboard-response","158","496147","0.0-6.0-5.21","2471362","co37933","norming","","","","","","",""
"1784.1049999999232","","","post_reveal_questions","survey-likert","159","497932","0.0-6.0-6.21","2471362","co37933","norming","","","{""aha"":0}","[0]","../img/tt/412tt.jpg","",""
"null","<div style=""font-size:60px;""> </div>","null","fixation","html-keyboard-response","160","498133","0.0-6.0-0.22","2471362","co37933","norming","","","","","","",""
"null","../img/tt/1260tt.jpg","null","mooney1","image-keyboard-response","161","501144","0.0-6.0-1.22","2471362","co37933","norming","","","","","","",""
"4155.179999999993","","","post_mooney1_questions","survey-likert","162","505294","0.0-6.0-2.22","2471362","co37933","norming","","","{""curiosity"":4,""confidence"":1}","[0,1]","../img/tt/1260tt.jpg","",""
"3142.12000000017","","","recognition","survey-text","163","508438","0.0-6.0-3.22","2471362","co37933","norming","","","{""guess"":""sigaret ""}","","../img/tt/1260tt.jpg","",""
"null","../img/gs/1260gs.jpg","null","reveal","image-keyboard-response","164","510448","0.0-6.0-4.22","2471362","co37933","norming","","","","","","",""
"null","../img/tt/1260tt.jpg","null","mooney2","image-keyboard-response","165","512455","0.0-6.0-5.22","2471362","co37933","norming","","","","","","",""
"1467.7850000000908","","","post_reveal_questions","survey-likert","166","513926","0.0-6.0-6.22","2471362","co37933","norming","","","{""aha"":5}","[0]","../img/tt/1260tt.jpg","",""
"null","<div style=""font-size:60px;""> </div>","null","fixation","html-keyboard-response","167","514136","0.0-6.0-0.23","2471362","co37933","norming","","","","","","",""
"null","../img/tt/1126tt.jpg","null","mooney1","image-keyboard-response","168","517146","0.0-6.0-1.23","2471362","co37933","norming","","","","","","",""
"4225.850000000035","","","post_mooney1_questions","survey-likert","169","521374","0.0-6.0-2.23","2471362","co37933","norming","","","{""curiosity"":3,""confidence"":4}","[0,1]","../img/tt/1126tt.jpg","",""
"6246.0800000000745","","","recognition","survey-text","170","527622","0.0-6.0-3.23","2471362","co37933","norming","","","{""guess"":""man dat een berg beklimt ""}","","../img/tt/1126tt.jpg","",""
"null","../img/gs/1126gs.jpg","null","reveal","image-keyboard-response","171","529629","0.0-6.0-4.23","2471362","co37933","norming","","","","","","",""
"null","../img/tt/1126tt.jpg","null","mooney2","image-keyboard-response","172","531633","0.0-6.0-5.23","2471362","co37933","norming","","","","","","",""
"1298.7000000000698","","","post_reveal_questions","survey-likert","173","532934","0.0-6.0-6.23","2471362","co37933","norming","","","{""aha"":1}","[0]","../img/tt/1126tt.jpg","",""
"null","<div style=""font-size:60px;""> </div>","null","fixation","html-keyboard-response","174","533145","0.0-6.0-0.24","2471362","co37933","norming","","","","","","",""
"null","../img/tt/1118tt.jpg","null","mooney1","image-keyboard-response","175","536154","0.0-6.0-1.24","2471362","co37933","norming","","","","","","",""
"3449.0800000000745","","","post_mooney1_questions","survey-likert","176","539606","0.0-6.0-2.24","2471362","co37933","norming","","","{""curiosity"":4,""confidence"":2}","[0,1]","../img/tt/1118tt.jpg","",""
"2078.365000000107","","","recognition","survey-text","177","541686","0.0-6.0-3.24","2471362","co37933","norming","","","{""guess"":""kraan""}","","../img/tt/1118tt.jpg","",""
"null","../img/gs/1118gs.jpg","null","reveal","image-keyboard-response","178","543696","0.0-6.0-4.24","2471362","co37933","norming","","","","","","",""
"null","../img/tt/1118tt.jpg","null","mooney2","image-keyboard-response","179","545704","0.0-6.0-5.24","2471362","co37933","norming","","","","","","",""
"2139.335000000079","","","post_reveal_questions","survey-likert","180","547846","0.0-6.0-6.24","2471362","co37933","norming","","","{""aha"":0}","[0]","../img/tt/1118tt.jpg","",""
"null","<div style=""font-size:60px;""> </div>","null","fixation","html-keyboard-response","181","548053","0.0-6.0-0.25","2471362","co37933","norming","","","","","","",""
"null","../img/tt/357tt.jpg","null","mooney1","image-keyboard-response","182","551060","0.0-6.0-1.25","2471362","co37933","norming","","","","","","",""
"4039.519999999786","","","post_mooney1_questions","survey-likert","183","555102","0.0-6.0-2.25","2471362","co37933","norming","","","{""curiosity"":4,""confidence"":1}","[0,1]","../img/tt/357tt.jpg","",""
"1062.094999999972","","","recognition","survey-text","184","556166","0.0-6.0-3.25","2471362","co37933","norming","","","{""guess"":""""}","","../img/tt/357tt.jpg","",""
"null","../img/gs/357gs.jpg","null","reveal","image-keyboard-response","185","558169","0.0-6.0-4.25","2471362","co37933","norming","","","","","","",""
"null","../img/tt/357tt.jpg","null","mooney2","image-keyboard-response","186","560178","0.0-6.0-5.25","2471362","co37933","norming","","","","","","",""
"3202.0800000000745","","","post_reveal_questions","survey-likert","187","563382","0.0-6.0-6.25","2471362","co37933","norming","","","{""aha"":3}","[0]","../img/tt/357tt.jpg","",""
"null","<div style=""font-size:60px;""> </div>","null","fixation","html-keyboard-response","188","563590","0.0-6.0-0.26","2471362","co37933","norming","","","","","","",""
"null","../img/tt/1066tt.jpg","null","mooney1","image-keyboard-response","189","566603","0.0-6.0-1.26","2471362","co37933","norming","","","","","","",""
"4102.5950000000885","","","post_mooney1_questions","survey-likert","190","570708","0.0-6.0-2.26","2471362","co37933","norming","","","{""curiosity"":5,""confidence"":1}","[0,1]","../img/tt/1066tt.jpg","",""
"806.2700000000186","","","recognition","survey-text","191","571516","0.0-6.0-3.26","2471362","co37933","norming","","","{""guess"":""""}","","../img/tt/1066tt.jpg","",""
"null","../img/gs/1066gs.jpg","null","reveal","image-keyboard-response","192","573519","0.0-6.0-4.26","2471362","co37933","norming","","","","","","",""
"null","../img/tt/1066tt.jpg","null","mooney2","image-keyboard-response","193","575521","0.0-6.0-5.26","2471362","co37933","norming","","","","","","",""
"1880.8749999998836","","","post_reveal_questions","survey-likert","194","577404","0.0-6.0-6.26","2471362","co37933","norming","","","{""aha"":3}","[0]","../img/tt/1066tt.jpg","",""
"null","<div style=""font-size:60px;""> </div>","null","fixation","html-keyboard-response","195","577609","0.0-6.0-0.27","2471362","co37933","norming","","","","","","",""
"null","../img/tt/507tt.jpg","null","mooney1","image-keyboard-response","196","580616","0.0-6.0-1.27","2471362","co37933","norming","","","","","","",""
"4659.494999999879","","","post_mooney1_questions","survey-likert","197","585276","0.0-6.0-2.27","2471362","co37933","norming","","","{""curiosity"":4,""confidence"":2}","[0,1]","../img/tt/507tt.jpg","",""
"2734.1900000000605","","","recognition","survey-text","198","588012","0.0-6.0-3.27","2471362","co37933","norming","","","{""guess"":""podium""}","","../img/tt/507tt.jpg","",""
"null","../img/gs/507gs.jpg","null","reveal","image-keyboard-response","199","590018","0.0-6.0-4.27","2471362","co37933","norming","","","","","","",""
"null","../img/tt/507tt.jpg","null","mooney2","image-keyboard-response","200","592030","0.0-6.0-5.27","2471362","co37933","norming","","","","","","",""
"2155.1399999998976","","","post_reveal_questions","survey-likert","201","594188","0.0-6.0-6.27","2471362","co37933","norming","","","{""aha"":4}","[0]","../img/tt/507tt.jpg","",""
"null","<div style=""font-size:60px;""> </div>","null","fixation","html-keyboard-response","202","594391","0.0-6.0-0.28","2471362","co37933","norming","","","","","","",""
"null","../img/tt/1186tt.jpg","null","mooney1","image-keyboard-response","203","597403","0.0-6.0-1.28","2471362","co37933","norming","","","","","","",""
"4870.585000000196","","","post_mooney1_questions","survey-likert","204","602276","0.0-6.0-2.28","2471362","co37933","norming","","","{""curiosity"":5,""confidence"":0}","[0,1]","../img/tt/1186tt.jpg","",""
"646.2899999998044","","","recognition","survey-text","205","602924","0.0-6.0-3.28","2471362","co37933","norming","","","{""guess"":""""}","","../img/tt/1186tt.jpg","",""
"null","../img/gs/1186gs.jpg","null","reveal","image-keyboard-response","206","604930","0.0-6.0-4.28","2471362","co37933","norming","","","","","","",""
"null","../img/tt/1186tt.jpg","null","mooney2","image-keyboard-response","207","606934","0.0-6.0-5.28","2471362","co37933","norming","","","","","","",""
"1779.4149999999208","","","post_reveal_questions","survey-likert","208","608716","0.0-6.0-6.28","2471362","co37933","norming","","","{""aha"":2}","[0]","../img/tt/1186tt.jpg","",""
"null","<div style=""font-size:60px;""> </div>","null","fixation","html-keyboard-response","209","608921","0.0-6.0-0.29","2471362","co37933","norming","","","","","","",""
"null","../img/tt/1175tt.jpg","null","mooney1","image-keyboard-response","210","611930","0.0-6.0-1.29","2471362","co37933","norming","","","","","","",""
"7305.689999999828","","","post_mooney1_questions","survey-likert","211","619236","0.0-6.0-2.29","2471362","co37933","norming","","","{""curiosity"":5,""confidence"":1}","[0,1]","../img/tt/1175tt.jpg","",""
"3013.9749999998603","","","recognition","survey-text","212","622252","0.0-6.0-3.29","2471362","co37933","norming","","","{""guess"":""schoolbanken""}","","../img/tt/1175tt.jpg","",""
"null","../img/gs/1175gs.jpg","null","reveal","image-keyboard-response","213","624259","0.0-6.0-4.29","2471362","co37933","norming","","","","","","",""
"null","../img/tt/1175tt.jpg","null","mooney2","image-keyboard-response","214","626263","0.0-6.0-5.29","2471362","co37933","norming","","","","","","",""
"3075.1799999998184","","","post_reveal_questions","survey-likert","215","629332","0.0-6.0-6.29","2471362","co37933","norming","","","{""aha"":0}","[0]","../img/tt/1175tt.jpg","",""
"null","<div style=""font-size:60px;""> </div>","null","fixation","html-keyboard-response","216","629542","0.0-6.0-0.30","2471362","co37933","norming","","","","","","",""
"null","../img/tt/1200tt.jpg","null","mooney1","image-keyboard-response","217","632550","0.0-6.0-1.30","2471362","co37933","norming","","","","","","",""
"3347.944999999949","","","post_mooney1_questions","survey-likert","218","635901","0.0-6.0-2.30","2471362","co37933","norming","","","{""curiosity"":5,""confidence"":2}","[0,1]","../img/tt/1200tt.jpg","",""
"3686.140000000014","","","recognition","survey-text","219","639589","0.0-6.0-3.30","2471362","co37933","norming","","","{""guess"":""mensen in een kajak ""}","","../img/tt/1200tt.jpg","",""
"null","../img/gs/1200gs.jpg","null","reveal","image-keyboard-response","220","641597","0.0-6.0-4.30","2471362","co37933","norming","","","","","","",""
"null","../img/tt/1200tt.jpg","null","mooney2","image-keyboard-response","221","643598","0.0-6.0-5.30","2471362","co37933","norming","","","","","","",""
"3259.780000000028","","","post_reveal_questions","survey-likert","222","646860","0.0-6.0-6.30","2471362","co37933","norming","","","{""aha"":4}","[0]","../img/tt/1200tt.jpg","",""
"null","<div style=""font-size:60px;""> </div>","null","fixation","html-keyboard-response","223","647071","0.0-6.0-0.31","2471362","co37933","norming","","","","","","",""
"null","../img/tt/307tt.jpg","null","mooney1","image-keyboard-response","224","650080","0.0-6.0-1.31","2471362","co37933","norming","","","","","","",""
"3856.355000000214","","","post_mooney1_questions","survey-likert","225","653941","0.0-6.0-2.31","2471362","co37933","norming","","","{""curiosity"":5,""confidence"":1}","[0,1]","../img/tt/307tt.jpg","",""
"1998.1050000000978","","","recognition","survey-text","226","655941","0.0-6.0-3.31","2471362","co37933","norming","","","{""guess"":""dolfijn""}","","../img/tt/307tt.jpg","",""
"null","../img/gs/307gs.jpg","null","reveal","image-keyboard-response","227","657942","0.0-6.0-4.31","2471362","co37933","norming","","","","","","",""
"null","../img/tt/307tt.jpg","null","mooney2","image-keyboard-response","228","659943","0.0-6.0-5.31","2471362","co37933","norming","","","","","","",""
"1795.640000000014","","","post_reveal_questions","survey-likert","229","661740","0.0-6.0-6.31","2471362","co37933","norming","","","{""aha"":4}","[0]","../img/tt/307tt.jpg","",""
"null","<div style=""font-size:60px;""> </div>","null","fixation","html-keyboard-response","230","661947","0.0-6.0-0.32","2471362","co37933","norming","","","","","","",""
"null","../img/tt/580tt.jpg","null","mooney1","image-keyboard-response","231","664953","0.0-6.0-1.32","2471362","co37933","norming","","","","","","",""
"7952.324999999953","","","post_mooney1_questions","survey-likert","232","672909","0.0-6.0-2.32","2471362","co37933","norming","","","{""curiosity"":3,""confidence"":1}","[0,1]","../img/tt/580tt.jpg","",""
"846.234999999986","","","recognition","survey-text","233","673756","0.0-6.0-3.32","2471362","co37933","norming","","","{""guess"":""""}","","../img/tt/580tt.jpg","",""
"null","../img/gs/580gs.jpg","null","reveal","image-keyboard-response","234","675757","0.0-6.0-4.32","2471362","co37933","norming","","","","","","",""
"null","../img/tt/580tt.jpg","null","mooney2","image-keyboard-response","235","677769","0.0-6.0-5.32","2471362","co37933","norming","","","","","","",""
"2473.6300000002375","","","post_reveal_questions","survey-likert","236","680245","0.0-6.0-6.32","2471362","co37933","norming","","","{""aha"":1}","[0]","../img/tt/580tt.jpg","",""
"null","<div style=""font-size:60px;""> </div>","null","fixation","html-keyboard-response","237","680447","0.0-6.0-0.33","2471362","co37933","norming","","","","","","",""
"null","../img/tt/468tt.jpg","null","mooney1","image-keyboard-response","238","683458","0.0-6.0-1.33","2471362","co37933","norming","","","","","","",""
"4279.885000000126","","","post_mooney1_questions","survey-likert","239","687741","0.0-6.0-2.33","2471362","co37933","norming","","","{""curiosity"":5,""confidence"":2}","[0,1]","../img/tt/468tt.jpg","",""
"7749.975000000093","","","recognition","survey-text","240","695495","0.0-6.0-3.33","2471362","co37933","norming","","","{""guess"":""man met een hoed en pijl en boog""}","","../img/tt/468tt.jpg","",""
"null","../img/gs/468gs.jpg","null","reveal","image-keyboard-response","241","697497","0.0-6.0-4.33","2471362","co37933","norming","","","","","","",""
"null","../img/tt/468tt.jpg","null","mooney2","image-keyboard-response","242","699500","0.0-6.0-5.33","2471362","co37933","norming","","","","","","",""
"2176.2149999999674","","","post_reveal_questions","survey-likert","243","701679","0.0-6.0-6.33","2471362","co37933","norming","","","{""aha"":5}","[0]","../img/tt/468tt.jpg","",""
"null","<div style=""font-size:60px;""> </div>","null","fixation","html-keyboard-response","244","701886","0.0-6.0-0.34","2471362","co37933","norming","","","","","","",""
"null","../img/tt/306tt.jpg","null","mooney1","image-keyboard-response","245","704893","0.0-6.0-1.34","2471362","co37933","norming","","","","","","",""
"5150.92499999993","","","post_mooney1_questions","survey-likert","246","710047","0.0-6.0-2.34","2471362","co37933","norming","","","{""curiosity"":5,""confidence"":1}","[0,1]","../img/tt/306tt.jpg","",""
"1182.0650000000605","","","recognition","survey-text","247","711231","0.0-6.0-3.34","2471362","co37933","norming","","","{""guess"":""""}","","../img/tt/306tt.jpg","",""
"null","../img/gs/306gs.jpg","null","reveal","image-keyboard-response","248","713233","0.0-6.0-4.34","2471362","co37933","norming","","","","","","",""
"null","../img/tt/306tt.jpg","null","mooney2","image-keyboard-response","249","715236","0.0-6.0-5.34","2471362","co37933","norming","","","","","","",""
"4536.1900000000605","","","post_reveal_questions","survey-likert","250","719775","0.0-6.0-6.34","2471362","co37933","norming","","","{""aha"":1}","[0]","../img/tt/306tt.jpg","",""
"null","<div style=""font-size:60px;""> </div>","null","fixation","html-keyboard-response","251","719979","0.0-6.0-0.35","2471362","co37933","norming","","","","","","",""
"null","../img/tt/1307tt.jpg","null","mooney1","image-keyboard-response","252","722988","0.0-6.0-1.35","2471362","co37933","norming","","","","","","",""
"4127.570000000065","","","post_mooney1_questions","survey-likert","253","727119","0.0-6.0-2.35","2471362","co37933","norming","","","{""curiosity"":4,""confidence"":1}","[0,1]","../img/tt/1307tt.jpg","",""
"2006.0550000001676","","","recognition","survey-text","254","729127","0.0-6.0-3.35","2471362","co37933","norming","","","{""guess"":""trommel""}","","../img/tt/1307tt.jpg","",""
"null","../img/gs/1307gs.jpg","null","reveal","image-keyboard-response","255","731128","0.0-6.0-4.35","2471362","co37933","norming","","","","","","",""
"null","../img/tt/1307tt.jpg","null","mooney2","image-keyboard-response","256","733131","0.0-6.0-5.35","2471362","co37933","norming","","","","","","",""
"9473.500000000116","","","post_reveal_questions","survey-likert","257","742607","0.0-6.0-6.35","2471362","co37933","norming","","","{""aha"":2}","[0]","../img/tt/1307tt.jpg","",""
"null","<div style=""font-size:60px;""> </div>","null","fixation","html-keyboard-response","258","742817","0.0-6.0-0.36","2471362","co37933","norming","","","","","","",""
"null","../img/tt/1084tt.jpg","null","mooney1","image-keyboard-response","259","745826","0.0-6.0-1.36","2471362","co37933","norming","","","","","","",""
"4195.790000000037","","","post_mooney1_questions","survey-likert","260","750024","0.0-6.0-2.36","2471362","co37933","norming","","","{""curiosity"":4,""confidence"":1}","[0,1]","../img/tt/1084tt.jpg","",""
"1774.2600000002421","","","recognition","survey-text","261","751799","0.0-6.0-3.36","2471362","co37933","norming","","","{""guess"":""eten""}","","../img/tt/1084tt.jpg","",""
"null","../img/gs/1084gs.jpg","null","reveal","image-keyboard-response","262","753809","0.0-6.0-4.36","2471362","co37933","norming","","","","","","",""
"null","../img/tt/1084tt.jpg","null","mooney2","image-keyboard-response","263","755813","0.0-6.0-5.36","2471362","co37933","norming","","","","","","",""
"2648.350000000093","","","post_reveal_questions","survey-likert","264","758463","0.0-6.0-6.36","2471362","co37933","norming","","","{""aha"":3}","[0]","../img/tt/1084tt.jpg","",""
"null","<div style=""font-size:60px;""> </div>","null","fixation","html-keyboard-response","265","758666","0.0-6.0-0.37","2471362","co37933","norming","","","","","","",""
"null","../img/tt/121tt.jpg","null","mooney1","image-keyboard-response","266","761676","0.0-6.0-1.37","2471362","co37933","norming","","","","","","",""
"4570.454999999958","","","post_mooney1_questions","survey-likert","267","766247","0.0-6.0-2.37","2471362","co37933","norming","","","{""curiosity"":4,""confidence"":1}","[0,1]","../img/tt/121tt.jpg","",""
"3294.259999999893","","","recognition","survey-text","268","769543","0.0-6.0-3.37","2471362","co37933","norming","","","{""guess"":""boog""}","","../img/tt/121tt.jpg","",""
"null","../img/gs/121gs.jpg","null","reveal","image-keyboard-response","269","771550","0.0-6.0-4.37","2471362","co37933","norming","","","","","","",""
"null","../img/tt/121tt.jpg","null","mooney2","image-keyboard-response","270","773552","0.0-6.0-5.37","2471362","co37933","norming","","","","","","",""
"1923.2699999999022","","","post_reveal_questions","survey-likert","271","775479","0.0-6.0-6.37","2471362","co37933","norming","","","{""aha"":2}","[0]","../img/tt/121tt.jpg","",""
"null","<div style=""font-size:60px;""> </div>","null","fixation","html-keyboard-response","272","775684","0.0-6.0-0.38","2471362","co37933","norming","","","","","","",""
"null","../img/tt/1227tt.jpg","null","mooney1","image-keyboard-response","273","778691","0.0-6.0-1.38","2471362","co37933","norming","","","","","","",""
"3321.559999999823","","","post_mooney1_questions","survey-likert","274","782016","0.0-6.0-2.38","2471362","co37933","norming","","","{""curiosity"":4,""confidence"":1}","[0,1]","../img/tt/1227tt.jpg","",""
"4806.335000000079","","","recognition","survey-text","275","786823","0.0-6.0-3.38","2471362","co37933","norming","","","{""guess"":""""}","","../img/tt/1227tt.jpg","",""
"null","../img/gs/1227gs.jpg","null","reveal","image-keyboard-response","276","788830","0.0-6.0-4.38","2471362","co37933","norming","","","","","","",""
"null","../img/tt/1227tt.jpg","null","mooney2","image-keyboard-response","277","790839","0.0-6.0-5.38","2471362","co37933","norming","","","","","","",""
"2022.4100000000326","","","post_reveal_questions","survey-likert","278","792863","0.0-6.0-6.38","2471362","co37933","norming","","","{""aha"":4}","[0]","../img/tt/1227tt.jpg","",""
"null","<div style=""font-size:60px;""> </div>","null","fixation","html-keyboard-response","279","793070","0.0-6.0-0.39","2471362","co37933","norming","","","","","","",""
"null","../img/tt/040tt.jpg","null","mooney1","image-keyboard-response","280","796074","0.0-6.0-1.39","2471362","co37933","norming","","","","","","",""
"6010.855000000098","","","post_mooney1_questions","survey-likert","281","802088","0.0-6.0-2.39","2471362","co37933","norming","","","{""curiosity"":4,""confidence"":3}","[0,1]","../img/tt/040tt.jpg","",""
"3406.4599999998463","","","recognition","survey-text","282","805496","0.0-6.0-3.39","2471362","co37933","norming","","","{""guess"":""skelet van een dier""}","","../img/tt/040tt.jpg","",""
"null","../img/gs/040gs.jpg","null","reveal","image-keyboard-response","283","807500","0.0-6.0-4.39","2471362","co37933","norming","","","","","","",""
"null","../img/tt/040tt.jpg","null","mooney2","image-keyboard-response","284","809503","0.0-6.0-5.39","2471362","co37933","norming","","","","","","",""
"6501.610000000102","","","post_reveal_questions","survey-likert","285","816005","0.0-6.0-6.39","2471362","co37933","norming","","","{""aha"":3}","[0]","../img/tt/040tt.jpg","",""
"null","<div style=""font-size:60px;""> </div>","null","fixation","html-keyboard-response","286","816211","0.0-6.0-0.40","2471362","co37933","norming","","","","","","",""
"null","../img/tt/081tt.jpg","null","mooney1","image-keyboard-response","287","819218","0.0-6.0-1.40","2471362","co37933","norming","","","","","","",""
"2960.2700000000186","","","post_mooney1_questions","survey-likert","288","822181","0.0-6.0-2.40","2471362","co37933","norming","","","{""curiosity"":2,""confidence"":2}","[0,1]","../img/tt/081tt.jpg","",""
"2302.375","","","recognition","survey-text","289","824485","0.0-6.0-3.40","2471362","co37933","norming","","","{""guess"":""kikker""}","","../img/tt/081tt.jpg","",""
"null","../img/gs/081gs.jpg","null","reveal","image-keyboard-response","290","826487","0.0-6.0-4.40","2471362","co37933","norming","","","","","","",""
"null","../img/tt/081tt.jpg","null","mooney2","image-keyboard-response","291","828489","0.0-6.0-5.40","2471362","co37933","norming","","","","","","",""
"1921.565000000177","","","post_reveal_questions","survey-likert","292","830413","0.0-6.0-6.40","2471362","co37933","norming","","","{""aha"":1}","[0]","../img/tt/081tt.jpg","",""
"null","<div style=""font-size:60px;""> </div>","null","fixation","html-keyboard-response","293","830615","0.0-6.0-0.41","2471362","co37933","norming","","","","","","",""
"null","../img/tt/319tt.jpg","null","mooney1","image-keyboard-response","294","833623","0.0-6.0-1.41","2471362","co37933","norming","","","","","","",""
"3261.0449999996927","","","post_mooney1_questions","survey-likert","295","836885","0.0-6.0-2.41","2471362","co37933","norming","","","{""curiosity"":4,""confidence"":2}","[0,1]","../img/tt/319tt.jpg","",""
"2853.134999999893","","","recognition","survey-text","296","839749","0.0-6.0-3.41","2471362","co37933","norming","","","{""guess"":""zwijn""}","","../img/tt/319tt.jpg","",""
"null","../img/gs/319gs.jpg","null","reveal","image-keyboard-response","297","841756","0.0-6.0-4.41","2471362","co37933","norming","","","","","","",""
"null","../img/tt/319tt.jpg","null","mooney2","image-keyboard-response","298","843758","0.0-6.0-5.41","2471362","co37933","norming","","","","","","",""
"8204.13500000001","","","post_reveal_questions","survey-likert","299","851965","0.0-6.0-6.41","2471362","co37933","norming","","","{""aha"":3}","[0]","../img/tt/319tt.jpg","",""
"null","<div style=""font-size:60px;""> </div>","null","fixation","html-keyboard-response","300","852168","0.0-6.0-0.42","2471362","co37933","norming","","","","","","",""
"null","../img/tt/1188tt.jpg","null","mooney1","image-keyboard-response","301","855173","0.0-6.0-1.42","2471362","co37933","norming","","","","","","",""
"3716.940000000177","","","post_mooney1_questions","survey-likert","302","858893","0.0-6.0-2.42","2471362","co37933","norming","","","{""curiosity"":3,""confidence"":2}","[0,1]","../img/tt/1188tt.jpg","",""
"1190.2449999997625","","","recognition","survey-text","303","860085","0.0-6.0-3.42","2471362","co37933","norming","","","{""guess"":""koe""}","","../img/tt/1188tt.jpg","",""
"null","../img/gs/1188gs.jpg","null","reveal","image-keyboard-response","304","862087","0.0-6.0-4.42","2471362","co37933","norming","","","","","","",""
"null","../img/tt/1188tt.jpg","null","mooney2","image-keyboard-response","305","864095","0.0-6.0-5.42","2471362","co37933","norming","","","","","","",""
"1506.640000000014","","","post_reveal_questions","survey-likert","306","865605","0.0-6.0-6.42","2471362","co37933","norming","","","{""aha"":3}","[0]","../img/tt/1188tt.jpg","",""
"null","<div style=""font-size:60px;""> </div>","null","fixation","html-keyboard-response","307","865811","0.0-6.0-0.43","2471362","co37933","norming","","","","","","",""
"null","../img/tt/329tt.jpg","null","mooney1","image-keyboard-response","308","868815","0.0-6.0-1.43","2471362","co37933","norming","","","","","","",""
"5034.789999999688","","","post_mooney1_questions","survey-likert","309","873852","0.0-6.0-2.43","2471362","co37933","norming","","","{""curiosity"":4,""confidence"":2}","[0,1]","../img/tt/329tt.jpg","",""
"2374.2099999999627","","","recognition","survey-text","310","876228","0.0-6.0-3.43","2471362","co37933","norming","","","{""guess"":""buggy""}","","../img/tt/329tt.jpg","",""
"null","../img/gs/329gs.jpg","null","reveal","image-keyboard-response","311","878229","0.0-6.0-4.43","2471362","co37933","norming","","","","","","",""
"null","../img/tt/329tt.jpg","null","mooney2","image-keyboard-response","312","880231","0.0-6.0-5.43","2471362","co37933","norming","","","","","","",""
"3561.2249999998603","","","post_reveal_questions","survey-likert","313","883796","0.0-6.0-6.43","2471362","co37933","norming","","","{""aha"":1}","[0]","../img/tt/329tt.jpg","",""
"null","<div style=""font-size:60px;""> </div>","null","fixation","html-keyboard-response","314","883997","0.0-6.0-0.44","2471362","co37933","norming","","","","","","",""
"null","../img/tt/1254tt.jpg","null","mooney1","image-keyboard-response","315","887003","0.0-6.0-1.44","2471362","co37933","norming","","","","","","",""
"4557.804999999818","","","post_mooney1_questions","survey-likert","316","891564","0.0-6.0-2.44","2471362","co37933","norming","","","{""curiosity"":4,""confidence"":1}","[0,1]","../img/tt/1254tt.jpg","",""
"2198.649999999907","","","recognition","survey-text","317","893764","0.0-6.0-3.44","2471362","co37933","norming","","","{""guess"":""haas""}","","../img/tt/1254tt.jpg","",""
"null","../img/gs/1254gs.jpg","null","reveal","image-keyboard-response","318","895774","0.0-6.0-4.44","2471362","co37933","norming","","","","","","",""
"null","../img/tt/1254tt.jpg","null","mooney2","image-keyboard-response","319","897782","0.0-6.0-5.44","2471362","co37933","norming","","","","","","",""
"2755.355000000214","","","post_reveal_questions","survey-likert","320","900540","0.0-6.0-6.44","2471362","co37933","norming","","","{""aha"":3}","[0]","../img/tt/1254tt.jpg","",""
"null","<div style=""font-size:60px;""> </div>","null","fixation","html-keyboard-response","321","900746","0.0-6.0-0.45","2471362","co37933","norming","","","","","","",""
"null","../img/tt/091tt.jpg","null","mooney1","image-keyboard-response","322","903753","0.0-6.0-1.45","2471362","co37933","norming","","","","","","",""
"4217.2949999999255","","","post_mooney1_questions","survey-likert","323","907972","0.0-6.0-2.45","2471362","co37933","norming","","","{""curiosity"":5,""confidence"":1}","[0,1]","../img/tt/091tt.jpg","",""
"3405.9100000000326","","","recognition","survey-text","324","911380","0.0-6.0-3.45","2471362","co37933","norming","","","{""guess"":""zeeschip""}","","../img/tt/091tt.jpg","",""
"null","../img/gs/091gs.jpg","null","reveal","image-keyboard-response","325","913389","0.0-6.0-4.45","2471362","co37933","norming","","","","","","",""
"null","../img/tt/091tt.jpg","null","mooney2","image-keyboard-response","326","915390","0.0-6.0-5.45","2471362","co37933","norming","","","","","","",""
"2348.884999999893","","","post_reveal_questions","survey-likert","327","917740","0.0-6.0-6.45","2471362","co37933","norming","","","{""aha"":1}","[0]","../img/tt/091tt.jpg","",""
"null","<div style=""font-size:60px;""> </div>","null","fixation","html-keyboard-response","328","917950","0.0-6.0-0.46","2471362","co37933","norming","","","","","","",""
"null","../img/tt/517tt.jpg","null","mooney1","image-keyboard-response","329","920960","0.0-6.0-1.46","2471362","co37933","norming","","","","","","",""
"4546.619999999995","","","post_mooney1_questions","survey-likert","330","925508","0.0-6.0-2.46","2471362","co37933","norming","","","{""curiosity"":4,""confidence"":2}","[0,1]","../img/tt/517tt.jpg","",""
"1805.9450000000652","","","recognition","survey-text","331","927316","0.0-6.0-3.46","2471362","co37933","norming","","","{""guess"":""zwijn""}","","../img/tt/517tt.jpg","",""
"null","../img/gs/517gs.jpg","null","reveal","image-keyboard-response","332","929320","0.0-6.0-4.46","2471362","co37933","norming","","","","","","",""
"null","../img/tt/517tt.jpg","null","mooney2","image-keyboard-response","333","931325","0.0-6.0-5.46","2471362","co37933","norming","","","","","","",""
"3021.8649999996414","","","post_reveal_questions","survey-likert","334","934358","0.0-6.0-6.46","2471362","co37933","norming","","","{""aha"":3}","[0]","../img/tt/517tt.jpg","",""
"null","<div style=""font-size:60px;""> </div>","null","fixation","html-keyboard-response","335","934560","0.0-6.0-0.47","2471362","co37933","norming","","","","","","",""
"null","../img/tt/1002tt.jpg","null","mooney1","image-keyboard-response","336","937563","0.0-6.0-1.47","2471362","co37933","norming","","","","","","",""
"3114.3350000001956","","","post_mooney1_questions","survey-likert","337","940678","0.0-6.0-2.47","2471362","co37933","norming","","","{""curiosity"":4,""confidence"":2}","[0,1]","../img/tt/1002tt.jpg","",""
"2229.1199999999953","","","recognition","survey-text","338","942910","0.0-6.0-3.47","2471362","co37933","norming","","","{""guess"":""olifant""}","","../img/tt/1002tt.jpg","",""
"null","../img/gs/1002gs.jpg","null","reveal","image-keyboard-response","339","944911","0.0-6.0-4.47","2471362","co37933","norming","","","","","","",""
"null","../img/tt/1002tt.jpg","null","mooney2","image-keyboard-response","340","946913","0.0-6.0-5.47","2471362","co37933","norming","","","","","","",""
"2106.949999999837","","","post_reveal_questions","survey-likert","341","949022","0.0-6.0-6.47","2471362","co37933","norming","","","{""aha"":4}","[0]","../img/tt/1002tt.jpg","",""
"null","<div style=""font-size:60px;""> </div>","null","fixation","html-keyboard-response","342","949225","0.0-6.0-0.48","2471362","co37933","norming","","","","","","",""
"null","../img/tt/1151tt.jpg","null","mooney1","image-keyboard-response","343","952229","0.0-6.0-1.48","2471362","co37933","norming","","","","","","",""
"4542.385000000242","","","post_mooney1_questions","survey-likert","344","956775","0.0-6.0-2.48","2471362","co37933","norming","","","{""curiosity"":4,""confidence"":2}","[0,1]","../img/tt/1151tt.jpg","",""
"2166.310000000056","","","recognition","survey-text","345","958943","0.0-6.0-3.48","2471362","co37933","norming","","","{""guess"":""das""}","","../img/tt/1151tt.jpg","",""
"null","../img/gs/1151gs.jpg","null","reveal","image-keyboard-response","346","960950","0.0-6.0-4.48","2471362","co37933","norming","","","","","","",""
"null","../img/tt/1151tt.jpg","null","mooney2","image-keyboard-response","347","962953","0.0-6.0-5.48","2471362","co37933","norming","","","","","","",""
"5060.214999999967","","","post_reveal_questions","survey-likert","348","968014","0.0-6.0-6.48","2471362","co37933","norming","","","{""aha"":3}","[0]","../img/tt/1151tt.jpg","",""
"null","<div style=""font-size:60px;""> </div>","null","fixation","html-keyboard-response","349","968219","0.0-6.0-0.49","2471362","co37933","norming","","","","","","",""
"null","../img/tt/1096tt.jpg","null","mooney1","image-keyboard-response","350","971228","0.0-6.0-1.49","2471362","co37933","norming","","","","","","",""
"5437.249999999884","","","post_mooney1_questions","survey-likert","351","976671","0.0-6.0-2.49","2471362","co37933","norming","","","{""curiosity"":4,""confidence"":2}","[0,1]","../img/tt/1096tt.jpg","",""
"4621.7050000000745","","","recognition","survey-text","352","981294","0.0-6.0-3.49","2471362","co37933","norming","","","{""guess"":""iemand die vliegt""}","","../img/tt/1096tt.jpg","",""
"null","../img/gs/1096gs.jpg","null","reveal","image-keyboard-response","353","983298","0.0-6.0-4.49","2471362","co37933","norming","","","","","","",""
"null","../img/tt/1096tt.jpg","null","mooney2","image-keyboard-response","354","985301","0.0-6.0-5.49","2471362","co37933","norming","","","","","","",""
"4775.930000000284","","","post_reveal_questions","survey-likert","355","990078","0.0-6.0-6.49","2471362","co37933","norming","","","{""aha"":1}","[0]","../img/tt/1096tt.jpg","",""
"null","<div style=""font-size:60px;""> </div>","null","fixation","html-keyboard-response","356","990280","0.0-6.0-0.50","2471362","co37933","norming","","","","","","",""
"null","../img/tt/1142tt.jpg","null","mooney1","image-keyboard-response","357","993289","0.0-6.0-1.50","2471362","co37933","norming","","","","","","",""
"3554.460000000312","","","post_mooney1_questions","survey-likert","358","996842","0.0-6.0-2.50","2471362","co37933","norming","","","{""curiosity"":5,""confidence"":0}","[0,1]","../img/tt/1142tt.jpg","",""
"1006.2499999998836","","","recognition","survey-text","359","997849","0.0-6.0-3.50","2471362","co37933","norming","","","{""guess"":""""}","","../img/tt/1142tt.jpg","",""
"null","../img/gs/1142gs.jpg","null","reveal","image-keyboard-response","360","999860","0.0-6.0-4.50","2471362","co37933","norming","","","","","","",""
"null","../img/tt/1142tt.jpg","null","mooney2","image-keyboard-response","361","1001861","0.0-6.0-5.50","2471362","co37933","norming","","","","","","",""
"1595.7250000000931","","","post_reveal_questions","survey-likert","362","1003458","0.0-6.0-6.50","2471362","co37933","norming","","","{""aha"":4}","[0]","../img/tt/1142tt.jpg","",""
"null","<div style=""font-size:60px;""> </div>","null","fixation","html-keyboard-response","363","1003664","0.0-6.0-0.51","2471362","co37933","norming","","","","","","",""
"null","../img/tt/080tt.jpg","null","mooney1","image-keyboard-response","364","1006671","0.0-6.0-1.51","2471362","co37933","norming","","","","","","",""
"3263.4399999997113","","","post_mooney1_questions","survey-likert","365","1009937","0.0-6.0-2.51","2471362","co37933","norming","","","{""curiosity"":3,""confidence"":2}","[0,1]","../img/tt/080tt.jpg","",""
"3238.4350000001723","","","recognition","survey-text","366","1013178","0.0-6.0-3.51","2471362","co37933","norming","","","{""guess"":""paddenstoel ""}","","../img/tt/080tt.jpg","",""
"null","../img/gs/080gs.jpg","null","reveal","image-keyboard-response","367","1015180","0.0-6.0-4.51","2471362","co37933","norming","","","","","","",""
"null","../img/tt/080tt.jpg","null","mooney2","image-keyboard-response","368","1017182","0.0-6.0-5.51","2471362","co37933","norming","","","","","","",""
"1706.3900000002468","","","post_reveal_questions","survey-likert","369","1018890","0.0-6.0-6.51","2471362","co37933","norming","","","{""aha"":5}","[0]","../img/tt/080tt.jpg","",""
"null","<div style=""font-size:60px;""> </div>","null","fixation","html-keyboard-response","370","1019096","0.0-6.0-0.52","2471362","co37933","norming","","","","","","",""
"null","../img/tt/001tt.jpg","null","mooney1","image-keyboard-response","371","1022108","0.0-6.0-1.52","2471362","co37933","norming","","","","","","",""
"3221.070000000065","","","post_mooney1_questions","survey-likert","372","1025330","0.0-6.0-2.52","2471362","co37933","norming","","","{""curiosity"":1,""confidence"":5}","[0,1]","../img/tt/001tt.jpg","",""
"1606.1850000000559","","","recognition","survey-text","373","1026938","0.0-6.0-3.52","2471362","co37933","norming","","","{""guess"":""uil""}","","../img/tt/001tt.jpg","",""
"null","../img/gs/001gs.jpg","null","reveal","image-keyboard-response","374","1028946","0.0-6.0-4.52","2471362","co37933","norming","","","","","","",""
"null","../img/tt/001tt.jpg","null","mooney2","image-keyboard-response","375","1030956","0.0-6.0-5.52","2471362","co37933","norming","","","","","","",""
"2643.219999999972","","","post_reveal_questions","survey-likert","376","1033601","0.0-6.0-6.52","2471362","co37933","norming","","","{""aha"":1}","[0]","../img/tt/001tt.jpg","",""
"null","<div style=""font-size:60px;""> </div>","null","fixation","html-keyboard-response","377","1033807","0.0-6.0-0.53","2471362","co37933","norming","","","","","","",""
"null","../img/tt/078tt.jpg","null","mooney1","image-keyboard-response","378","1036815","0.0-6.0-1.53","2471362","co37933","norming","","","","","","",""
"3542.980000000214","","","post_mooney1_questions","survey-likert","379","1040362","0.0-6.0-2.53","2471362","co37933","norming","","","{""curiosity"":3,""confidence"":2}","[0,1]","../img/tt/078tt.jpg","",""
"5598.135000000242","","","recognition","survey-text","380","1045962","0.0-6.0-3.53","2471362","co37933","norming","","","{""guess"":""braambes""}","","../img/tt/078tt.jpg","",""
"null","../img/gs/078gs.jpg","null","reveal","image-keyboard-response","381","1047971","0.0-6.0-4.53","2471362","co37933","norming","","","","","","",""
"null","../img/tt/078tt.jpg","null","mooney2","image-keyboard-response","382","1049974","0.0-6.0-5.53","2471362","co37933","norming","","","","","","",""
"1330.179999999702","","","post_reveal_questions","survey-likert","383","1051306","0.0-6.0-6.53","2471362","co37933","norming","","","{""aha"":4}","[0]","../img/tt/078tt.jpg","",""
"null","<div style=""font-size:60px;""> </div>","null","fixation","html-keyboard-response","384","1051516","0.0-6.0-0.54","2471362","co37933","norming","","","","","","",""
"null","../img/tt/1171tt.jpg","null","mooney1","image-keyboard-response","385","1054528","0.0-6.0-1.54","2471362","co37933","norming","","","","","","",""
"5437.870000000112","","","post_mooney1_questions","survey-likert","386","1059974","0.0-6.0-2.54","2471362","co37933","norming","","","{""curiosity"":4,""confidence"":2}","[0,1]","../img/tt/1171tt.jpg","",""
"3365.964999999851","","","recognition","survey-text","387","1063342","0.0-6.0-3.54","2471362","co37933","norming","","","{""guess"":""oude enge vrouw""}","","../img/tt/1171tt.jpg","",""
"null","../img/gs/1171gs.jpg","null","reveal","image-keyboard-response","388","1065348","0.0-6.0-4.54","2471362","co37933","norming","","","","","","",""
"null","../img/tt/1171tt.jpg","null","mooney2","image-keyboard-response","389","1067359","0.0-6.0-5.54","2471362","co37933","norming","","","","","","",""
"1667.785000000149","","","post_reveal_questions","survey-likert","390","1069030","0.0-6.0-6.54","2471362","co37933","norming","","","{""aha"":2}","[0]","../img/tt/1171tt.jpg","",""
"null","<div style=""font-size:60px;""> </div>","null","fixation","html-keyboard-response","391","1069236","0.0-6.0-0.55","2471362","co37933","norming","","","","","","",""
"null","../img/tt/1154tt.jpg","null","mooney1","image-keyboard-response","392","1072244","0.0-6.0-1.55","2471362","co37933","norming","","","","","","",""
"3056.2700000000186","","","post_mooney1_questions","survey-likert","393","1075302","0.0-6.0-2.55","2471362","co37933","norming","","","{""curiosity"":5,""confidence"":2}","[0,1]","../img/tt/1154tt.jpg","",""
"1334.2099999999627","","","recognition","survey-text","394","1076638","0.0-6.0-3.55","2471362","co37933","norming","","","{""guess"":""""}","","../img/tt/1154tt.jpg","",""
"null","../img/gs/1154gs.jpg","null","reveal","image-keyboard-response","395","1078647","0.0-6.0-4.55","2471362","co37933","norming","","","","","","",""
"null","../img/tt/1154tt.jpg","null","mooney2","image-keyboard-response","396","1080649","0.0-6.0-5.55","2471362","co37933","norming","","","","","","",""
"1890.2800000002608","","","post_reveal_questions","survey-likert","397","1082542","0.0-6.0-6.55","2471362","co37933","norming","","","{""aha"":1}","[0]","../img/tt/1154tt.jpg","",""
"null","<div style=""font-size:60px;""> </div>","null","fixation","html-keyboard-response","398","1082752","0.0-6.0-0.56","2471362","co37933","norming","","","","","","",""
"null","../img/tt/1242tt.jpg","null","mooney1","image-keyboard-response","399","1085765","0.0-6.0-1.56","2471362","co37933","norming","","","","","","",""
"4853.979999999981","","","post_mooney1_questions","survey-likert","400","1090622","0.0-6.0-2.56","2471362","co37933","norming","","","{""curiosity"":4,""confidence"":1}","[0,1]","../img/tt/1242tt.jpg","",""
"6205.844999999972","","","recognition","survey-text","401","1096830","0.0-6.0-3.56","2471362","co37933","norming","","","{""guess"":""schorpioen""}","","../img/tt/1242tt.jpg","",""
"null","../img/gs/1242gs.jpg","null","reveal","image-keyboard-response","402","1098840","0.0-6.0-4.56","2471362","co37933","norming","","","","","","",""
"null","../img/tt/1242tt.jpg","null","mooney2","image-keyboard-response","403","1100848","0.0-6.0-5.56","2471362","co37933","norming","","","","","","",""
"2323.0849999999627","","","post_reveal_questions","survey-likert","404","1103174","0.0-6.0-6.56","2471362","co37933","norming","","","{""aha"":4}","[0]","../img/tt/1242tt.jpg","",""
"null","<div style=""font-size:60px;""> </div>","null","fixation","html-keyboard-response","405","1103375","0.0-6.0-0.57","2471362","co37933","norming","","","","","","",""
"null","../img/tt/064tt.jpg","null","mooney1","image-keyboard-response","406","1106382","0.0-6.0-1.57","2471362","co37933","norming","","","","","","",""
"2836.284999999916","","","post_mooney1_questions","survey-likert","407","1109222","0.0-6.0-2.57","2471362","co37933","norming","","","{""curiosity"":4,""confidence"":2}","[0,1]","../img/tt/064tt.jpg","",""
"2005.8700000001118","","","recognition","survey-text","408","1111230","0.0-6.0-3.57","2471362","co37933","norming","","","{""guess"":""pauw""}","","../img/tt/064tt.jpg","",""
"null","../img/gs/064gs.jpg","null","reveal","image-keyboard-response","409","1113236","0.0-6.0-4.57","2471362","co37933","norming","","","","","","",""
"null","../img/tt/064tt.jpg","null","mooney2","image-keyboard-response","410","1115245","0.0-6.0-5.57","2471362","co37933","norming","","","","","","",""
"3198.41500000027","","","post_reveal_questions","survey-likert","411","1118444","0.0-6.0-6.57","2471362","co37933","norming","","","{""aha"":4}","[0]","../img/tt/064tt.jpg","",""
"null","<div style=""font-size:60px;""> </div>","null","fixation","html-keyboard-response","412","1118649","0.0-6.0-0.58","2471362","co37933","norming","","","","","","",""
"null","../img/tt/124tt.jpg","null","mooney1","image-keyboard-response","413","1121658","0.0-6.0-1.58","2471362","co37933","norming","","","","","","",""
"4224.524999999907","","","post_mooney1_questions","survey-likert","414","1125884","0.0-6.0-2.58","2471362","co37933","norming","","","{""curiosity"":3,""confidence"":4}","[0,1]","../img/tt/124tt.jpg","",""
"2094.25","","","recognition","survey-text","415","1127980","0.0-6.0-3.58","2471362","co37933","norming","","","{""guess"":""gorilla""}","","../img/tt/124tt.jpg","",""
"null","../img/gs/124gs.jpg","null","reveal","image-keyboard-response","416","1129984","0.0-6.0-4.58","2471362","co37933","norming","","","","","","",""
"null","../img/tt/124tt.jpg","null","mooney2","image-keyboard-response","417","1131992","0.0-6.0-5.58","2471362","co37933","norming","","","","","","",""
"3074.8300000000745","","","post_reveal_questions","survey-likert","418","1135068","0.0-6.0-6.58","2471362","co37933","norming","","","{""aha"":1}","[0]","../img/tt/124tt.jpg","",""
"null","<div style=""font-size:60px;""> </div>","null","fixation","html-keyboard-response","419","1135269","0.0-6.0-0.59","2471362","co37933","norming","","","","","","",""
"null","../img/tt/1239tt.jpg","null","mooney1","image-keyboard-response","420","1138273","0.0-6.0-1.59","2471362","co37933","norming","","","","","","",""
"9448.014999999898","","","post_mooney1_questions","survey-likert","421","1147725","0.0-6.0-2.59","2471362","co37933","norming","","","{""curiosity"":2,""confidence"":2}","[0,1]","../img/tt/1239tt.jpg","",""
"4973.9199999999255","","","recognition","survey-text","422","1152700","0.0-6.0-3.59","2471362","co37933","norming","","","{""guess"":""basketbal""}","","../img/tt/1239tt.jpg","",""
"null","../img/gs/1239gs.jpg","null","reveal","image-keyboard-response","423","1154707","0.0-6.0-4.59","2471362","co37933","norming","","","","","","",""
"null","../img/tt/1239tt.jpg","null","mooney2","image-keyboard-response","424","1156715","0.0-6.0-5.59","2471362","co37933","norming","","","","","","",""
"1933.9650000000838","","","post_reveal_questions","survey-likert","425","1158652","0.0-6.0-6.59","2471362","co37933","norming","","","{""aha"":6}","[0]","../img/tt/1239tt.jpg","",""
"null","<div style=""font-size:60px;""> </div>","null","fixation","html-keyboard-response","426","1158854","0.0-6.0-0.60","2471362","co37933","norming","","","","","","",""
"null","../img/tt/599tt.jpg","null","mooney1","image-keyboard-response","427","1161857","0.0-6.0-1.60","2471362","co37933","norming","","","","","","",""
"3114.010000000242","","","post_mooney1_questions","survey-likert","428","1164973","0.0-6.0-2.60","2471362","co37933","norming","","","{""curiosity"":4,""confidence"":2}","[0,1]","../img/tt/599tt.jpg","",""
"1470.594999999972","","","recognition","survey-text","429","1166445","0.0-6.0-3.60","2471362","co37933","norming","","","{""guess"":""vogel""}","","../img/tt/599tt.jpg","",""
"null","../img/gs/599gs.jpg","null","reveal","image-keyboard-response","430","1168453","0.0-6.0-4.60","2471362","co37933","norming","","","","","","",""
"null","../img/tt/599tt.jpg","null","mooney2","image-keyboard-response","431","1170456","0.0-6.0-5.60","2471362","co37933","norming","","","","","","",""
"1817.4899999999907","","","post_reveal_questions","survey-likert","432","1172276","0.0-6.0-6.60","2471362","co37933","norming","","","{""aha"":2}","[0]","../img/tt/599tt.jpg","",""
"null","<div style=""font-size:60px;""> </div>","null","fixation","html-keyboard-response","433","1172479","0.0-6.0-0.61","2471362","co37933","norming","","","","","","",""
"null","../img/tt/1362tt.jpg","null","mooney1","image-keyboard-response","434","1175483","0.0-6.0-1.61","2471362","co37933","norming","","","","","","",""
"5181.869999999879","","","post_mooney1_questions","survey-likert","435","1180669","0.0-6.0-2.61","2471362","co37933","norming","","","{""curiosity"":4,""confidence"":2}","[0,1]","../img/tt/1362tt.jpg","",""
"885.9550000000745","","","recognition","survey-text","436","1181557","0.0-6.0-3.61","2471362","co37933","norming","","","{""guess"":""""}","","../img/tt/1362tt.jpg","",""
"null","../img/gs/1362gs.jpg","null","reveal","image-keyboard-response","437","1183568","0.0-6.0-4.61","2471362","co37933","norming","","","","","","",""
"null","../img/tt/1362tt.jpg","null","mooney2","image-keyboard-response","438","1185571","0.0-6.0-5.61","2471362","co37933","norming","","","","","","",""
"1926.549999999581","","","post_reveal_questions","survey-likert","439","1187501","0.0-6.0-6.61","2471362","co37933","norming","","","{""aha"":1}","[0]","../img/tt/1362tt.jpg","",""
"null","<div style=""font-size:60px;""> </div>","null","fixation","html-keyboard-response","440","1187703","0.0-6.0-0.62","2471362","co37933","norming","","","","","","",""
"null","../img/tt/1251tt.jpg","null","mooney1","image-keyboard-response","441","1190710","0.0-6.0-1.62","2471362","co37933","norming","","","","","","",""
"3459.070000000298","","","post_mooney1_questions","survey-likert","442","1194173","0.0-6.0-2.62","2471362","co37933","norming","","","{""curiosity"":4,""confidence"":2}","[0,1]","../img/tt/1251tt.jpg","",""
"1166.8149999999441","","","recognition","survey-text","443","1195341","0.0-6.0-3.62","2471362","co37933","norming","","","{""guess"":""aap""}","","../img/tt/1251tt.jpg","",""
"null","../img/gs/1251gs.jpg","null","reveal","image-keyboard-response","444","1197347","0.0-6.0-4.62","2471362","co37933","norming","","","","","","",""
"null","../img/tt/1251tt.jpg","null","mooney2","image-keyboard-response","445","1199349","0.0-6.0-5.62","2471362","co37933","norming","","","","","","",""
"1860.9200000001583","","","post_reveal_questions","survey-likert","446","1201213","0.0-6.0-6.62","2471362","co37933","norming","","","{""aha"":1}","[0]","../img/tt/1251tt.jpg","",""
"null","<div style=""font-size:60px;""> </div>","null","fixation","html-keyboard-response","447","1201416","0.0-6.0-0.63","2471362","co37933","norming","","","","","","",""
"null","../img/tt/056tt.jpg","null","mooney1","image-keyboard-response","448","1204426","0.0-6.0-1.63","2471362","co37933","norming","","","","","","",""
"3159.4150000000373","","","post_mooney1_questions","survey-likert","449","1207589","0.0-6.0-2.63","2471362","co37933","norming","","","{""curiosity"":1,""confidence"":1}","[0,1]","../img/tt/056tt.jpg","",""
"645.8749999997672","","","recognition","survey-text","450","1208236","0.0-6.0-3.63","2471362","co37933","norming","","","{""guess"":""""}","","../img/tt/056tt.jpg","",""
"null","../img/gs/056gs.jpg","null","reveal","image-keyboard-response","451","1210246","0.0-6.0-4.63","2471362","co37933","norming","","","","","","",""
"null","../img/tt/056tt.jpg","null","mooney2","image-keyboard-response","452","1212252","0.0-6.0-5.63","2471362","co37933","norming","","","","","","",""
"2078.0250000003725","","","post_reveal_questions","survey-likert","453","1214333","0.0-6.0-6.63","2471362","co37933","norming","","","{""aha"":1}","[0]","../img/tt/056tt.jpg","",""
"null","<div style=""font-size:60px;""> </div>","null","fixation","html-keyboard-response","454","1214536","0.0-6.0-0.64","2471362","co37933","norming","","","","","","",""
"null","../img/tt/301tt.jpg","null","mooney1","image-keyboard-response","455","1217544","0.0-6.0-1.64","2471362","co37933","norming","","","","","","",""
"4257.545000000391","","","post_mooney1_questions","survey-likert","456","1221805","0.0-6.0-2.64","2471362","co37933","norming","","","{""curiosity"":1,""confidence"":1}","[0,1]","../img/tt/301tt.jpg","",""
"2622.019999999786","","","recognition","survey-text","457","1224429","0.0-6.0-3.64","2471362","co37933","norming","","","{""guess"":""revolver""}","","../img/tt/301tt.jpg","",""
"null","../img/gs/301gs.jpg","null","reveal","image-keyboard-response","458","1226431","0.0-6.0-4.64","2471362","co37933","norming","","","","","","",""
"null","../img/tt/301tt.jpg","null","mooney2","image-keyboard-response","459","1228433","0.0-6.0-5.64","2471362","co37933","norming","","","","","","",""
"2706.4199999999255","","","post_reveal_questions","survey-likert","460","1231141","0.0-6.0-6.64","2471362","co37933","norming","","","{""aha"":1}","[0]","../img/tt/301tt.jpg","",""
"null","<div style=""font-size:60px;""> </div>","null","fixation","html-keyboard-response","461","1231345","0.0-6.0-0.65","2471362","co37933","norming","","","","","","",""
"null","../img/tt/1309tt.jpg","null","mooney1","image-keyboard-response","462","1234353","0.0-6.0-1.65","2471362","co37933","norming","","","","","","",""
"3528.435000000056","","","post_mooney1_questions","survey-likert","463","1237885","0.0-6.0-2.65","2471362","co37933","norming","","","{""curiosity"":1,""confidence"":1}","[0,1]","../img/tt/1309tt.jpg","",""
"2462.445000000298","","","recognition","survey-text","464","1240353","0.0-6.0-3.65","2471362","co37933","norming","","","{""guess"":""auto""}","","../img/tt/1309tt.jpg","",""
"null","../img/gs/1309gs.jpg","null","reveal","image-keyboard-response","465","1242360","0.0-6.0-4.65","2471362","co37933","norming","","","","","","",""
"null","../img/tt/1309tt.jpg","null","mooney2","image-keyboard-response","466","1244364","0.0-6.0-5.65","2471362","co37933","norming","","","","","","",""
"2729.839999999851","","","post_reveal_questions","survey-likert","467","1247097","0.0-6.0-6.65","2471362","co37933","norming","","","{""aha"":2}","[0]","../img/tt/1309tt.jpg","",""
"null","<div style=""font-size:60px;""> </div>","null","fixation","html-keyboard-response","468","1247300","0.0-6.0-0.66","2471362","co37933","norming","","","","","","",""
"null","../img/tt/126tt.jpg","null","mooney1","image-keyboard-response","469","1250311","0.0-6.0-1.66","2471362","co37933","norming","","","","","","",""
"4430.04000000027","","","post_mooney1_questions","survey-likert","470","1254745","0.0-6.0-2.66","2471362","co37933","norming","","","{""curiosity"":4,""confidence"":1}","[0,1]","../img/tt/126tt.jpg","",""
"5381.954999999842","","","recognition","survey-text","471","1260129","0.0-6.0-3.66","2471362","co37933","norming","","","{""guess"":""vliegtuig""}","","../img/tt/126tt.jpg","",""
"null","../img/gs/126gs.jpg","null","reveal","image-keyboard-response","472","1262136","0.0-6.0-4.66","2471362","co37933","norming","","","","","","",""
"null","../img/tt/126tt.jpg","null","mooney2","image-keyboard-response","473","1264138","0.0-6.0-5.66","2471362","co37933","norming","","","","","","",""
"1948.339999999851","","","post_reveal_questions","survey-likert","474","1266089","0.0-6.0-6.66","2471362","co37933","norming","","","{""aha"":4}","[0]","../img/tt/126tt.jpg","",""
"null","<div style=""font-size:60px;""> </div>","null","fixation","html-keyboard-response","475","1266295","0.0-6.0-0.67","2471362","co37933","norming","","","","","","",""
"null","../img/tt/049tt.jpg","null","mooney1","image-keyboard-response","476","1269301","0.0-6.0-1.67","2471362","co37933","norming","","","","","","",""
"3096.6550000002608","","","post_mooney1_questions","survey-likert","477","1272401","0.0-6.0-2.67","2471362","co37933","norming","","","{""curiosity"":1,""confidence"":1}","[0,1]","../img/tt/049tt.jpg","",""
"2942.059999999823","","","recognition","survey-text","478","1275345","0.0-6.0-3.67","2471362","co37933","norming","","","{""guess"":""kakkerlak""}","","../img/tt/049tt.jpg","",""
"null","../img/gs/049gs.jpg","null","reveal","image-keyboard-response","479","1277349","0.0-6.0-4.67","2471362","co37933","norming","","","","","","",""
"null","../img/tt/049tt.jpg","null","mooney2","image-keyboard-response","480","1279362","0.0-6.0-5.67","2471362","co37933","norming","","","","","","",""
"2852.000000000233","","","post_reveal_questions","survey-likert","481","1282217","0.0-6.0-6.67","2471362","co37933","norming","","","{""aha"":3}","[0]","../img/tt/049tt.jpg","",""
"null","<div style=""font-size:60px;""> </div>","null","fixation","html-keyboard-response","482","1282418","0.0-6.0-0.68","2471362","co37933","norming","","","","","","",""
"null","../img/tt/1116tt.jpg","null","mooney1","image-keyboard-response","483","1285423","0.0-6.0-1.68","2471362","co37933","norming","","","","","","",""
"5437.960000000196","","","post_mooney1_questions","survey-likert","484","1290865","0.0-6.0-2.68","2471362","co37933","norming","","","{""curiosity"":4,""confidence"":1}","[0,1]","../img/tt/1116tt.jpg","",""
"653.8800000003539","","","recognition","survey-text","485","1291521","0.0-6.0-3.68","2471362","co37933","norming","","","{""guess"":""""}","","../img/tt/1116tt.jpg","",""
"null","../img/gs/1116gs.jpg","null","reveal","image-keyboard-response","486","1293530","0.0-6.0-4.68","2471362","co37933","norming","","","","","","",""
"null","../img/tt/1116tt.jpg","null","mooney2","image-keyboard-response","487","1295533","0.0-6.0-5.68","2471362","co37933","norming","","","","","","",""
"2281.1750000000466","","","post_reveal_questions","survey-likert","488","1297817","0.0-6.0-6.68","2471362","co37933","norming","","","{""aha"":2}","[0]","../img/tt/1116tt.jpg","",""
"null","<div style=""font-size:60px;""> </div>","null","fixation","html-keyboard-response","489","1298020","0.0-6.0-0.69","2471362","co37933","norming","","","","","","",""
"null","../img/tt/435tt.jpg","null","mooney1","image-keyboard-response","490","1301034","0.0-6.0-1.69","2471362","co37933","norming","","","","","","",""
"5351.000000000233","","","post_mooney1_questions","survey-likert","491","1306389","0.0-6.0-2.69","2471362","co37933","norming","","","{""curiosity"":2,""confidence"":0}","[0,1]","../img/tt/435tt.jpg","",""
"693.6500000001397","","","recognition","survey-text","492","1307085","0.0-6.0-3.69","2471362","co37933","norming","","","{""guess"":""""}","","../img/tt/435tt.jpg","",""
"null","../img/gs/435gs.jpg","null","reveal","image-keyboard-response","493","1309093","0.0-6.0-4.69","2471362","co37933","norming","","","","","","",""
"null","../img/tt/435tt.jpg","null","mooney2","image-keyboard-response","494","1311095","0.0-6.0-5.69","2471362","co37933","norming","","","","","","",""
"1842.7849999999162","","","post_reveal_questions","survey-likert","495","1312941","0.0-6.0-6.69","2471362","co37933","norming","","","{""aha"":4}","[0]","../img/tt/435tt.jpg","",""
"null","<div style=""font-size:60px;""> </div>","null","fixation","html-keyboard-response","496","1313149","0.0-6.0-0.70","2471362","co37933","norming","","","","","","",""
"null","../img/tt/1040tt.jpg","null","mooney1","image-keyboard-response","497","1316156","0.0-6.0-1.70","2471362","co37933","norming","","","","","","",""
"4004.9399999997113","","","post_mooney1_questions","survey-likert","498","1320165","0.0-6.0-2.70","2471362","co37933","norming","","","{""curiosity"":4,""confidence"":2}","[0,1]","../img/tt/1040tt.jpg","",""
"6590.239999999991","","","recognition","survey-text","499","1326757","0.0-6.0-3.70","2471362","co37933","norming","","","{""guess"":""man die iets met zijn hand gooit""}","","../img/tt/1040tt.jpg","",""
"null","../img/gs/1040gs.jpg","null","reveal","image-keyboard-response","500","1328761","0.0-6.0-4.70","2471362","co37933","norming","","","","","","",""
"null","../img/tt/1040tt.jpg","null","mooney2","image-keyboard-response","501","1330771","0.0-6.0-5.70","2471362","co37933","norming","","","","","","",""
"3486.8000000000466","","","post_reveal_questions","survey-likert","502","1334261","0.0-6.0-6.70","2471362","co37933","norming","","","{""aha"":3}","[0]","../img/tt/1040tt.jpg","",""
"null","<div style=""font-size:60px;""> </div>","null","fixation","html-keyboard-response","503","1334469","0.0-6.0-0.71","2471362","co37933","norming","","","","","","",""
"null","../img/tt/1366tt.jpg","null","mooney1","image-keyboard-response","504","1337472","0.0-6.0-1.71","2471362","co37933","norming","","","","","","",""
"3097.929999999935","","","post_mooney1_questions","survey-likert","505","1340573","0.0-6.0-2.71","2471362","co37933","norming","","","{""curiosity"":3,""confidence"":2}","[0,1]","../img/tt/1366tt.jpg","",""
"1814.5500000000466","","","recognition","survey-text","506","1342389","0.0-6.0-3.71","2471362","co37933","norming","","","{""guess"":""cake""}","","../img/tt/1366tt.jpg","",""
"null","../img/gs/1366gs.jpg","null","reveal","image-keyboard-response","507","1344393","0.0-6.0-4.71","2471362","co37933","norming","","","","","","",""
"null","../img/tt/1366tt.jpg","null","mooney2","image-keyboard-response","508","1346402","0.0-6.0-5.71","2471362","co37933","norming","","","","","","",""
"1664.1750000002794","","","post_reveal_questions","survey-likert","509","1348069","0.0-6.0-6.71","2471362","co37933","norming","","","{""aha"":2}","[0]","../img/tt/1366tt.jpg","",""
"null","<div style=""font-size:60px;""> </div>","null","fixation","html-keyboard-response","510","1348272","0.0-6.0-0.72","2471362","co37933","norming","","","","","","",""
"null","../img/tt/1097tt.jpg","null","mooney1","image-keyboard-response","511","1351277","0.0-6.0-1.72","2471362","co37933","norming","","","","","","",""
"4852.35999999987","","","post_mooney1_questions","survey-likert","512","1356133","0.0-6.0-2.72","2471362","co37933","norming","","","{""curiosity"":4,""confidence"":3}","[0,1]","../img/tt/1097tt.jpg","",""
"4654.084999999963","","","recognition","survey-text","513","1360789","0.0-6.0-3.72","2471362","co37933","norming","","","{""guess"":""peddelboarden""}","","../img/tt/1097tt.jpg","",""
"null","../img/gs/1097gs.jpg","null","reveal","image-keyboard-response","514","1362790","0.0-6.0-4.72","2471362","co37933","norming","","","","","","",""
"null","../img/tt/1097tt.jpg","null","mooney2","image-keyboard-response","515","1364792","0.0-6.0-5.72","2471362","co37933","norming","","","","","","",""
"2233.7199999997392","","","post_reveal_questions","survey-likert","516","1367029","0.0-6.0-6.72","2471362","co37933","norming","","","{""aha"":1}","[0]","../img/tt/1097tt.jpg","",""
"null","<div style=""font-size:60px;""> </div>","null","fixation","html-keyboard-response","517","1367232","0.0-6.0-0.73","2471362","co37933","norming","","","","","","",""
"null","../img/tt/1004tt.jpg","null","mooney1","image-keyboard-response","518","1370240","0.0-6.0-1.73","2471362","co37933","norming","","","","","","",""
"5520.570000000065","","","post_mooney1_questions","survey-likert","519","1375765","0.0-6.0-2.73","2471362","co37933","norming","","","{""curiosity"":6,""confidence"":0}","[0,1]","../img/tt/1004tt.jpg","",""
"1261.9450000000652","","","recognition","survey-text","520","1377028","0.0-6.0-3.73","2471362","co37933","norming","","","{""guess"":""""}","","../img/tt/1004tt.jpg","",""
"null","../img/gs/1004gs.jpg","null","reveal","image-keyboard-response","521","1379031","0.0-6.0-4.73","2471362","co37933","norming","","","","","","",""
"null","../img/tt/1004tt.jpg","null","mooney2","image-keyboard-response","522","1381034","0.0-6.0-5.73","2471362","co37933","norming","","","","","","",""
"1679.8850000000093","","","post_reveal_questions","survey-likert","523","1382717","0.0-6.0-6.73","2471362","co37933","norming","","","{""aha"":2}","[0]","../img/tt/1004tt.jpg","",""
"null","<div style=""font-size:60px;""> </div>","null","fixation","html-keyboard-response","524","1382921","0.0-6.0-0.74","2471362","co37933","norming","","","","","","",""
"null","../img/tt/416tt.jpg","null","mooney1","image-keyboard-response","525","1385931","0.0-6.0-1.74","2471362","co37933","norming","","","","","","",""
"3976.5750000001863","","","post_mooney1_questions","survey-likert","526","1389909","0.0-6.0-2.74","2471362","co37933","norming","","","{""curiosity"":4,""confidence"":1}","[0,1]","../img/tt/416tt.jpg","",""
"565.8100000000559","","","recognition","survey-text","527","1390476","0.0-6.0-3.74","2471362","co37933","norming","","","{""guess"":""""}","","../img/tt/416tt.jpg","",""
"null","../img/gs/416gs.jpg","null","reveal","image-keyboard-response","528","1392478","0.0-6.0-4.74","2471362","co37933","norming","","","","","","",""
"null","../img/tt/416tt.jpg","null","mooney2","image-keyboard-response","529","1394480","0.0-6.0-5.74","2471362","co37933","norming","","","","","","",""
"1842.0449999996927","","","post_reveal_questions","survey-likert","530","1396325","0.0-6.0-6.74","2471362","co37933","norming","","","{""aha"":2}","[0]","../img/tt/416tt.jpg","",""
"null","<div style=""font-size:60px;""> </div>","null","fixation","html-keyboard-response","531","1396533","0.0-6.0-0.75","2471362","co37933","norming","","","","","","",""
"null","../img/tt/353tt.jpg","null","mooney1","image-keyboard-response","532","1399541","0.0-6.0-1.75","2471362","co37933","norming","","","","","","",""
"3644.320000000531","","","post_mooney1_questions","survey-likert","533","1403189","0.0-6.0-2.75","2471362","co37933","norming","","","{""curiosity"":4,""confidence"":0}","[0,1]","../img/tt/353tt.jpg","",""
"469.9399999999441","","","recognition","survey-text","534","1403661","0.0-6.0-3.75","2471362","co37933","norming","","","{""guess"":""""}","","../img/tt/353tt.jpg","",""
"null","../img/gs/353gs.jpg","null","reveal","image-keyboard-response","535","1405668","0.0-6.0-4.75","2471362","co37933","norming","","","","","","",""
"null","../img/tt/353tt.jpg","null","mooney2","image-keyboard-response","536","1407670","0.0-6.0-5.75","2471362","co37933","norming","","","","","","",""
"1988.2049999996088","","","post_reveal_questions","survey-likert","537","1409661","0.0-6.0-6.75","2471362","co37933","norming","","","{""aha"":2}","[0]","../img/tt/353tt.jpg","",""
"null","<div style=""font-size:60px;""> </div>","null","fixation","html-keyboard-response","538","1409862","0.0-6.0-0.76","2471362","co37933","norming","","","","","","",""
"null","../img/tt/1053tt.jpg","null","mooney1","image-keyboard-response","539","1412875","0.0-6.0-1.76","2471362","co37933","norming","","","","","","",""
"4541.894999999786","","","post_mooney1_questions","survey-likert","540","1417421","0.0-6.0-2.76","2471362","co37933","norming","","","{""curiosity"":3,""confidence"":1}","[0,1]","../img/tt/1053tt.jpg","",""
"2469.9199999999255","","","recognition","survey-text","541","1419892","0.0-6.0-3.76","2471362","co37933","norming","","","{""guess"":""olifant""}","","../img/tt/1053tt.jpg","",""
"null","../img/gs/1053gs.jpg","null","reveal","image-keyboard-response","542","1421898","0.0-6.0-4.76","2471362","co37933","norming","","","","","","",""
"null","../img/tt/1053tt.jpg","null","mooney2","image-keyboard-response","543","1423907","0.0-6.0-5.76","2471362","co37933","norming","","","","","","",""
"2561.2999999998137","","","post_reveal_questions","survey-likert","544","1426469","0.0-6.0-6.76","2471362","co37933","norming","","","{""aha"":5}","[0]","../img/tt/1053tt.jpg","",""
"null","<div style=""font-size:60px;""> </div>","null","fixation","html-keyboard-response","545","1426671","0.0-6.0-0.77","2471362","co37933","norming","","","","","","",""
"null","../img/tt/1046tt.jpg","null","mooney1","image-keyboard-response","546","1429684","0.0-6.0-1.77","2471362","co37933","norming","","","","","","",""
"3517.780000000028","","","post_mooney1_questions","survey-likert","547","1433206","0.0-6.0-2.77","2471362","co37933","norming","","","{""curiosity"":4,""confidence"":3}","[0,1]","../img/tt/1046tt.jpg","",""
"1870.2399999999907","","","recognition","survey-text","548","1435077","0.0-6.0-3.77","2471362","co37933","norming","","","{""guess"":""pizza""}","","../img/tt/1046tt.jpg","",""
"null","../img/gs/1046gs.jpg","null","reveal","image-keyboard-response","549","1437080","0.0-6.0-4.77","2471362","co37933","norming","","","","","","",""
"null","../img/tt/1046tt.jpg","null","mooney2","image-keyboard-response","550","1439089","0.0-6.0-5.77","2471362","co37933","norming","","","","","","",""
"3073.6299999998882","","","post_reveal_questions","survey-likert","551","1442165","0.0-6.0-6.77","2471362","co37933","norming","","","{""aha"":3}","[0]","../img/tt/1046tt.jpg","",""
