"rt","stimulus","key_press","test_part","trial_type","trial_index","time_elapsed","internal_node_id","totalTime","subject","experiment_name","button_pressed","success","responses","question_order","currentStim","old","correct"
"13942.3002629564","Welcome to the experiment. This is an online experiment so please don't close the tab/window until we say goodbye.  Press any key to begin.","13","instructions","html-keyboard-response","0","13948","0.0-0.0","4764938","co37678","norming","","","","","","",""
"35088.10004249179","<div style='word-wrap: break-word; width: 900px'><h3>Please consider this information carefully before deciding whether to participate in this research</h3><ul style='text-align: left; font-size: .8em;'><li><b>Purpose of the research</b>: To examine how people process images.</li><li><b>What you will do in this research</b>:  Stimuli (images) will be presented on the computer and you will be asked different questions about them.</li><li><b>Time required</b>: Participation will take between 45 and 60 minutes to complete.</li><li><b>Risks</b>:  There are no anticipated risks associated with participating in this study. The effects of participating should be comparable to those you would experience from viewing a computer monitor for 30 minutes and using a mouse or keyboard.</li><li><b>Benefits</b>:  This study provides no benefits to you individually except for the credit. The study provides important information about the nature of perception and learning.</li><li><b>Confidentiality</b>:  Your participation in this study will remain confidential. No personally identifiable information will be associated with your data. Your de-identified data may be shared with other researchers and used in future projects.</li><li><b>Participation and withdrawal</b>:  Your participation in this study is completely voluntary and you may refuse to participate or you may choose to withdraw at any time without penalty.</li><li><b>How to contact the researchers</b>: If you have questions or concerns about your participation or payment, or want to request a summary of research findings, please contact Sander Van de Cruys (KU Leuven), at sander.vandecruys@kuleuven.be.</li></ul><p>The nature and purpose of this research have been sufficiently explained and I agree to participate in this study.  I understand that I am free to withdraw at any time without incurring any penalty.</p><p>Please consent by clicking the button below to continue. Otherwise, please exit the study at this time.</p></div>","","instructions","html-button-response","1","49042","0.0-1.0","4764938","co37678","norming","0","","","","","",""
"","","","instructions","fullscreen","2","53904","0.0-2.0","4764938","co37678","norming","","true","","","","",""
"137301.19982839067","","","sona","survey-html-form","3","191206","0.0-3.0","4764938","co37678","norming","","","[{""name"":""sonaid"",""value"":""37678""},{""name"":""debrief"",""value"":""yes""},{""name"":""datajoin"",""value"":""yes""}]","","","",""
"65652.00009032068","<div style='word-wrap: break-word; width: 900px'><h3>Instructions</h3><p>This experiment will have 3 parts. In the first part you will see a series of distorted images like the one below on the left. As you can see in the righthand image, the distorted images are derived from actual photographs. In what follows, you will <strong>briefly</strong> be presented with <strong>only</strong> the distorted image.</p> <div style='float: left; margin-right: 20px;'><img src='../img/018tt.jpg' height='250' width='250'></img></div><div style='float: right; margin-left: 20px;'><img src='../img/018gs.jpg' height='250' width='250'></img></div><p>Subsequently you will be asked a few questions about the image: One question on how <strong>curious</strong> you are about the solution and one on how <strong>confident</strong> you are that you know the solution.</p>Next, we ask you to make a guess on what is in the image. Note that it is OK to name just the <strong>basic level category</strong>. For example when you see a parrot in the image, 'parrot' will obviously be a correct answer but also correct is 'bird'. However, 'animal' will <strong>not</strong> be counted as a correct response. For the example above, 'rose' would be correct or 'flower', but not 'plant'. When soccer players are depicted, 'soccer', 'football', 'soccer players' will be correct, but not 'humans', 'outdoors', or 'sports'. You do not need to describe the image in full, just name the main object in it <strong>in one or two words</strong>. All images depict objects from one of the following broad level categories: animals, inanimate objects, plants, sports, vehicles, and food. Recognizing means knowing <strong>more</strong> than these broad labels for a given image. But we always encourage you to <strong>make a guess</strong> if you can. Note that you are allowed to use <strong>Dutch and English</strong> in your answers, whatever comes easiest for you.</p><p>Press any key to continue.</p></div>","13","instructions","html-keyboard-response","4","256861","0.0-4.0","4764938","co37678","norming","","","","","","",""
"16781.60003120167","<div style='word-wrap: break-word; width: 900px'><h3>Instructions</h3> <p>Next, the solution image will be revealed to you and you'll be asked to indicate how strong your <strong>aha-experience</strong> was after seeing the solution. This describes the positive feeling of the 'click' you sometimes experience, when the pieces of the 'puzzle' fall together and you suddenly have 'insight' in the image.</p><img src='aha.jpg' height='188' width='250'></img><p>Note that there are no right or wrong answers. We are interested in what <strong>you</strong> see in the image and how <strong>you</strong> feel about it.</p><p>Press any key to start the experiment.</p></div>","13","instructions","html-keyboard-response","5","273644","0.0-5.0","4764938","co37678","norming","","","","","","",""
"null","<div style=""font-size:60px;""> </div>","null","fixation","html-keyboard-response","6","273851","0.0-6.0-0.0","4764938","co37678","norming","","","","","","",""
"null","../img/tt/1217tt.jpg","null","mooney1","image-keyboard-response","7","276867","0.0-6.0-1.0","4764938","co37678","norming","","","","","","",""
"15472.400252076855","","","post_mooney1_questions","survey-likert","8","292348","0.0-6.0-2.0","4764938","co37678","norming","","","{""curiosity"":4,""confidence"":4}","[0,1]","../img/tt/1217tt.jpg","",""
"10890.300172635703","","","recognition","survey-text","9","303244","0.0-6.0-3.0","4764938","co37678","norming","","","{""guess"":""een koe""}","","../img/tt/1217tt.jpg","",""
"null","../img/gs/1217gs.jpg","null","reveal","image-keyboard-response","10","305268","0.0-6.0-4.0","4764938","co37678","norming","","","","","","",""
"null","../img/tt/1217tt.jpg","null","mooney2","image-keyboard-response","11","307252","0.0-6.0-5.0","4764938","co37678","norming","","","","","","",""
"9405.000071846006","","","post_reveal_questions","survey-likert","12","316661","0.0-6.0-6.0","4764938","co37678","norming","","","{""aha"":2}","[0]","../img/tt/1217tt.jpg","",""
"null","<div style=""font-size:60px;""> </div>","null","fixation","html-keyboard-response","13","316885","0.0-6.0-0.1","4764938","co37678","norming","","","","","","",""
"null","../img/tt/590tt.jpg","null","mooney1","image-keyboard-response","14","319891","0.0-6.0-1.1","4764938","co37678","norming","","","","","","",""
"14469.300199321413","","","post_mooney1_questions","survey-likert","15","334363","0.0-6.0-2.1","4764938","co37678","norming","","","{""curiosity"":5,""confidence"":1}","[0,1]","../img/tt/590tt.jpg","",""
"9407.70025022939","","","recognition","survey-text","16","343775","0.0-6.0-3.1","4764938","co37678","norming","","","{""guess"":""een houten plank""}","","../img/tt/590tt.jpg","",""
"null","../img/gs/590gs.jpg","null","reveal","image-keyboard-response","17","345801","0.0-6.0-4.1","4764938","co37678","norming","","","","","","",""
"null","../img/tt/590tt.jpg","null","mooney2","image-keyboard-response","18","347799","0.0-6.0-5.1","4764938","co37678","norming","","","","","","",""
"5114.499962024274","","","post_reveal_questions","survey-likert","19","352915","0.0-6.0-6.1","4764938","co37678","norming","","","{""aha"":5}","[0]","../img/tt/590tt.jpg","",""
"null","<div style=""font-size:60px;""> </div>","null","fixation","html-keyboard-response","20","353127","0.0-6.0-0.2","4764938","co37678","norming","","","","","","",""
"null","../img/tt/315tt.jpg","null","mooney1","image-keyboard-response","21","356144","0.0-6.0-1.2","4764938","co37678","norming","","","","","","",""
"9436.200126038398","","","post_mooney1_questions","survey-likert","22","365584","0.0-6.0-2.2","4764938","co37678","norming","","","{""curiosity"":5,""confidence"":0}","[0,1]","../img/tt/315tt.jpg","",""
"4924.300168530259","","","recognition","survey-text","23","370514","0.0-6.0-3.2","4764938","co37678","norming","","","{""guess"":""natuur""}","","../img/tt/315tt.jpg","",""
"null","../img/gs/315gs.jpg","null","reveal","image-keyboard-response","24","372538","0.0-6.0-4.2","4764938","co37678","norming","","","","","","",""
"null","../img/tt/315tt.jpg","null","mooney2","image-keyboard-response","25","374538","0.0-6.0-5.2","4764938","co37678","norming","","","","","","",""
"5136.799732322281","","","post_reveal_questions","survey-likert","26","379678","0.0-6.0-6.2","4764938","co37678","norming","","","{""aha"":1}","[0]","../img/tt/315tt.jpg","",""
"null","<div style=""font-size:60px;""> </div>","null","fixation","html-keyboard-response","27","379903","0.0-6.0-0.3","4764938","co37678","norming","","","","","","",""
"null","../img/tt/1290tt.jpg","null","mooney1","image-keyboard-response","28","382916","0.0-6.0-1.3","4764938","co37678","norming","","","","","","",""
"7942.599963461165","","","post_mooney1_questions","survey-likert","29","390880","0.0-6.0-2.3","4764938","co37678","norming","","","{""curiosity"":5,""confidence"":4}","[0,1]","../img/tt/1290tt.jpg","",""
"4842.300057682092","","","recognition","survey-text","30","395725","0.0-6.0-3.3","4764938","co37678","norming","","","{""guess"":""granaatappel""}","","../img/tt/1290tt.jpg","",""
"null","../img/gs/1290gs.jpg","null","reveal","image-keyboard-response","31","397735","0.0-6.0-4.3","4764938","co37678","norming","","","","","","",""
"null","../img/tt/1290tt.jpg","null","mooney2","image-keyboard-response","32","399750","0.0-6.0-5.3","4764938","co37678","norming","","","","","","",""
"6764.500269935699","","","post_reveal_questions","survey-likert","33","406518","0.0-6.0-6.3","4764938","co37678","norming","","","{""aha"":2}","[0]","../img/tt/1290tt.jpg","",""
"null","<div style=""font-size:60px;""> </div>","null","fixation","html-keyboard-response","34","406725","0.0-6.0-0.4","4764938","co37678","norming","","","","","","",""
"null","../img/tt/1269tt.jpg","null","mooney1","image-keyboard-response","35","409746","0.0-6.0-1.4","4764938","co37678","norming","","","","","","",""
"6548.900242839532","","","post_mooney1_questions","survey-likert","36","416298","0.0-6.0-2.4","4764938","co37678","norming","","","{""curiosity"":6,""confidence"":5}","[0,1]","../img/tt/1269tt.jpg","",""
"3696.69980478409","","","recognition","survey-text","37","419999","0.0-6.0-3.4","4764938","co37678","norming","","","{""guess"":""een kat""}","","../img/tt/1269tt.jpg","",""
"null","../img/gs/1269gs.jpg","null","reveal","image-keyboard-response","38","422021","0.0-6.0-4.4","4764938","co37678","norming","","","","","","",""
"null","../img/tt/1269tt.jpg","null","mooney2","image-keyboard-response","39","424023","0.0-6.0-5.4","4764938","co37678","norming","","","","","","",""
"5557.8001161852735","","","post_reveal_questions","survey-likert","40","429585","0.0-6.0-6.4","4764938","co37678","norming","","","{""aha"":4}","[0]","../img/tt/1269tt.jpg","",""
"null","<div style=""font-size:60px;""> </div>","null","fixation","html-keyboard-response","41","429803","0.0-6.0-0.5","4764938","co37678","norming","","","","","","",""
"null","../img/tt/1156tt.jpg","null","mooney1","image-keyboard-response","42","432822","0.0-6.0-1.5","4764938","co37678","norming","","","","","","",""
"15215.699790414888","","","post_mooney1_questions","survey-likert","43","448040","0.0-6.0-2.5","4764938","co37678","norming","","","{""curiosity"":5,""confidence"":1}","[0,1]","../img/tt/1156tt.jpg","",""
"5080.600139997085","","","recognition","survey-text","44","453125","0.0-6.0-3.5","4764938","co37678","norming","","","{""guess"":""een deken""}","","../img/tt/1156tt.jpg","",""
"null","../img/gs/1156gs.jpg","null","reveal","image-keyboard-response","45","455129","0.0-6.0-4.5","4764938","co37678","norming","","","","","","",""
"null","../img/tt/1156tt.jpg","null","mooney2","image-keyboard-response","46","457131","0.0-6.0-5.5","4764938","co37678","norming","","","","","","",""
"8007.900187415478","","","post_reveal_questions","survey-likert","47","465144","0.0-6.0-6.5","4764938","co37678","norming","","","{""aha"":4}","[0]","../img/tt/1156tt.jpg","",""
"null","<div style=""font-size:60px;""> </div>","null","fixation","html-keyboard-response","48","465355","0.0-6.0-0.6","4764938","co37678","norming","","","","","","",""
"null","../img/tt/1186tt.jpg","null","mooney1","image-keyboard-response","49","468369","0.0-6.0-1.6","4764938","co37678","norming","","","","","","",""
"12320.39995648188","","","post_mooney1_questions","survey-likert","50","480691","0.0-6.0-2.6","4764938","co37678","norming","","","{""curiosity"":4,""confidence"":1}","[0,1]","../img/tt/1186tt.jpg","",""
"3581.900142255123","","","recognition","survey-text","51","484278","0.0-6.0-3.6","4764938","co37678","norming","","","{""guess"":""""}","","../img/tt/1186tt.jpg","",""
"null","../img/gs/1186gs.jpg","null","reveal","image-keyboard-response","52","486285","0.0-6.0-4.6","4764938","co37678","norming","","","","","","",""
"null","../img/tt/1186tt.jpg","null","mooney2","image-keyboard-response","53","488286","0.0-6.0-5.6","4764938","co37678","norming","","","","","","",""
"3098.599823874596","","","post_reveal_questions","survey-likert","54","491388","0.0-6.0-6.6","4764938","co37678","norming","","","{""aha"":4}","[0]","../img/tt/1186tt.jpg","",""
"null","<div style=""font-size:60px;""> </div>","null","fixation","html-keyboard-response","55","491604","0.0-6.0-0.7","4764938","co37678","norming","","","","","","",""
"null","../img/tt/1234tt.jpg","null","mooney1","image-keyboard-response","56","494627","0.0-6.0-1.7","4764938","co37678","norming","","","","","","",""
"8143.19977501937","","","post_mooney1_questions","survey-likert","57","502772","0.0-6.0-2.7","4764938","co37678","norming","","","{""curiosity"":5,""confidence"":1}","[0,1]","../img/tt/1234tt.jpg","",""
"6649.499849123415","","","recognition","survey-text","58","509426","0.0-6.0-3.7","4764938","co37678","norming","","","{""guess"":""een persoon die ligt""}","","../img/tt/1234tt.jpg","",""
"null","../img/gs/1234gs.jpg","null","reveal","image-keyboard-response","59","511435","0.0-6.0-4.7","4764938","co37678","norming","","","","","","",""
"null","../img/tt/1234tt.jpg","null","mooney2","image-keyboard-response","60","513440","0.0-6.0-5.7","4764938","co37678","norming","","","","","","",""
"3246.4999702351633","","","post_reveal_questions","survey-likert","61","516689","0.0-6.0-6.7","4764938","co37678","norming","","","{""aha"":2}","[0]","../img/tt/1234tt.jpg","",""
"null","<div style=""font-size:60px;""> </div>","null","fixation","html-keyboard-response","62","516898","0.0-6.0-0.8","4764938","co37678","norming","","","","","","",""
"null","../img/tt/1363tt.jpg","null","mooney1","image-keyboard-response","63","519918","0.0-6.0-1.8","4764938","co37678","norming","","","","","","",""
"8852.099853639374","","","post_mooney1_questions","survey-likert","64","528772","0.0-6.0-2.8","4764938","co37678","norming","","","{""curiosity"":4,""confidence"":2}","[0,1]","../img/tt/1363tt.jpg","",""
"4370.299679977354","","","recognition","survey-text","65","533148","0.0-6.0-3.8","4764938","co37678","norming","","","{""guess"":""een kom""}","","../img/tt/1363tt.jpg","",""
"null","../img/gs/1363gs.jpg","null","reveal","image-keyboard-response","66","535153","0.0-6.0-4.8","4764938","co37678","norming","","","","","","",""
"null","../img/tt/1363tt.jpg","null","mooney2","image-keyboard-response","67","537172","0.0-6.0-5.8","4764938","co37678","norming","","","","","","",""
"3718.200236886507","","","post_reveal_questions","survey-likert","68","540893","0.0-6.0-6.8","4764938","co37678","norming","","","{""aha"":6}","[0]","../img/tt/1363tt.jpg","",""
"null","<div style=""font-size:60px;""> </div>","null","fixation","html-keyboard-response","69","541110","0.0-6.0-0.9","4764938","co37678","norming","","","","","","",""
"null","../img/tt/1037tt.jpg","null","mooney1","image-keyboard-response","70","544137","0.0-6.0-1.9","4764938","co37678","norming","","","","","","",""
"8440.400038591586","","","post_mooney1_questions","survey-likert","71","552580","0.0-6.0-2.9","4764938","co37678","norming","","","{""curiosity"":5,""confidence"":3}","[0,1]","../img/tt/1037tt.jpg","",""
"3298.3001233699033","","","recognition","survey-text","72","555883","0.0-6.0-3.9","4764938","co37678","norming","","","{""guess"":""een hond""}","","../img/tt/1037tt.jpg","",""
"null","../img/gs/1037gs.jpg","null","reveal","image-keyboard-response","73","557889","0.0-6.0-4.9","4764938","co37678","norming","","","","","","",""
"null","../img/tt/1037tt.jpg","null","mooney2","image-keyboard-response","74","559899","0.0-6.0-5.9","4764938","co37678","norming","","","","","","",""
"4267.499943549512","","","post_reveal_questions","survey-likert","75","564170","0.0-6.0-6.9","4764938","co37678","norming","","","{""aha"":6}","[0]","../img/tt/1037tt.jpg","",""
"null","<div style=""font-size:60px;""> </div>","null","fixation","html-keyboard-response","76","564374","0.0-6.0-0.10","4764938","co37678","norming","","","","","","",""
"null","../img/tt/1307tt.jpg","null","mooney1","image-keyboard-response","77","567393","0.0-6.0-1.10","4764938","co37678","norming","","","","","","",""
"7593.799894488999","","","post_mooney1_questions","survey-likert","78","574989","0.0-6.0-2.10","4764938","co37678","norming","","","{""curiosity"":6,""confidence"":5}","[0,1]","../img/tt/1307tt.jpg","",""
"3866.000209379825","","","recognition","survey-text","79","578861","0.0-6.0-3.10","4764938","co37678","norming","","","{""guess"":""een waaier""}","","../img/tt/1307tt.jpg","",""
"null","../img/gs/1307gs.jpg","null","reveal","image-keyboard-response","80","580866","0.0-6.0-4.10","4764938","co37678","norming","","","","","","",""
"null","../img/tt/1307tt.jpg","null","mooney2","image-keyboard-response","81","582866","0.0-6.0-5.10","4764938","co37678","norming","","","","","","",""
"3917.799951965804","","","post_reveal_questions","survey-likert","82","586787","0.0-6.0-6.10","4764938","co37678","norming","","","{""aha"":2}","[0]","../img/tt/1307tt.jpg","",""
"null","<div style=""font-size:60px;""> </div>","null","fixation","html-keyboard-response","83","586991","0.0-6.0-0.11","4764938","co37678","norming","","","","","","",""
"null","../img/tt/1272tt.jpg","null","mooney1","image-keyboard-response","84","589997","0.0-6.0-1.11","4764938","co37678","norming","","","","","","",""
"6942.400026275078","","","post_mooney1_questions","survey-likert","85","596942","0.0-6.0-2.11","4764938","co37678","norming","","","{""curiosity"":5,""confidence"":4}","[0,1]","../img/tt/1272tt.jpg","",""
"5513.600039412733","","","recognition","survey-text","86","602460","0.0-6.0-3.11","4764938","co37678","norming","","","{""guess"":""omheiningsdraad""}","","../img/tt/1272tt.jpg","",""
"null","../img/gs/1272gs.jpg","null","reveal","image-keyboard-response","87","604489","0.0-6.0-4.11","4764938","co37678","norming","","","","","","",""
"null","../img/tt/1272tt.jpg","null","mooney2","image-keyboard-response","88","606476","0.0-6.0-5.11","4764938","co37678","norming","","","","","","",""
"5391.6001748937415","","","post_reveal_questions","survey-likert","89","611870","0.0-6.0-6.11","4764938","co37678","norming","","","{""aha"":5}","[0]","../img/tt/1272tt.jpg","",""
"null","<div style=""font-size:60px;""> </div>","null","fixation","html-keyboard-response","90","612089","0.0-6.0-0.12","4764938","co37678","norming","","","","","","",""
"null","../img/tt/040tt.jpg","null","mooney1","image-keyboard-response","91","615114","0.0-6.0-1.12","4764938","co37678","norming","","","","","","",""
"5103.1002580297645","","","post_mooney1_questions","survey-likert","92","620218","0.0-6.0-2.12","4764938","co37678","norming","","","{""curiosity"":5,""confidence"":4}","[0,1]","../img/tt/040tt.jpg","",""
"8205.700057271518","","","recognition","survey-text","93","628427","0.0-6.0-3.12","4764938","co37678","norming","","","{""guess"":""een hond die in de zetel ligt""}","","../img/tt/040tt.jpg","",""
"null","../img/gs/040gs.jpg","null","reveal","image-keyboard-response","94","630446","0.0-6.0-4.12","4764938","co37678","norming","","","","","","",""
"null","../img/tt/040tt.jpg","null","mooney2","image-keyboard-response","95","632451","0.0-6.0-5.12","4764938","co37678","norming","","","","","","",""
"4501.599702762789","","","post_reveal_questions","survey-likert","96","636955","0.0-6.0-6.12","4764938","co37678","norming","","","{""aha"":5}","[0]","../img/tt/040tt.jpg","",""
"null","<div style=""font-size:60px;""> </div>","null","fixation","html-keyboard-response","97","637175","0.0-6.0-0.13","4764938","co37678","norming","","","","","","",""
"null","../img/tt/189tt.jpg","null","mooney1","image-keyboard-response","98","640193","0.0-6.0-1.13","4764938","co37678","norming","","","","","","",""
"7510.400223338511","","","post_mooney1_questions","survey-likert","99","647707","0.0-6.0-2.13","4764938","co37678","norming","","","{""curiosity"":5,""confidence"":4}","[0,1]","../img/tt/189tt.jpg","",""
"3305.9999630505917","","","recognition","survey-text","100","651018","0.0-6.0-3.13","4764938","co37678","norming","","","{""guess"":""een vogel""}","","../img/tt/189tt.jpg","",""
"null","../img/gs/189gs.jpg","null","reveal","image-keyboard-response","101","653044","0.0-6.0-4.13","4764938","co37678","norming","","","","","","",""
"null","../img/tt/189tt.jpg","null","mooney2","image-keyboard-response","102","655043","0.0-6.0-5.13","4764938","co37678","norming","","","","","","",""
"3078.4000098531833","","","post_reveal_questions","survey-likert","103","658125","0.0-6.0-6.13","4764938","co37678","norming","","","{""aha"":2}","[0]","../img/tt/189tt.jpg","",""
"null","<div style=""font-size:60px;""> </div>","null","fixation","html-keyboard-response","104","658332","0.0-6.0-0.14","4764938","co37678","norming","","","","","","",""
"null","../img/tt/1196tt.jpg","null","mooney1","image-keyboard-response","105","661351","0.0-6.0-1.14","4764938","co37678","norming","","","","","","",""
"7808.300061787479","","","post_mooney1_questions","survey-likert","106","669162","0.0-6.0-2.14","4764938","co37678","norming","","","{""curiosity"":5,""confidence"":2}","[0,1]","../img/tt/1196tt.jpg","",""
"8498.699997742078","","","recognition","survey-text","107","677666","0.0-6.0-3.14","4764938","co37678","norming","","","{""guess"":""persoon met  benen omhoog""}","","../img/tt/1196tt.jpg","",""
"null","../img/gs/1196gs.jpg","null","reveal","image-keyboard-response","108","679676","0.0-6.0-4.14","4764938","co37678","norming","","","","","","",""
"null","../img/tt/1196tt.jpg","null","mooney2","image-keyboard-response","109","681677","0.0-6.0-5.14","4764938","co37678","norming","","","","","","",""
"3608.499998973566","","","post_reveal_questions","survey-likert","110","685287","0.0-6.0-6.14","4764938","co37678","norming","","","{""aha"":2}","[0]","../img/tt/1196tt.jpg","",""
"null","<div style=""font-size:60px;""> </div>","null","fixation","html-keyboard-response","111","685508","0.0-6.0-0.15","4764938","co37678","norming","","","","","","",""
"null","../img/tt/080tt.jpg","null","mooney1","image-keyboard-response","112","688529","0.0-6.0-1.15","4764938","co37678","norming","","","","","","",""
"5257.400036538835","","","post_mooney1_questions","survey-likert","113","693792","0.0-6.0-2.15","4764938","co37678","norming","","","{""curiosity"":5,""confidence"":1}","[0,1]","../img/tt/080tt.jpg","",""
"1733.6003267967607","","","recognition","survey-text","114","695531","0.0-6.0-3.15","4764938","co37678","norming","","","{""guess"":""""}","","../img/tt/080tt.jpg","",""
"null","../img/gs/080gs.jpg","null","reveal","image-keyboard-response","115","697533","0.0-6.0-4.15","4764938","co37678","norming","","","","","","",""
"null","../img/tt/080tt.jpg","null","mooney2","image-keyboard-response","116","699532","0.0-6.0-5.15","4764938","co37678","norming","","","","","","",""
"3039.8999903521035","","","post_reveal_questions","survey-likert","117","702575","0.0-6.0-6.15","4764938","co37678","norming","","","{""aha"":5}","[0]","../img/tt/080tt.jpg","",""
"null","<div style=""font-size:60px;""> </div>","null","fixation","html-keyboard-response","118","702783","0.0-6.0-0.16","4764938","co37678","norming","","","","","","",""
"null","../img/tt/123tt.jpg","null","mooney1","image-keyboard-response","119","705814","0.0-6.0-1.16","4764938","co37678","norming","","","","","","",""
"4855.699954634416","","","post_mooney1_questions","survey-likert","120","710670","0.0-6.0-2.16","4764938","co37678","norming","","","{""curiosity"":5,""confidence"":4}","[0,1]","../img/tt/123tt.jpg","",""
"6709.600064045633","","","recognition","survey-text","121","717392","0.0-6.0-3.16","4764938","co37678","norming","","","{""guess"":""skateboard en een koffer""}","","../img/tt/123tt.jpg","",""
"null","../img/gs/123gs.jpg","null","reveal","image-keyboard-response","122","719419","0.0-6.0-4.16","4764938","co37678","norming","","","","","","",""
"null","../img/tt/123tt.jpg","null","mooney2","image-keyboard-response","123","721393","0.0-6.0-5.16","4764938","co37678","norming","","","","","","",""
"3499.200045981561","","","post_reveal_questions","survey-likert","124","724898","0.0-6.0-6.16","4764938","co37678","norming","","","{""aha"":4}","[0]","../img/tt/123tt.jpg","",""
"null","<div style=""font-size:60px;""> </div>","null","fixation","html-keyboard-response","125","725111","0.0-6.0-0.17","4764938","co37678","norming","","","","","","",""
"null","../img/tt/1096tt.jpg","null","mooney1","image-keyboard-response","126","728136","0.0-6.0-1.17","4764938","co37678","norming","","","","","","",""
"5223.000166272279","","","post_mooney1_questions","survey-likert","127","733363","0.0-6.0-2.17","4764938","co37678","norming","","","{""curiosity"":5,""confidence"":3}","[0,1]","../img/tt/1096tt.jpg","",""
"3460.7997897991445","","","recognition","survey-text","128","736827","0.0-6.0-3.17","4764938","co37678","norming","","","{""guess"":""een stal""}","","../img/tt/1096tt.jpg","",""
"null","../img/gs/1096gs.jpg","null","reveal","image-keyboard-response","129","738844","0.0-6.0-4.17","4764938","co37678","norming","","","","","","",""
"null","../img/tt/1096tt.jpg","null","mooney2","image-keyboard-response","130","740853","0.0-6.0-5.17","4764938","co37678","norming","","","","","","",""
"2294.399911321467","","","post_reveal_questions","survey-likert","131","743152","0.0-6.0-6.17","4764938","co37678","norming","","","{""aha"":5}","[0]","../img/tt/1096tt.jpg","",""
"null","<div style=""font-size:60px;""> </div>","null","fixation","html-keyboard-response","132","743368","0.0-6.0-0.18","4764938","co37678","norming","","","","","","",""
"null","../img/tt/1070tt.jpg","null","mooney1","image-keyboard-response","133","746384","0.0-6.0-1.18","4764938","co37678","norming","","","","","","",""
"8197.599932670127","","","post_mooney1_questions","survey-likert","134","754586","0.0-6.0-2.18","4764938","co37678","norming","","","{""curiosity"":5,""confidence"":1}","[0,1]","../img/tt/1070tt.jpg","",""
"1356.499908652855","","","recognition","survey-text","135","755946","0.0-6.0-3.18","4764938","co37678","norming","","","{""guess"":""""}","","../img/tt/1070tt.jpg","",""
"null","../img/gs/1070gs.jpg","null","reveal","image-keyboard-response","136","757965","0.0-6.0-4.18","4764938","co37678","norming","","","","","","",""
"null","../img/tt/1070tt.jpg","null","mooney2","image-keyboard-response","137","759962","0.0-6.0-5.18","4764938","co37678","norming","","","","","","",""
"3113.9001504661282","","","post_reveal_questions","survey-likert","138","763078","0.0-6.0-6.18","4764938","co37678","norming","","","{""aha"":1}","[0]","../img/tt/1070tt.jpg","",""
"null","<div style=""font-size:60px;""> </div>","null","fixation","html-keyboard-response","139","763297","0.0-6.0-0.19","4764938","co37678","norming","","","","","","",""
"null","../img/tt/1262tt.jpg","null","mooney1","image-keyboard-response","140","766312","0.0-6.0-1.19","4764938","co37678","norming","","","","","","",""
"6497.799664581777","","","post_mooney1_questions","survey-likert","141","772813","0.0-6.0-2.19","4764938","co37678","norming","","","{""curiosity"":5,""confidence"":3}","[0,1]","../img/tt/1262tt.jpg","",""
"3572.7001578559866","","","recognition","survey-text","142","776389","0.0-6.0-3.19","4764938","co37678","norming","","","{""guess"":""een paard""}","","../img/tt/1262tt.jpg","",""
"null","../img/gs/1262gs.jpg","null","reveal","image-keyboard-response","143","778398","0.0-6.0-4.19","4764938","co37678","norming","","","","","","",""
"null","../img/tt/1262tt.jpg","null","mooney2","image-keyboard-response","144","780393","0.0-6.0-5.19","4764938","co37678","norming","","","","","","",""
"3520.3001931631006","","","post_reveal_questions","survey-likert","145","783918","0.0-6.0-6.19","4764938","co37678","norming","","","{""aha"":3}","[0]","../img/tt/1262tt.jpg","",""
"null","<div style=""font-size:60px;""> </div>","null","fixation","html-keyboard-response","146","784146","0.0-6.0-0.20","4764938","co37678","norming","","","","","","",""
"null","../img/tt/091tt.jpg","null","mooney1","image-keyboard-response","147","787159","0.0-6.0-1.20","4764938","co37678","norming","","","","","","",""
"11215.999901468283","","","post_mooney1_questions","survey-likert","148","798380","0.0-6.0-2.20","4764938","co37678","norming","","","{""curiosity"":4,""confidence"":4}","[0,1]","../img/tt/091tt.jpg","",""
"4764.79997044045","","","recognition","survey-text","149","803151","0.0-6.0-3.20","4764938","co37678","norming","","","{""guess"":""salamander""}","","../img/tt/091tt.jpg","",""
"null","../img/gs/091gs.jpg","null","reveal","image-keyboard-response","150","805163","0.0-6.0-4.20","4764938","co37678","norming","","","","","","",""
"null","../img/tt/091tt.jpg","null","mooney2","image-keyboard-response","151","807161","0.0-6.0-5.20","4764938","co37678","norming","","","","","","",""
"2958.000053371303","","","post_reveal_questions","survey-likert","152","810121","0.0-6.0-6.20","4764938","co37678","norming","","","{""aha"":5}","[0]","../img/tt/091tt.jpg","",""
"null","<div style=""font-size:60px;""> </div>","null","fixation","html-keyboard-response","153","810325","0.0-6.0-0.21","4764938","co37678","norming","","","","","","",""
"null","../img/tt/1205tt.jpg","null","mooney1","image-keyboard-response","154","813340","0.0-6.0-1.21","4764938","co37678","norming","","","","","","",""
"963818.3999687984","","","post_mooney1_questions","survey-likert","155","1777162","0.0-6.0-2.21","4764938","co37678","norming","","","{""curiosity"":4,""confidence"":0}","[0,1]","../img/tt/1205tt.jpg","",""
"1333.7998534343205","","","recognition","survey-text","156","1778500","0.0-6.0-3.21","4764938","co37678","norming","","","{""guess"":""""}","","../img/tt/1205tt.jpg","",""
"null","../img/gs/1205gs.jpg","null","reveal","image-keyboard-response","157","1780512","0.0-6.0-4.21","4764938","co37678","norming","","","","","","",""
"null","../img/tt/1205tt.jpg","null","mooney2","image-keyboard-response","158","1782521","0.0-6.0-5.21","4764938","co37678","norming","","","","","","",""
"83482.19963748543","","","post_reveal_questions","survey-likert","159","1866008","0.0-6.0-6.21","4764938","co37678","norming","","","{""aha"":1}","[0]","../img/tt/1205tt.jpg","",""
"null","<div style=""font-size:60px;""> </div>","null","fixation","html-keyboard-response","160","1866223","0.0-6.0-0.22","4764938","co37678","norming","","","","","","",""
"null","../img/tt/1116tt.jpg","null","mooney1","image-keyboard-response","161","1869230","0.0-6.0-1.22","4764938","co37678","norming","","","","","","",""
"5137.499717748025","","","post_mooney1_questions","survey-likert","162","1874371","0.0-6.0-2.22","4764938","co37678","norming","","","{""curiosity"":5,""confidence"":4}","[0,1]","../img/tt/1116tt.jpg","",""
"6254.899795341538","","","recognition","survey-text","163","1880630","0.0-6.0-3.22","4764938","co37678","norming","","","{""guess"":""kruiwagen""}","","../img/tt/1116tt.jpg","",""
"null","../img/gs/1116gs.jpg","null","reveal","image-keyboard-response","164","1882643","0.0-6.0-4.22","4764938","co37678","norming","","","","","","",""
"null","../img/tt/1116tt.jpg","null","mooney2","image-keyboard-response","165","1884659","0.0-6.0-5.22","4764938","co37678","norming","","","","","","",""
"3623.2998667769134","","","post_reveal_questions","survey-likert","166","1888285","0.0-6.0-6.22","4764938","co37678","norming","","","{""aha"":4}","[0]","../img/tt/1116tt.jpg","",""
"null","<div style=""font-size:60px;""> </div>","null","fixation","html-keyboard-response","167","1888512","0.0-6.0-0.23","4764938","co37678","norming","","","","","","",""
"null","../img/tt/1004tt.jpg","null","mooney1","image-keyboard-response","168","1891525","0.0-6.0-1.23","4764938","co37678","norming","","","","","","",""
"5472.799715900328","","","post_mooney1_questions","survey-likert","169","1896999","0.0-6.0-2.23","4764938","co37678","norming","","","{""curiosity"":5,""confidence"":5}","[0,1]","../img/tt/1004tt.jpg","",""
"4654.499920969363","","","recognition","survey-text","170","1901660","0.0-6.0-3.23","4764938","co37678","norming","","","{""guess"":""een vos""}","","../img/tt/1004tt.jpg","",""
"null","../img/gs/1004gs.jpg","null","reveal","image-keyboard-response","171","1903678","0.0-6.0-4.23","4764938","co37678","norming","","","","","","",""
"null","../img/tt/1004tt.jpg","null","mooney2","image-keyboard-response","172","1905694","0.0-6.0-5.23","4764938","co37678","norming","","","","","","",""
"2279.00023196009","","","post_reveal_questions","survey-likert","173","1907976","0.0-6.0-6.23","4764938","co37678","norming","","","{""aha"":4}","[0]","../img/tt/1004tt.jpg","",""
"null","<div style=""font-size:60px;""> </div>","null","fixation","html-keyboard-response","174","1908192","0.0-6.0-0.24","4764938","co37678","norming","","","","","","",""
"null","../img/tt/1044tt.jpg","null","mooney1","image-keyboard-response","175","1911208","0.0-6.0-1.24","4764938","co37678","norming","","","","","","",""
"5704.200117827393","","","post_mooney1_questions","survey-likert","176","1916917","0.0-6.0-2.24","4764938","co37678","norming","","","{""curiosity"":5,""confidence"":3}","[0,1]","../img/tt/1044tt.jpg","",""
"3848.9000375652686","","","recognition","survey-text","177","1920769","0.0-6.0-3.24","4764938","co37678","norming","","","{""guess"":""een leeuw""}","","../img/tt/1044tt.jpg","",""
"null","../img/gs/1044gs.jpg","null","reveal","image-keyboard-response","178","1922793","0.0-6.0-4.24","4764938","co37678","norming","","","","","","",""
"null","../img/tt/1044tt.jpg","null","mooney2","image-keyboard-response","179","1924793","0.0-6.0-5.24","4764938","co37678","norming","","","","","","",""
"4021.3998476865235","","","post_reveal_questions","survey-likert","180","1928819","0.0-6.0-6.24","4764938","co37678","norming","","","{""aha"":6}","[0]","../img/tt/1044tt.jpg","",""
"null","<div style=""font-size:60px;""> </div>","null","fixation","html-keyboard-response","181","1929047","0.0-6.0-0.25","4764938","co37678","norming","","","","","","",""
"null","../img/tt/1191tt.jpg","null","mooney1","image-keyboard-response","182","1932078","0.0-6.0-1.25","4764938","co37678","norming","","","","","","",""
"10167.200037770439","","","post_mooney1_questions","survey-likert","183","1942249","0.0-6.0-2.25","4764938","co37678","norming","","","{""curiosity"":5,""confidence"":4}","[0,1]","../img/tt/1191tt.jpg","",""
"4197.599932669895","","","recognition","survey-text","184","1946450","0.0-6.0-3.25","4764938","co37678","norming","","","{""guess"":""een kameel""}","","../img/tt/1191tt.jpg","",""
"null","../img/gs/1191gs.jpg","null","reveal","image-keyboard-response","185","1948464","0.0-6.0-4.25","4764938","co37678","norming","","","","","","",""
"null","../img/tt/1191tt.jpg","null","mooney2","image-keyboard-response","186","1950453","0.0-6.0-5.25","4764938","co37678","norming","","","","","","",""
"4139.6000845730305","","","post_reveal_questions","survey-likert","187","1954596","0.0-6.0-6.25","4764938","co37678","norming","","","{""aha"":3}","[0]","../img/tt/1191tt.jpg","",""
"null","<div style=""font-size:60px;""> </div>","null","fixation","html-keyboard-response","188","1954810","0.0-6.0-0.26","4764938","co37678","norming","","","","","","",""
"null","../img/tt/1102tt.jpg","null","mooney1","image-keyboard-response","189","1957848","0.0-6.0-1.26","4764938","co37678","norming","","","","","","",""
"4325.099917274434","","","post_mooney1_questions","survey-likert","190","1962176","0.0-6.0-2.26","4764938","co37678","norming","","","{""curiosity"":5,""confidence"":4}","[0,1]","../img/tt/1102tt.jpg","",""
"4340.100132812513","","","recognition","survey-text","191","1966521","0.0-6.0-3.26","4764938","co37678","norming","","","{""guess"":""een boom""}","","../img/tt/1102tt.jpg","",""
"null","../img/gs/1102gs.jpg","null","reveal","image-keyboard-response","192","1968525","0.0-6.0-4.26","4764938","co37678","norming","","","","","","",""
"null","../img/tt/1102tt.jpg","null","mooney2","image-keyboard-response","193","1970525","0.0-6.0-5.26","4764938","co37678","norming","","","","","","",""
"2601.200033665169","","","post_reveal_questions","survey-likert","194","1973129","0.0-6.0-6.26","4764938","co37678","norming","","","{""aha"":5}","[0]","../img/tt/1102tt.jpg","",""
"null","<div style=""font-size:60px;""> </div>","null","fixation","html-keyboard-response","195","1973342","0.0-6.0-0.27","4764938","co37678","norming","","","","","","",""
"null","../img/tt/1125tt.jpg","null","mooney1","image-keyboard-response","196","1976349","0.0-6.0-1.27","4764938","co37678","norming","","","","","","",""
"5835.700077798916","","","post_mooney1_questions","survey-likert","197","1982189","0.0-6.0-2.27","4764938","co37678","norming","","","{""curiosity"":5,""confidence"":4}","[0,1]","../img/tt/1125tt.jpg","",""
"7442.300057682209","","","recognition","survey-text","198","1989634","0.0-6.0-3.27","4764938","co37678","norming","","","{""guess"":""persoon die muziek speelt""}","","../img/tt/1125tt.jpg","",""
"null","../img/gs/1125gs.jpg","null","reveal","image-keyboard-response","199","1991653","0.0-6.0-4.27","4764938","co37678","norming","","","","","","",""
"null","../img/tt/1125tt.jpg","null","mooney2","image-keyboard-response","200","1993644","0.0-6.0-5.27","4764938","co37678","norming","","","","","","",""
"2730.4001001738943","","","post_reveal_questions","survey-likert","201","1996376","0.0-6.0-6.27","4764938","co37678","norming","","","{""aha"":4}","[0]","../img/tt/1125tt.jpg","",""
"null","<div style=""font-size:60px;""> </div>","null","fixation","html-keyboard-response","202","1996606","0.0-6.0-0.28","4764938","co37678","norming","","","","","","",""
"null","../img/tt/1118tt.jpg","null","mooney1","image-keyboard-response","203","1999638","0.0-6.0-1.28","4764938","co37678","norming","","","","","","",""
"7236.40006322437","","","post_mooney1_questions","survey-likert","204","2006878","0.0-6.0-2.28","4764938","co37678","norming","","","{""curiosity"":5,""confidence"":2}","[0,1]","../img/tt/1118tt.jpg","",""
"8635.700077798916","","","recognition","survey-text","205","2015517","0.0-6.0-3.28","4764938","co37678","norming","","","{""guess"":""een persoon die krom staat""}","","../img/tt/1118tt.jpg","",""
"null","../img/gs/1118gs.jpg","null","reveal","image-keyboard-response","206","2017528","0.0-6.0-4.28","4764938","co37678","norming","","","","","","",""
"null","../img/tt/1118tt.jpg","null","mooney2","image-keyboard-response","207","2019531","0.0-6.0-5.28","4764938","co37678","norming","","","","","","",""
"3240.7001496448647","","","post_reveal_questions","survey-likert","208","2022775","0.0-6.0-6.28","4764938","co37678","norming","","","{""aha"":2}","[0]","../img/tt/1118tt.jpg","",""
"null","<div style=""font-size:60px;""> </div>","null","fixation","html-keyboard-response","209","2022976","0.0-6.0-0.29","4764938","co37678","norming","","","","","","",""
"null","../img/tt/412tt.jpg","null","mooney1","image-keyboard-response","210","2026008","0.0-6.0-1.29","4764938","co37678","norming","","","","","","",""
"5729.499767013593","","","post_mooney1_questions","survey-likert","211","2031741","0.0-6.0-2.29","4764938","co37678","norming","","","{""curiosity"":5,""confidence"":5}","[0,1]","../img/tt/412tt.jpg","",""
"3772.9998583607375","","","recognition","survey-text","212","2035520","0.0-6.0-3.29","4764938","co37678","norming","","","{""guess"":""zeepfles""}","","../img/tt/412tt.jpg","",""
"null","../img/gs/412gs.jpg","null","reveal","image-keyboard-response","213","2037528","0.0-6.0-4.29","4764938","co37678","norming","","","","","","",""
"null","../img/tt/412tt.jpg","null","mooney2","image-keyboard-response","214","2039538","0.0-6.0-5.29","4764938","co37678","norming","","","","","","",""
"6926.899762497749","","","post_reveal_questions","survey-likert","215","2046469","0.0-6.0-6.29","4764938","co37678","norming","","","{""aha"":1}","[0]","../img/tt/412tt.jpg","",""
"null","<div style=""font-size:60px;""> </div>","null","fixation","html-keyboard-response","216","2046695","0.0-6.0-0.30","4764938","co37678","norming","","","","","","",""
"null","../img/tt/1086tt.jpg","null","mooney1","image-keyboard-response","217","2049712","0.0-6.0-1.30","4764938","co37678","norming","","","","","","",""
"5452.000090320595","","","post_mooney1_questions","survey-likert","218","2055168","0.0-6.0-2.30","4764938","co37678","norming","","","{""curiosity"":5,""confidence"":5}","[0,1]","../img/tt/1086tt.jpg","",""
"3123.300072051352","","","recognition","survey-text","219","2058297","0.0-6.0-3.30","4764938","co37678","norming","","","{""guess"":""een hond""}","","../img/tt/1086tt.jpg","",""
"null","../img/gs/1086gs.jpg","null","reveal","image-keyboard-response","220","2060325","0.0-6.0-4.30","4764938","co37678","norming","","","","","","",""
"null","../img/tt/1086tt.jpg","null","mooney2","image-keyboard-response","221","2062312","0.0-6.0-5.30","4764938","co37678","norming","","","","","","",""
"3704.200117827393","","","post_reveal_questions","survey-likert","222","2066019","0.0-6.0-6.30","4764938","co37678","norming","","","{""aha"":6}","[0]","../img/tt/1086tt.jpg","",""
"null","<div style=""font-size:60px;""> </div>","null","fixation","html-keyboard-response","223","2066229","0.0-6.0-0.31","4764938","co37678","norming","","","","","","",""
"null","../img/tt/1255tt.jpg","null","mooney1","image-keyboard-response","224","2069235","0.0-6.0-1.31","4764938","co37678","norming","","","","","","",""
"5477.700024427846","","","post_mooney1_questions","survey-likert","225","2074717","0.0-6.0-2.31","4764938","co37678","norming","","","{""curiosity"":5,""confidence"":4}","[0,1]","../img/tt/1255tt.jpg","",""
"8294.1002108166","","","recognition","survey-text","226","2083021","0.0-6.0-3.31","4764938","co37678","norming","","","{""guess"":""persoon die in de natuur staat""}","","../img/tt/1255tt.jpg","",""
"null","../img/gs/1255gs.jpg","null","reveal","image-keyboard-response","227","2085029","0.0-6.0-4.31","4764938","co37678","norming","","","","","","",""
"null","../img/tt/1255tt.jpg","null","mooney2","image-keyboard-response","228","2087042","0.0-6.0-5.31","4764938","co37678","norming","","","","","","",""
"2665.0998762198724","","","post_reveal_questions","survey-likert","229","2089710","0.0-6.0-6.31","4764938","co37678","norming","","","{""aha"":2}","[0]","../img/tt/1255tt.jpg","",""
"null","<div style=""font-size:60px;""> </div>","null","fixation","html-keyboard-response","230","2089925","0.0-6.0-0.32","4764938","co37678","norming","","","","","","",""
"null","../img/tt/1040tt.jpg","null","mooney1","image-keyboard-response","231","2092958","0.0-6.0-1.32","4764938","co37678","norming","","","","","","",""
"6857.09992548544","","","post_mooney1_questions","survey-likert","232","2099819","0.0-6.0-2.32","4764938","co37678","norming","","","{""curiosity"":5,""confidence"":5}","[0,1]","../img/tt/1040tt.jpg","",""
"9364.099985015112","","","recognition","survey-text","233","2109188","0.0-6.0-3.32","4764938","co37678","norming","","","{""guess"":""een zwemmer""}","","../img/tt/1040tt.jpg","",""
"null","../img/gs/1040gs.jpg","null","reveal","image-keyboard-response","234","2111210","0.0-6.0-4.32","4764938","co37678","norming","","","","","","",""
"null","../img/tt/1040tt.jpg","null","mooney2","image-keyboard-response","235","2113193","0.0-6.0-5.32","4764938","co37678","norming","","","","","","",""
"3415.9999014684","","","post_reveal_questions","survey-likert","236","2116614","0.0-6.0-6.32","4764938","co37678","norming","","","{""aha"":5}","[0]","../img/tt/1040tt.jpg","",""
"null","<div style=""font-size:60px;""> </div>","null","fixation","html-keyboard-response","237","2116830","0.0-6.0-0.33","4764938","co37678","norming","","","","","","",""
"null","../img/tt/1283tt.jpg","null","mooney1","image-keyboard-response","238","2119843","0.0-6.0-1.33","4764938","co37678","norming","","","","","","",""
"4283.699782203883","","","post_mooney1_questions","survey-likert","239","2124131","0.0-6.0-2.33","4764938","co37678","norming","","","{""curiosity"":5,""confidence"":4}","[0,1]","../img/tt/1283tt.jpg","",""
"3514.300024838187","","","recognition","survey-text","240","2127653","0.0-6.0-3.33","4764938","co37678","norming","","","{""guess"":""een leeuw""}","","../img/tt/1283tt.jpg","",""
"null","../img/gs/1283gs.jpg","null","reveal","image-keyboard-response","241","2129657","0.0-6.0-4.33","4764938","co37678","norming","","","","","","",""
"null","../img/tt/1283tt.jpg","null","mooney2","image-keyboard-response","242","2131672","0.0-6.0-5.33","4764938","co37678","norming","","","","","","",""
"2369.6001051003113","","","post_reveal_questions","survey-likert","243","2134044","0.0-6.0-6.33","4764938","co37678","norming","","","{""aha"":4}","[0]","../img/tt/1283tt.jpg","",""
"null","<div style=""font-size:60px;""> </div>","null","fixation","html-keyboard-response","244","2134252","0.0-6.0-0.34","4764938","co37678","norming","","","","","","",""
"null","../img/tt/567tt.jpg","null","mooney1","image-keyboard-response","245","2137255","0.0-6.0-1.34","4764938","co37678","norming","","","","","","",""
"3958.500101611018","","","post_mooney1_questions","survey-likert","246","2141217","0.0-6.0-2.34","4764938","co37678","norming","","","{""curiosity"":5,""confidence"":4}","[0,1]","../img/tt/567tt.jpg","",""
"7217.699983372819","","","recognition","survey-text","247","2148439","0.0-6.0-3.34","4764938","co37678","norming","","","{""guess"":""een botervlootje""}","","../img/tt/567tt.jpg","",""
"null","../img/gs/567gs.jpg","null","reveal","image-keyboard-response","248","2150469","0.0-6.0-4.34","4764938","co37678","norming","","","","","","",""
"null","../img/tt/567tt.jpg","null","mooney2","image-keyboard-response","249","2152464","0.0-6.0-5.34","4764938","co37678","norming","","","","","","",""
"3927.200284099672","","","post_reveal_questions","survey-likert","250","2156393","0.0-6.0-6.34","4764938","co37678","norming","","","{""aha"":5}","[0]","../img/tt/567tt.jpg","",""
"null","<div style=""font-size:60px;""> </div>","null","fixation","html-keyboard-response","251","2156614","0.0-6.0-0.35","4764938","co37678","norming","","","","","","",""
"null","../img/tt/1275tt.jpg","null","mooney1","image-keyboard-response","252","2159630","0.0-6.0-1.35","4764938","co37678","norming","","","","","","",""
"4631.000117006246","","","post_mooney1_questions","survey-likert","253","2164264","0.0-6.0-2.35","4764938","co37678","norming","","","{""curiosity"":5,""confidence"":4}","[0,1]","../img/tt/1275tt.jpg","",""
"3847.799767218996","","","recognition","survey-text","254","2168116","0.0-6.0-3.35","4764938","co37678","norming","","","{""guess"":""een dier""}","","../img/tt/1275tt.jpg","",""
"null","../img/gs/1275gs.jpg","null","reveal","image-keyboard-response","255","2170134","0.0-6.0-4.35","4764938","co37678","norming","","","","","","",""
"null","../img/tt/1275tt.jpg","null","mooney2","image-keyboard-response","256","2172133","0.0-6.0-5.35","4764938","co37678","norming","","","","","","",""
"4631.099880325142","","","post_reveal_questions","survey-likert","257","2176768","0.0-6.0-6.35","4764938","co37678","norming","","","{""aha"":3}","[0]","../img/tt/1275tt.jpg","",""
"null","<div style=""font-size:60px;""> </div>","null","fixation","html-keyboard-response","258","2176980","0.0-6.0-0.36","4764938","co37678","norming","","","","","","",""
"null","../img/tt/468tt.jpg","null","mooney1","image-keyboard-response","259","2179992","0.0-6.0-1.36","4764938","co37678","norming","","","","","","",""
"4437.100048650056","","","post_mooney1_questions","survey-likert","260","2184434","0.0-6.0-2.36","4764938","co37678","norming","","","{""curiosity"":5,""confidence"":3}","[0,1]","../img/tt/468tt.jpg","",""
"3064.7000018474646","","","recognition","survey-text","261","2187503","0.0-6.0-3.36","4764938","co37678","norming","","","{""guess"":""een hoed""}","","../img/tt/468tt.jpg","",""
"null","../img/gs/468gs.jpg","null","reveal","image-keyboard-response","262","2189508","0.0-6.0-4.36","4764938","co37678","norming","","","","","","",""
"null","../img/tt/468tt.jpg","null","mooney2","image-keyboard-response","263","2191518","0.0-6.0-5.36","4764938","co37678","norming","","","","","","",""
"4792.199986452237","","","post_reveal_questions","survey-likert","264","2196314","0.0-6.0-6.36","4764938","co37678","norming","","","{""aha"":2}","[0]","../img/tt/468tt.jpg","",""
"null","<div style=""font-size:60px;""> </div>","null","fixation","html-keyboard-response","265","2196538","0.0-6.0-0.37","4764938","co37678","norming","","","","","","",""
"null","../img/tt/549tt.jpg","null","mooney1","image-keyboard-response","266","2199570","0.0-6.0-1.37","4764938","co37678","norming","","","","","","",""
"6464.500064661261","","","post_mooney1_questions","survey-likert","267","2206039","0.0-6.0-2.37","4764938","co37678","norming","","","{""curiosity"":4,""confidence"":1}","[0,1]","../img/tt/549tt.jpg","",""
"13955.999860413372","","","recognition","survey-text","268","2220004","0.0-6.0-3.37","4764938","co37678","norming","","","{""guess"":""muziekinstrument""}","","../img/tt/549tt.jpg","",""
"null","../img/gs/549gs.jpg","null","reveal","image-keyboard-response","269","2222032","0.0-6.0-4.37","4764938","co37678","norming","","","","","","",""
"null","../img/tt/549tt.jpg","null","mooney2","image-keyboard-response","270","2224032","0.0-6.0-5.37","4764938","co37678","norming","","","","","","",""
"3441.8000094424933","","","post_reveal_questions","survey-likert","271","2227478","0.0-6.0-6.37","4764938","co37678","norming","","","{""aha"":0}","[0]","../img/tt/549tt.jpg","",""
"null","<div style=""font-size:60px;""> </div>","null","fixation","html-keyboard-response","272","2227695","0.0-6.0-0.38","4764938","co37678","norming","","","","","","",""
"null","../img/tt/307tt.jpg","null","mooney1","image-keyboard-response","273","2230727","0.0-6.0-1.38","4764938","co37678","norming","","","","","","",""
"4266.999895310029","","","post_mooney1_questions","survey-likert","274","2234998","0.0-6.0-2.38","4764938","co37678","norming","","","{""curiosity"":5,""confidence"":3}","[0,1]","../img/tt/307tt.jpg","",""
"3104.000180641655","","","recognition","survey-text","275","2238106","0.0-6.0-3.38","4764938","co37678","norming","","","{""guess"":""een bel""}","","../img/tt/307tt.jpg","",""
"null","../img/gs/307gs.jpg","null","reveal","image-keyboard-response","276","2240129","0.0-6.0-4.38","4764938","co37678","norming","","","","","","",""
"null","../img/tt/307tt.jpg","null","mooney2","image-keyboard-response","277","2242129","0.0-6.0-5.38","4764938","co37678","norming","","","","","","",""
"3542.9998378334567","","","post_reveal_questions","survey-likert","278","2245681","0.0-6.0-6.38","4764938","co37678","norming","","","{""aha"":1}","[0]","../img/tt/307tt.jpg","",""
"null","<div style=""font-size:60px;""> </div>","null","fixation","html-keyboard-response","279","2245900","0.0-6.0-0.39","4764938","co37678","norming","","","","","","",""
"null","../img/tt/380tt.jpg","null","mooney1","image-keyboard-response","280","2248915","0.0-6.0-1.39","4764938","co37678","norming","","","","","","",""
"9664.000016422011","","","post_mooney1_questions","survey-likert","281","2258584","0.0-6.0-2.39","4764938","co37678","norming","","","{""curiosity"":4,""confidence"":1}","[0,1]","../img/tt/380tt.jpg","",""
"1814.7001044848002","","","recognition","survey-text","282","2260404","0.0-6.0-3.39","4764938","co37678","norming","","","{""guess"":""""}","","../img/tt/380tt.jpg","",""
"null","../img/gs/380gs.jpg","null","reveal","image-keyboard-response","283","2262426","0.0-6.0-4.39","4764938","co37678","norming","","","","","","",""
"null","../img/tt/380tt.jpg","null","mooney2","image-keyboard-response","284","2264434","0.0-6.0-5.39","4764938","co37678","norming","","","","","","",""
"3557.1998940785415","","","post_reveal_questions","survey-likert","285","2267997","0.0-6.0-6.39","4764938","co37678","norming","","","{""aha"":4}","[0]","../img/tt/380tt.jpg","",""
"null","<div style=""font-size:60px;""> </div>","null","fixation","html-keyboard-response","286","2268200","0.0-6.0-0.40","4764938","co37678","norming","","","","","","",""
"null","../img/tt/1224tt.jpg","null","mooney1","image-keyboard-response","287","2271209","0.0-6.0-1.40","4764938","co37678","norming","","","","","","",""
"9375.899973930325","","","post_mooney1_questions","survey-likert","288","2280589","0.0-6.0-2.40","4764938","co37678","norming","","","{""curiosity"":5,""confidence"":3}","[0,1]","../img/tt/1224tt.jpg","",""
"2971.700061377138","","","recognition","survey-text","289","2283563","0.0-6.0-3.40","4764938","co37678","norming","","","{""guess"":""een mens""}","","../img/tt/1224tt.jpg","",""
"null","../img/gs/1224gs.jpg","null","reveal","image-keyboard-response","290","2285591","0.0-6.0-4.40","4764938","co37678","norming","","","","","","",""
"null","../img/tt/1224tt.jpg","null","mooney2","image-keyboard-response","291","2287585","0.0-6.0-5.40","4764938","co37678","norming","","","","","","",""
"3366.5000523449853","","","post_reveal_questions","survey-likert","292","2290955","0.0-6.0-6.40","4764938","co37678","norming","","","{""aha"":3}","[0]","../img/tt/1224tt.jpg","",""
"null","<div style=""font-size:60px;""> </div>","null","fixation","html-keyboard-response","293","2291168","0.0-6.0-0.41","4764938","co37678","norming","","","","","","",""
"null","../img/tt/019tt.jpg","null","mooney1","image-keyboard-response","294","2294184","0.0-6.0-1.41","4764938","co37678","norming","","","","","","",""
"13185.799943754915","","","post_mooney1_questions","survey-likert","295","2307374","0.0-6.0-2.41","4764938","co37678","norming","","","{""curiosity"":3,""confidence"":2}","[0,1]","../img/tt/019tt.jpg","",""
"6138.000176535919","","","recognition","survey-text","296","2313517","0.0-6.0-3.41","4764938","co37678","norming","","","{""guess"":""""}","","../img/tt/019tt.jpg","",""
"null","../img/gs/019gs.jpg","null","reveal","image-keyboard-response","297","2315550","0.0-6.0-4.41","4764938","co37678","norming","","","","","","",""
"null","../img/tt/019tt.jpg","null","mooney2","image-keyboard-response","298","2317536","0.0-6.0-5.41","4764938","co37678","norming","","","","","","",""
"2478.799884225242","","","post_reveal_questions","survey-likert","299","2320018","0.0-6.0-6.41","4764938","co37678","norming","","","{""aha"":2}","[0]","../img/tt/019tt.jpg","",""
"null","<div style=""font-size:60px;""> </div>","null","fixation","html-keyboard-response","300","2320234","0.0-6.0-0.42","4764938","co37678","norming","","","","","","",""
"null","../img/tt/1043tt.jpg","null","mooney1","image-keyboard-response","301","2323253","0.0-6.0-1.42","4764938","co37678","norming","","","","","","",""
"9242.39982100064","","","post_mooney1_questions","survey-likert","302","2332501","0.0-6.0-2.42","4764938","co37678","norming","","","{""curiosity"":5,""confidence"":1}","[0,1]","../img/tt/1043tt.jpg","",""
"3694.7000223747454","","","recognition","survey-text","303","2336200","0.0-6.0-3.42","4764938","co37678","norming","","","{""guess"":""touw""}","","../img/tt/1043tt.jpg","",""
"null","../img/gs/1043gs.jpg","null","reveal","image-keyboard-response","304","2338227","0.0-6.0-4.42","4764938","co37678","norming","","","","","","",""
"null","../img/tt/1043tt.jpg","null","mooney2","image-keyboard-response","305","2340226","0.0-6.0-5.42","4764938","co37678","norming","","","","","","",""
"3702.1001615505665","","","post_reveal_questions","survey-likert","306","2343932","0.0-6.0-6.42","4764938","co37678","norming","","","{""aha"":5}","[0]","../img/tt/1043tt.jpg","",""
"null","<div style=""font-size:60px;""> </div>","null","fixation","html-keyboard-response","307","2344148","0.0-6.0-0.43","4764938","co37678","norming","","","","","","",""
"null","../img/tt/1142tt.jpg","null","mooney1","image-keyboard-response","308","2347163","0.0-6.0-1.43","4764938","co37678","norming","","","","","","",""
"6919.09974894952","","","post_mooney1_questions","survey-likert","309","2354087","0.0-6.0-2.43","4764938","co37678","norming","","","{""curiosity"":5,""confidence"":5}","[0,1]","../img/tt/1142tt.jpg","",""
"3573.9001915208064","","","recognition","survey-text","310","2357665","0.0-6.0-3.43","4764938","co37678","norming","","","{""guess"":""springer""}","","../img/tt/1142tt.jpg","",""
"null","../img/gs/1142gs.jpg","null","reveal","image-keyboard-response","311","2359686","0.0-6.0-4.43","4764938","co37678","norming","","","","","","",""
"null","../img/tt/1142tt.jpg","null","mooney2","image-keyboard-response","312","2361703","0.0-6.0-5.43","4764938","co37678","norming","","","","","","",""
"2895.799882172607","","","post_reveal_questions","survey-likert","313","2364603","0.0-6.0-6.43","4764938","co37678","norming","","","{""aha"":6}","[0]","../img/tt/1142tt.jpg","",""
"null","<div style=""font-size:60px;""> </div>","null","fixation","html-keyboard-response","314","2364819","0.0-6.0-0.44","4764938","co37678","norming","","","","","","",""
"null","../img/tt/1055tt.jpg","null","mooney1","image-keyboard-response","315","2367827","0.0-6.0-1.44","4764938","co37678","norming","","","","","","",""
"8886.000086215324","","","post_mooney1_questions","survey-likert","316","2376718","0.0-6.0-2.44","4764938","co37678","norming","","","{""curiosity"":5,""confidence"":5}","[0,1]","../img/tt/1055tt.jpg","",""
"2826.5998567184433","","","recognition","survey-text","317","2379548","0.0-6.0-3.44","4764938","co37678","norming","","","{""guess"":""tunnel""}","","../img/tt/1055tt.jpg","",""
"null","../img/gs/1055gs.jpg","null","reveal","image-keyboard-response","318","2381559","0.0-6.0-4.44","4764938","co37678","norming","","","","","","",""
"null","../img/tt/1055tt.jpg","null","mooney2","image-keyboard-response","319","2383552","0.0-6.0-5.44","4764938","co37678","norming","","","","","","",""
"5058.299959150609","","","post_reveal_questions","survey-likert","320","2388615","0.0-6.0-6.44","4764938","co37678","norming","","","{""aha"":2}","[0]","../img/tt/1055tt.jpg","",""
"null","<div style=""font-size:60px;""> </div>","null","fixation","html-keyboard-response","321","2388822","0.0-6.0-0.45","4764938","co37678","norming","","","","","","",""
"null","../img/tt/056tt.jpg","null","mooney1","image-keyboard-response","322","2391846","0.0-6.0-1.45","4764938","co37678","norming","","","","","","",""
"5561.199869445525","","","post_mooney1_questions","survey-likert","323","2397410","0.0-6.0-2.45","4764938","co37678","norming","","","{""curiosity"":5,""confidence"":3}","[0,1]","../img/tt/056tt.jpg","",""
"7316.399981114548","","","recognition","survey-text","324","2404731","0.0-6.0-3.45","4764938","co37678","norming","","","{""guess"":""trompetist""}","","../img/tt/056tt.jpg","",""
"null","../img/gs/056gs.jpg","null","reveal","image-keyboard-response","325","2406751","0.0-6.0-4.45","4764938","co37678","norming","","","","","","",""
"null","../img/tt/056tt.jpg","null","mooney2","image-keyboard-response","326","2408752","0.0-6.0-5.45","4764938","co37678","norming","","","","","","",""
"2528.3999072164297","","","post_reveal_questions","survey-likert","327","2411285","0.0-6.0-6.45","4764938","co37678","norming","","","{""aha"":3}","[0]","../img/tt/056tt.jpg","",""
"null","<div style=""font-size:60px;""> </div>","null","fixation","html-keyboard-response","328","2411487","0.0-6.0-0.46","4764938","co37678","norming","","","","","","",""
"null","../img/tt/044tt.jpg","null","mooney1","image-keyboard-response","329","2414503","0.0-6.0-1.46","4764938","co37678","norming","","","","","","",""
"7989.499808068853","","","post_mooney1_questions","survey-likert","330","2422498","0.0-6.0-2.46","4764938","co37678","norming","","","{""curiosity"":4,""confidence"":3}","[0,1]","../img/tt/044tt.jpg","",""
"3643.2003908422775","","","recognition","survey-text","331","2426146","0.0-6.0-3.46","4764938","co37678","norming","","","{""guess"":""persoon""}","","../img/tt/044tt.jpg","",""
"null","../img/gs/044gs.jpg","null","reveal","image-keyboard-response","332","2428176","0.0-6.0-4.46","4764938","co37678","norming","","","","","","",""
"null","../img/tt/044tt.jpg","null","mooney2","image-keyboard-response","333","2430178","0.0-6.0-5.46","4764938","co37678","norming","","","","","","",""
"7544.6999197378755","","","post_reveal_questions","survey-likert","334","2437725","0.0-6.0-6.46","4764938","co37678","norming","","","{""aha"":1}","[0]","../img/tt/044tt.jpg","",""
"null","<div style=""font-size:60px;""> </div>","null","fixation","html-keyboard-response","335","2437941","0.0-6.0-0.47","4764938","co37678","norming","","","","","","",""
"null","../img/tt/1107tt.jpg","null","mooney1","image-keyboard-response","336","2440958","0.0-6.0-1.47","4764938","co37678","norming","","","","","","",""
"7952.599696604535","","","post_mooney1_questions","survey-likert","337","2448915","0.0-6.0-2.47","4764938","co37678","norming","","","{""curiosity"":5,""confidence"":1}","[0,1]","../img/tt/1107tt.jpg","",""
"2716.7998554869555","","","recognition","survey-text","338","2451636","0.0-6.0-3.47","4764938","co37678","norming","","","{""guess"":""""}","","../img/tt/1107tt.jpg","",""
"null","../img/gs/1107gs.jpg","null","reveal","image-keyboard-response","339","2453660","0.0-6.0-4.47","4764938","co37678","norming","","","","","","",""
"null","../img/tt/1107tt.jpg","null","mooney2","image-keyboard-response","340","2455661","0.0-6.0-5.47","4764938","co37678","norming","","","","","","",""
"3763.099888535682","","","post_reveal_questions","survey-likert","341","2459427","0.0-6.0-6.47","4764938","co37678","norming","","","{""aha"":4}","[0]","../img/tt/1107tt.jpg","",""
"null","<div style=""font-size:60px;""> </div>","null","fixation","html-keyboard-response","342","2459639","0.0-6.0-0.48","4764938","co37678","norming","","","","","","",""
"null","../img/tt/1053tt.jpg","null","mooney1","image-keyboard-response","343","2462670","0.0-6.0-1.48","4764938","co37678","norming","","","","","","",""
"6254.800032022875","","","post_mooney1_questions","survey-likert","344","2468931","0.0-6.0-2.48","4764938","co37678","norming","","","{""curiosity"":5,""confidence"":5}","[0,1]","../img/tt/1053tt.jpg","",""
"2964.7999704405665","","","recognition","survey-text","345","2471907","0.0-6.0-3.48","4764938","co37678","norming","","","{""guess"":""koeien""}","","../img/tt/1053tt.jpg","",""
"null","../img/gs/1053gs.jpg","null","reveal","image-keyboard-response","346","2473921","0.0-6.0-4.48","4764938","co37678","norming","","","","","","",""
"null","../img/tt/1053tt.jpg","null","mooney2","image-keyboard-response","347","2475935","0.0-6.0-5.48","4764938","co37678","norming","","","","","","",""
"2769.399757365696","","","post_reveal_questions","survey-likert","348","2478707","0.0-6.0-6.48","4764938","co37678","norming","","","{""aha"":6}","[0]","../img/tt/1053tt.jpg","",""
"null","<div style=""font-size:60px;""> </div>","null","fixation","html-keyboard-response","349","2478938","0.0-6.0-0.49","4764938","co37678","norming","","","","","","",""
"null","../img/tt/1101tt.jpg","null","mooney1","image-keyboard-response","350","2481969","0.0-6.0-1.49","4764938","co37678","norming","","","","","","",""
"5570.70037544705","","","post_mooney1_questions","survey-likert","351","2487542","0.0-6.0-2.49","4764938","co37678","norming","","","{""curiosity"":5,""confidence"":5}","[0,1]","../img/tt/1101tt.jpg","",""
"3428.4001124901697","","","recognition","survey-text","352","2490976","0.0-6.0-3.49","4764938","co37678","norming","","","{""guess"":""voetballer""}","","../img/tt/1101tt.jpg","",""
"null","../img/gs/1101gs.jpg","null","reveal","image-keyboard-response","353","2492996","0.0-6.0-4.49","4764938","co37678","norming","","","","","","",""
"null","../img/tt/1101tt.jpg","null","mooney2","image-keyboard-response","354","2494997","0.0-6.0-5.49","4764938","co37678","norming","","","","","","",""
"2610.299844196532","","","post_reveal_questions","survey-likert","355","2497609","0.0-6.0-6.49","4764938","co37678","norming","","","{""aha"":6}","[0]","../img/tt/1101tt.jpg","",""
"null","<div style=""font-size:60px;""> </div>","null","fixation","html-keyboard-response","356","2497823","0.0-6.0-0.50","4764938","co37678","norming","","","","","","",""
"null","../img/tt/063tt.jpg","null","mooney1","image-keyboard-response","357","2500830","0.0-6.0-1.50","4764938","co37678","norming","","","","","","",""
"3710.9002715777606","","","post_mooney1_questions","survey-likert","358","2504544","0.0-6.0-2.50","4764938","co37678","norming","","","{""curiosity"":5,""confidence"":4}","[0,1]","../img/tt/063tt.jpg","",""
"4520.700067535043","","","recognition","survey-text","359","2509070","0.0-6.0-3.50","4764938","co37678","norming","","","{""guess"":""mondharmonica""}","","../img/tt/063tt.jpg","",""
"null","../img/gs/063gs.jpg","null","reveal","image-keyboard-response","360","2511074","0.0-6.0-4.50","4764938","co37678","norming","","","","","","",""
"null","../img/tt/063tt.jpg","null","mooney2","image-keyboard-response","361","2513089","0.0-6.0-5.50","4764938","co37678","norming","","","","","","",""
"3418.900017037522","","","post_reveal_questions","survey-likert","362","2516512","0.0-6.0-6.50","4764938","co37678","norming","","","{""aha"":5}","[0]","../img/tt/063tt.jpg","",""
"null","<div style=""font-size:60px;""> </div>","null","fixation","html-keyboard-response","363","2516731","0.0-6.0-0.51","4764938","co37678","norming","","","","","","",""
"null","../img/tt/1366tt.jpg","null","mooney1","image-keyboard-response","364","2519748","0.0-6.0-1.51","4764938","co37678","norming","","","","","","",""
"5236.9998747827485","","","post_mooney1_questions","survey-likert","365","2524989","0.0-6.0-2.51","4764938","co37678","norming","","","{""curiosity"":4,""confidence"":3}","[0,1]","../img/tt/1366tt.jpg","",""
"3414.0998823777772","","","recognition","survey-text","366","2528408","0.0-6.0-3.51","4764938","co37678","norming","","","{""guess"":""kalfje""}","","../img/tt/1366tt.jpg","",""
"null","../img/gs/1366gs.jpg","null","reveal","image-keyboard-response","367","2530435","0.0-6.0-4.51","4764938","co37678","norming","","","","","","",""
"null","../img/tt/1366tt.jpg","null","mooney2","image-keyboard-response","368","2532427","0.0-6.0-5.51","4764938","co37678","norming","","","","","","",""
"3608.199887920171","","","post_reveal_questions","survey-likert","369","2536038","0.0-6.0-6.51","4764938","co37678","norming","","","{""aha"":2}","[0]","../img/tt/1366tt.jpg","",""
"null","<div style=""font-size:60px;""> </div>","null","fixation","html-keyboard-response","370","2536256","0.0-6.0-0.52","4764938","co37678","norming","","","","","","",""
"null","../img/tt/1189tt.jpg","null","mooney1","image-keyboard-response","371","2539263","0.0-6.0-1.52","4764938","co37678","norming","","","","","","",""
"8487.799931438174","","","post_mooney1_questions","survey-likert","372","2547755","0.0-6.0-2.52","4764938","co37678","norming","","","{""curiosity"":4,""confidence"":1}","[0,1]","../img/tt/1189tt.jpg","",""
"2692.8000032845884","","","recognition","survey-text","373","2550451","0.0-6.0-3.52","4764938","co37678","norming","","","{""guess"":""""}","","../img/tt/1189tt.jpg","",""
"null","../img/gs/1189gs.jpg","null","reveal","image-keyboard-response","374","2552476","0.0-6.0-4.52","4764938","co37678","norming","","","","","","",""
"null","../img/tt/1189tt.jpg","null","mooney2","image-keyboard-response","375","2554476","0.0-6.0-5.52","4764938","co37678","norming","","","","","","",""
"6013.099785898812","","","post_reveal_questions","survey-likert","376","2560494","0.0-6.0-6.52","4764938","co37678","norming","","","{""aha"":4}","[0]","../img/tt/1189tt.jpg","",""
"null","<div style=""font-size:60px;""> </div>","null","fixation","html-keyboard-response","377","2560706","0.0-6.0-0.53","4764938","co37678","norming","","","","","","",""
"null","../img/tt/140tt.jpg","null","mooney1","image-keyboard-response","378","2563723","0.0-6.0-1.53","4764938","co37678","norming","","","","","","",""
"7687.400057066232","","","post_mooney1_questions","survey-likert","379","2571416","0.0-6.0-2.53","4764938","co37678","norming","","","{""curiosity"":2,""confidence"":6}","[0,1]","../img/tt/140tt.jpg","",""
"3720.5001303493045","","","recognition","survey-text","380","2575146","0.0-6.0-3.53","4764938","co37678","norming","","","{""guess"":""twee vorken""}","","../img/tt/140tt.jpg","",""
"null","../img/gs/140gs.jpg","null","reveal","image-keyboard-response","381","2577151","0.0-6.0-4.53","4764938","co37678","norming","","","","","","",""
"null","../img/tt/140tt.jpg","null","mooney2","image-keyboard-response","382","2579167","0.0-6.0-5.53","4764938","co37678","norming","","","","","","",""
"2889.0997284222394","","","post_reveal_questions","survey-likert","383","2582059","0.0-6.0-6.53","4764938","co37678","norming","","","{""aha"":6}","[0]","../img/tt/140tt.jpg","",""
"null","<div style=""font-size:60px;""> </div>","null","fixation","html-keyboard-response","384","2582274","0.0-6.0-0.54","4764938","co37678","norming","","","","","","",""
"null","../img/tt/1097tt.jpg","null","mooney1","image-keyboard-response","385","2585276","0.0-6.0-1.54","4764938","co37678","norming","","","","","","",""
"11033.499947655014","","","post_mooney1_questions","survey-likert","386","2596314","0.0-6.0-2.54","4764938","co37678","norming","","","{""curiosity"":2,""confidence"":6}","[0,1]","../img/tt/1097tt.jpg","",""
"7346.700112695806","","","recognition","survey-text","387","2603666","0.0-6.0-3.54","4764938","co37678","norming","","","{""guess"":""pedelen""}","","../img/tt/1097tt.jpg","",""
"null","../img/gs/1097gs.jpg","null","reveal","image-keyboard-response","388","2605690","0.0-6.0-4.54","4764938","co37678","norming","","","","","","",""
"null","../img/tt/1097tt.jpg","null","mooney2","image-keyboard-response","389","2607678","0.0-6.0-5.54","4764938","co37678","norming","","","","","","",""
"9481.800173662137","","","post_reveal_questions","survey-likert","390","2617163","0.0-6.0-6.54","4764938","co37678","norming","","","{""aha"":1}","[0]","../img/tt/1097tt.jpg","",""
"null","<div style=""font-size:60px;""> </div>","null","fixation","html-keyboard-response","391","2617392","0.0-6.0-0.55","4764938","co37678","norming","","","","","","",""
"null","../img/tt/1012tt.jpg","null","mooney1","image-keyboard-response","392","2620408","0.0-6.0-1.55","4764938","co37678","norming","","","","","","",""
"5316.500154981855","","","post_mooney1_questions","survey-likert","393","2625729","0.0-6.0-2.55","4764938","co37678","norming","","","{""curiosity"":4,""confidence"":4}","[0,1]","../img/tt/1012tt.jpg","",""
"2710.200286152307","","","recognition","survey-text","394","2628450","0.0-6.0-3.55","4764938","co37678","norming","","","{""guess"":""paard""}","","../img/tt/1012tt.jpg","",""
"null","../img/gs/1012gs.jpg","null","reveal","image-keyboard-response","395","2630468","0.0-6.0-4.55","4764938","co37678","norming","","","","","","",""
"null","../img/tt/1012tt.jpg","null","mooney2","image-keyboard-response","396","2632498","0.0-6.0-5.55","4764938","co37678","norming","","","","","","",""
"4894.0000369497575","","","post_reveal_questions","survey-likert","397","2637396","0.0-6.0-6.55","4764938","co37678","norming","","","{""aha"":2}","[0]","../img/tt/1012tt.jpg","",""
"null","<div style=""font-size:60px;""> </div>","null","fixation","html-keyboard-response","398","2637625","0.0-6.0-0.56","4764938","co37678","norming","","","","","","",""
"null","../img/tt/1148tt.jpg","null","mooney1","image-keyboard-response","399","2640657","0.0-6.0-1.56","4764938","co37678","norming","","","","","","",""
"10225.699934107251","","","post_mooney1_questions","survey-likert","400","2650887","0.0-6.0-2.56","4764938","co37678","norming","","","{""curiosity"":4,""confidence"":4}","[0,1]","../img/tt/1148tt.jpg","",""
"3719.6999710565433","","","recognition","survey-text","401","2654610","0.0-6.0-3.56","4764938","co37678","norming","","","{""guess"":""surfer""}","","../img/tt/1148tt.jpg","",""
"null","../img/gs/1148gs.jpg","null","reveal","image-keyboard-response","402","2656622","0.0-6.0-4.56","4764938","co37678","norming","","","","","","",""
"null","../img/tt/1148tt.jpg","null","mooney2","image-keyboard-response","403","2658623","0.0-6.0-5.56","4764938","co37678","norming","","","","","","",""
"4390.999952786602","","","post_reveal_questions","survey-likert","404","2663018","0.0-6.0-6.56","4764938","co37678","norming","","","{""aha"":4}","[0]","../img/tt/1148tt.jpg","",""
"null","<div style=""font-size:60px;""> </div>","null","fixation","html-keyboard-response","405","2663222","0.0-6.0-0.57","4764938","co37678","norming","","","","","","",""
"null","../img/tt/416tt.jpg","null","mooney1","image-keyboard-response","406","2666253","0.0-6.0-1.57","4764938","co37678","norming","","","","","","",""
"9830.999706457834","","","post_mooney1_questions","survey-likert","407","2676090","0.0-6.0-2.57","4764938","co37678","norming","","","{""curiosity"":4,""confidence"":2}","[0,1]","../img/tt/416tt.jpg","",""
"17159.500198089983","","","recognition","survey-text","408","2693261","0.0-6.0-3.57","4764938","co37678","norming","","","{""guess"":""flamingo""}","","../img/tt/416tt.jpg","",""
"null","../img/gs/416gs.jpg","null","reveal","image-keyboard-response","409","2695297","0.0-6.0-4.57","4764938","co37678","norming","","","","","","",""
"null","../img/tt/416tt.jpg","null","mooney2","image-keyboard-response","410","2697295","0.0-6.0-5.57","4764938","co37678","norming","","","","","","",""
"3548.8000689721666","","","post_reveal_questions","survey-likert","411","2700846","0.0-6.0-6.57","4764938","co37678","norming","","","{""aha"":1}","[0]","../img/tt/416tt.jpg","",""
"null","<div style=""font-size:60px;""> </div>","null","fixation","html-keyboard-response","412","2701060","0.0-6.0-0.58","4764938","co37678","norming","","","","","","",""
"null","../img/tt/435tt.jpg","null","mooney1","image-keyboard-response","413","2704084","0.0-6.0-1.58","4764938","co37678","norming","","","","","","",""
"11641.39972452214","","","post_mooney1_questions","survey-likert","414","2715729","0.0-6.0-2.58","4764938","co37678","norming","","","{""curiosity"":5,""confidence"":3}","[0,1]","../img/tt/435tt.jpg","",""
"3776.7001332230866","","","recognition","survey-text","415","2719512","0.0-6.0-3.58","4764938","co37678","norming","","","{""guess"":""bak water""}","","../img/tt/435tt.jpg","",""
"null","../img/gs/435gs.jpg","null","reveal","image-keyboard-response","416","2721545","0.0-6.0-4.58","4764938","co37678","norming","","","","","","",""
"null","../img/tt/435tt.jpg","null","mooney2","image-keyboard-response","417","2723544","0.0-6.0-5.58","4764938","co37678","norming","","","","","","",""
"3575.3999256910756","","","post_reveal_questions","survey-likert","418","2727124","0.0-6.0-6.58","4764938","co37678","norming","","","{""aha"":5}","[0]","../img/tt/435tt.jpg","",""
"null","<div style=""font-size:60px;""> </div>","null","fixation","html-keyboard-response","419","2727329","0.0-6.0-0.59","4764938","co37678","norming","","","","","","",""
"null","../img/tt/1061tt.jpg","null","mooney1","image-keyboard-response","420","2730348","0.0-6.0-1.59","4764938","co37678","norming","","","","","","",""
"9673.400348556228","","","post_mooney1_questions","survey-likert","421","2740027","0.0-6.0-2.59","4764938","co37678","norming","","","{""curiosity"":5,""confidence"":2}","[0,1]","../img/tt/1061tt.jpg","",""
"4688.8997912360355","","","recognition","survey-text","422","2744727","0.0-6.0-3.59","4764938","co37678","norming","","","{""guess"":""voetballers""}","","../img/tt/1061tt.jpg","",""
"null","../img/gs/1061gs.jpg","null","reveal","image-keyboard-response","423","2746734","0.0-6.0-4.59","4764938","co37678","norming","","","","","","",""
"null","../img/tt/1061tt.jpg","null","mooney2","image-keyboard-response","424","2748750","0.0-6.0-5.59","4764938","co37678","norming","","","","","","",""
"4088.400153545197","","","post_reveal_questions","survey-likert","425","2752842","0.0-6.0-6.59","4764938","co37678","norming","","","{""aha"":2}","[0]","../img/tt/1061tt.jpg","",""
"null","<div style=""font-size:60px;""> </div>","null","fixation","html-keyboard-response","426","2753065","0.0-6.0-0.60","4764938","co37678","norming","","","","","","",""
"null","../img/tt/418tt.jpg","null","mooney1","image-keyboard-response","427","2756077","0.0-6.0-1.60","4764938","co37678","norming","","","","","","",""
"5639.80022703344","","","post_mooney1_questions","survey-likert","428","2761721","0.0-6.0-2.60","4764938","co37678","norming","","","{""curiosity"":5,""confidence"":2}","[0,1]","../img/tt/418tt.jpg","",""
"5441.999946628697","","","recognition","survey-text","429","2767170","0.0-6.0-3.60","4764938","co37678","norming","","","{""guess"":""fruit""}","","../img/tt/418tt.jpg","",""
"null","../img/gs/418gs.jpg","null","reveal","image-keyboard-response","430","2769175","0.0-6.0-4.60","4764938","co37678","norming","","","","","","",""
"null","../img/tt/418tt.jpg","null","mooney2","image-keyboard-response","431","2771176","0.0-6.0-5.60","4764938","co37678","norming","","","","","","",""
"4515.600232370663","","","post_reveal_questions","survey-likert","432","2775695","0.0-6.0-6.60","4764938","co37678","norming","","","{""aha"":4}","[0]","../img/tt/418tt.jpg","",""
"null","<div style=""font-size:60px;""> </div>","null","fixation","html-keyboard-response","433","2775906","0.0-6.0-0.61","4764938","co37678","norming","","","","","","",""
"null","../img/tt/456tt.jpg","null","mooney1","image-keyboard-response","434","2778925","0.0-6.0-1.61","4764938","co37678","norming","","","","","","",""
"6930.799974545836","","","post_mooney1_questions","survey-likert","435","2785861","0.0-6.0-2.61","4764938","co37678","norming","","","{""curiosity"":5,""confidence"":3}","[0,1]","../img/tt/456tt.jpg","",""
"2526.2999509391375","","","recognition","survey-text","436","2788391","0.0-6.0-3.61","4764938","co37678","norming","","","{""guess"":""slang""}","","../img/tt/456tt.jpg","",""
"null","../img/gs/456gs.jpg","null","reveal","image-keyboard-response","437","2790412","0.0-6.0-4.61","4764938","co37678","norming","","","","","","",""
"null","../img/tt/456tt.jpg","null","mooney2","image-keyboard-response","438","2792416","0.0-6.0-5.61","4764938","co37678","norming","","","","","","",""
"4923.600183104631","","","post_reveal_questions","survey-likert","439","2797342","0.0-6.0-6.61","4764938","co37678","norming","","","{""aha"":3}","[0]","../img/tt/456tt.jpg","",""
"null","<div style=""font-size:60px;""> </div>","null","fixation","html-keyboard-response","440","2797557","0.0-6.0-0.62","4764938","co37678","norming","","","","","","",""
"null","../img/tt/1251tt.jpg","null","mooney1","image-keyboard-response","441","2800563","0.0-6.0-1.62","4764938","co37678","norming","","","","","","",""
"4365.100081494078","","","post_mooney1_questions","survey-likert","442","2804933","0.0-6.0-2.62","4764938","co37678","norming","","","{""curiosity"":5,""confidence"":4}","[0,1]","../img/tt/1251tt.jpg","",""
"6932.399882583413","","","recognition","survey-text","443","2811874","0.0-6.0-3.62","4764938","co37678","norming","","","{""guess"":""afgebrokkelde muur""}","","../img/tt/1251tt.jpg","",""
"null","../img/gs/1251gs.jpg","null","reveal","image-keyboard-response","444","2813895","0.0-6.0-4.62","4764938","co37678","norming","","","","","","",""
"null","../img/tt/1251tt.jpg","null","mooney2","image-keyboard-response","445","2815895","0.0-6.0-5.62","4764938","co37678","norming","","","","","","",""
"3648.8002742463723","","","post_reveal_questions","survey-likert","446","2819546","0.0-6.0-6.62","4764938","co37678","norming","","","{""aha"":5}","[0]","../img/tt/1251tt.jpg","",""
"null","<div style=""font-size:60px;""> </div>","null","fixation","html-keyboard-response","447","2819765","0.0-6.0-0.63","4764938","co37678","norming","","","","","","",""
"null","../img/tt/105tt.jpg","null","mooney1","image-keyboard-response","448","2822786","0.0-6.0-1.63","4764938","co37678","norming","","","","","","",""
"6668.699977214448","","","post_mooney1_questions","survey-likert","449","2829459","0.0-6.0-2.63","4764938","co37678","norming","","","{""curiosity"":4,""confidence"":5}","[0,1]","../img/tt/105tt.jpg","",""
"5601.6003185855225","","","recognition","survey-text","450","2835064","0.0-6.0-3.63","4764938","co37678","norming","","","{""guess"":""paperclips""}","","../img/tt/105tt.jpg","",""
"null","../img/gs/105gs.jpg","null","reveal","image-keyboard-response","451","2837086","0.0-6.0-4.63","4764938","co37678","norming","","","","","","",""
"null","../img/tt/105tt.jpg","null","mooney2","image-keyboard-response","452","2839086","0.0-6.0-5.63","4764938","co37678","norming","","","","","","",""
"6453.500235039275","","","post_reveal_questions","survey-likert","453","2845542","0.0-6.0-6.63","4764938","co37678","norming","","","{""aha"":0}","[0]","../img/tt/105tt.jpg","",""
"null","<div style=""font-size:60px;""> </div>","null","fixation","html-keyboard-response","454","2845763","0.0-6.0-0.64","4764938","co37678","norming","","","","","","",""
"null","../img/tt/552tt.jpg","null","mooney1","image-keyboard-response","455","2848780","0.0-6.0-1.64","4764938","co37678","norming","","","","","","",""
"11118.499937391374","","","post_mooney1_questions","survey-likert","456","2859904","0.0-6.0-2.64","4764938","co37678","norming","","","{""curiosity"":6,""confidence"":1}","[0,1]","../img/tt/552tt.jpg","",""
"4452.300201374106","","","recognition","survey-text","457","2864362","0.0-6.0-3.64","4764938","co37678","norming","","","{""guess"":""emmer""}","","../img/tt/552tt.jpg","",""
"null","../img/gs/552gs.jpg","null","reveal","image-keyboard-response","458","2866380","0.0-6.0-4.64","4764938","co37678","norming","","","","","","",""
"null","../img/tt/552tt.jpg","null","mooney2","image-keyboard-response","459","2868376","0.0-6.0-5.64","4764938","co37678","norming","","","","","","",""
"2921.200115774758","","","post_reveal_questions","survey-likert","460","2871301","0.0-6.0-6.64","4764938","co37678","norming","","","{""aha"":5}","[0]","../img/tt/552tt.jpg","",""
"null","<div style=""font-size:60px;""> </div>","null","fixation","html-keyboard-response","461","2871531","0.0-6.0-0.65","4764938","co37678","norming","","","","","","",""
"null","../img/tt/358tt.jpg","null","mooney1","image-keyboard-response","462","2874551","0.0-6.0-1.65","4764938","co37678","norming","","","","","","",""
"4962.300139791798","","","post_mooney1_questions","survey-likert","463","2879518","0.0-6.0-2.65","4764938","co37678","norming","","","{""curiosity"":5,""confidence"":1}","[0,1]","../img/tt/358tt.jpg","",""
"2839.7000531661324","","","recognition","survey-text","464","2882363","0.0-6.0-3.65","4764938","co37678","norming","","","{""guess"":""dier""}","","../img/tt/358tt.jpg","",""
"null","../img/gs/358gs.jpg","null","reveal","image-keyboard-response","465","2884384","0.0-6.0-4.65","4764938","co37678","norming","","","","","","",""
"null","../img/tt/358tt.jpg","null","mooney2","image-keyboard-response","466","2886383","0.0-6.0-5.65","4764938","co37678","norming","","","","","","",""
"9686.200023401528","","","post_reveal_questions","survey-likert","467","2896073","0.0-6.0-6.65","4764938","co37678","norming","","","{""aha"":2}","[0]","../img/tt/358tt.jpg","",""
"null","<div style=""font-size:60px;""> </div>","null","fixation","html-keyboard-response","468","2896282","0.0-6.0-0.66","4764938","co37678","norming","","","","","","",""
"null","../img/tt/052tt.jpg","null","mooney1","image-keyboard-response","469","2899286","0.0-6.0-1.66","4764938","co37678","norming","","","","","","",""
"4611.299940675963","","","post_mooney1_questions","survey-likert","470","2903902","0.0-6.0-2.66","4764938","co37678","norming","","","{""curiosity"":4,""confidence"":4}","[0,1]","../img/tt/052tt.jpg","",""
"4071.199807863217","","","recognition","survey-text","471","2907978","0.0-6.0-3.66","4764938","co37678","norming","","","{""guess"":""zwembad""}","","../img/tt/052tt.jpg","",""
"null","../img/gs/052gs.jpg","null","reveal","image-keyboard-response","472","2910010","0.0-6.0-4.66","4764938","co37678","norming","","","","","","",""
"null","../img/tt/052tt.jpg","null","mooney2","image-keyboard-response","473","2912006","0.0-6.0-5.66","4764938","co37678","norming","","","","","","",""
"3976.400022169575","","","post_reveal_questions","survey-likert","474","2915985","0.0-6.0-6.66","4764938","co37678","norming","","","{""aha"":2}","[0]","../img/tt/052tt.jpg","",""
"null","<div style=""font-size:60px;""> </div>","null","fixation","html-keyboard-response","475","2916216","0.0-6.0-0.67","4764938","co37678","norming","","","","","","",""
"null","../img/tt/273tt.jpg","null","mooney1","image-keyboard-response","476","2919232","0.0-6.0-1.67","4764938","co37678","norming","","","","","","",""
"4353.300092578866","","","post_mooney1_questions","survey-likert","477","2923589","0.0-6.0-2.67","4764938","co37678","norming","","","{""curiosity"":5,""confidence"":3}","[0,1]","../img/tt/273tt.jpg","",""
"3071.400155597832","","","recognition","survey-text","478","2926665","0.0-6.0-3.67","4764938","co37678","norming","","","{""guess"":""zetel""}","","../img/tt/273tt.jpg","",""
"null","../img/gs/273gs.jpg","null","reveal","image-keyboard-response","479","2928697","0.0-6.0-4.67","4764938","co37678","norming","","","","","","",""
"null","../img/tt/273tt.jpg","null","mooney2","image-keyboard-response","480","2930680","0.0-6.0-5.67","4764938","co37678","norming","","","","","","",""
"3992.700034691021","","","post_reveal_questions","survey-likert","481","2934674","0.0-6.0-6.67","4764938","co37678","norming","","","{""aha"":5}","[0]","../img/tt/273tt.jpg","",""
"null","<div style=""font-size:60px;""> </div>","null","fixation","html-keyboard-response","482","2934889","0.0-6.0-0.68","4764938","co37678","norming","","","","","","",""
"null","../img/tt/515tt.jpg","null","mooney1","image-keyboard-response","483","2937916","0.0-6.0-1.68","4764938","co37678","norming","","","","","","",""
"8310.300049470737","","","post_mooney1_questions","survey-likert","484","2946227","0.0-6.0-2.68","4764938","co37678","norming","","","{""curiosity"":5,""confidence"":2}","[0,1]","../img/tt/515tt.jpg","",""
"3767.800259877462","","","recognition","survey-text","485","2950001","0.0-6.0-3.68","4764938","co37678","norming","","","{""guess"":""lezer""}","","../img/tt/515tt.jpg","",""
"null","../img/gs/515gs.jpg","null","reveal","image-keyboard-response","486","2952016","0.0-6.0-4.68","4764938","co37678","norming","","","","","","",""
"null","../img/tt/515tt.jpg","null","mooney2","image-keyboard-response","487","2954032","0.0-6.0-5.68","4764938","co37678","norming","","","","","","",""
"4604.800134659745","","","post_reveal_questions","survey-likert","488","2958638","0.0-6.0-6.68","4764938","co37678","norming","","","{""aha"":5}","[0]","../img/tt/515tt.jpg","",""
"null","<div style=""font-size:60px;""> </div>","null","fixation","html-keyboard-response","489","2958853","0.0-6.0-0.69","4764938","co37678","norming","","","","","","",""
"null","../img/tt/329tt.jpg","null","mooney1","image-keyboard-response","490","2961882","0.0-6.0-1.69","4764938","co37678","norming","","","","","","",""
"6699.800268088002","","","post_mooney1_questions","survey-likert","491","2968589","0.0-6.0-2.69","4764938","co37678","norming","","","{""curiosity"":5,""confidence"":2}","[0,1]","../img/tt/329tt.jpg","",""
"3765.599719184451","","","recognition","survey-text","492","2972362","0.0-6.0-3.69","4764938","co37678","norming","","","{""guess"":""trapje""}","","../img/tt/329tt.jpg","",""
"null","../img/gs/329gs.jpg","null","reveal","image-keyboard-response","493","2974383","0.0-6.0-4.69","4764938","co37678","norming","","","","","","",""
"null","../img/tt/329tt.jpg","null","mooney2","image-keyboard-response","494","2976389","0.0-6.0-5.69","4764938","co37678","norming","","","","","","",""
"3509.600064045284","","","post_reveal_questions","survey-likert","495","2979903","0.0-6.0-6.69","4764938","co37678","norming","","","{""aha"":2}","[0]","../img/tt/329tt.jpg","",""
"null","<div style=""font-size:60px;""> </div>","null","fixation","html-keyboard-response","496","2980116","0.0-6.0-0.70","4764938","co37678","norming","","","","","","",""
"null","../img/tt/1066tt.jpg","null","mooney1","image-keyboard-response","497","2983148","0.0-6.0-1.70","4764938","co37678","norming","","","","","","",""
"7524.30016853055","","","post_mooney1_questions","survey-likert","498","2990676","0.0-6.0-2.70","4764938","co37678","norming","","","{""curiosity"":4,""confidence"":5}","[0,1]","../img/tt/1066tt.jpg","",""
"2405.3999462183565","","","recognition","survey-text","499","2993087","0.0-6.0-3.70","4764938","co37678","norming","","","{""guess"":""bus""}","","../img/tt/1066tt.jpg","",""
"null","../img/gs/1066gs.jpg","null","reveal","image-keyboard-response","500","2995095","0.0-6.0-4.70","4764938","co37678","norming","","","","","","",""
"null","../img/tt/1066tt.jpg","null","mooney2","image-keyboard-response","501","2997101","0.0-6.0-5.70","4764938","co37678","norming","","","","","","",""
"5851.699979267549","","","post_reveal_questions","survey-likert","502","3002957","0.0-6.0-6.70","4764938","co37678","norming","","","{""aha"":1}","[0]","../img/tt/1066tt.jpg","",""
"null","<div style=""font-size:60px;""> </div>","null","fixation","html-keyboard-response","503","3003167","0.0-6.0-0.71","4764938","co37678","norming","","","","","","",""
"null","../img/tt/436tt.jpg","null","mooney1","image-keyboard-response","504","3006195","0.0-6.0-1.71","4764938","co37678","norming","","","","","","",""
"7748.499957918655","","","post_mooney1_questions","survey-likert","505","3013946","0.0-6.0-2.71","4764938","co37678","norming","","","{""curiosity"":5,""confidence"":2}","[0,1]","../img/tt/436tt.jpg","",""
"4754.200015190523","","","recognition","survey-text","506","3018708","0.0-6.0-3.71","4764938","co37678","norming","","","{""guess"":""insect""}","","../img/tt/436tt.jpg","",""
"null","../img/gs/436gs.jpg","null","reveal","image-keyboard-response","507","3020736","0.0-6.0-4.71","4764938","co37678","norming","","","","","","",""
"null","../img/tt/436tt.jpg","null","mooney2","image-keyboard-response","508","3022733","0.0-6.0-5.71","4764938","co37678","norming","","","","","","",""
"3764.099985015113","","","post_reveal_questions","survey-likert","509","3026503","0.0-6.0-6.71","4764938","co37678","norming","","","{""aha"":2}","[0]","../img/tt/436tt.jpg","",""
"null","<div style=""font-size:60px;""> </div>","null","fixation","html-keyboard-response","510","3026718","0.0-6.0-0.72","4764938","co37678","norming","","","","","","",""
"null","../img/tt/1123tt.jpg","null","mooney1","image-keyboard-response","511","3029736","0.0-6.0-1.72","4764938","co37678","norming","","","","","","",""
"4834.399870266672","","","post_mooney1_questions","survey-likert","512","3034575","0.0-6.0-2.72","4764938","co37678","norming","","","{""curiosity"":4,""confidence"":5}","[0,1]","../img/tt/1123tt.jpg","",""
"6322.199801705312","","","recognition","survey-text","513","3040901","0.0-6.0-3.72","4764938","co37678","norming","","","{""guess"":""vollyballer""}","","../img/tt/1123tt.jpg","",""
"null","../img/gs/1123gs.jpg","null","reveal","image-keyboard-response","514","3042918","0.0-6.0-4.72","4764938","co37678","norming","","","","","","",""
"null","../img/tt/1123tt.jpg","null","mooney2","image-keyboard-response","515","3044936","0.0-6.0-5.72","4764938","co37678","norming","","","","","","",""
"3756.5996719715185","","","post_reveal_questions","survey-likert","516","3048695","0.0-6.0-6.72","4764938","co37678","norming","","","{""aha"":2}","[0]","../img/tt/1123tt.jpg","",""
"null","<div style=""font-size:60px;""> </div>","null","fixation","html-keyboard-response","517","3048915","0.0-6.0-0.73","4764938","co37678","norming","","","","","","",""
"null","../img/tt/1241tt.jpg","null","mooney1","image-keyboard-response","518","3051935","0.0-6.0-1.73","4764938","co37678","norming","","","","","","",""
"7609.500095452648","","","post_mooney1_questions","survey-likert","519","3059549","0.0-6.0-2.73","4764938","co37678","norming","","","{""curiosity"":5,""confidence"":4}","[0,1]","../img/tt/1241tt.jpg","",""
"4323.400245918427","","","recognition","survey-text","520","3063876","0.0-6.0-3.73","4764938","co37678","norming","","","{""guess"":""lachende vrouw""}","","../img/tt/1241tt.jpg","",""
"null","../img/gs/1241gs.jpg","null","reveal","image-keyboard-response","521","3065897","0.0-6.0-4.73","4764938","co37678","norming","","","","","","",""
"null","../img/tt/1241tt.jpg","null","mooney2","image-keyboard-response","522","3067897","0.0-6.0-5.73","4764938","co37678","norming","","","","","","",""
"6397.799869855866","","","post_reveal_questions","survey-likert","523","3074302","0.0-6.0-6.73","4764938","co37678","norming","","","{""aha"":4}","[0]","../img/tt/1241tt.jpg","",""
"null","<div style=""font-size:60px;""> </div>","null","fixation","html-keyboard-response","524","3074529","0.0-6.0-0.74","4764938","co37678","norming","","","","","","",""
"null","../img/tt/124tt.jpg","null","mooney1","image-keyboard-response","525","3077551","0.0-6.0-1.74","4764938","co37678","norming","","","","","","",""
"4796.5998361911625","","","post_mooney1_questions","survey-likert","526","3082353","0.0-6.0-2.74","4764938","co37678","norming","","","{""curiosity"":5,""confidence"":4}","[0,1]","../img/tt/124tt.jpg","",""
"2731.400196652394","","","recognition","survey-text","527","3085089","0.0-6.0-3.74","4764938","co37678","norming","","","{""guess"":""hond""}","","../img/tt/124tt.jpg","",""
"null","../img/gs/124gs.jpg","null","reveal","image-keyboard-response","528","3087097","0.0-6.0-4.74","4764938","co37678","norming","","","","","","",""
"null","../img/tt/124tt.jpg","null","mooney2","image-keyboard-response","529","3089095","0.0-6.0-5.74","4764938","co37678","norming","","","","","","",""
"4963.099888536148","","","post_reveal_questions","survey-likert","530","3094063","0.0-6.0-6.74","4764938","co37678","norming","","","{""aha"":4}","[0]","../img/tt/124tt.jpg","",""
"null","<div style=""font-size:60px;""> </div>","null","fixation","html-keyboard-response","531","3094270","0.0-6.0-0.75","4764938","co37678","norming","","","","","","",""
"null","../img/tt/1027tt.jpg","null","mooney1","image-keyboard-response","532","3097302","0.0-6.0-1.75","4764938","co37678","norming","","","","","","",""
"5035.399966745637","","","post_mooney1_questions","survey-likert","533","3102342","0.0-6.0-2.75","4764938","co37678","norming","","","{""curiosity"":4,""confidence"":6}","[0,1]","../img/tt/1027tt.jpg","",""
"2647.19995566085","","","recognition","survey-text","534","3104993","0.0-6.0-3.75","4764938","co37678","norming","","","{""guess"":""koe""}","","../img/tt/1027tt.jpg","",""
"null","../img/gs/1027gs.jpg","null","reveal","image-keyboard-response","535","3107026","0.0-6.0-4.75","4764938","co37678","norming","","","","","","",""
"null","../img/tt/1027tt.jpg","null","mooney2","image-keyboard-response","536","3109019","0.0-6.0-5.75","4764938","co37678","norming","","","","","","",""
"3776.7001332230866","","","post_reveal_questions","survey-likert","537","3112799","0.0-6.0-6.75","4764938","co37678","norming","","","{""aha"":0}","[0]","../img/tt/1027tt.jpg","",""
"null","<div style=""font-size:60px;""> </div>","null","fixation","html-keyboard-response","538","3113012","0.0-6.0-0.76","4764938","co37678","norming","","","","","","",""
"null","../img/tt/580tt.jpg","null","mooney1","image-keyboard-response","539","3116044","0.0-6.0-1.76","4764938","co37678","norming","","","","","","",""
"7099.300219848752","","","post_mooney1_questions","survey-likert","540","3123148","0.0-6.0-2.76","4764938","co37678","norming","","","{""curiosity"":4,""confidence"":6}","[0,1]","../img/tt/580tt.jpg","",""
"3408.599762292113","","","recognition","survey-text","541","3126562","0.0-6.0-3.76","4764938","co37678","norming","","","{""guess"":""wasbeer""}","","../img/tt/580tt.jpg","",""
"null","../img/gs/580gs.jpg","null","reveal","image-keyboard-response","542","3128584","0.0-6.0-4.76","4764938","co37678","norming","","","","","","",""
"null","../img/tt/580tt.jpg","null","mooney2","image-keyboard-response","543","3130570","0.0-6.0-5.76","4764938","co37678","norming","","","","","","",""
"5553.300092578866","","","post_reveal_questions","survey-likert","544","3136127","0.0-6.0-6.76","4764938","co37678","norming","","","{""aha"":1}","[0]","../img/tt/580tt.jpg","",""
"null","<div style=""font-size:60px;""> </div>","null","fixation","html-keyboard-response","545","3136353","0.0-6.0-0.77","4764938","co37678","norming","","","","","","",""
"null","../img/tt/1279tt.jpg","null","mooney1","image-keyboard-response","546","3139382","0.0-6.0-1.77","4764938","co37678","norming","","","","","","",""
"5141.69963030098","","","post_mooney1_questions","survey-likert","547","3144529","0.0-6.0-2.77","4764938","co37678","norming","","","{""curiosity"":5,""confidence"":3}","[0,1]","../img/tt/1279tt.jpg","",""
"2971.899998562876","","","recognition","survey-text","548","3147508","0.0-6.0-3.77","4764938","co37678","norming","","","{""guess"":""dieren""}","","../img/tt/1279tt.jpg","",""
"null","../img/gs/1279gs.jpg","null","reveal","image-keyboard-response","549","3149534","0.0-6.0-4.77","4764938","co37678","norming","","","","","","",""
