"rt","stimulus","key_press","test_part","trial_type","trial_index","time_elapsed","internal_node_id","totalTime","subject","experiment_name","button_pressed","success","responses","question_order","currentStim","old","correct"
"20184.580000001006","Welcome to the experiment. This is an online experiment so please don't close the tab/window until we say goodbye.  Press any key to begin.","75","instructions","html-keyboard-response","0","20199","0.0-0.0","2846729","co37666","norming","","","","","","",""
"79449.39500000328","<div style='word-wrap: break-word; width: 900px'><h3>Please consider this information carefully before deciding whether to participate in this research</h3><ul style='text-align: left; font-size: .8em;'><li><b>Purpose of the research</b>: To examine how people process images.</li><li><b>What you will do in this research</b>:  Stimuli (images) will be presented on the computer and you will be asked different questions about them.</li><li><b>Time required</b>: Participation will take between 45 and 60 minutes to complete.</li><li><b>Risks</b>:  There are no anticipated risks associated with participating in this study. The effects of participating should be comparable to those you would experience from viewing a computer monitor for 30 minutes and using a mouse or keyboard.</li><li><b>Benefits</b>:  This study provides no benefits to you individually except for the credit. The study provides important information about the nature of perception and learning.</li><li><b>Confidentiality</b>:  Your participation in this study will remain confidential. No personally identifiable information will be associated with your data. Your de-identified data may be shared with other researchers and used in future projects.</li><li><b>Participation and withdrawal</b>:  Your participation in this study is completely voluntary and you may refuse to participate or you may choose to withdraw at any time without penalty.</li><li><b>How to contact the researchers</b>: If you have questions or concerns about your participation or payment, or want to request a summary of research findings, please contact Sander Van de Cruys (KU Leuven), at sander.vandecruys@kuleuven.be.</li></ul><p>The nature and purpose of this research have been sufficiently explained and I agree to participate in this study.  I understand that I am free to withdraw at any time without incurring any penalty.</p><p>Please consent by clicking the button below to continue. Otherwise, please exit the study at this time.</p></div>","","instructions","html-button-response","1","99658","0.0-1.0","2846729","co37666","norming","0","","","","","",""
"","","","instructions","fullscreen","2","109709","0.0-2.0","2846729","co37666","norming","","true","","","","",""
"49706.319999997504","","","sona","survey-html-form","3","159422","0.0-3.0","2846729","co37666","norming","","","[{""name"":""sonaid"",""value"":""37666""},{""name"":""debrief"",""value"":""no""},{""name"":""datajoin"",""value"":""yes""}]","","","",""
"71899.61500000209","<div style='word-wrap: break-word; width: 900px'><h3>Instructions</h3><p>This experiment will have 3 parts. In the first part you will see a series of distorted images like the one below on the left. As you can see in the righthand image, the distorted images are derived from actual photographs. In what follows, you will <strong>briefly</strong> be presented with <strong>only</strong> the distorted image.</p> <div style='float: left; margin-right: 20px;'><img src='../img/018tt.jpg' height='250' width='250'></img></div><div style='float: right; margin-left: 20px;'><img src='../img/018gs.jpg' height='250' width='250'></img></div><p>Subsequently you will be asked a few questions about the image: One question on how <strong>curious</strong> you are about the solution and one on how <strong>confident</strong> you are that you know the solution.</p>Next, we ask you to make a guess on what is in the image. Note that it is OK to name just the <strong>basic level category</strong>. For example when you see a parrot in the image, 'parrot' will obviously be a correct answer but also correct is 'bird'. However, 'animal' will <strong>not</strong> be counted as a correct response. For the example above, 'rose' would be correct or 'flower', but not 'plant'. When soccer players are depicted, 'soccer', 'football', 'soccer players' will be correct, but not 'humans', 'outdoors', or 'sports'. You do not need to describe the image in full, just name the main object in it <strong>in one or two words</strong>. All images depict objects from one of the following broad level categories: animals, inanimate objects, plants, sports, vehicles, and food. Recognizing means knowing <strong>more</strong> than these broad labels for a given image. But we always encourage you to <strong>make a guess</strong> if you can. Note that you are allowed to use <strong>Dutch and English</strong> in your answers, whatever comes easiest for you.</p><p>Press any key to continue.</p></div>","76","instructions","html-keyboard-response","4","231327","0.0-4.0","2846729","co37666","norming","","","","","","",""
"18126.329999999143","<div style='word-wrap: break-word; width: 900px'><h3>Instructions</h3> <p>Next, the solution image will be revealed to you and you'll be asked to indicate how strong your <strong>aha-experience</strong> was after seeing the solution. This describes the positive feeling of the 'click' you sometimes experience, when the pieces of the 'puzzle' fall together and you suddenly have 'insight' in the image.</p><img src='aha.jpg' height='188' width='250'></img><p>Note that there are no right or wrong answers. We are interested in what <strong>you</strong> see in the image and how <strong>you</strong> feel about it.</p><p>Press any key to start the experiment.</p></div>","74","instructions","html-keyboard-response","5","249454","0.0-5.0","2846729","co37666","norming","","","","","","",""
"null","<div style=""font-size:60px;""> </div>","null","fixation","html-keyboard-response","6","249662","0.0-6.0-0.0","2846729","co37666","norming","","","","","","",""
"null","../img/tt/1006tt.jpg","null","mooney1","image-keyboard-response","7","252667","0.0-6.0-1.0","2846729","co37666","norming","","","","","","",""
"13954.22499999404","","","post_mooney1_questions","survey-likert","8","266622","0.0-6.0-2.0","2846729","co37666","norming","","","{""curiosity"":5,""confidence"":0}","[0,1]","../img/tt/1006tt.jpg","",""
"5413.5000000096625","","","recognition","survey-text","9","272038","0.0-6.0-3.0","2846729","co37666","norming","","","{""guess"":""""}","","../img/tt/1006tt.jpg","",""
"null","../img/gs/1006gs.jpg","null","reveal","image-keyboard-response","10","274040","0.0-6.0-4.0","2846729","co37666","norming","","","","","","",""
"null","../img/tt/1006tt.jpg","null","mooney2","image-keyboard-response","11","276043","0.0-6.0-5.0","2846729","co37666","norming","","","","","","",""
"5224.075000005541","","","post_reveal_questions","survey-likert","12","281270","0.0-6.0-6.0","2846729","co37666","norming","","","{""aha"":4}","[0]","../img/tt/1006tt.jpg","",""
"null","<div style=""font-size:60px;""> </div>","null","fixation","html-keyboard-response","13","281473","0.0-6.0-0.1","2846729","co37666","norming","","","","","","",""
"null","../img/tt/1053tt.jpg","null","mooney1","image-keyboard-response","14","284478","0.0-6.0-1.1","2846729","co37666","norming","","","","","","",""
"4326.105000000098","","","post_mooney1_questions","survey-likert","15","288806","0.0-6.0-2.1","2846729","co37666","norming","","","{""curiosity"":3,""confidence"":2}","[0,1]","../img/tt/1053tt.jpg","",""
"4325.889999992796","","","recognition","survey-text","16","293132","0.0-6.0-3.1","2846729","co37666","norming","","","{""guess"":""koe""}","","../img/tt/1053tt.jpg","",""
"null","../img/gs/1053gs.jpg","null","reveal","image-keyboard-response","17","295140","0.0-6.0-4.1","2846729","co37666","norming","","","","","","",""
"null","../img/tt/1053tt.jpg","null","mooney2","image-keyboard-response","18","297143","0.0-6.0-5.1","2846729","co37666","norming","","","","","","",""
"3851.3049999892246","","","post_reveal_questions","survey-likert","19","300996","0.0-6.0-6.1","2846729","co37666","norming","","","{""aha"":2}","[0]","../img/tt/1053tt.jpg","",""
"null","<div style=""font-size:60px;""> </div>","null","fixation","html-keyboard-response","20","301201","0.0-6.0-0.2","2846729","co37666","norming","","","","","","",""
"null","../img/tt/1227tt.jpg","null","mooney1","image-keyboard-response","21","304210","0.0-6.0-1.2","2846729","co37666","norming","","","","","","",""
"6391.280000010738","","","post_mooney1_questions","survey-likert","22","310604","0.0-6.0-2.2","2846729","co37666","norming","","","{""curiosity"":5,""confidence"":0}","[0,1]","../img/tt/1227tt.jpg","",""
"4118.044999995618","","","recognition","survey-text","23","314724","0.0-6.0-3.2","2846729","co37666","norming","","","{""guess"":""""}","","../img/tt/1227tt.jpg","",""
"null","../img/gs/1227gs.jpg","null","reveal","image-keyboard-response","24","316730","0.0-6.0-4.2","2846729","co37666","norming","","","","","","",""
"null","../img/tt/1227tt.jpg","null","mooney2","image-keyboard-response","25","318739","0.0-6.0-5.2","2846729","co37666","norming","","","","","","",""
"2462.599999998929","","","post_reveal_questions","survey-likert","26","321204","0.0-6.0-6.2","2846729","co37666","norming","","","{""aha"":0}","[0]","../img/tt/1227tt.jpg","",""
"null","<div style=""font-size:60px;""> </div>","null","fixation","html-keyboard-response","27","321407","0.0-6.0-0.3","2846729","co37666","norming","","","","","","",""
"null","../img/tt/1151tt.jpg","null","mooney1","image-keyboard-response","28","324413","0.0-6.0-1.3","2846729","co37666","norming","","","","","","",""
"4868.075000005774","","","post_mooney1_questions","survey-likert","29","329284","0.0-6.0-2.3","2846729","co37666","norming","","","{""curiosity"":6,""confidence"":0}","[0,1]","../img/tt/1151tt.jpg","",""
"1886.0949999943841","","","recognition","survey-text","30","331172","0.0-6.0-3.3","2846729","co37666","norming","","","{""guess"":""""}","","../img/tt/1151tt.jpg","",""
"null","../img/gs/1151gs.jpg","null","reveal","image-keyboard-response","31","333181","0.0-6.0-4.3","2846729","co37666","norming","","","","","","",""
"null","../img/tt/1151tt.jpg","null","mooney2","image-keyboard-response","32","335184","0.0-6.0-5.3","2846729","co37666","norming","","","","","","",""
"1689.955000008922","","","post_reveal_questions","survey-likert","33","336876","0.0-6.0-6.3","2846729","co37666","norming","","","{""aha"":4}","[0]","../img/tt/1151tt.jpg","",""
"null","<div style=""font-size:60px;""> </div>","null","fixation","html-keyboard-response","34","337080","0.0-6.0-0.4","2846729","co37666","norming","","","","","","",""
"null","../img/tt/010tt.jpg","null","mooney1","image-keyboard-response","35","340085","0.0-6.0-1.4","2846729","co37666","norming","","","","","","",""
"5892.5599999929545","","","post_mooney1_questions","survey-likert","36","345980","0.0-6.0-2.4","2846729","co37666","norming","","","{""curiosity"":5,""confidence"":0}","[0,1]","../img/tt/010tt.jpg","",""
"1486.1149999924237","","","recognition","survey-text","37","347468","0.0-6.0-3.4","2846729","co37666","norming","","","{""guess"":""""}","","../img/tt/010tt.jpg","",""
"null","../img/gs/010gs.jpg","null","reveal","image-keyboard-response","38","349476","0.0-6.0-4.4","2846729","co37666","norming","","","","","","",""
"null","../img/tt/010tt.jpg","null","mooney2","image-keyboard-response","39","351479","0.0-6.0-5.4","2846729","co37666","norming","","","","","","",""
"2715.7050000096206","","","post_reveal_questions","survey-likert","40","354191","0.0-6.0-6.4","2846729","co37666","norming","","","{""aha"":0}","[0]","../img/tt/010tt.jpg","",""
"null","<div style=""font-size:60px;""> </div>","null","fixation","html-keyboard-response","41","354399","0.0-6.0-0.5","2846729","co37666","norming","","","","","","",""
"null","../img/tt/315tt.jpg","null","mooney1","image-keyboard-response","42","357409","0.0-6.0-1.5","2846729","co37666","norming","","","","","","",""
"4482.795000003534","","","post_mooney1_questions","survey-likert","43","361895","0.0-6.0-2.5","2846729","co37666","norming","","","{""curiosity"":5,""confidence"":1}","[0,1]","../img/tt/315tt.jpg","",""
"4150.229999999283","","","recognition","survey-text","44","366046","0.0-6.0-3.5","2846729","co37666","norming","","","{""guess"":""vogel""}","","../img/tt/315tt.jpg","",""
"null","../img/gs/315gs.jpg","null","reveal","image-keyboard-response","45","368054","0.0-6.0-4.5","2846729","co37666","norming","","","","","","",""
"null","../img/tt/315tt.jpg","null","mooney2","image-keyboard-response","46","370056","0.0-6.0-5.5","2846729","co37666","norming","","","","","","",""
"1870.0400000088848","","","post_reveal_questions","survey-likert","47","371927","0.0-6.0-6.5","2846729","co37666","norming","","","{""aha"":4}","[0]","../img/tt/315tt.jpg","",""
"null","<div style=""font-size:60px;""> </div>","null","fixation","html-keyboard-response","48","372134","0.0-6.0-0.6","2846729","co37666","norming","","","","","","",""
"null","../img/tt/124tt.jpg","null","mooney1","image-keyboard-response","49","375145","0.0-6.0-1.6","2846729","co37666","norming","","","","","","",""
"4220.695000010892","","","post_mooney1_questions","survey-likert","50","379367","0.0-6.0-2.6","2846729","co37666","norming","","","{""curiosity"":5,""confidence"":1}","[0,1]","../img/tt/124tt.jpg","",""
"3734.1100000048755","","","recognition","survey-text","51","383102","0.0-6.0-3.6","2846729","co37666","norming","","","{""guess"":""bever""}","","../img/tt/124tt.jpg","",""
"null","../img/gs/124gs.jpg","null","reveal","image-keyboard-response","52","385111","0.0-6.0-4.6","2846729","co37666","norming","","","","","","",""
"null","../img/tt/124tt.jpg","null","mooney2","image-keyboard-response","53","387113","0.0-6.0-5.6","2846729","co37666","norming","","","","","","",""
"1947.7550000010524","","","post_reveal_questions","survey-likert","54","389062","0.0-6.0-6.6","2846729","co37666","norming","","","{""aha"":3}","[0]","../img/tt/124tt.jpg","",""
"null","<div style=""font-size:60px;""> </div>","null","fixation","html-keyboard-response","55","389270","0.0-6.0-0.7","2846729","co37666","norming","","","","","","",""
"null","../img/tt/046tt.jpg","null","mooney1","image-keyboard-response","56","392278","0.0-6.0-1.7","2846729","co37666","norming","","","","","","",""
"6197.729999999865","","","post_mooney1_questions","survey-likert","57","398479","0.0-6.0-2.7","2846729","co37666","norming","","","{""curiosity"":5,""confidence"":0}","[0,1]","../img/tt/046tt.jpg","",""
"2150.13499998895","","","recognition","survey-text","58","400630","0.0-6.0-3.7","2846729","co37666","norming","","","{""guess"":""""}","","../img/tt/046tt.jpg","",""
"null","../img/gs/046gs.jpg","null","reveal","image-keyboard-response","59","402637","0.0-6.0-4.7","2846729","co37666","norming","","","","","","",""
"null","../img/tt/046tt.jpg","null","mooney2","image-keyboard-response","60","404639","0.0-6.0-5.7","2846729","co37666","norming","","","","","","",""
"2061.164999991888","","","post_reveal_questions","survey-likert","61","406702","0.0-6.0-6.7","2846729","co37666","norming","","","{""aha"":3}","[0]","../img/tt/046tt.jpg","",""
"null","<div style=""font-size:60px;""> </div>","null","fixation","html-keyboard-response","62","406912","0.0-6.0-0.8","2846729","co37666","norming","","","","","","",""
"null","../img/tt/123tt.jpg","null","mooney1","image-keyboard-response","63","409921","0.0-6.0-1.8","2846729","co37666","norming","","","","","","",""
"3475.3300000011222","","","post_mooney1_questions","survey-likert","64","413405","0.0-6.0-2.8","2846729","co37666","norming","","","{""curiosity"":4,""confidence"":1}","[0,1]","../img/tt/123tt.jpg","",""
"3518.035000000964","","","recognition","survey-text","65","416925","0.0-6.0-3.8","2846729","co37666","norming","","","{""guess"":""boekentas""}","","../img/tt/123tt.jpg","",""
"null","../img/gs/123gs.jpg","null","reveal","image-keyboard-response","66","418928","0.0-6.0-4.8","2846729","co37666","norming","","","","","","",""
"null","../img/tt/123tt.jpg","null","mooney2","image-keyboard-response","67","420935","0.0-6.0-5.8","2846729","co37666","norming","","","","","","",""
"1563.220000010915","","","post_reveal_questions","survey-likert","68","422501","0.0-6.0-6.8","2846729","co37666","norming","","","{""aha"":1}","[0]","../img/tt/123tt.jpg","",""
"null","<div style=""font-size:60px;""> </div>","null","fixation","html-keyboard-response","69","422706","0.0-6.0-0.9","2846729","co37666","norming","","","","","","",""
"null","../img/tt/1353tt.jpg","null","mooney1","image-keyboard-response","70","425716","0.0-6.0-1.9","2846729","co37666","norming","","","","","","",""
"4542.65000000305","","","post_mooney1_questions","survey-likert","71","430261","0.0-6.0-2.9","2846729","co37666","norming","","","{""curiosity"":5,""confidence"":0}","[0,1]","../img/tt/1353tt.jpg","",""
"1046.0299999976996","","","recognition","survey-text","72","431309","0.0-6.0-3.9","2846729","co37666","norming","","","{""guess"":""""}","","../img/tt/1353tt.jpg","",""
"null","../img/gs/1353gs.jpg","null","reveal","image-keyboard-response","73","433315","0.0-6.0-4.9","2846729","co37666","norming","","","","","","",""
"null","../img/tt/1353tt.jpg","null","mooney2","image-keyboard-response","74","435317","0.0-6.0-5.9","2846729","co37666","norming","","","","","","",""
"1573.4749999974156","","","post_reveal_questions","survey-likert","75","436893","0.0-6.0-6.9","2846729","co37666","norming","","","{""aha"":0}","[0]","../img/tt/1353tt.jpg","",""
"null","<div style=""font-size:60px;""> </div>","null","fixation","html-keyboard-response","76","437104","0.0-6.0-0.10","2846729","co37666","norming","","","","","","",""
"null","../img/tt/524tt.jpg","null","mooney1","image-keyboard-response","77","440114","0.0-6.0-1.10","2846729","co37666","norming","","","","","","",""
"6306.315000008908","","","post_mooney1_questions","survey-likert","78","446421","0.0-6.0-2.10","2846729","co37666","norming","","","{""curiosity"":4,""confidence"":2}","[0,1]","../img/tt/524tt.jpg","",""
"4302.144999994198","","","recognition","survey-text","79","450725","0.0-6.0-3.10","2846729","co37666","norming","","","{""guess"":""paard""}","","../img/tt/524tt.jpg","",""
"null","../img/gs/524gs.jpg","null","reveal","image-keyboard-response","80","452727","0.0-6.0-4.10","2846729","co37666","norming","","","","","","",""
"null","../img/tt/524tt.jpg","null","mooney2","image-keyboard-response","81","454738","0.0-6.0-5.10","2846729","co37666","norming","","","","","","",""
"5089.204999996582","","","post_reveal_questions","survey-likert","82","459829","0.0-6.0-6.10","2846729","co37666","norming","","","{""aha"":4}","[0]","../img/tt/524tt.jpg","",""
"null","<div style=""font-size:60px;""> </div>","null","fixation","html-keyboard-response","83","460039","0.0-6.0-0.11","2846729","co37666","norming","","","","","","",""
"null","../img/tt/481tt.jpg","null","mooney1","image-keyboard-response","84","463044","0.0-6.0-1.11","2846729","co37666","norming","","","","","","",""
"4022.4900000030175","","","post_mooney1_questions","survey-likert","85","467069","0.0-6.0-2.11","2846729","co37666","norming","","","{""curiosity"":5,""confidence"":0}","[0,1]","../img/tt/481tt.jpg","",""
"718.0800000060117","","","recognition","survey-text","86","467789","0.0-6.0-3.11","2846729","co37666","norming","","","{""guess"":""""}","","../img/tt/481tt.jpg","",""
"null","../img/gs/481gs.jpg","null","reveal","image-keyboard-response","87","469799","0.0-6.0-4.11","2846729","co37666","norming","","","","","","",""
"null","../img/tt/481tt.jpg","null","mooney2","image-keyboard-response","88","471802","0.0-6.0-5.11","2846729","co37666","norming","","","","","","",""
"3104.5850000082282","","","post_reveal_questions","survey-likert","89","474906","0.0-6.0-6.11","2846729","co37666","norming","","","{""aha"":6}","[0]","../img/tt/481tt.jpg","",""
"null","<div style=""font-size:60px;""> </div>","null","fixation","html-keyboard-response","90","475112","0.0-6.0-0.12","2846729","co37666","norming","","","","","","",""
"null","../img/tt/1205tt.jpg","null","mooney1","image-keyboard-response","91","478115","0.0-6.0-1.12","2846729","co37666","norming","","","","","","",""
"3885.070000003907","","","post_mooney1_questions","survey-likert","92","482003","0.0-6.0-2.12","2846729","co37666","norming","","","{""curiosity"":5,""confidence"":0}","[0,1]","../img/tt/1205tt.jpg","",""
"11558.300000004238","","","recognition","survey-text","93","493563","0.0-6.0-3.12","2846729","co37666","norming","","","{""guess"":""""}","","../img/tt/1205tt.jpg","",""
"null","../img/gs/1205gs.jpg","null","reveal","image-keyboard-response","94","495568","0.0-6.0-4.12","2846729","co37666","norming","","","","","","",""
"null","../img/tt/1205tt.jpg","null","mooney2","image-keyboard-response","95","497570","0.0-6.0-5.12","2846729","co37666","norming","","","","","","",""
"1766.830000007758","","","post_reveal_questions","survey-likert","96","499339","0.0-6.0-6.12","2846729","co37666","norming","","","{""aha"":3}","[0]","../img/tt/1205tt.jpg","",""
"null","<div style=""font-size:60px;""> </div>","null","fixation","html-keyboard-response","97","499545","0.0-6.0-0.13","2846729","co37666","norming","","","","","","",""
"null","../img/tt/380tt.jpg","null","mooney1","image-keyboard-response","98","502547","0.0-6.0-1.13","2846729","co37666","norming","","","","","","",""
"14493.149999994785","","","post_mooney1_questions","survey-likert","99","517043","0.0-6.0-2.13","2846729","co37666","norming","","","{""curiosity"":5,""confidence"":1}","[0,1]","../img/tt/380tt.jpg","",""
"4501.889999999548","","","recognition","survey-text","100","521547","0.0-6.0-3.13","2846729","co37666","norming","","","{""guess"":""reptiel""}","","../img/tt/380tt.jpg","",""
"null","../img/gs/380gs.jpg","null","reveal","image-keyboard-response","101","523551","0.0-6.0-4.13","2846729","co37666","norming","","","","","","",""
"null","../img/tt/380tt.jpg","null","mooney2","image-keyboard-response","102","525562","0.0-6.0-5.13","2846729","co37666","norming","","","","","","",""
"2601.2900000059744","","","post_reveal_questions","survey-likert","103","528171","0.0-6.0-6.13","2846729","co37666","norming","","","{""aha"":5}","[0]","../img/tt/380tt.jpg","",""
"null","<div style=""font-size:60px;""> </div>","null","fixation","html-keyboard-response","104","528375","0.0-6.0-0.14","2846729","co37666","norming","","","","","","",""
"null","../img/tt/1061tt.jpg","null","mooney1","image-keyboard-response","105","531379","0.0-6.0-1.14","2846729","co37666","norming","","","","","","",""
"5212.695000009262","","","post_mooney1_questions","survey-likert","106","536598","0.0-6.0-2.14","2846729","co37666","norming","","","{""curiosity"":5,""confidence"":1}","[0,1]","../img/tt/1061tt.jpg","",""
"4982.049999991432","","","recognition","survey-text","107","541582","0.0-6.0-3.14","2846729","co37666","norming","","","{""guess"":""straatscène""}","","../img/tt/1061tt.jpg","",""
"null","../img/gs/1061gs.jpg","null","reveal","image-keyboard-response","108","543592","0.0-6.0-4.14","2846729","co37666","norming","","","","","","",""
"null","../img/tt/1061tt.jpg","null","mooney2","image-keyboard-response","109","545597","0.0-6.0-5.14","2846729","co37666","norming","","","","","","",""
"1560.3449999907752","","","post_reveal_questions","survey-likert","110","547158","0.0-6.0-6.14","2846729","co37666","norming","","","{""aha"":5}","[0]","../img/tt/1061tt.jpg","",""
"null","<div style=""font-size:60px;""> </div>","null","fixation","html-keyboard-response","111","547363","0.0-6.0-0.15","2846729","co37666","norming","","","","","","",""
"null","../img/tt/1175tt.jpg","null","mooney1","image-keyboard-response","112","550365","0.0-6.0-1.15","2846729","co37666","norming","","","","","","",""
"4879.530000005616","","","post_mooney1_questions","survey-likert","113","555246","0.0-6.0-2.15","2846729","co37666","norming","","","{""curiosity"":5,""confidence"":0}","[0,1]","../img/tt/1175tt.jpg","",""
"958.5349999979371","","","recognition","survey-text","114","556207","0.0-6.0-3.15","2846729","co37666","norming","","","{""guess"":""""}","","../img/tt/1175tt.jpg","",""
"null","../img/gs/1175gs.jpg","null","reveal","image-keyboard-response","115","558215","0.0-6.0-4.15","2846729","co37666","norming","","","","","","",""
"null","../img/tt/1175tt.jpg","null","mooney2","image-keyboard-response","116","560224","0.0-6.0-5.15","2846729","co37666","norming","","","","","","",""
"2187.8649999998743","","","post_reveal_questions","survey-likert","117","562414","0.0-6.0-6.15","2846729","co37666","norming","","","{""aha"":5}","[0]","../img/tt/1175tt.jpg","",""
"null","<div style=""font-size:60px;""> </div>","null","fixation","html-keyboard-response","118","562622","0.0-6.0-0.16","2846729","co37666","norming","","","","","","",""
"null","../img/tt/194tt.jpg","null","mooney1","image-keyboard-response","119","565626","0.0-6.0-1.16","2846729","co37666","norming","","","","","","",""
"5651.4400000014575","","","post_mooney1_questions","survey-likert","120","571278","0.0-6.0-2.16","2846729","co37666","norming","","","{""curiosity"":1,""confidence"":5}","[0,1]","../img/tt/194tt.jpg","",""
"5174.014999996871","","","recognition","survey-text","121","576454","0.0-6.0-3.16","2846729","co37666","norming","","","{""guess"":""harp""}","","../img/tt/194tt.jpg","",""
"null","../img/gs/194gs.jpg","null","reveal","image-keyboard-response","122","578459","0.0-6.0-4.16","2846729","co37666","norming","","","","","","",""
"null","../img/tt/194tt.jpg","null","mooney2","image-keyboard-response","123","580461","0.0-6.0-5.16","2846729","co37666","norming","","","","","","",""
"1975.6150000030175","","","post_reveal_questions","survey-likert","124","582438","0.0-6.0-6.16","2846729","co37666","norming","","","{""aha"":0}","[0]","../img/tt/194tt.jpg","",""
"null","<div style=""font-size:60px;""> </div>","null","fixation","html-keyboard-response","125","582641","0.0-6.0-0.17","2846729","co37666","norming","","","","","","",""
"null","../img/tt/1255tt.jpg","null","mooney1","image-keyboard-response","126","585652","0.0-6.0-1.17","2846729","co37666","norming","","","","","","",""
"3177.8099999937695","","","post_mooney1_questions","survey-likert","127","588830","0.0-6.0-2.17","2846729","co37666","norming","","","{""curiosity"":5,""confidence"":0}","[0,1]","../img/tt/1255tt.jpg","",""
"742.1600000088802","","","recognition","survey-text","128","589574","0.0-6.0-3.17","2846729","co37666","norming","","","{""guess"":""""}","","../img/tt/1255tt.jpg","",""
"null","../img/gs/1255gs.jpg","null","reveal","image-keyboard-response","129","591581","0.0-6.0-4.17","2846729","co37666","norming","","","","","","",""
"null","../img/tt/1255tt.jpg","null","mooney2","image-keyboard-response","130","593586","0.0-6.0-5.17","2846729","co37666","norming","","","","","","",""
"2579.6399999962887","","","post_reveal_questions","survey-likert","131","596166","0.0-6.0-6.17","2846729","co37666","norming","","","{""aha"":4}","[0]","../img/tt/1255tt.jpg","",""
"null","<div style=""font-size:60px;""> </div>","null","fixation","html-keyboard-response","132","596371","0.0-6.0-0.18","2846729","co37666","norming","","","","","","",""
"null","../img/tt/1362tt.jpg","null","mooney1","image-keyboard-response","133","599374","0.0-6.0-1.18","2846729","co37666","norming","","","","","","",""
"4422.034999995958","","","post_mooney1_questions","survey-likert","134","603798","0.0-6.0-2.18","2846729","co37666","norming","","","{""curiosity"":5,""confidence"":1}","[0,1]","../img/tt/1362tt.jpg","",""
"5006.059999999707","","","recognition","survey-text","135","608806","0.0-6.0-3.18","2846729","co37666","norming","","","{""guess"":""viool""}","","../img/tt/1362tt.jpg","",""
"null","../img/gs/1362gs.jpg","null","reveal","image-keyboard-response","136","610807","0.0-6.0-4.18","2846729","co37666","norming","","","","","","",""
"null","../img/tt/1362tt.jpg","null","mooney2","image-keyboard-response","137","612809","0.0-6.0-5.18","2846729","co37666","norming","","","","","","",""
"2714.7450000047684","","","post_reveal_questions","survey-likert","138","615526","0.0-6.0-6.18","2846729","co37666","norming","","","{""aha"":5}","[0]","../img/tt/1362tt.jpg","",""
"null","<div style=""font-size:60px;""> </div>","null","fixation","html-keyboard-response","139","615731","0.0-6.0-0.19","2846729","co37666","norming","","","","","","",""
"null","../img/tt/163tt.jpg","null","mooney1","image-keyboard-response","140","618733","0.0-6.0-1.19","2846729","co37666","norming","","","","","","",""
"4757.904999991297","","","post_mooney1_questions","survey-likert","141","623494","0.0-6.0-2.19","2846729","co37666","norming","","","{""curiosity"":5,""confidence"":0}","[0,1]","../img/tt/163tt.jpg","",""
"1245.9749999979977","","","recognition","survey-text","142","624742","0.0-6.0-3.19","2846729","co37666","norming","","","{""guess"":""""}","","../img/tt/163tt.jpg","",""
"null","../img/gs/163gs.jpg","null","reveal","image-keyboard-response","143","626750","0.0-6.0-4.19","2846729","co37666","norming","","","","","","",""
"null","../img/tt/163tt.jpg","null","mooney2","image-keyboard-response","144","628752","0.0-6.0-5.19","2846729","co37666","norming","","","","","","",""
"1947.6250000006985","","","post_reveal_questions","survey-likert","145","630702","0.0-6.0-6.19","2846729","co37666","norming","","","{""aha"":2}","[0]","../img/tt/163tt.jpg","",""
"null","<div style=""font-size:60px;""> </div>","null","fixation","html-keyboard-response","146","630905","0.0-6.0-0.20","2846729","co37666","norming","","","","","","",""
"null","../img/tt/599tt.jpg","null","mooney1","image-keyboard-response","147","633912","0.0-6.0-1.20","2846729","co37666","norming","","","","","","",""
"6955.730000001495","","","post_mooney1_questions","survey-likert","148","640870","0.0-6.0-2.20","2846729","co37666","norming","","","{""curiosity"":5,""confidence"":0}","[0,1]","../img/tt/599tt.jpg","",""
"709.3750000058208","","","recognition","survey-text","149","641581","0.0-6.0-3.20","2846729","co37666","norming","","","{""guess"":""""}","","../img/tt/599tt.jpg","",""
"null","../img/gs/599gs.jpg","null","reveal","image-keyboard-response","150","643583","0.0-6.0-4.20","2846729","co37666","norming","","","","","","",""
"null","../img/tt/599tt.jpg","null","mooney2","image-keyboard-response","151","645592","0.0-6.0-5.20","2846729","co37666","norming","","","","","","",""
"1452.9500000062399","","","post_reveal_questions","survey-likert","152","647046","0.0-6.0-6.20","2846729","co37666","norming","","","{""aha"":5}","[0]","../img/tt/599tt.jpg","",""
"null","<div style=""font-size:60px;""> </div>","null","fixation","html-keyboard-response","153","647254","0.0-6.0-0.21","2846729","co37666","norming","","","","","","",""
"null","../img/tt/1024tt.jpg","null","mooney1","image-keyboard-response","154","650266","0.0-6.0-1.21","2846729","co37666","norming","","","","","","",""
"5361.705000002985","","","post_mooney1_questions","survey-likert","155","655622","0.0-6.0-2.21","2846729","co37666","norming","","","{""curiosity"":5,""confidence"":0}","[0,1]","../img/tt/1024tt.jpg","",""
"662.175000004936","","","recognition","survey-text","156","656286","0.0-6.0-3.21","2846729","co37666","norming","","","{""guess"":""""}","","../img/tt/1024tt.jpg","",""
"null","../img/gs/1024gs.jpg","null","reveal","image-keyboard-response","157","658289","0.0-6.0-4.21","2846729","co37666","norming","","","","","","",""
"null","../img/tt/1024tt.jpg","null","mooney2","image-keyboard-response","158","660292","0.0-6.0-5.21","2846729","co37666","norming","","","","","","",""
"2175.795000002836","","","post_reveal_questions","survey-likert","159","662470","0.0-6.0-6.21","2846729","co37666","norming","","","{""aha"":4}","[0]","../img/tt/1024tt.jpg","",""
"null","<div style=""font-size:60px;""> </div>","null","fixation","html-keyboard-response","160","662679","0.0-6.0-0.22","2846729","co37666","norming","","","","","","",""
"null","../img/tt/032tt.jpg","null","mooney1","image-keyboard-response","161","665690","0.0-6.0-1.22","2846729","co37666","norming","","","","","","",""
"4571.080000008806","","","post_mooney1_questions","survey-likert","162","670262","0.0-6.0-2.22","2846729","co37666","norming","","","{""curiosity"":5,""confidence"":1}","[0,1]","../img/tt/032tt.jpg","",""
"3718.0950000038138","","","recognition","survey-text","163","673982","0.0-6.0-3.22","2846729","co37666","norming","","","{""guess"":""beer""}","","../img/tt/032tt.jpg","",""
"null","../img/gs/032gs.jpg","null","reveal","image-keyboard-response","164","675989","0.0-6.0-4.22","2846729","co37666","norming","","","","","","",""
"null","../img/tt/032tt.jpg","null","mooney2","image-keyboard-response","165","677990","0.0-6.0-5.22","2846729","co37666","norming","","","","","","",""
"2069.419999999809","","","post_reveal_questions","survey-likert","166","680062","0.0-6.0-6.22","2846729","co37666","norming","","","{""aha"":5}","[0]","../img/tt/032tt.jpg","",""
"null","<div style=""font-size:60px;""> </div>","null","fixation","html-keyboard-response","167","680270","0.0-6.0-0.23","2846729","co37666","norming","","","","","","",""
"null","../img/tt/406tt.jpg","null","mooney1","image-keyboard-response","168","683275","0.0-6.0-1.23","2846729","co37666","norming","","","","","","",""
"3560.784999994212","","","post_mooney1_questions","survey-likert","169","686838","0.0-6.0-2.23","2846729","co37666","norming","","","{""curiosity"":5,""confidence"":0}","[0,1]","../img/tt/406tt.jpg","",""
"757.9550000082236","","","recognition","survey-text","170","687597","0.0-6.0-3.23","2846729","co37666","norming","","","{""guess"":""""}","","../img/tt/406tt.jpg","",""
"null","../img/gs/406gs.jpg","null","reveal","image-keyboard-response","171","689599","0.0-6.0-4.23","2846729","co37666","norming","","","","","","",""
"null","../img/tt/406tt.jpg","null","mooney2","image-keyboard-response","172","691600","0.0-6.0-5.23","2846729","co37666","norming","","","","","","",""
"2980.9799999929965","","","post_reveal_questions","survey-likert","173","694582","0.0-6.0-6.23","2846729","co37666","norming","","","{""aha"":6}","[0]","../img/tt/406tt.jpg","",""
"null","<div style=""font-size:60px;""> </div>","null","fixation","html-keyboard-response","174","694784","0.0-6.0-0.24","2846729","co37666","norming","","","","","","",""
"null","../img/tt/329tt.jpg","null","mooney1","image-keyboard-response","175","697793","0.0-6.0-1.24","2846729","co37666","norming","","","","","","",""
"3890.285000001313","","","post_mooney1_questions","survey-likert","176","701686","0.0-6.0-2.24","2846729","co37666","norming","","","{""curiosity"":5,""confidence"":0}","[0,1]","../img/tt/329tt.jpg","",""
"782.3400000052061","","","recognition","survey-text","177","702469","0.0-6.0-3.24","2846729","co37666","norming","","","{""guess"":""""}","","../img/tt/329tt.jpg","",""
"null","../img/gs/329gs.jpg","null","reveal","image-keyboard-response","178","704475","0.0-6.0-4.24","2846729","co37666","norming","","","","","","",""
"null","../img/tt/329tt.jpg","null","mooney2","image-keyboard-response","179","706478","0.0-6.0-5.24","2846729","co37666","norming","","","","","","",""
"1669.4850000058068","","","post_reveal_questions","survey-likert","180","708150","0.0-6.0-6.24","2846729","co37666","norming","","","{""aha"":4}","[0]","../img/tt/329tt.jpg","",""
"null","<div style=""font-size:60px;""> </div>","null","fixation","html-keyboard-response","181","708357","0.0-6.0-0.25","2846729","co37666","norming","","","","","","",""
"null","../img/tt/1278tt.jpg","null","mooney1","image-keyboard-response","182","711361","0.0-6.0-1.25","2846729","co37666","norming","","","","","","",""
"4306.425000002491","","","post_mooney1_questions","survey-likert","183","715677","0.0-6.0-2.25","2846729","co37666","norming","","","{""curiosity"":4,""confidence"":1}","[0,1]","../img/tt/1278tt.jpg","",""
"2989.9900000018533","","","recognition","survey-text","184","718669","0.0-6.0-3.25","2846729","co37666","norming","","","{""guess"":""hond""}","","../img/tt/1278tt.jpg","",""
"null","../img/gs/1278gs.jpg","null","reveal","image-keyboard-response","185","720675","0.0-6.0-4.25","2846729","co37666","norming","","","","","","",""
"null","../img/tt/1278tt.jpg","null","mooney2","image-keyboard-response","186","722683","0.0-6.0-5.25","2846729","co37666","norming","","","","","","",""
"1727.4449999968056","","","post_reveal_questions","survey-likert","187","724413","0.0-6.0-6.25","2846729","co37666","norming","","","{""aha"":0}","[0]","../img/tt/1278tt.jpg","",""
"null","<div style=""font-size:60px;""> </div>","null","fixation","html-keyboard-response","188","724621","0.0-6.0-0.26","2846729","co37666","norming","","","","","","",""
"null","../img/tt/1084tt.jpg","null","mooney1","image-keyboard-response","189","727630","0.0-6.0-1.26","2846729","co37666","norming","","","","","","",""
"4165.359999999055","","","post_mooney1_questions","survey-likert","190","731797","0.0-6.0-2.26","2846729","co37666","norming","","","{""curiosity"":5,""confidence"":1}","[0,1]","../img/tt/1084tt.jpg","",""
"3958.039999997709","","","recognition","survey-text","191","735757","0.0-6.0-3.26","2846729","co37666","norming","","","{""guess"":""tas""}","","../img/tt/1084tt.jpg","",""
"null","../img/gs/1084gs.jpg","null","reveal","image-keyboard-response","192","737760","0.0-6.0-4.26","2846729","co37666","norming","","","","","","",""
"null","../img/tt/1084tt.jpg","null","mooney2","image-keyboard-response","193","739762","0.0-6.0-5.26","2846729","co37666","norming","","","","","","",""
"1976.3200000015786","","","post_reveal_questions","survey-likert","194","741741","0.0-6.0-6.26","2846729","co37666","norming","","","{""aha"":5}","[0]","../img/tt/1084tt.jpg","",""
"null","<div style=""font-size:60px;""> </div>","null","fixation","html-keyboard-response","195","741947","0.0-6.0-0.27","2846729","co37666","norming","","","","","","",""
"null","../img/tt/496tt.jpg","null","mooney1","image-keyboard-response","196","744950","0.0-6.0-1.27","2846729","co37666","norming","","","","","","",""
"4771.91500000481","","","post_mooney1_questions","survey-likert","197","749725","0.0-6.0-2.27","2846729","co37666","norming","","","{""curiosity"":3,""confidence"":4}","[0,1]","../img/tt/496tt.jpg","",""
"2878.2649999920977","","","recognition","survey-text","198","752605","0.0-6.0-3.27","2846729","co37666","norming","","","{""guess"":""hond""}","","../img/tt/496tt.jpg","",""
"null","../img/gs/496gs.jpg","null","reveal","image-keyboard-response","199","754606","0.0-6.0-4.27","2846729","co37666","norming","","","","","","",""
"null","../img/tt/496tt.jpg","null","mooney2","image-keyboard-response","200","756618","0.0-6.0-5.27","2846729","co37666","norming","","","","","","",""
"2856.6099999879953","","","post_reveal_questions","survey-likert","201","759477","0.0-6.0-6.27","2846729","co37666","norming","","","{""aha"":0}","[0]","../img/tt/496tt.jpg","",""
"null","<div style=""font-size:60px;""> </div>","null","fixation","html-keyboard-response","202","759681","0.0-6.0-0.28","2846729","co37666","norming","","","","","","",""
"null","../img/tt/436tt.jpg","null","mooney1","image-keyboard-response","203","762689","0.0-6.0-1.28","2846729","co37666","norming","","","","","","",""
"3961.1750000040047","","","post_mooney1_questions","survey-likert","204","766653","0.0-6.0-2.28","2846729","co37666","norming","","","{""curiosity"":5,""confidence"":1}","[0,1]","../img/tt/436tt.jpg","",""
"2293.5950000101","","","recognition","survey-text","205","768948","0.0-6.0-3.28","2846729","co37666","norming","","","{""guess"":""dier""}","","../img/tt/436tt.jpg","",""
"null","../img/gs/436gs.jpg","null","reveal","image-keyboard-response","206","770956","0.0-6.0-4.28","2846729","co37666","norming","","","","","","",""
"null","../img/tt/436tt.jpg","null","mooney2","image-keyboard-response","207","772958","0.0-6.0-5.28","2846729","co37666","norming","","","","","","",""
"2436.170000000857","","","post_reveal_questions","survey-likert","208","775397","0.0-6.0-6.28","2846729","co37666","norming","","","{""aha"":6}","[0]","../img/tt/436tt.jpg","",""
"null","<div style=""font-size:60px;""> </div>","null","fixation","html-keyboard-response","209","775602","0.0-6.0-0.29","2846729","co37666","norming","","","","","","",""
"null","../img/tt/121tt.jpg","null","mooney1","image-keyboard-response","210","778614","0.0-6.0-1.29","2846729","co37666","norming","","","","","","",""
"3575.3550000081304","","","post_mooney1_questions","survey-likert","211","782192","0.0-6.0-2.29","2846729","co37666","norming","","","{""curiosity"":1,""confidence"":5}","[0,1]","../img/tt/121tt.jpg","",""
"3574.1200000047684","","","recognition","survey-text","212","785767","0.0-6.0-3.29","2846729","co37666","norming","","","{""guess"":""kangoeroe""}","","../img/tt/121tt.jpg","",""
"null","../img/gs/121gs.jpg","null","reveal","image-keyboard-response","213","787776","0.0-6.0-4.29","2846729","co37666","norming","","","","","","",""
"null","../img/tt/121tt.jpg","null","mooney2","image-keyboard-response","214","789779","0.0-6.0-5.29","2846729","co37666","norming","","","","","","",""
"1570.2199999941513","","","post_reveal_questions","survey-likert","215","791351","0.0-6.0-6.29","2846729","co37666","norming","","","{""aha"":0}","[0]","../img/tt/121tt.jpg","",""
"null","<div style=""font-size:60px;""> </div>","null","fixation","html-keyboard-response","216","791555","0.0-6.0-0.30","2846729","co37666","norming","","","","","","",""
"null","../img/tt/306tt.jpg","null","mooney1","image-keyboard-response","217","794566","0.0-6.0-1.30","2846729","co37666","norming","","","","","","",""
"5782.940000004601","","","post_mooney1_questions","survey-likert","218","800352","0.0-6.0-2.30","2846729","co37666","norming","","","{""curiosity"":5,""confidence"":0}","[0,1]","../img/tt/306tt.jpg","",""
"1349.7050000005402","","","recognition","survey-text","219","801703","0.0-6.0-3.30","2846729","co37666","norming","","","{""guess"":""""}","","../img/tt/306tt.jpg","",""
"null","../img/gs/306gs.jpg","null","reveal","image-keyboard-response","220","803704","0.0-6.0-4.30","2846729","co37666","norming","","","","","","",""
"null","../img/tt/306tt.jpg","null","mooney2","image-keyboard-response","221","805706","0.0-6.0-5.30","2846729","co37666","norming","","","","","","",""
"1684.865000002901","","","post_reveal_questions","survey-likert","222","807391","0.0-6.0-6.30","2846729","co37666","norming","","","{""aha"":4}","[0]","../img/tt/306tt.jpg","",""
"null","<div style=""font-size:60px;""> </div>","null","fixation","html-keyboard-response","223","807598","0.0-6.0-0.31","2846729","co37666","norming","","","","","","",""
"null","../img/tt/1159tt.jpg","null","mooney1","image-keyboard-response","224","810606","0.0-6.0-1.31","2846729","co37666","norming","","","","","","",""
"5070.73500000115","","","post_mooney1_questions","survey-likert","225","815680","0.0-6.0-2.31","2846729","co37666","norming","","","{""curiosity"":6,""confidence"":0}","[0,1]","../img/tt/1159tt.jpg","",""
"1229.9950000015087","","","recognition","survey-text","226","816911","0.0-6.0-3.31","2846729","co37666","norming","","","{""guess"":""""}","","../img/tt/1159tt.jpg","",""
"null","../img/gs/1159gs.jpg","null","reveal","image-keyboard-response","227","818922","0.0-6.0-4.31","2846729","co37666","norming","","","","","","",""
"null","../img/tt/1159tt.jpg","null","mooney2","image-keyboard-response","228","820926","0.0-6.0-5.31","2846729","co37666","norming","","","","","","",""
"3999.4650000007823","","","post_reveal_questions","survey-likert","229","824927","0.0-6.0-6.31","2846729","co37666","norming","","","{""aha"":4}","[0]","../img/tt/1159tt.jpg","",""
"null","<div style=""font-size:60px;""> </div>","null","fixation","html-keyboard-response","230","825131","0.0-6.0-0.32","2846729","co37666","norming","","","","","","",""
"null","../img/tt/468tt.jpg","null","mooney1","image-keyboard-response","231","828143","0.0-6.0-1.32","2846729","co37666","norming","","","","","","",""
"3781.730000002426","","","post_mooney1_questions","survey-likert","232","831928","0.0-6.0-2.32","2846729","co37666","norming","","","{""curiosity"":6,""confidence"":0}","[0,1]","../img/tt/468tt.jpg","",""
"1101.8800000019837","","","recognition","survey-text","233","833031","0.0-6.0-3.32","2846729","co37666","norming","","","{""guess"":""""}","","../img/tt/468tt.jpg","",""
"null","../img/gs/468gs.jpg","null","reveal","image-keyboard-response","234","835040","0.0-6.0-4.32","2846729","co37666","norming","","","","","","",""
"null","../img/tt/468tt.jpg","null","mooney2","image-keyboard-response","235","837049","0.0-6.0-5.32","2846729","co37666","norming","","","","","","",""
"2963.8449999911245","","","post_reveal_questions","survey-likert","236","840008","0.0-6.0-6.32","2846729","co37666","norming","","","{""aha"":6}","[0]","../img/tt/468tt.jpg","",""
"null","<div style=""font-size:60px;""> </div>","null","fixation","html-keyboard-response","237","840213","0.0-6.0-0.33","2846729","co37666","norming","","","","","","",""
"null","../img/tt/590tt.jpg","null","mooney1","image-keyboard-response","238","843223","0.0-6.0-1.33","2846729","co37666","norming","","","","","","",""
"3638.455000007525","","","post_mooney1_questions","survey-likert","239","846864","0.0-6.0-2.33","2846729","co37666","norming","","","{""curiosity"":6,""confidence"":0}","[0,1]","../img/tt/590tt.jpg","",""
"549.8850000003586","","","recognition","survey-text","240","847416","0.0-6.0-3.33","2846729","co37666","norming","","","{""guess"":""""}","","../img/tt/590tt.jpg","",""
"null","../img/gs/590gs.jpg","null","reveal","image-keyboard-response","241","849420","0.0-6.0-4.33","2846729","co37666","norming","","","","","","",""
"null","../img/tt/590tt.jpg","null","mooney2","image-keyboard-response","242","851422","0.0-6.0-5.33","2846729","co37666","norming","","","","","","",""
"2959.664999987581","","","post_reveal_questions","survey-likert","243","854384","0.0-6.0-6.33","2846729","co37666","norming","","","{""aha"":3}","[0]","../img/tt/590tt.jpg","",""
"null","<div style=""font-size:60px;""> </div>","null","fixation","html-keyboard-response","244","854586","0.0-6.0-0.34","2846729","co37666","norming","","","","","","",""
"null","../img/tt/1012tt.jpg","null","mooney1","image-keyboard-response","245","857589","0.0-6.0-1.34","2846729","co37666","norming","","","","","","",""
"4458.115000001271","","","post_mooney1_questions","survey-likert","246","862048","0.0-6.0-2.34","2846729","co37666","norming","","","{""curiosity"":4,""confidence"":2}","[0,1]","../img/tt/1012tt.jpg","",""
"3261.9399999966845","","","recognition","survey-text","247","865312","0.0-6.0-3.34","2846729","co37666","norming","","","{""guess"":""paard""}","","../img/tt/1012tt.jpg","",""
"null","../img/gs/1012gs.jpg","null","reveal","image-keyboard-response","248","867312","0.0-6.0-4.34","2846729","co37666","norming","","","","","","",""
"null","../img/tt/1012tt.jpg","null","mooney2","image-keyboard-response","249","869315","0.0-6.0-5.34","2846729","co37666","norming","","","","","","",""
"2690.919999993639","","","post_reveal_questions","survey-likert","250","872008","0.0-6.0-6.34","2846729","co37666","norming","","","{""aha"":2}","[0]","../img/tt/1012tt.jpg","",""
"null","<div style=""font-size:60px;""> </div>","null","fixation","html-keyboard-response","251","872210","0.0-6.0-0.35","2846729","co37666","norming","","","","","","",""
"null","../img/tt/064tt.jpg","null","mooney1","image-keyboard-response","252","875222","0.0-6.0-1.35","2846729","co37666","norming","","","","","","",""
"5486.89000000013","","","post_mooney1_questions","survey-likert","253","880712","0.0-6.0-2.35","2846729","co37666","norming","","","{""curiosity"":5,""confidence"":1}","[0,1]","../img/tt/064tt.jpg","",""
"2565.8949999924516","","","recognition","survey-text","254","883279","0.0-6.0-3.35","2846729","co37666","norming","","","{""guess"":""hand""}","","../img/tt/064tt.jpg","",""
"null","../img/gs/064gs.jpg","null","reveal","image-keyboard-response","255","885281","0.0-6.0-4.35","2846729","co37666","norming","","","","","","",""
"null","../img/tt/064tt.jpg","null","mooney2","image-keyboard-response","256","887284","0.0-6.0-5.35","2846729","co37666","norming","","","","","","",""
"1218.7200000043958","","","post_reveal_questions","survey-likert","257","888503","0.0-6.0-6.35","2846729","co37666","norming","","","{""aha"":5}","[0]","../img/tt/064tt.jpg","",""
"null","<div style=""font-size:60px;""> </div>","null","fixation","html-keyboard-response","258","888709","0.0-6.0-0.36","2846729","co37666","norming","","","","","","",""
"null","../img/tt/435tt.jpg","null","mooney1","image-keyboard-response","259","891718","0.0-6.0-1.36","2846729","co37666","norming","","","","","","",""
"4088.0099999922095","","","post_mooney1_questions","survey-likert","260","895807","0.0-6.0-2.36","2846729","co37666","norming","","","{""curiosity"":6,""confidence"":0}","[0,1]","../img/tt/435tt.jpg","",""
"3965.8349999954225","","","recognition","survey-text","261","899782","0.0-6.0-3.36","2846729","co37666","norming","","","{""guess"":""""}","","../img/tt/435tt.jpg","",""
"null","../img/gs/435gs.jpg","null","reveal","image-keyboard-response","262","901792","0.0-6.0-4.36","2846729","co37666","norming","","","","","","",""
"null","../img/tt/435tt.jpg","null","mooney2","image-keyboard-response","263","903796","0.0-6.0-5.36","2846729","co37666","norming","","","","","","",""
"3089.045000000624","","","post_reveal_questions","survey-likert","264","906886","0.0-6.0-6.36","2846729","co37666","norming","","","{""aha"":5}","[0]","../img/tt/435tt.jpg","",""
"null","<div style=""font-size:60px;""> </div>","null","fixation","html-keyboard-response","265","907096","0.0-6.0-0.37","2846729","co37666","norming","","","","","","",""
"null","../img/tt/1033tt.jpg","null","mooney1","image-keyboard-response","266","910106","0.0-6.0-1.37","2846729","co37666","norming","","","","","","",""
"3484.03999999573","","","post_mooney1_questions","survey-likert","267","913591","0.0-6.0-2.37","2846729","co37666","norming","","","{""curiosity"":5,""confidence"":0}","[0,1]","../img/tt/1033tt.jpg","",""
"1021.984999999404","","","recognition","survey-text","268","914615","0.0-6.0-3.37","2846729","co37666","norming","","","{""guess"":""""}","","../img/tt/1033tt.jpg","",""
"null","../img/gs/1033gs.jpg","null","reveal","image-keyboard-response","269","916621","0.0-6.0-4.37","2846729","co37666","norming","","","","","","",""
"null","../img/tt/1033tt.jpg","null","mooney2","image-keyboard-response","270","918624","0.0-6.0-5.37","2846729","co37666","norming","","","","","","",""
"4932.520000002114","","","post_reveal_questions","survey-likert","271","923559","0.0-6.0-6.37","2846729","co37666","norming","","","{""aha"":5}","[0]","../img/tt/1033tt.jpg","",""
"null","<div style=""font-size:60px;""> </div>","null","fixation","html-keyboard-response","272","923761","0.0-6.0-0.38","2846729","co37666","norming","","","","","","",""
"null","../img/tt/1241tt.jpg","null","mooney1","image-keyboard-response","273","926764","0.0-6.0-1.38","2846729","co37666","norming","","","","","","",""
"4392.010000010487","","","post_mooney1_questions","survey-likert","274","931159","0.0-6.0-2.38","2846729","co37666","norming","","","{""curiosity"":5,""confidence"":0}","[0,1]","../img/tt/1241tt.jpg","",""
"1045.7900000037625","","","recognition","survey-text","275","932206","0.0-6.0-3.38","2846729","co37666","norming","","","{""guess"":""""}","","../img/tt/1241tt.jpg","",""
"null","../img/gs/1241gs.jpg","null","reveal","image-keyboard-response","276","934211","0.0-6.0-4.38","2846729","co37666","norming","","","","","","",""
"null","../img/tt/1241tt.jpg","null","mooney2","image-keyboard-response","277","936222","0.0-6.0-5.38","2846729","co37666","norming","","","","","","",""
"2558.2399999984773","","","post_reveal_questions","survey-likert","278","938783","0.0-6.0-6.38","2846729","co37666","norming","","","{""aha"":5}","[0]","../img/tt/1241tt.jpg","",""
"null","<div style=""font-size:60px;""> </div>","null","fixation","html-keyboard-response","279","938993","0.0-6.0-0.39","2846729","co37666","norming","","","","","","",""
"null","../img/tt/438tt.jpg","null","mooney1","image-keyboard-response","280","941996","0.0-6.0-1.39","2846729","co37666","norming","","","","","","",""
"4897.704999995767","","","post_mooney1_questions","survey-likert","281","946895","0.0-6.0-2.39","2846729","co37666","norming","","","{""curiosity"":6,""confidence"":2}","[0,1]","../img/tt/438tt.jpg","",""
"3878.0799999949522","","","recognition","survey-text","282","950775","0.0-6.0-3.39","2846729","co37666","norming","","","{""guess"":""krokodil""}","","../img/tt/438tt.jpg","",""
"null","../img/gs/438gs.jpg","null","reveal","image-keyboard-response","283","952783","0.0-6.0-4.39","2846729","co37666","norming","","","","","","",""
"null","../img/tt/438tt.jpg","null","mooney2","image-keyboard-response","284","954784","0.0-6.0-5.39","2846729","co37666","norming","","","","","","",""
"2021.7249999986961","","","post_reveal_questions","survey-likert","285","956807","0.0-6.0-6.39","2846729","co37666","norming","","","{""aha"":6}","[0]","../img/tt/438tt.jpg","",""
"null","<div style=""font-size:60px;""> </div>","null","fixation","html-keyboard-response","286","957010","0.0-6.0-0.40","2846729","co37666","norming","","","","","","",""
"null","../img/tt/222tt.jpg","null","mooney1","image-keyboard-response","287","960021","0.0-6.0-1.40","2846729","co37666","norming","","","","","","",""
"3447.860000000219","","","post_mooney1_questions","survey-likert","288","963472","0.0-6.0-2.40","2846729","co37666","norming","","","{""curiosity"":5,""confidence"":0}","[0,1]","../img/tt/222tt.jpg","",""
"718.3050000021467","","","recognition","survey-text","289","964192","0.0-6.0-3.40","2846729","co37666","norming","","","{""guess"":""""}","","../img/tt/222tt.jpg","",""
"null","../img/gs/222gs.jpg","null","reveal","image-keyboard-response","290","966202","0.0-6.0-4.40","2846729","co37666","norming","","","","","","",""
"null","../img/tt/222tt.jpg","null","mooney2","image-keyboard-response","291","968213","0.0-6.0-5.40","2846729","co37666","norming","","","","","","",""
"1321.205000000191","","","post_reveal_questions","survey-likert","292","969536","0.0-6.0-6.40","2846729","co37666","norming","","","{""aha"":5}","[0]","../img/tt/222tt.jpg","",""
"null","<div style=""font-size:60px;""> </div>","null","fixation","html-keyboard-response","293","969745","0.0-6.0-0.41","2846729","co37666","norming","","","","","","",""
"null","../img/tt/1228tt.jpg","null","mooney1","image-keyboard-response","294","972753","0.0-6.0-1.41","2846729","co37666","norming","","","","","","",""
"5893.605000004754","","","post_mooney1_questions","survey-likert","295","978648","0.0-6.0-2.41","2846729","co37666","norming","","","{""curiosity"":5,""confidence"":3}","[0,1]","../img/tt/1228tt.jpg","",""
"2797.8449999936856","","","recognition","survey-text","296","981448","0.0-6.0-3.41","2846729","co37666","norming","","","{""guess"":""vogel""}","","../img/tt/1228tt.jpg","",""
"null","../img/gs/1228gs.jpg","null","reveal","image-keyboard-response","297","983453","0.0-6.0-4.41","2846729","co37666","norming","","","","","","",""
"null","../img/tt/1228tt.jpg","null","mooney2","image-keyboard-response","298","985456","0.0-6.0-5.41","2846729","co37666","norming","","","","","","",""
"3293.1700000044657","","","post_reveal_questions","survey-likert","299","988752","0.0-6.0-6.41","2846729","co37666","norming","","","{""aha"":6}","[0]","../img/tt/1228tt.jpg","",""
"null","<div style=""font-size:60px;""> </div>","null","fixation","html-keyboard-response","300","988961","0.0-6.0-0.42","2846729","co37666","norming","","","","","","",""
"null","../img/tt/1122tt.jpg","null","mooney1","image-keyboard-response","301","991965","0.0-6.0-1.42","2846729","co37666","norming","","","","","","",""
"3952.8900000004796","","","post_mooney1_questions","survey-likert","302","995920","0.0-6.0-2.42","2846729","co37666","norming","","","{""curiosity"":5,""confidence"":4}","[0,1]","../img/tt/1122tt.jpg","",""
"3565.999999991618","","","recognition","survey-text","303","999488","0.0-6.0-3.42","2846729","co37666","norming","","","{""guess"":""auto's""}","","../img/tt/1122tt.jpg","",""
"null","../img/gs/1122gs.jpg","null","reveal","image-keyboard-response","304","1001494","0.0-6.0-4.42","2846729","co37666","norming","","","","","","",""
"null","../img/tt/1122tt.jpg","null","mooney2","image-keyboard-response","305","1003496","0.0-6.0-5.42","2846729","co37666","norming","","","","","","",""
"2139.6850000019185","","","post_reveal_questions","survey-likert","306","1005640","0.0-6.0-6.42","2846729","co37666","norming","","","{""aha"":5}","[0]","../img/tt/1122tt.jpg","",""
"null","<div style=""font-size:60px;""> </div>","null","fixation","html-keyboard-response","307","1005843","0.0-6.0-0.43","2846729","co37666","norming","","","","","","",""
"null","../img/tt/019tt.jpg","null","mooney1","image-keyboard-response","308","1008853","0.0-6.0-1.43","2846729","co37666","norming","","","","","","",""
"4112.124999999651","","","post_mooney1_questions","survey-likert","309","1012968","0.0-6.0-2.43","2846729","co37666","norming","","","{""curiosity"":4,""confidence"":3}","[0,1]","../img/tt/019tt.jpg","",""
"4190.020000009099","","","recognition","survey-text","310","1017160","0.0-6.0-3.43","2846729","co37666","norming","","","{""guess"":""vulpen""}","","../img/tt/019tt.jpg","",""
"null","../img/gs/019gs.jpg","null","reveal","image-keyboard-response","311","1019161","0.0-6.0-4.43","2846729","co37666","norming","","","","","","",""
"null","../img/tt/019tt.jpg","null","mooney2","image-keyboard-response","312","1021164","0.0-6.0-5.43","2846729","co37666","norming","","","","","","",""
"1610.065000000759","","","post_reveal_questions","survey-likert","313","1022776","0.0-6.0-6.43","2846729","co37666","norming","","","{""aha"":5}","[0]","../img/tt/019tt.jpg","",""
"null","<div style=""font-size:60px;""> </div>","null","fixation","html-keyboard-response","314","1022978","0.0-6.0-0.44","2846729","co37666","norming","","","","","","",""
"null","../img/tt/353tt.jpg","null","mooney1","image-keyboard-response","315","1025986","0.0-6.0-1.44","2846729","co37666","norming","","","","","","",""
"4619.34000000474","","","post_mooney1_questions","survey-likert","316","1030609","0.0-6.0-2.44","2846729","co37666","norming","","","{""curiosity"":5,""confidence"":0}","[0,1]","../img/tt/353tt.jpg","",""
"1590.0150000088615","","","recognition","survey-text","317","1032200","0.0-6.0-3.44","2846729","co37666","norming","","","{""guess"":""""}","","../img/tt/353tt.jpg","",""
"null","../img/gs/353gs.jpg","null","reveal","image-keyboard-response","318","1034211","0.0-6.0-4.44","2846729","co37666","norming","","","","","","",""
"null","../img/tt/353tt.jpg","null","mooney2","image-keyboard-response","319","1036214","0.0-6.0-5.44","2846729","co37666","norming","","","","","","",""
"2792.15499998827","","","post_reveal_questions","survey-likert","320","1039008","0.0-6.0-6.44","2846729","co37666","norming","","","{""aha"":5}","[0]","../img/tt/353tt.jpg","",""
"null","<div style=""font-size:60px;""> </div>","null","fixation","html-keyboard-response","321","1039211","0.0-6.0-0.45","2846729","co37666","norming","","","","","","",""
"null","../img/tt/1078tt.jpg","null","mooney1","image-keyboard-response","322","1042219","0.0-6.0-1.45","2846729","co37666","norming","","","","","","",""
"5379.029999996419","","","post_mooney1_questions","survey-likert","323","1047600","0.0-6.0-2.45","2846729","co37666","norming","","","{""curiosity"":5,""confidence"":1}","[0,1]","../img/tt/1078tt.jpg","",""
"3654.125000000815","","","recognition","survey-text","324","1051256","0.0-6.0-3.45","2846729","co37666","norming","","","{""guess"":""leerlingen""}","","../img/tt/1078tt.jpg","",""
"null","../img/gs/1078gs.jpg","null","reveal","image-keyboard-response","325","1053263","0.0-6.0-4.45","2846729","co37666","norming","","","","","","",""
"null","../img/tt/1078tt.jpg","null","mooney2","image-keyboard-response","326","1055265","0.0-6.0-5.45","2846729","co37666","norming","","","","","","",""
"1853.000000002794","","","post_reveal_questions","survey-likert","327","1057120","0.0-6.0-6.45","2846729","co37666","norming","","","{""aha"":5}","[0]","../img/tt/1078tt.jpg","",""
"null","<div style=""font-size:60px;""> </div>","null","fixation","html-keyboard-response","328","1057321","0.0-6.0-0.46","2846729","co37666","norming","","","","","","",""
"null","../img/tt/020tt.jpg","null","mooney1","image-keyboard-response","329","1060324","0.0-6.0-1.46","2846729","co37666","norming","","","","","","",""
"4377.820000008913","","","post_mooney1_questions","survey-likert","330","1064704","0.0-6.0-2.46","2846729","co37666","norming","","","{""curiosity"":5,""confidence"":0}","[0,1]","../img/tt/020tt.jpg","",""
"1550.0100000062957","","","recognition","survey-text","331","1066256","0.0-6.0-3.46","2846729","co37666","norming","","","{""guess"":""""}","","../img/tt/020tt.jpg","",""
"null","../img/gs/020gs.jpg","null","reveal","image-keyboard-response","332","1068262","0.0-6.0-4.46","2846729","co37666","norming","","","","","","",""
"null","../img/tt/020tt.jpg","null","mooney2","image-keyboard-response","333","1070265","0.0-6.0-5.46","2846729","co37666","norming","","","","","","",""
"2477.1949999993667","","","post_reveal_questions","survey-likert","334","1072744","0.0-6.0-6.46","2846729","co37666","norming","","","{""aha"":4}","[0]","../img/tt/020tt.jpg","",""
"null","<div style=""font-size:60px;""> </div>","null","fixation","html-keyboard-response","335","1072950","0.0-6.0-0.47","2846729","co37666","norming","","","","","","",""
"null","../img/tt/007tt.jpg","null","mooney1","image-keyboard-response","336","1075953","0.0-6.0-1.47","2846729","co37666","norming","","","","","","",""
"3180.8849999944214","","","post_mooney1_questions","survey-likert","337","1079137","0.0-6.0-2.47","2846729","co37666","norming","","","{""curiosity"":3,""confidence"":4}","[0,1]","../img/tt/007tt.jpg","",""
"4365.390000006417","","","recognition","survey-text","338","1083499","0.0-6.0-3.47","2846729","co37666","norming","","","{""guess"":""kikker""}","","../img/tt/007tt.jpg","",""
"null","../img/gs/007gs.jpg","null","reveal","image-keyboard-response","339","1085508","0.0-6.0-4.47","2846729","co37666","norming","","","","","","",""
"null","../img/tt/007tt.jpg","null","mooney2","image-keyboard-response","340","1087514","0.0-6.0-5.47","2846729","co37666","norming","","","","","","",""
"4383.18500001356","","","post_reveal_questions","survey-likert","341","1091899","0.0-6.0-6.47","2846729","co37666","norming","","","{""aha"":0}","[0]","../img/tt/007tt.jpg","",""
"null","<div style=""font-size:60px;""> </div>","null","fixation","html-keyboard-response","342","1092107","0.0-6.0-0.48","2846729","co37666","norming","","","","","","",""
"null","../img/tt/135tt.jpg","null","mooney1","image-keyboard-response","343","1095111","0.0-6.0-1.48","2846729","co37666","norming","","","","","","",""
"4713.550000000512","","","post_mooney1_questions","survey-likert","344","1099827","0.0-6.0-2.48","2846729","co37666","norming","","","{""curiosity"":1,""confidence"":6}","[0,1]","../img/tt/135tt.jpg","",""
"2013.5299999965355","","","recognition","survey-text","345","1101842","0.0-6.0-3.48","2846729","co37666","norming","","","{""guess"":""wc""}","","../img/tt/135tt.jpg","",""
"null","../img/gs/135gs.jpg","null","reveal","image-keyboard-response","346","1103851","0.0-6.0-4.48","2846729","co37666","norming","","","","","","",""
"null","../img/tt/135tt.jpg","null","mooney2","image-keyboard-response","347","1105853","0.0-6.0-5.48","2846729","co37666","norming","","","","","","",""
"1539.5949999948498","","","post_reveal_questions","survey-likert","348","1107395","0.0-6.0-6.48","2846729","co37666","norming","","","{""aha"":0}","[0]","../img/tt/135tt.jpg","",""
"null","<div style=""font-size:60px;""> </div>","null","fixation","html-keyboard-response","349","1107602","0.0-6.0-0.49","2846729","co37666","norming","","","","","","",""
"null","../img/tt/001tt.jpg","null","mooney1","image-keyboard-response","350","1110605","0.0-6.0-1.49","2846729","co37666","norming","","","","","","",""
"4211.150000002701","","","post_mooney1_questions","survey-likert","351","1114819","0.0-6.0-2.49","2846729","co37666","norming","","","{""curiosity"":5,""confidence"":1}","[0,1]","../img/tt/001tt.jpg","",""
"2677.8899999917485","","","recognition","survey-text","352","1117499","0.0-6.0-3.49","2846729","co37666","norming","","","{""guess"":""stier""}","","../img/tt/001tt.jpg","",""
"null","../img/gs/001gs.jpg","null","reveal","image-keyboard-response","353","1119508","0.0-6.0-4.49","2846729","co37666","norming","","","","","","",""
"null","../img/tt/001tt.jpg","null","mooney2","image-keyboard-response","354","1121517","0.0-6.0-5.49","2846729","co37666","norming","","","","","","",""
"2051.0349999966566","","","post_reveal_questions","survey-likert","355","1123571","0.0-6.0-6.49","2846729","co37666","norming","","","{""aha"":4}","[0]","../img/tt/001tt.jpg","",""
"null","<div style=""font-size:60px;""> </div>","null","fixation","html-keyboard-response","356","1123773","0.0-6.0-0.50","2846729","co37666","norming","","","","","","",""
"null","../img/tt/1048tt.jpg","null","mooney1","image-keyboard-response","357","1126783","0.0-6.0-1.50","2846729","co37666","norming","","","","","","",""
"6080.894999992102","","","post_mooney1_questions","survey-likert","358","1132867","0.0-6.0-2.50","2846729","co37666","norming","","","{""curiosity"":5,""confidence"":1}","[0,1]","../img/tt/1048tt.jpg","",""
"2885.85999999498","","","recognition","survey-text","359","1135755","0.0-6.0-3.50","2846729","co37666","norming","","","{""guess"":""paard""}","","../img/tt/1048tt.jpg","",""
"null","../img/gs/1048gs.jpg","null","reveal","image-keyboard-response","360","1137758","0.0-6.0-4.50","2846729","co37666","norming","","","","","","",""
"null","../img/tt/1048tt.jpg","null","mooney2","image-keyboard-response","361","1139760","0.0-6.0-5.50","2846729","co37666","norming","","","","","","",""
"2233.4100000006147","","","post_reveal_questions","survey-likert","362","1142000","0.0-6.0-6.50","2846729","co37666","norming","","","{""aha"":5}","[0]","../img/tt/1048tt.jpg","",""
"null","<div style=""font-size:60px;""> </div>","null","fixation","html-keyboard-response","363","1142204","0.0-6.0-0.51","2846729","co37666","norming","","","","","","",""
"null","../img/tt/1040tt.jpg","null","mooney1","image-keyboard-response","364","1145211","0.0-6.0-1.51","2846729","co37666","norming","","","","","","",""
"3427.0800000086892","","","post_mooney1_questions","survey-likert","365","1148641","0.0-6.0-2.51","2846729","co37666","norming","","","{""curiosity"":5,""confidence"":0}","[0,1]","../img/tt/1040tt.jpg","",""
"1174.0799999972805","","","recognition","survey-text","366","1149816","0.0-6.0-3.51","2846729","co37666","norming","","","{""guess"":""""}","","../img/tt/1040tt.jpg","",""
"null","../img/gs/1040gs.jpg","null","reveal","image-keyboard-response","367","1151827","0.0-6.0-4.51","2846729","co37666","norming","","","","","","",""
"null","../img/tt/1040tt.jpg","null","mooney2","image-keyboard-response","368","1153838","0.0-6.0-5.51","2846729","co37666","norming","","","","","","",""
"3080.199999996694","","","post_reveal_questions","survey-likert","369","1156921","0.0-6.0-6.51","2846729","co37666","norming","","","{""aha"":5}","[0]","../img/tt/1040tt.jpg","",""
"null","<div style=""font-size:60px;""> </div>","null","fixation","html-keyboard-response","370","1157127","0.0-6.0-0.52","2846729","co37666","norming","","","","","","",""
"null","../img/tt/1087tt.jpg","null","mooney1","image-keyboard-response","371","1160134","0.0-6.0-1.52","2846729","co37666","norming","","","","","","",""
"6438.5849999962375","","","post_mooney1_questions","survey-likert","372","1166576","0.0-6.0-2.52","2846729","co37666","norming","","","{""curiosity"":5,""confidence"":0}","[0,1]","../img/tt/1087tt.jpg","",""
"1198.2799999967683","","","recognition","survey-text","373","1167776","0.0-6.0-3.52","2846729","co37666","norming","","","{""guess"":""""}","","../img/tt/1087tt.jpg","",""
"null","../img/gs/1087gs.jpg","null","reveal","image-keyboard-response","374","1169785","0.0-6.0-4.52","2846729","co37666","norming","","","","","","",""
"null","../img/tt/1087tt.jpg","null","mooney2","image-keyboard-response","375","1171789","0.0-6.0-5.52","2846729","co37666","norming","","","","","","",""
"1537.30500000529","","","post_reveal_questions","survey-likert","376","1173328","0.0-6.0-6.52","2846729","co37666","norming","","","{""aha"":4}","[0]","../img/tt/1087tt.jpg","",""
"null","<div style=""font-size:60px;""> </div>","null","fixation","html-keyboard-response","377","1173533","0.0-6.0-0.53","2846729","co37666","norming","","","","","","",""
"null","../img/tt/1366tt.jpg","null","mooney1","image-keyboard-response","378","1176545","0.0-6.0-1.53","2846729","co37666","norming","","","","","","",""
"3148.1649999916553","","","post_mooney1_questions","survey-likert","379","1179697","0.0-6.0-2.53","2846729","co37666","norming","","","{""curiosity"":6,""confidence"":1}","[0,1]","../img/tt/1366tt.jpg","",""
"3166.154999998864","","","recognition","survey-text","380","1182864","0.0-6.0-3.53","2846729","co37666","norming","","","{""guess"":""reptiel""}","","../img/tt/1366tt.jpg","",""
"null","../img/gs/1366gs.jpg","null","reveal","image-keyboard-response","381","1184872","0.0-6.0-4.53","2846729","co37666","norming","","","","","","",""
"null","../img/tt/1366tt.jpg","null","mooney2","image-keyboard-response","382","1186880","0.0-6.0-5.53","2846729","co37666","norming","","","","","","",""
"2334.9000000015367","","","post_reveal_questions","survey-likert","383","1189216","0.0-6.0-6.53","2846729","co37666","norming","","","{""aha"":4}","[0]","../img/tt/1366tt.jpg","",""
"null","<div style=""font-size:60px;""> </div>","null","fixation","html-keyboard-response","384","1189422","0.0-6.0-0.54","2846729","co37666","norming","","","","","","",""
"null","../img/tt/1309tt.jpg","null","mooney1","image-keyboard-response","385","1192427","0.0-6.0-1.54","2846729","co37666","norming","","","","","","",""
"3193.6200000056997","","","post_mooney1_questions","survey-likert","386","1195624","0.0-6.0-2.54","2846729","co37666","norming","","","{""curiosity"":6,""confidence"":0}","[0,1]","../img/tt/1309tt.jpg","",""
"782.2549999980256","","","recognition","survey-text","387","1196408","0.0-6.0-3.54","2846729","co37666","norming","","","{""guess"":""""}","","../img/tt/1309tt.jpg","",""
"null","../img/gs/1309gs.jpg","null","reveal","image-keyboard-response","388","1198413","0.0-6.0-4.54","2846729","co37666","norming","","","","","","",""
"null","../img/tt/1309tt.jpg","null","mooney2","image-keyboard-response","389","1200417","0.0-6.0-5.54","2846729","co37666","norming","","","","","","",""
"1764.6999999997206","","","post_reveal_questions","survey-likert","390","1202185","0.0-6.0-6.54","2846729","co37666","norming","","","{""aha"":5}","[0]","../img/tt/1309tt.jpg","",""
"null","<div style=""font-size:60px;""> </div>","null","fixation","html-keyboard-response","391","1202389","0.0-6.0-0.55","2846729","co37666","norming","","","","","","",""
"null","../img/tt/1080tt.jpg","null","mooney1","image-keyboard-response","392","1205393","0.0-6.0-1.55","2846729","co37666","norming","","","","","","",""
"8290.860000008252","","","post_mooney1_questions","survey-likert","393","1213689","0.0-6.0-2.55","2846729","co37666","norming","","","{""curiosity"":5,""confidence"":0}","[0,1]","../img/tt/1080tt.jpg","",""
"974.3000000016764","","","recognition","survey-text","394","1214665","0.0-6.0-3.55","2846729","co37666","norming","","","{""guess"":""""}","","../img/tt/1080tt.jpg","",""
"null","../img/gs/1080gs.jpg","null","reveal","image-keyboard-response","395","1216667","0.0-6.0-4.55","2846729","co37666","norming","","","","","","",""
"null","../img/tt/1080tt.jpg","null","mooney2","image-keyboard-response","396","1218669","0.0-6.0-5.55","2846729","co37666","norming","","","","","","",""
"1793.5899999865796","","","post_reveal_questions","survey-likert","397","1220465","0.0-6.0-6.55","2846729","co37666","norming","","","{""aha"":5}","[0]","../img/tt/1080tt.jpg","",""
"null","<div style=""font-size:60px;""> </div>","null","fixation","html-keyboard-response","398","1220673","0.0-6.0-0.56","2846729","co37666","norming","","","","","","",""
"null","../img/tt/603tt.jpg","null","mooney1","image-keyboard-response","399","1223680","0.0-6.0-1.56","2846729","co37666","norming","","","","","","",""
"5639.694999990519","","","post_mooney1_questions","survey-likert","400","1229321","0.0-6.0-2.56","2846729","co37666","norming","","","{""curiosity"":6,""confidence"":1}","[0,1]","../img/tt/603tt.jpg","",""
"2629.9199999920093","","","recognition","survey-text","401","1231953","0.0-6.0-3.56","2846729","co37666","norming","","","{""guess"":""vogel""}","","../img/tt/603tt.jpg","",""
"null","../img/gs/603gs.jpg","null","reveal","image-keyboard-response","402","1233954","0.0-6.0-4.56","2846729","co37666","norming","","","","","","",""
"null","../img/tt/603tt.jpg","null","mooney2","image-keyboard-response","403","1235957","0.0-6.0-5.56","2846729","co37666","norming","","","","","","",""
"4169.280000001658","","","post_reveal_questions","survey-likert","404","1240129","0.0-6.0-6.56","2846729","co37666","norming","","","{""aha"":5}","[0]","../img/tt/603tt.jpg","",""
"null","<div style=""font-size:60px;""> </div>","null","fixation","html-keyboard-response","405","1240333","0.0-6.0-0.57","2846729","co37666","norming","","","","","","",""
"null","../img/tt/1270tt.jpg","null","mooney1","image-keyboard-response","406","1243341","0.0-6.0-1.57","2846729","co37666","norming","","","","","","",""
"5944.439999992028","","","post_mooney1_questions","survey-likert","407","1249289","0.0-6.0-2.57","2846729","co37666","norming","","","{""curiosity"":5,""confidence"":1}","[0,1]","../img/tt/1270tt.jpg","",""
"5173.874999993248","","","recognition","survey-text","408","1254465","0.0-6.0-3.57","2846729","co37666","norming","","","{""guess"":""cavia""}","","../img/tt/1270tt.jpg","",""
"null","../img/gs/1270gs.jpg","null","reveal","image-keyboard-response","409","1256467","0.0-6.0-4.57","2846729","co37666","norming","","","","","","",""
"null","../img/tt/1270tt.jpg","null","mooney2","image-keyboard-response","410","1258468","0.0-6.0-5.57","2846729","co37666","norming","","","","","","",""
"1554.0049999982584","","","post_reveal_questions","survey-likert","411","1260025","0.0-6.0-6.57","2846729","co37666","norming","","","{""aha"":5}","[0]","../img/tt/1270tt.jpg","",""
"null","<div style=""font-size:60px;""> </div>","null","fixation","html-keyboard-response","412","1260229","0.0-6.0-0.58","2846729","co37666","norming","","","","","","",""
"null","../img/tt/378tt.jpg","null","mooney1","image-keyboard-response","413","1263237","0.0-6.0-1.58","2846729","co37666","norming","","","","","","",""
"4520.445000001695","","","post_mooney1_questions","survey-likert","414","1267761","0.0-6.0-2.58","2846729","co37666","norming","","","{""curiosity"":5,""confidence"":0}","[0,1]","../img/tt/378tt.jpg","",""
"1054.1149999918416","","","recognition","survey-text","415","1268817","0.0-6.0-3.58","2846729","co37666","norming","","","{""guess"":""""}","","../img/tt/378tt.jpg","",""
"null","../img/gs/378gs.jpg","null","reveal","image-keyboard-response","416","1270820","0.0-6.0-4.58","2846729","co37666","norming","","","","","","",""
"null","../img/tt/378tt.jpg","null","mooney2","image-keyboard-response","417","1272822","0.0-6.0-5.58","2846729","co37666","norming","","","","","","",""
"2856.0049999943003","","","post_reveal_questions","survey-likert","418","1275681","0.0-6.0-6.58","2846729","co37666","norming","","","{""aha"":5}","[0]","../img/tt/378tt.jpg","",""
"null","<div style=""font-size:60px;""> </div>","null","fixation","html-keyboard-response","419","1275884","0.0-6.0-0.59","2846729","co37666","norming","","","","","","",""
"null","../img/tt/477tt.jpg","null","mooney1","image-keyboard-response","420","1278894","0.0-6.0-1.59","2846729","co37666","norming","","","","","","",""
"3105.5349999952596","","","post_mooney1_questions","survey-likert","421","1282001","0.0-6.0-2.59","2846729","co37666","norming","","","{""curiosity"":5,""confidence"":1}","[0,1]","../img/tt/477tt.jpg","",""
"2854.0749999957625","","","recognition","survey-text","422","1284857","0.0-6.0-3.59","2846729","co37666","norming","","","{""guess"":""beer""}","","../img/tt/477tt.jpg","",""
"null","../img/gs/477gs.jpg","null","reveal","image-keyboard-response","423","1286861","0.0-6.0-4.59","2846729","co37666","norming","","","","","","",""
"null","../img/tt/477tt.jpg","null","mooney2","image-keyboard-response","424","1288865","0.0-6.0-5.59","2846729","co37666","norming","","","","","","",""
"2238.445000009844","","","post_reveal_questions","survey-likert","425","1291105","0.0-6.0-6.59","2846729","co37666","norming","","","{""aha"":4}","[0]","../img/tt/477tt.jpg","",""
"null","<div style=""font-size:60px;""> </div>","null","fixation","html-keyboard-response","426","1291310","0.0-6.0-0.60","2846729","co37666","norming","","","","","","",""
"null","../img/tt/412tt.jpg","null","mooney1","image-keyboard-response","427","1294315","0.0-6.0-1.60","2846729","co37666","norming","","","","","","",""
"2731.24500000244","","","post_mooney1_questions","survey-likert","428","1297049","0.0-6.0-2.60","2846729","co37666","norming","","","{""curiosity"":5,""confidence"":1}","[0,1]","../img/tt/412tt.jpg","",""
"2941.650000008056","","","recognition","survey-text","429","1299992","0.0-6.0-3.60","2846729","co37666","norming","","","{""guess"":""potje""}","","../img/tt/412tt.jpg","",""
"null","../img/gs/412gs.jpg","null","reveal","image-keyboard-response","430","1302002","0.0-6.0-4.60","2846729","co37666","norming","","","","","","",""
"null","../img/tt/412tt.jpg","null","mooney2","image-keyboard-response","431","1304005","0.0-6.0-5.60","2846729","co37666","norming","","","","","","",""
"1673.5100000076927","","","post_reveal_questions","survey-likert","432","1305681","0.0-6.0-6.60","2846729","co37666","norming","","","{""aha"":5}","[0]","../img/tt/412tt.jpg","",""
"null","<div style=""font-size:60px;""> </div>","null","fixation","html-keyboard-response","433","1305891","0.0-6.0-0.61","2846729","co37666","norming","","","","","","",""
"null","../img/tt/1046tt.jpg","null","mooney1","image-keyboard-response","434","1308899","0.0-6.0-1.61","2846729","co37666","norming","","","","","","",""
"7074.759999988601","","","post_mooney1_questions","survey-likert","435","1315977","0.0-6.0-2.61","2846729","co37666","norming","","","{""curiosity"":5,""confidence"":0}","[0,1]","../img/tt/1046tt.jpg","",""
"2445.9749999952037","","","recognition","survey-text","436","1318425","0.0-6.0-3.61","2846729","co37666","norming","","","{""guess"":""""}","","../img/tt/1046tt.jpg","",""
"null","../img/gs/1046gs.jpg","null","reveal","image-keyboard-response","437","1320427","0.0-6.0-4.61","2846729","co37666","norming","","","","","","",""
"null","../img/tt/1046tt.jpg","null","mooney2","image-keyboard-response","438","1322429","0.0-6.0-5.61","2846729","co37666","norming","","","","","","",""
"2841.1699999996927","","","post_reveal_questions","survey-likert","439","1325266","0.0-6.0-6.61","2846729","co37666","norming","","","{""aha"":6}","[0]","../img/tt/1046tt.jpg","",""
"null","<div style=""font-size:60px;""> </div>","null","fixation","html-keyboard-response","440","1325470","0.0-6.0-0.62","2846729","co37666","norming","","","","","","",""
"null","../img/tt/1002tt.jpg","null","mooney1","image-keyboard-response","441","1328479","0.0-6.0-1.62","2846729","co37666","norming","","","","","","",""
"3295.48000000068","","","post_mooney1_questions","survey-likert","442","1331778","0.0-6.0-2.62","2846729","co37666","norming","","","{""curiosity"":4,""confidence"":5}","[0,1]","../img/tt/1002tt.jpg","",""
"2358.074999996461","","","recognition","survey-text","443","1334137","0.0-6.0-3.62","2846729","co37666","norming","","","{""guess"":""beer""}","","../img/tt/1002tt.jpg","",""
"null","../img/gs/1002gs.jpg","null","reveal","image-keyboard-response","444","1336145","0.0-6.0-4.62","2846729","co37666","norming","","","","","","",""
"null","../img/tt/1002tt.jpg","null","mooney2","image-keyboard-response","445","1338154","0.0-6.0-5.62","2846729","co37666","norming","","","","","","",""
"10388.680000003427","","","post_reveal_questions","survey-likert","446","1348546","0.0-6.0-6.62","2846729","co37666","norming","","","{""aha"":0}","[0]","../img/tt/1002tt.jpg","",""
"null","<div style=""font-size:60px;""> </div>","null","fixation","html-keyboard-response","447","1348749","0.0-6.0-0.63","2846729","co37666","norming","","","","","","",""
"null","../img/tt/040tt.jpg","null","mooney1","image-keyboard-response","448","1351760","0.0-6.0-1.63","2846729","co37666","norming","","","","","","",""
"3720.4250000067987","","","post_mooney1_questions","survey-likert","449","1355482","0.0-6.0-2.63","2846729","co37666","norming","","","{""curiosity"":5,""confidence"":0}","[0,1]","../img/tt/040tt.jpg","",""
"1534.0399999986403","","","recognition","survey-text","450","1357017","0.0-6.0-3.63","2846729","co37666","norming","","","{""guess"":""""}","","../img/tt/040tt.jpg","",""
"null","../img/gs/040gs.jpg","null","reveal","image-keyboard-response","451","1359028","0.0-6.0-4.63","2846729","co37666","norming","","","","","","",""
"null","../img/tt/040tt.jpg","null","mooney2","image-keyboard-response","452","1361036","0.0-6.0-5.63","2846729","co37666","norming","","","","","","",""
"4362.130000008503","","","post_reveal_questions","survey-likert","453","1365401","0.0-6.0-6.63","2846729","co37666","norming","","","{""aha"":5}","[0]","../img/tt/040tt.jpg","",""
"null","<div style=""font-size:60px;""> </div>","null","fixation","html-keyboard-response","454","1365610","0.0-6.0-0.64","2846729","co37666","norming","","","","","","",""
"null","../img/tt/1189tt.jpg","null","mooney1","image-keyboard-response","455","1368617","0.0-6.0-1.64","2846729","co37666","norming","","","","","","",""
"3999.3899999973364","","","post_mooney1_questions","survey-likert","456","1372618","0.0-6.0-2.64","2846729","co37666","norming","","","{""curiosity"":5,""confidence"":1}","[0,1]","../img/tt/1189tt.jpg","",""
"4173.385000002105","","","recognition","survey-text","457","1376793","0.0-6.0-3.64","2846729","co37666","norming","","","{""guess"":""zwemmen""}","","../img/tt/1189tt.jpg","",""
"null","../img/gs/1189gs.jpg","null","reveal","image-keyboard-response","458","1378794","0.0-6.0-4.64","2846729","co37666","norming","","","","","","",""
"null","../img/tt/1189tt.jpg","null","mooney2","image-keyboard-response","459","1380796","0.0-6.0-5.64","2846729","co37666","norming","","","","","","",""
"3635.0600000005215","","","post_reveal_questions","survey-likert","460","1384441","0.0-6.0-6.64","2846729","co37666","norming","","","{""aha"":4}","[0]","../img/tt/1189tt.jpg","",""
"null","<div style=""font-size:60px;""> </div>","null","fixation","html-keyboard-response","461","1384643","0.0-6.0-0.65","2846729","co37666","norming","","","","","","",""
"null","../img/tt/1171tt.jpg","null","mooney1","image-keyboard-response","462","1387649","0.0-6.0-1.65","2846729","co37666","norming","","","","","","",""
"7159.03999999864","","","post_mooney1_questions","survey-likert","463","1394809","0.0-6.0-2.65","2846729","co37666","norming","","","{""curiosity"":5,""confidence"":0}","[0,1]","../img/tt/1171tt.jpg","",""
"893.7949999962002","","","recognition","survey-text","464","1395704","0.0-6.0-3.65","2846729","co37666","norming","","","{""guess"":""""}","","../img/tt/1171tt.jpg","",""
"null","../img/gs/1171gs.jpg","null","reveal","image-keyboard-response","465","1397707","0.0-6.0-4.65","2846729","co37666","norming","","","","","","",""
"null","../img/tt/1171tt.jpg","null","mooney2","image-keyboard-response","466","1399713","0.0-6.0-5.65","2846729","co37666","norming","","","","","","",""
"2253.9600000018254","","","post_reveal_questions","survey-likert","467","1401968","0.0-6.0-6.65","2846729","co37666","norming","","","{""aha"":5}","[0]","../img/tt/1171tt.jpg","",""
"null","<div style=""font-size:60px;""> </div>","null","fixation","html-keyboard-response","468","1402177","0.0-6.0-0.66","2846729","co37666","norming","","","","","","",""
"null","../img/tt/1130tt.jpg","null","mooney1","image-keyboard-response","469","1405184","0.0-6.0-1.66","2846729","co37666","norming","","","","","","",""
"4261.960000003222","","","post_mooney1_questions","survey-likert","470","1409449","0.0-6.0-2.66","2846729","co37666","norming","","","{""curiosity"":5,""confidence"":2}","[0,1]","../img/tt/1130tt.jpg","",""
"4645.839999997523","","","recognition","survey-text","471","1414097","0.0-6.0-3.66","2846729","co37666","norming","","","{""guess"":""voetbal""}","","../img/tt/1130tt.jpg","",""
"null","../img/gs/1130gs.jpg","null","reveal","image-keyboard-response","472","1416102","0.0-6.0-4.66","2846729","co37666","norming","","","","","","",""
"null","../img/tt/1130tt.jpg","null","mooney2","image-keyboard-response","473","1418110","0.0-6.0-5.66","2846729","co37666","norming","","","","","","",""
"2207.620000001043","","","post_reveal_questions","survey-likert","474","1420321","0.0-6.0-6.66","2846729","co37666","norming","","","{""aha"":5}","[0]","../img/tt/1130tt.jpg","",""
"null","<div style=""font-size:60px;""> </div>","null","fixation","html-keyboard-response","475","1420527","0.0-6.0-0.67","2846729","co37666","norming","","","","","","",""
"null","../img/tt/1307tt.jpg","null","mooney1","image-keyboard-response","476","1423537","0.0-6.0-1.67","2846729","co37666","norming","","","","","","",""
"3812.0349999954924","","","post_mooney1_questions","survey-likert","477","1427353","0.0-6.0-2.67","2846729","co37666","norming","","","{""curiosity"":5,""confidence"":1}","[0,1]","../img/tt/1307tt.jpg","",""
"4726.069999989588","","","recognition","survey-text","478","1432081","0.0-6.0-3.67","2846729","co37666","norming","","","{""guess"":""gewichtheffen""}","","../img/tt/1307tt.jpg","",""
"null","../img/gs/1307gs.jpg","null","reveal","image-keyboard-response","479","1434087","0.0-6.0-4.67","2846729","co37666","norming","","","","","","",""
"null","../img/tt/1307tt.jpg","null","mooney2","image-keyboard-response","480","1436090","0.0-6.0-5.67","2846729","co37666","norming","","","","","","",""
"1396.2849999950267","","","post_reveal_questions","survey-likert","481","1437489","0.0-6.0-6.67","2846729","co37666","norming","","","{""aha"":6}","[0]","../img/tt/1307tt.jpg","",""
"null","<div style=""font-size:60px;""> </div>","null","fixation","html-keyboard-response","482","1437698","0.0-6.0-0.68","2846729","co37666","norming","","","","","","",""
"null","../img/tt/1260tt.jpg","null","mooney1","image-keyboard-response","483","1440708","0.0-6.0-1.68","2846729","co37666","norming","","","","","","",""
"2824.955000003567","","","post_mooney1_questions","survey-likert","484","1443537","0.0-6.0-2.68","2846729","co37666","norming","","","{""curiosity"":6,""confidence"":0}","[0,1]","../img/tt/1260tt.jpg","",""
"918.1050000041723","","","recognition","survey-text","485","1444457","0.0-6.0-3.68","2846729","co37666","norming","","","{""guess"":""""}","","../img/tt/1260tt.jpg","",""
"null","../img/gs/1260gs.jpg","null","reveal","image-keyboard-response","486","1446463","0.0-6.0-4.68","2846729","co37666","norming","","","","","","",""
"null","../img/tt/1260tt.jpg","null","mooney2","image-keyboard-response","487","1448466","0.0-6.0-5.68","2846729","co37666","norming","","","","","","",""
"1709.3449999955483","","","post_reveal_questions","survey-likert","488","1450177","0.0-6.0-6.68","2846729","co37666","norming","","","{""aha"":5}","[0]","../img/tt/1260tt.jpg","",""
"null","<div style=""font-size:60px;""> </div>","null","fixation","html-keyboard-response","489","1450384","0.0-6.0-0.69","2846729","co37666","norming","","","","","","",""
"null","../img/tt/053tt.jpg","null","mooney1","image-keyboard-response","490","1453391","0.0-6.0-1.69","2846729","co37666","norming","","","","","","",""
"4950.129999997327","","","post_mooney1_questions","survey-likert","491","1458345","0.0-6.0-2.69","2846729","co37666","norming","","","{""curiosity"":4,""confidence"":5}","[0,1]","../img/tt/053tt.jpg","",""
"3101.9300000043586","","","recognition","survey-text","492","1461449","0.0-6.0-3.69","2846729","co37666","norming","","","{""guess"":""surfen""}","","../img/tt/053tt.jpg","",""
"null","../img/gs/053gs.jpg","null","reveal","image-keyboard-response","493","1463451","0.0-6.0-4.69","2846729","co37666","norming","","","","","","",""
"null","../img/tt/053tt.jpg","null","mooney2","image-keyboard-response","494","1465453","0.0-6.0-5.69","2846729","co37666","norming","","","","","","",""
"2161.3500000094064","","","post_reveal_questions","survey-likert","495","1467617","0.0-6.0-6.69","2846729","co37666","norming","","","{""aha"":5}","[0]","../img/tt/053tt.jpg","",""
"null","<div style=""font-size:60px;""> </div>","null","fixation","html-keyboard-response","496","1467819","0.0-6.0-0.70","2846729","co37666","norming","","","","","","",""
"null","../img/tt/456tt.jpg","null","mooney1","image-keyboard-response","497","1470822","0.0-6.0-1.70","2846729","co37666","norming","","","","","","",""
"3775.8599999942817","","","post_mooney1_questions","survey-likert","498","1474601","0.0-6.0-2.70","2846729","co37666","norming","","","{""curiosity"":5,""confidence"":0}","[0,1]","../img/tt/456tt.jpg","",""
"1670.0899999993853","","","recognition","survey-text","499","1476273","0.0-6.0-3.70","2846729","co37666","norming","","","{""guess"":""""}","","../img/tt/456tt.jpg","",""
"null","../img/gs/456gs.jpg","null","reveal","image-keyboard-response","500","1478276","0.0-6.0-4.70","2846729","co37666","norming","","","","","","",""
"null","../img/tt/456tt.jpg","null","mooney2","image-keyboard-response","501","1480278","0.0-6.0-5.70","2846729","co37666","norming","","","","","","",""
"1569.00499999756","","","post_reveal_questions","survey-likert","502","1481849","0.0-6.0-6.70","2846729","co37666","norming","","","{""aha"":5}","[0]","../img/tt/456tt.jpg","",""
"null","<div style=""font-size:60px;""> </div>","null","fixation","html-keyboard-response","503","1482055","0.0-6.0-0.71","2846729","co37666","norming","","","","","","",""
"null","../img/tt/082tt.jpg","null","mooney1","image-keyboard-response","504","1485062","0.0-6.0-1.71","2846729","co37666","norming","","","","","","",""
"3824.5849999948405","","","post_mooney1_questions","survey-likert","505","1488889","0.0-6.0-2.71","2846729","co37666","norming","","","{""curiosity"":5,""confidence"":0}","[0,1]","../img/tt/082tt.jpg","",""
"781.8149999948218","","","recognition","survey-text","506","1489673","0.0-6.0-3.71","2846729","co37666","norming","","","{""guess"":""""}","","../img/tt/082tt.jpg","",""
"null","../img/gs/082gs.jpg","null","reveal","image-keyboard-response","507","1491683","0.0-6.0-4.71","2846729","co37666","norming","","","","","","",""
"null","../img/tt/082tt.jpg","null","mooney2","image-keyboard-response","508","1493685","0.0-6.0-5.71","2846729","co37666","norming","","","","","","",""
"2139.165000000503","","","post_reveal_questions","survey-likert","509","1495825","0.0-6.0-6.71","2846729","co37666","norming","","","{""aha"":5}","[0]","../img/tt/082tt.jpg","",""
"null","<div style=""font-size:60px;""> </div>","null","fixation","html-keyboard-response","510","1496028","0.0-6.0-0.72","2846729","co37666","norming","","","","","","",""
"null","../img/tt/1146tt.jpg","null","mooney1","image-keyboard-response","511","1499039","0.0-6.0-1.72","2846729","co37666","norming","","","","","","",""
"2617.205000002403","","","post_mooney1_questions","survey-likert","512","1501657","0.0-6.0-2.72","2846729","co37666","norming","","","{""curiosity"":5,""confidence"":1}","[0,1]","../img/tt/1146tt.jpg","",""
"5030.245000001974","","","recognition","survey-text","513","1506683","0.0-6.0-3.72","2846729","co37666","norming","","","{""guess"":""snowboarden""}","","../img/tt/1146tt.jpg","",""
"null","../img/gs/1146gs.jpg","null","reveal","image-keyboard-response","514","1508693","0.0-6.0-4.72","2846729","co37666","norming","","","","","","",""
"null","../img/tt/1146tt.jpg","null","mooney2","image-keyboard-response","515","1510702","0.0-6.0-5.72","2846729","co37666","norming","","","","","","",""
"1785.2699999930337","","","post_reveal_questions","survey-likert","516","1512491","0.0-6.0-6.72","2846729","co37666","norming","","","{""aha"":5}","[0]","../img/tt/1146tt.jpg","",""
"null","<div style=""font-size:60px;""> </div>","null","fixation","html-keyboard-response","517","1512696","0.0-6.0-0.73","2846729","co37666","norming","","","","","","",""
"null","../img/tt/598tt.jpg","null","mooney1","image-keyboard-response","518","1515706","0.0-6.0-1.73","2846729","co37666","norming","","","","","","",""
"3263.7799999937415","","","post_mooney1_questions","survey-likert","519","1518971","0.0-6.0-2.73","2846729","co37666","norming","","","{""curiosity"":6,""confidence"":0}","[0,1]","../img/tt/598tt.jpg","",""
"870.7950000097044","","","recognition","survey-text","520","1519843","0.0-6.0-3.73","2846729","co37666","norming","","","{""guess"":""""}","","../img/tt/598tt.jpg","",""
"null","../img/gs/598gs.jpg","null","reveal","image-keyboard-response","521","1521844","0.0-6.0-4.73","2846729","co37666","norming","","","","","","",""
"null","../img/tt/598tt.jpg","null","mooney2","image-keyboard-response","522","1523853","0.0-6.0-5.73","2846729","co37666","norming","","","","","","",""
"2844.02999999281","","","post_reveal_questions","survey-likert","523","1526699","0.0-6.0-6.73","2846729","co37666","norming","","","{""aha"":6}","[0]","../img/tt/598tt.jpg","",""
"null","<div style=""font-size:60px;""> </div>","null","fixation","html-keyboard-response","524","1526902","0.0-6.0-0.74","2846729","co37666","norming","","","","","","",""
"null","../img/tt/1217tt.jpg","null","mooney1","image-keyboard-response","525","1529910","0.0-6.0-1.74","2846729","co37666","norming","","","","","","",""
"4809.430000008317","","","post_mooney1_questions","survey-likert","526","1534723","0.0-6.0-2.74","2846729","co37666","norming","","","{""curiosity"":5,""confidence"":0}","[0,1]","../img/tt/1217tt.jpg","",""
"765.8899999952409","","","recognition","survey-text","527","1535491","0.0-6.0-3.74","2846729","co37666","norming","","","{""guess"":""""}","","../img/tt/1217tt.jpg","",""
"null","../img/gs/1217gs.jpg","null","reveal","image-keyboard-response","528","1537495","0.0-6.0-4.74","2846729","co37666","norming","","","","","","",""
"null","../img/tt/1217tt.jpg","null","mooney2","image-keyboard-response","529","1539503","0.0-6.0-5.74","2846729","co37666","norming","","","","","","",""
"2281.1650000077207","","","post_reveal_questions","survey-likert","530","1541787","0.0-6.0-6.74","2846729","co37666","norming","","","{""aha"":5}","[0]","../img/tt/1217tt.jpg","",""
"null","<div style=""font-size:60px;""> </div>","null","fixation","html-keyboard-response","531","1541991","0.0-6.0-0.75","2846729","co37666","norming","","","","","","",""
"null","../img/tt/111tt.jpg","null","mooney1","image-keyboard-response","532","1544995","0.0-6.0-1.75","2846729","co37666","norming","","","","","","",""
"3052.9799999932293","","","post_mooney1_questions","survey-likert","533","1548051","0.0-6.0-2.75","2846729","co37666","norming","","","{""curiosity"":5,""confidence"":1}","[0,1]","../img/tt/111tt.jpg","",""
"2414.08000000217","","","recognition","survey-text","534","1550467","0.0-6.0-3.75","2846729","co37666","norming","","","{""guess"":""rits""}","","../img/tt/111tt.jpg","",""
"null","../img/gs/111gs.jpg","null","reveal","image-keyboard-response","535","1552477","0.0-6.0-4.75","2846729","co37666","norming","","","","","","",""
"null","../img/tt/111tt.jpg","null","mooney2","image-keyboard-response","536","1554479","0.0-6.0-5.75","2846729","co37666","norming","","","","","","",""
"1881.8700000117533","","","post_reveal_questions","survey-likert","537","1556363","0.0-6.0-6.75","2846729","co37666","norming","","","{""aha"":6}","[0]","../img/tt/111tt.jpg","",""
"null","<div style=""font-size:60px;""> </div>","null","fixation","html-keyboard-response","538","1556566","0.0-6.0-0.76","2846729","co37666","norming","","","","","","",""
"null","../img/tt/091tt.jpg","null","mooney1","image-keyboard-response","539","1559577","0.0-6.0-1.76","2846729","co37666","norming","","","","","","",""
"2287.0299999921117","","","post_mooney1_questions","survey-likert","540","1561867","0.0-6.0-2.76","2846729","co37666","norming","","","{""curiosity"":5,""confidence"":1}","[0,1]","../img/tt/091tt.jpg","",""
"3373.9000000059605","","","recognition","survey-text","541","1565245","0.0-6.0-3.76","2846729","co37666","norming","","","{""guess"":""salamander""}","","../img/tt/091tt.jpg","",""
"null","../img/gs/091gs.jpg","null","reveal","image-keyboard-response","542","1567249","0.0-6.0-4.76","2846729","co37666","norming","","","","","","",""
"null","../img/tt/091tt.jpg","null","mooney2","image-keyboard-response","543","1569251","0.0-6.0-5.76","2846729","co37666","norming","","","","","","",""
"2766.6900000039022","","","post_reveal_questions","survey-likert","544","1572021","0.0-6.0-6.76","2846729","co37666","norming","","","{""aha"":3}","[0]","../img/tt/091tt.jpg","",""
"null","<div style=""font-size:60px;""> </div>","null","fixation","html-keyboard-response","545","1572223","0.0-6.0-0.77","2846729","co37666","norming","","","","","","",""
"null","../img/tt/080tt.jpg","null","mooney1","image-keyboard-response","546","1575233","0.0-6.0-1.77","2846729","co37666","norming","","","","","","",""
"6736.875000002328","","","post_mooney1_questions","survey-likert","547","1581973","0.0-6.0-2.77","2846729","co37666","norming","","","{""curiosity"":5,""confidence"":0}","[0,1]","../img/tt/080tt.jpg","",""
"813.7200000053272","","","recognition","survey-text","548","1582788","0.0-6.0-3.77","2846729","co37666","norming","","","{""guess"":""""}","","../img/tt/080tt.jpg","",""
"null","../img/gs/080gs.jpg","null","reveal","image-keyboard-response","549","1584794","0.0-6.0-4.77","2846729","co37666","norming","","","","","","",""
"null","../img/tt/080tt.jpg","null","mooney2","image-keyboard-response","550","1586802","0.0-6.0-5.77","2846729","co37666","norming","","","","","","",""
"4512.009999991395","","","post_reveal_questions","survey-likert","551","1591317","0.0-6.0-6.77","2846729","co37666","norming","","","{""aha"":5}","[0]","../img/tt/080tt.jpg","",""
"null","<div style=""font-size:60px;""> </div>","null","fixation","html-keyboard-response","552","1591519","0.0-6.0-0.78","2846729","co37666","norming","","","","","","",""
"null","../img/tt/507tt.jpg","null","mooney1","image-keyboard-response","553","1594528","0.0-6.0-1.78","2846729","co37666","norming","","","","","","",""
