"rt","stimulus","key_press","test_part","trial_type","trial_index","time_elapsed","internal_node_id","totalTime","subject","experiment_name","button_pressed","success","responses","question_order","currentStim","old","correct"
"4835.685000000012","Welcome to the experiment. This is an online experiment so please don't close the tab/window until we say goodbye.  Press any key to begin.","32","instructions","html-keyboard-response","0","4860","0.0-0.0","2486189","co37855","norming","","","","","","",""
"12697.19500000008","<div style='word-wrap: break-word; width: 900px'><h3>Please consider this information carefully before deciding whether to participate in this research</h3><ul style='text-align: left; font-size: .8em;'><li><b>Purpose of the research</b>: To examine how people process images.</li><li><b>What you will do in this research</b>:  Stimuli (images) will be presented on the computer and you will be asked different questions about them.</li><li><b>Time required</b>: Participation will take between 45 and 60 minutes to complete.</li><li><b>Risks</b>:  There are no anticipated risks associated with participating in this study. The effects of participating should be comparable to those you would experience from viewing a computer monitor for 30 minutes and using a mouse or keyboard.</li><li><b>Benefits</b>:  This study provides no benefits to you individually except for the credit. The study provides important information about the nature of perception and learning.</li><li><b>Confidentiality</b>:  Your participation in this study will remain confidential. No personally identifiable information will be associated with your data. Your de-identified data may be shared with other researchers and used in future projects.</li><li><b>Participation and withdrawal</b>:  Your participation in this study is completely voluntary and you may refuse to participate or you may choose to withdraw at any time without penalty.</li><li><b>How to contact the researchers</b>: If you have questions or concerns about your participation or payment, or want to request a summary of research findings, please contact Sander Van de Cruys (KU Leuven), at sander.vandecruys@kuleuven.be.</li></ul><p>The nature and purpose of this research have been sufficiently explained and I agree to participate in this study.  I understand that I am free to withdraw at any time without incurring any penalty.</p><p>Please consent by clicking the button below to continue. Otherwise, please exit the study at this time.</p></div>","","instructions","html-button-response","1","17560","0.0-1.0","2486189","co37855","norming","0","","","","","",""
"","","","instructions","fullscreen","2","21425","0.0-2.0","2486189","co37855","norming","","true","","","","",""
"48261.534999999974","","","sona","survey-html-form","3","69682","0.0-3.0","2486189","co37855","norming","","","[{""name"":""sonaid"",""value"":""37855""},{""name"":""debrief"",""value"":""no""},{""name"":""datajoin"",""value"":""yes""}]","","","",""
"105900.47000000003","<div style='word-wrap: break-word; width: 900px'><h3>Instructions</h3><p>This experiment will have 3 parts. In the first part you will see a series of distorted images like the one below on the left. As you can see in the righthand image, the distorted images are derived from actual photographs. In what follows, you will <strong>briefly</strong> be presented with <strong>only</strong> the distorted image.</p> <div style='float: left; margin-right: 20px;'><img src='../img/018tt.jpg' height='250' width='250'></img></div><div style='float: right; margin-left: 20px;'><img src='../img/018gs.jpg' height='250' width='250'></img></div><p>Subsequently you will be asked a few questions about the image: One question on how <strong>curious</strong> you are about the solution and one on how <strong>confident</strong> you are that you know the solution.</p>Next, we ask you to make a guess on what is in the image. Note that it is OK to name just the <strong>basic level category</strong>. For example when you see a parrot in the image, 'parrot' will obviously be a correct answer but also correct is 'bird'. However, 'animal' will <strong>not</strong> be counted as a correct response. For the example above, 'rose' would be correct or 'flower', but not 'plant'. When soccer players are depicted, 'soccer', 'football', 'soccer players' will be correct, but not 'humans', 'outdoors', or 'sports'. You do not need to describe the image in full, just name the main object in it <strong>in one or two words</strong>. All images depict objects from one of the following broad level categories: animals, inanimate objects, plants, sports, vehicles, and food. Recognizing means knowing <strong>more</strong> than these broad labels for a given image. But we always encourage you to <strong>make a guess</strong> if you can. Note that you are allowed to use <strong>Dutch and English</strong> in your answers, whatever comes easiest for you.</p><p>Press any key to continue.</p></div>","32","instructions","html-keyboard-response","4","175594","0.0-4.0","2486189","co37855","norming","","","","","","",""
"111533.905","<div style='word-wrap: break-word; width: 900px'><h3>Instructions</h3> <p>Next, the solution image will be revealed to you and you'll be asked to indicate how strong your <strong>aha-experience</strong> was after seeing the solution. This describes the positive feeling of the 'click' you sometimes experience, when the pieces of the 'puzzle' fall together and you suddenly have 'insight' in the image.</p><img src='aha.jpg' height='188' width='250'></img><p>Note that there are no right or wrong answers. We are interested in what <strong>you</strong> see in the image and how <strong>you</strong> feel about it.</p><p>Press any key to start the experiment.</p></div>","32","instructions","html-keyboard-response","5","287125","0.0-5.0","2486189","co37855","norming","","","","","","",""
"null","<div style=""font-size:60px;""> </div>","null","fixation","html-keyboard-response","6","287331","0.0-6.0-0.0","2486189","co37855","norming","","","","","","",""
"null","../img/tt/1255tt.jpg","null","mooney1","image-keyboard-response","7","290336","0.0-6.0-1.0","2486189","co37855","norming","","","","","","",""
"5823.859999999986","","","post_mooney1_questions","survey-likert","8","296163","0.0-6.0-2.0","2486189","co37855","norming","","","{""curiosity"":5,""confidence"":0}","[0,1]","../img/tt/1255tt.jpg","",""
"6285.5849999999045","","","recognition","survey-text","9","302451","0.0-6.0-3.0","2486189","co37855","norming","","","{""guess"":""city""}","","../img/tt/1255tt.jpg","",""
"null","../img/gs/1255gs.jpg","null","reveal","image-keyboard-response","10","304462","0.0-6.0-4.0","2486189","co37855","norming","","","","","","",""
"null","../img/tt/1255tt.jpg","null","mooney2","image-keyboard-response","11","306470","0.0-6.0-5.0","2486189","co37855","norming","","","","","","",""
"3834.45000000007","","","post_reveal_questions","survey-likert","12","310307","0.0-6.0-6.0","2486189","co37855","norming","","","{""aha"":6}","[0]","../img/tt/1255tt.jpg","",""
"null","<div style=""font-size:60px;""> </div>","null","fixation","html-keyboard-response","13","310513","0.0-6.0-0.1","2486189","co37855","norming","","","","","","",""
"null","../img/tt/046tt.jpg","null","mooney1","image-keyboard-response","14","313517","0.0-6.0-1.1","2486189","co37855","norming","","","","","","",""
"6036.380000000063","","","post_mooney1_questions","survey-likert","15","319555","0.0-6.0-2.1","2486189","co37855","norming","","","{""curiosity"":5,""confidence"":2}","[0,1]","../img/tt/046tt.jpg","",""
"6022.079999999958","","","recognition","survey-text","16","325579","0.0-6.0-3.1","2486189","co37855","norming","","","{""guess"":""australia""}","","../img/tt/046tt.jpg","",""
"null","../img/gs/046gs.jpg","null","reveal","image-keyboard-response","17","327585","0.0-6.0-4.1","2486189","co37855","norming","","","","","","",""
"null","../img/tt/046tt.jpg","null","mooney2","image-keyboard-response","18","329589","0.0-6.0-5.1","2486189","co37855","norming","","","","","","",""
"2652.4849999998696","","","post_reveal_questions","survey-likert","19","332243","0.0-6.0-6.1","2486189","co37855","norming","","","{""aha"":6}","[0]","../img/tt/046tt.jpg","",""
"null","<div style=""font-size:60px;""> </div>","null","fixation","html-keyboard-response","20","332446","0.0-6.0-0.2","2486189","co37855","norming","","","","","","",""
"null","../img/tt/1078tt.jpg","null","mooney1","image-keyboard-response","21","335454","0.0-6.0-1.2","2486189","co37855","norming","","","","","","",""
"6171.515000000014","","","post_mooney1_questions","survey-likert","22","341627","0.0-6.0-2.2","2486189","co37855","norming","","","{""curiosity"":5,""confidence"":1}","[0,1]","../img/tt/1078tt.jpg","",""
"3030.0400000000955","","","recognition","survey-text","23","344659","0.0-6.0-3.2","2486189","co37855","norming","","","{""guess"":""bar""}","","../img/tt/1078tt.jpg","",""
"null","../img/gs/1078gs.jpg","null","reveal","image-keyboard-response","24","346668","0.0-6.0-4.2","2486189","co37855","norming","","","","","","",""
"null","../img/tt/1078tt.jpg","null","mooney2","image-keyboard-response","25","348679","0.0-6.0-5.2","2486189","co37855","norming","","","","","","",""
"2876.649999999907","","","post_reveal_questions","survey-likert","26","351556","0.0-6.0-6.2","2486189","co37855","norming","","","{""aha"":6}","[0]","../img/tt/1078tt.jpg","",""
"null","<div style=""font-size:60px;""> </div>","null","fixation","html-keyboard-response","27","351759","0.0-6.0-0.3","2486189","co37855","norming","","","","","","",""
"null","../img/tt/1186tt.jpg","null","mooney1","image-keyboard-response","28","354766","0.0-6.0-1.3","2486189","co37855","norming","","","","","","",""
"4893.544999999867","","","post_mooney1_questions","survey-likert","29","359661","0.0-6.0-2.3","2486189","co37855","norming","","","{""curiosity"":6,""confidence"":0}","[0,1]","../img/tt/1186tt.jpg","",""
"5118.089999999909","","","recognition","survey-text","30","364780","0.0-6.0-3.3","2486189","co37855","norming","","","{""guess"":""no idea""}","","../img/tt/1186tt.jpg","",""
"null","../img/gs/1186gs.jpg","null","reveal","image-keyboard-response","31","366782","0.0-6.0-4.3","2486189","co37855","norming","","","","","","",""
"null","../img/tt/1186tt.jpg","null","mooney2","image-keyboard-response","32","368791","0.0-6.0-5.3","2486189","co37855","norming","","","","","","",""
"3876.6850000001723","","","post_reveal_questions","survey-likert","33","372668","0.0-6.0-6.3","2486189","co37855","norming","","","{""aha"":6}","[0]","../img/tt/1186tt.jpg","",""
"null","<div style=""font-size:60px;""> </div>","null","fixation","html-keyboard-response","34","372871","0.0-6.0-0.4","2486189","co37855","norming","","","","","","",""
"null","../img/tt/296tt.jpg","null","mooney1","image-keyboard-response","35","375881","0.0-6.0-1.4","2486189","co37855","norming","","","","","","",""
"5994.395000000135","","","post_mooney1_questions","survey-likert","36","381876","0.0-6.0-2.4","2486189","co37855","norming","","","{""curiosity"":4,""confidence"":1}","[0,1]","../img/tt/296tt.jpg","",""
"2358.125","","","recognition","survey-text","37","384236","0.0-6.0-3.4","2486189","co37855","norming","","","{""guess"":""piano""}","","../img/tt/296tt.jpg","",""
"null","../img/gs/296gs.jpg","null","reveal","image-keyboard-response","38","386239","0.0-6.0-4.4","2486189","co37855","norming","","","","","","",""
"null","../img/tt/296tt.jpg","null","mooney2","image-keyboard-response","39","388243","0.0-6.0-5.4","2486189","co37855","norming","","","","","","",""
"2311.8300000001327","","","post_reveal_questions","survey-likert","40","390556","0.0-6.0-6.4","2486189","co37855","norming","","","{""aha"":5}","[0]","../img/tt/296tt.jpg","",""
"null","<div style=""font-size:60px;""> </div>","null","fixation","html-keyboard-response","41","390767","0.0-6.0-0.5","2486189","co37855","norming","","","","","","",""
"null","../img/tt/008tt.jpg","null","mooney1","image-keyboard-response","42","393773","0.0-6.0-1.5","2486189","co37855","norming","","","","","","",""
"5181.589999999909","","","post_mooney1_questions","survey-likert","43","398957","0.0-6.0-2.5","2486189","co37855","norming","","","{""curiosity"":6,""confidence"":0}","[0,1]","../img/tt/008tt.jpg","",""
"693.4349999998813","","","recognition","survey-text","44","399652","0.0-6.0-3.5","2486189","co37855","norming","","","{""guess"":""""}","","../img/tt/008tt.jpg","",""
"null","../img/gs/008gs.jpg","null","reveal","image-keyboard-response","45","401654","0.0-6.0-4.5","2486189","co37855","norming","","","","","","",""
"null","../img/tt/008tt.jpg","null","mooney2","image-keyboard-response","46","403656","0.0-6.0-5.5","2486189","co37855","norming","","","","","","",""
"3699.57500000007","","","post_reveal_questions","survey-likert","47","407356","0.0-6.0-6.5","2486189","co37855","norming","","","{""aha"":5}","[0]","../img/tt/008tt.jpg","",""
"null","<div style=""font-size:60px;""> </div>","null","fixation","html-keyboard-response","48","407563","0.0-6.0-0.6","2486189","co37855","norming","","","","","","",""
"null","../img/tt/1146tt.jpg","null","mooney1","image-keyboard-response","49","410573","0.0-6.0-1.6","2486189","co37855","norming","","","","","","",""
"4894.210000000137","","","post_mooney1_questions","survey-likert","50","415469","0.0-6.0-2.6","2486189","co37855","norming","","","{""curiosity"":4,""confidence"":3}","[0,1]","../img/tt/1146tt.jpg","",""
"5197.885000000009","","","recognition","survey-text","51","420669","0.0-6.0-3.6","2486189","co37855","norming","","","{""guess"":""boogschutter""}","","../img/tt/1146tt.jpg","",""
"null","../img/gs/1146gs.jpg","null","reveal","image-keyboard-response","52","422676","0.0-6.0-4.6","2486189","co37855","norming","","","","","","",""
"null","../img/tt/1146tt.jpg","null","mooney2","image-keyboard-response","53","424687","0.0-6.0-5.6","2486189","co37855","norming","","","","","","",""
"3453.490000000107","","","post_reveal_questions","survey-likert","54","428141","0.0-6.0-6.6","2486189","co37855","norming","","","{""aha"":2}","[0]","../img/tt/1146tt.jpg","",""
"null","<div style=""font-size:60px;""> </div>","null","fixation","html-keyboard-response","55","428350","0.0-6.0-0.7","2486189","co37855","norming","","","","","","",""
"null","../img/tt/1072tt.jpg","null","mooney1","image-keyboard-response","56","431356","0.0-6.0-1.7","2486189","co37855","norming","","","","","","",""
"5079.939999999886","","","post_mooney1_questions","survey-likert","57","436437","0.0-6.0-2.7","2486189","co37855","norming","","","{""curiosity"":5,""confidence"":0}","[0,1]","../img/tt/1072tt.jpg","",""
"3342.155000000028","","","recognition","survey-text","58","439781","0.0-6.0-3.7","2486189","co37855","norming","","","{""guess"":""""}","","../img/tt/1072tt.jpg","",""
"null","../img/gs/1072gs.jpg","null","reveal","image-keyboard-response","59","441783","0.0-6.0-4.7","2486189","co37855","norming","","","","","","",""
"null","../img/tt/1072tt.jpg","null","mooney2","image-keyboard-response","60","443786","0.0-6.0-5.7","2486189","co37855","norming","","","","","","",""
"2561.570000000065","","","post_reveal_questions","survey-likert","61","446349","0.0-6.0-6.7","2486189","co37855","norming","","","{""aha"":6}","[0]","../img/tt/1072tt.jpg","",""
"null","<div style=""font-size:60px;""> </div>","null","fixation","html-keyboard-response","62","446550","0.0-6.0-0.8","2486189","co37855","norming","","","","","","",""
"null","../img/tt/1143tt.jpg","null","mooney1","image-keyboard-response","63","449561","0.0-6.0-1.8","2486189","co37855","norming","","","","","","",""
"6081.985000000044","","","post_mooney1_questions","survey-likert","64","455645","0.0-6.0-2.8","2486189","co37855","norming","","","{""curiosity"":5,""confidence"":1}","[0,1]","../img/tt/1143tt.jpg","",""
"718.0599999999395","","","recognition","survey-text","65","456365","0.0-6.0-3.8","2486189","co37855","norming","","","{""guess"":""""}","","../img/tt/1143tt.jpg","",""
"null","../img/gs/1143gs.jpg","null","reveal","image-keyboard-response","66","458375","0.0-6.0-4.8","2486189","co37855","norming","","","","","","",""
"null","../img/tt/1143tt.jpg","null","mooney2","image-keyboard-response","67","460378","0.0-6.0-5.8","2486189","co37855","norming","","","","","","",""
"3576.3799999999464","","","post_reveal_questions","survey-likert","68","463957","0.0-6.0-6.8","2486189","co37855","norming","","","{""aha"":6}","[0]","../img/tt/1143tt.jpg","",""
"null","<div style=""font-size:60px;""> </div>","null","fixation","html-keyboard-response","69","464160","0.0-6.0-0.9","2486189","co37855","norming","","","","","","",""
"null","../img/tt/1156tt.jpg","null","mooney1","image-keyboard-response","70","467170","0.0-6.0-1.9","2486189","co37855","norming","","","","","","",""
"3823.9949999999953","","","post_mooney1_questions","survey-likert","71","470991","0.0-6.0-2.9","2486189","co37855","norming","","","{""curiosity"":5,""confidence"":3}","[0,1]","../img/tt/1156tt.jpg","",""
"2542.0499999998137","","","recognition","survey-text","72","473535","0.0-6.0-3.9","2486189","co37855","norming","","","{""guess"":""zee""}","","../img/tt/1156tt.jpg","",""
"null","../img/gs/1156gs.jpg","null","reveal","image-keyboard-response","73","475542","0.0-6.0-4.9","2486189","co37855","norming","","","","","","",""
"null","../img/tt/1156tt.jpg","null","mooney2","image-keyboard-response","74","477546","0.0-6.0-5.9","2486189","co37855","norming","","","","","","",""
"4124.444999999891","","","post_reveal_questions","survey-likert","75","481671","0.0-6.0-6.9","2486189","co37855","norming","","","{""aha"":3}","[0]","../img/tt/1156tt.jpg","",""
"null","<div style=""font-size:60px;""> </div>","null","fixation","html-keyboard-response","76","481879","0.0-6.0-0.10","2486189","co37855","norming","","","","","","",""
"null","../img/tt/1269tt.jpg","null","mooney1","image-keyboard-response","77","484890","0.0-6.0-1.10","2486189","co37855","norming","","","","","","",""
"5402.964999999967","","","post_mooney1_questions","survey-likert","78","490295","0.0-6.0-2.10","2486189","co37855","norming","","","{""curiosity"":5,""confidence"":2}","[0,1]","../img/tt/1269tt.jpg","",""
"2510.4249999999884","","","recognition","survey-text","79","492807","0.0-6.0-3.10","2486189","co37855","norming","","","{""guess"":""hond""}","","../img/tt/1269tt.jpg","",""
"null","../img/gs/1269gs.jpg","null","reveal","image-keyboard-response","80","494816","0.0-6.0-4.10","2486189","co37855","norming","","","","","","",""
"null","../img/tt/1269tt.jpg","null","mooney2","image-keyboard-response","81","496827","0.0-6.0-5.10","2486189","co37855","norming","","","","","","",""
"2641.8199999998324","","","post_reveal_questions","survey-likert","82","499471","0.0-6.0-6.10","2486189","co37855","norming","","","{""aha"":6}","[0]","../img/tt/1269tt.jpg","",""
"null","<div style=""font-size:60px;""> </div>","null","fixation","html-keyboard-response","83","499676","0.0-6.0-0.11","2486189","co37855","norming","","","","","","",""
"null","../img/tt/315tt.jpg","null","mooney1","image-keyboard-response","84","502679","0.0-6.0-1.11","2486189","co37855","norming","","","","","","",""
"4966.250000000175","","","post_mooney1_questions","survey-likert","85","507647","0.0-6.0-2.11","2486189","co37855","norming","","","{""curiosity"":5,""confidence"":3}","[0,1]","../img/tt/315tt.jpg","",""
"2534.1650000000373","","","recognition","survey-text","86","510183","0.0-6.0-3.11","2486189","co37855","norming","","","{""guess"":""vogel""}","","../img/tt/315tt.jpg","",""
"null","../img/gs/315gs.jpg","null","reveal","image-keyboard-response","87","512190","0.0-6.0-4.11","2486189","co37855","norming","","","","","","",""
"null","../img/tt/315tt.jpg","null","mooney2","image-keyboard-response","88","514191","0.0-6.0-5.11","2486189","co37855","norming","","","","","","",""
"2637.789999999979","","","post_reveal_questions","survey-likert","89","516831","0.0-6.0-6.11","2486189","co37855","norming","","","{""aha"":6}","[0]","../img/tt/315tt.jpg","",""
"null","<div style=""font-size:60px;""> </div>","null","fixation","html-keyboard-response","90","517039","0.0-6.0-0.12","2486189","co37855","norming","","","","","","",""
"null","../img/tt/279tt.jpg","null","mooney1","image-keyboard-response","91","520045","0.0-6.0-1.12","2486189","co37855","norming","","","","","","",""
"3832.160000000149","","","post_mooney1_questions","survey-likert","92","523879","0.0-6.0-2.12","2486189","co37855","norming","","","{""curiosity"":5,""confidence"":1}","[0,1]","../img/tt/279tt.jpg","",""
"2238.2350000001024","","","recognition","survey-text","93","526119","0.0-6.0-3.12","2486189","co37855","norming","","","{""guess"":""vogel""}","","../img/tt/279tt.jpg","",""
"null","../img/gs/279gs.jpg","null","reveal","image-keyboard-response","94","528122","0.0-6.0-4.12","2486189","co37855","norming","","","","","","",""
"null","../img/tt/279tt.jpg","null","mooney2","image-keyboard-response","95","530131","0.0-6.0-5.12","2486189","co37855","norming","","","","","","",""
"3089.4100000000326","","","post_reveal_questions","survey-likert","96","533222","0.0-6.0-6.12","2486189","co37855","norming","","","{""aha"":4}","[0]","../img/tt/279tt.jpg","",""
"null","<div style=""font-size:60px;""> </div>","null","fixation","html-keyboard-response","97","533432","0.0-6.0-0.13","2486189","co37855","norming","","","","","","",""
"null","../img/tt/1189tt.jpg","null","mooney1","image-keyboard-response","98","536434","0.0-6.0-1.13","2486189","co37855","norming","","","","","","",""
"5521.864999999874","","","post_mooney1_questions","survey-likert","99","541958","0.0-6.0-2.13","2486189","co37855","norming","","","{""curiosity"":6,""confidence"":0}","[0,1]","../img/tt/1189tt.jpg","",""
"918.2499999998836","","","recognition","survey-text","100","542878","0.0-6.0-3.13","2486189","co37855","norming","","","{""guess"":""""}","","../img/tt/1189tt.jpg","",""
"null","../img/gs/1189gs.jpg","null","reveal","image-keyboard-response","101","544888","0.0-6.0-4.13","2486189","co37855","norming","","","","","","",""
"null","../img/tt/1189tt.jpg","null","mooney2","image-keyboard-response","102","546896","0.0-6.0-5.13","2486189","co37855","norming","","","","","","",""
"3493.604999999865","","","post_reveal_questions","survey-likert","103","550390","0.0-6.0-6.13","2486189","co37855","norming","","","{""aha"":6}","[0]","../img/tt/1189tt.jpg","",""
"null","<div style=""font-size:60px;""> </div>","null","fixation","html-keyboard-response","104","550592","0.0-6.0-0.14","2486189","co37855","norming","","","","","","",""
"null","../img/tt/079tt.jpg","null","mooney1","image-keyboard-response","105","553595","0.0-6.0-1.14","2486189","co37855","norming","","","","","","",""
"5769.164999999921","","","post_mooney1_questions","survey-likert","106","559366","0.0-6.0-2.14","2486189","co37855","norming","","","{""curiosity"":6,""confidence"":0}","[0,1]","../img/tt/079tt.jpg","",""
"1405.9299999998184","","","recognition","survey-text","107","560774","0.0-6.0-3.14","2486189","co37855","norming","","","{""guess"":""""}","","../img/tt/079tt.jpg","",""
"null","../img/gs/079gs.jpg","null","reveal","image-keyboard-response","108","562782","0.0-6.0-4.14","2486189","co37855","norming","","","","","","",""
"null","../img/tt/079tt.jpg","null","mooney2","image-keyboard-response","109","564787","0.0-6.0-5.14","2486189","co37855","norming","","","","","","",""
"2512.8850000000093","","","post_reveal_questions","survey-likert","110","567302","0.0-6.0-6.14","2486189","co37855","norming","","","{""aha"":6}","[0]","../img/tt/079tt.jpg","",""
"null","<div style=""font-size:60px;""> </div>","null","fixation","html-keyboard-response","111","567510","0.0-6.0-0.15","2486189","co37855","norming","","","","","","",""
"null","../img/tt/1241tt.jpg","null","mooney1","image-keyboard-response","112","570520","0.0-6.0-1.15","2486189","co37855","norming","","","","","","",""
"5659.380000000005","","","post_mooney1_questions","survey-likert","113","576182","0.0-6.0-2.15","2486189","co37855","norming","","","{""curiosity"":5,""confidence"":1}","[0,1]","../img/tt/1241tt.jpg","",""
"822.2400000001071","","","recognition","survey-text","114","577006","0.0-6.0-3.15","2486189","co37855","norming","","","{""guess"":""""}","","../img/tt/1241tt.jpg","",""
"null","../img/gs/1241gs.jpg","null","reveal","image-keyboard-response","115","579011","0.0-6.0-4.15","2486189","co37855","norming","","","","","","",""
"null","../img/tt/1241tt.jpg","null","mooney2","image-keyboard-response","116","581016","0.0-6.0-5.15","2486189","co37855","norming","","","","","","",""
"2884.035000000149","","","post_reveal_questions","survey-likert","117","583902","0.0-6.0-6.15","2486189","co37855","norming","","","{""aha"":6}","[0]","../img/tt/1241tt.jpg","",""
"null","<div style=""font-size:60px;""> </div>","null","fixation","html-keyboard-response","118","584110","0.0-6.0-0.16","2486189","co37855","norming","","","","","","",""
"null","../img/tt/418tt.jpg","null","mooney1","image-keyboard-response","119","587117","0.0-6.0-1.16","2486189","co37855","norming","","","","","","",""
"3806.8649999999907","","","post_mooney1_questions","survey-likert","120","590924","0.0-6.0-2.16","2486189","co37855","norming","","","{""curiosity"":5,""confidence"":1}","[0,1]","../img/tt/418tt.jpg","",""
"1429.759999999893","","","recognition","survey-text","121","592356","0.0-6.0-3.16","2486189","co37855","norming","","","{""guess"":""""}","","../img/tt/418tt.jpg","",""
"null","../img/gs/418gs.jpg","null","reveal","image-keyboard-response","122","594360","0.0-6.0-4.16","2486189","co37855","norming","","","","","","",""
"null","../img/tt/418tt.jpg","null","mooney2","image-keyboard-response","123","596371","0.0-6.0-5.16","2486189","co37855","norming","","","","","","",""
"3382.6300000000047","","","post_reveal_questions","survey-likert","124","599756","0.0-6.0-6.16","2486189","co37855","norming","","","{""aha"":6}","[0]","../img/tt/418tt.jpg","",""
"null","<div style=""font-size:60px;""> </div>","null","fixation","html-keyboard-response","125","599960","0.0-6.0-0.17","2486189","co37855","norming","","","","","","",""
"null","../img/tt/1239tt.jpg","null","mooney1","image-keyboard-response","126","602964","0.0-6.0-1.17","2486189","co37855","norming","","","","","","",""
"4909.694999999832","","","post_mooney1_questions","survey-likert","127","607876","0.0-6.0-2.17","2486189","co37855","norming","","","{""curiosity"":5,""confidence"":0}","[0,1]","../img/tt/1239tt.jpg","",""
"3046.3349999999627","","","recognition","survey-text","128","610924","0.0-6.0-3.17","2486189","co37855","norming","","","{""guess"":""vogel""}","","../img/tt/1239tt.jpg","",""
"null","../img/gs/1239gs.jpg","null","reveal","image-keyboard-response","129","612935","0.0-6.0-4.17","2486189","co37855","norming","","","","","","",""
"null","../img/tt/1239tt.jpg","null","mooney2","image-keyboard-response","130","614941","0.0-6.0-5.17","2486189","co37855","norming","","","","","","",""
"3157.7000000001863","","","post_reveal_questions","survey-likert","131","618100","0.0-6.0-6.17","2486189","co37855","norming","","","{""aha"":6}","[0]","../img/tt/1239tt.jpg","",""
"null","<div style=""font-size:60px;""> </div>","null","fixation","html-keyboard-response","132","618307","0.0-6.0-0.18","2486189","co37855","norming","","","","","","",""
"null","../img/tt/1188tt.jpg","null","mooney1","image-keyboard-response","133","621319","0.0-6.0-1.18","2486189","co37855","norming","","","","","","",""
"5652.165000000037","","","post_mooney1_questions","survey-likert","134","626972","0.0-6.0-2.18","2486189","co37855","norming","","","{""curiosity"":4,""confidence"":2}","[0,1]","../img/tt/1188tt.jpg","",""
"2270.054999999935","","","recognition","survey-text","135","629244","0.0-6.0-3.18","2486189","co37855","norming","","","{""guess"":""hond""}","","../img/tt/1188tt.jpg","",""
"null","../img/gs/1188gs.jpg","null","reveal","image-keyboard-response","136","631247","0.0-6.0-4.18","2486189","co37855","norming","","","","","","",""
"null","../img/tt/1188tt.jpg","null","mooney2","image-keyboard-response","137","633249","0.0-6.0-5.18","2486189","co37855","norming","","","","","","",""
"2832.695000000065","","","post_reveal_questions","survey-likert","138","636084","0.0-6.0-6.18","2486189","co37855","norming","","","{""aha"":6}","[0]","../img/tt/1188tt.jpg","",""
"null","<div style=""font-size:60px;""> </div>","null","fixation","html-keyboard-response","139","636290","0.0-6.0-0.19","2486189","co37855","norming","","","","","","",""
"null","../img/tt/353tt.jpg","null","mooney1","image-keyboard-response","140","639299","0.0-6.0-1.19","2486189","co37855","norming","","","","","","",""
"3527.4349999999395","","","post_mooney1_questions","survey-likert","141","642828","0.0-6.0-2.19","2486189","co37855","norming","","","{""curiosity"":6,""confidence"":0}","[0,1]","../img/tt/353tt.jpg","",""
"3246.095000000205","","","recognition","survey-text","142","646076","0.0-6.0-3.19","2486189","co37855","norming","","","{""guess"":""hond""}","","../img/tt/353tt.jpg","",""
"null","../img/gs/353gs.jpg","null","reveal","image-keyboard-response","143","648077","0.0-6.0-4.19","2486189","co37855","norming","","","","","","",""
"null","../img/tt/353tt.jpg","null","mooney2","image-keyboard-response","144","650081","0.0-6.0-5.19","2486189","co37855","norming","","","","","","",""
"2464.2299999999814","","","post_reveal_questions","survey-likert","145","652546","0.0-6.0-6.19","2486189","co37855","norming","","","{""aha"":6}","[0]","../img/tt/353tt.jpg","",""
"null","<div style=""font-size:60px;""> </div>","null","fixation","html-keyboard-response","146","652755","0.0-6.0-0.20","2486189","co37855","norming","","","","","","",""
"null","../img/tt/1363tt.jpg","null","mooney1","image-keyboard-response","147","655765","0.0-6.0-1.20","2486189","co37855","norming","","","","","","",""
"4164.324999999953","","","post_mooney1_questions","survey-likert","148","659930","0.0-6.0-2.20","2486189","co37855","norming","","","{""curiosity"":5,""confidence"":2}","[0,1]","../img/tt/1363tt.jpg","",""
"1790.0949999998556","","","recognition","survey-text","149","661722","0.0-6.0-3.20","2486189","co37855","norming","","","{""guess"":""poes""}","","../img/tt/1363tt.jpg","",""
"null","../img/gs/1363gs.jpg","null","reveal","image-keyboard-response","150","663731","0.0-6.0-4.20","2486189","co37855","norming","","","","","","",""
"null","../img/tt/1363tt.jpg","null","mooney2","image-keyboard-response","151","665740","0.0-6.0-5.20","2486189","co37855","norming","","","","","","",""
"3859.7449999999953","","","post_reveal_questions","survey-likert","152","669602","0.0-6.0-6.20","2486189","co37855","norming","","","{""aha"":6}","[0]","../img/tt/1363tt.jpg","",""
"null","<div style=""font-size:60px;""> </div>","null","fixation","html-keyboard-response","153","669805","0.0-6.0-0.21","2486189","co37855","norming","","","","","","",""
"null","../img/tt/055tt.jpg","null","mooney1","image-keyboard-response","154","672817","0.0-6.0-1.21","2486189","co37855","norming","","","","","","",""
"5942.614999999874","","","post_mooney1_questions","survey-likert","155","678762","0.0-6.0-2.21","2486189","co37855","norming","","","{""curiosity"":5,""confidence"":2}","[0,1]","../img/tt/055tt.jpg","",""
"1854.1850000000559","","","recognition","survey-text","156","680618","0.0-6.0-3.21","2486189","co37855","norming","","","{""guess"":""mens""}","","../img/tt/055tt.jpg","",""
"null","../img/gs/055gs.jpg","null","reveal","image-keyboard-response","157","682625","0.0-6.0-4.21","2486189","co37855","norming","","","","","","",""
"null","../img/tt/055tt.jpg","null","mooney2","image-keyboard-response","158","684627","0.0-6.0-5.21","2486189","co37855","norming","","","","","","",""
"2724.5999999998603","","","post_reveal_questions","survey-likert","159","687354","0.0-6.0-6.21","2486189","co37855","norming","","","{""aha"":6}","[0]","../img/tt/055tt.jpg","",""
"null","<div style=""font-size:60px;""> </div>","null","fixation","html-keyboard-response","160","687555","0.0-6.0-0.22","2486189","co37855","norming","","","","","","",""
"null","../img/tt/524tt.jpg","null","mooney1","image-keyboard-response","161","690561","0.0-6.0-1.22","2486189","co37855","norming","","","","","","",""
"4686.635000000009","","","post_mooney1_questions","survey-likert","162","695250","0.0-6.0-2.22","2486189","co37855","norming","","","{""curiosity"":5,""confidence"":3}","[0,1]","../img/tt/524tt.jpg","",""
"2054.379999999772","","","recognition","survey-text","163","697306","0.0-6.0-3.22","2486189","co37855","norming","","","{""guess"":""paard""}","","../img/tt/524tt.jpg","",""
"null","../img/gs/524gs.jpg","null","reveal","image-keyboard-response","164","699311","0.0-6.0-4.22","2486189","co37855","norming","","","","","","",""
"null","../img/tt/524tt.jpg","null","mooney2","image-keyboard-response","165","701317","0.0-6.0-5.22","2486189","co37855","norming","","","","","","",""
"2772.494999999879","","","post_reveal_questions","survey-likert","166","704090","0.0-6.0-6.22","2486189","co37855","norming","","","{""aha"":5}","[0]","../img/tt/524tt.jpg","",""
"null","<div style=""font-size:60px;""> </div>","null","fixation","html-keyboard-response","167","704296","0.0-6.0-0.23","2486189","co37855","norming","","","","","","",""
"null","../img/tt/1002tt.jpg","null","mooney1","image-keyboard-response","168","707307","0.0-6.0-1.23","2486189","co37855","norming","","","","","","",""
"3964.3349999998463","","","post_mooney1_questions","survey-likert","169","711274","0.0-6.0-2.23","2486189","co37855","norming","","","{""curiosity"":4,""confidence"":2}","[0,1]","../img/tt/1002tt.jpg","",""
"2478.3200000001816","","","recognition","survey-text","170","713755","0.0-6.0-3.23","2486189","co37855","norming","","","{""guess"":""hond""}","","../img/tt/1002tt.jpg","",""
"null","../img/gs/1002gs.jpg","null","reveal","image-keyboard-response","171","715765","0.0-6.0-4.23","2486189","co37855","norming","","","","","","",""
"null","../img/tt/1002tt.jpg","null","mooney2","image-keyboard-response","172","717772","0.0-6.0-5.23","2486189","co37855","norming","","","","","","",""
"2308.2249999999767","","","post_reveal_questions","survey-likert","173","720083","0.0-6.0-6.23","2486189","co37855","norming","","","{""aha"":6}","[0]","../img/tt/1002tt.jpg","",""
"null","<div style=""font-size:60px;""> </div>","null","fixation","html-keyboard-response","174","720284","0.0-6.0-0.24","2486189","co37855","norming","","","","","","",""
"null","../img/tt/598tt.jpg","null","mooney1","image-keyboard-response","175","723294","0.0-6.0-1.24","2486189","co37855","norming","","","","","","",""
"4066.2449999999953","","","post_mooney1_questions","survey-likert","176","727363","0.0-6.0-2.24","2486189","co37855","norming","","","{""curiosity"":3,""confidence"":3}","[0,1]","../img/tt/598tt.jpg","",""
"2198.444999999949","","","recognition","survey-text","177","729563","0.0-6.0-3.24","2486189","co37855","norming","","","{""guess"":""vogel""}","","../img/tt/598tt.jpg","",""
"null","../img/gs/598gs.jpg","null","reveal","image-keyboard-response","178","731564","0.0-6.0-4.24","2486189","co37855","norming","","","","","","",""
"null","../img/tt/598tt.jpg","null","mooney2","image-keyboard-response","179","733566","0.0-6.0-5.24","2486189","co37855","norming","","","","","","",""
"2666.159999999916","","","post_reveal_questions","survey-likert","180","736235","0.0-6.0-6.24","2486189","co37855","norming","","","{""aha"":5}","[0]","../img/tt/598tt.jpg","",""
"null","<div style=""font-size:60px;""> </div>","null","fixation","html-keyboard-response","181","736437","0.0-6.0-0.25","2486189","co37855","norming","","","","","","",""
"null","../img/tt/1012tt.jpg","null","mooney1","image-keyboard-response","182","739444","0.0-6.0-1.25","2486189","co37855","norming","","","","","","",""
"4582.134999999893","","","post_mooney1_questions","survey-likert","183","744027","0.0-6.0-2.25","2486189","co37855","norming","","","{""curiosity"":4,""confidence"":2}","[0,1]","../img/tt/1012tt.jpg","",""
"1566.1949999998324","","","recognition","survey-text","184","745595","0.0-6.0-3.25","2486189","co37855","norming","","","{""guess"":""beer""}","","../img/tt/1012tt.jpg","",""
"null","../img/gs/1012gs.jpg","null","reveal","image-keyboard-response","185","747602","0.0-6.0-4.25","2486189","co37855","norming","","","","","","",""
"null","../img/tt/1012tt.jpg","null","mooney2","image-keyboard-response","186","749604","0.0-6.0-5.25","2486189","co37855","norming","","","","","","",""
"4164.989999999991","","","post_reveal_questions","survey-likert","187","753771","0.0-6.0-6.25","2486189","co37855","norming","","","{""aha"":5}","[0]","../img/tt/1012tt.jpg","",""
"null","<div style=""font-size:60px;""> </div>","null","fixation","html-keyboard-response","188","753977","0.0-6.0-0.26","2486189","co37855","norming","","","","","","",""
"null","../img/tt/1130tt.jpg","null","mooney1","image-keyboard-response","189","756987","0.0-6.0-1.26","2486189","co37855","norming","","","","","","",""
"5084.935000000056","","","post_mooney1_questions","survey-likert","190","762075","0.0-6.0-2.26","2486189","co37855","norming","","","{""curiosity"":5,""confidence"":2}","[0,1]","../img/tt/1130tt.jpg","",""
"2014.1900000000605","","","recognition","survey-text","191","764091","0.0-6.0-3.26","2486189","co37855","norming","","","{""guess"":""hond""}","","../img/tt/1130tt.jpg","",""
"null","../img/gs/1130gs.jpg","null","reveal","image-keyboard-response","192","766098","0.0-6.0-4.26","2486189","co37855","norming","","","","","","",""
"null","../img/tt/1130tt.jpg","null","mooney2","image-keyboard-response","193","768105","0.0-6.0-5.26","2486189","co37855","norming","","","","","","",""
"2511.25","","","post_reveal_questions","survey-likert","194","770619","0.0-6.0-6.26","2486189","co37855","norming","","","{""aha"":6}","[0]","../img/tt/1130tt.jpg","",""
"null","<div style=""font-size:60px;""> </div>","null","fixation","html-keyboard-response","195","770820","0.0-6.0-0.27","2486189","co37855","norming","","","","","","",""
"null","../img/tt/1275tt.jpg","null","mooney1","image-keyboard-response","196","773829","0.0-6.0-1.27","2486189","co37855","norming","","","","","","",""
"3806.119999999879","","","post_mooney1_questions","survey-likert","197","777638","0.0-6.0-2.27","2486189","co37855","norming","","","{""curiosity"":5,""confidence"":2}","[0,1]","../img/tt/1275tt.jpg","",""
"1590.0550000001676","","","recognition","survey-text","198","779230","0.0-6.0-3.27","2486189","co37855","norming","","","{""guess"":""poes""}","","../img/tt/1275tt.jpg","",""
"null","../img/gs/1275gs.jpg","null","reveal","image-keyboard-response","199","781232","0.0-6.0-4.27","2486189","co37855","norming","","","","","","",""
"null","../img/tt/1275tt.jpg","null","mooney2","image-keyboard-response","200","783234","0.0-6.0-5.27","2486189","co37855","norming","","","","","","",""
"3194.434999999823","","","post_reveal_questions","survey-likert","201","786430","0.0-6.0-6.27","2486189","co37855","norming","","","{""aha"":6}","[0]","../img/tt/1275tt.jpg","",""
"null","<div style=""font-size:60px;""> </div>","null","fixation","html-keyboard-response","202","786638","0.0-6.0-0.28","2486189","co37855","norming","","","","","","",""
"null","../img/tt/559tt.jpg","null","mooney1","image-keyboard-response","203","789649","0.0-6.0-1.28","2486189","co37855","norming","","","","","","",""
"4025.8950000000186","","","post_mooney1_questions","survey-likert","204","793678","0.0-6.0-2.28","2486189","co37855","norming","","","{""curiosity"":5,""confidence"":2}","[0,1]","../img/tt/559tt.jpg","",""
"3086.305000000051","","","recognition","survey-text","205","796766","0.0-6.0-3.28","2486189","co37855","norming","","","{""guess"":""mens""}","","../img/tt/559tt.jpg","",""
"null","../img/gs/559gs.jpg","null","reveal","image-keyboard-response","206","798767","0.0-6.0-4.28","2486189","co37855","norming","","","","","","",""
"null","../img/tt/559tt.jpg","null","mooney2","image-keyboard-response","207","800770","0.0-6.0-5.28","2486189","co37855","norming","","","","","","",""
"2841.9349999999395","","","post_reveal_questions","survey-likert","208","803614","0.0-6.0-6.28","2486189","co37855","norming","","","{""aha"":6}","[0]","../img/tt/559tt.jpg","",""
"null","<div style=""font-size:60px;""> </div>","null","fixation","html-keyboard-response","209","803815","0.0-6.0-0.29","2486189","co37855","norming","","","","","","",""
"null","../img/tt/1102tt.jpg","null","mooney1","image-keyboard-response","210","806819","0.0-6.0-1.29","2486189","co37855","norming","","","","","","",""
"3647.954999999958","","","post_mooney1_questions","survey-likert","211","810470","0.0-6.0-2.29","2486189","co37855","norming","","","{""curiosity"":5,""confidence"":2}","[0,1]","../img/tt/1102tt.jpg","",""
"1942.1449999999022","","","recognition","survey-text","212","812414","0.0-6.0-3.29","2486189","co37855","norming","","","{""guess"":""zee""}","","../img/tt/1102tt.jpg","",""
"null","../img/gs/1102gs.jpg","null","reveal","image-keyboard-response","213","814415","0.0-6.0-4.29","2486189","co37855","norming","","","","","","",""
"null","../img/tt/1102tt.jpg","null","mooney2","image-keyboard-response","214","816426","0.0-6.0-5.29","2486189","co37855","norming","","","","","","",""
"2241.375","","","post_reveal_questions","survey-likert","215","818670","0.0-6.0-6.29","2486189","co37855","norming","","","{""aha"":6}","[0]","../img/tt/1102tt.jpg","",""
"null","<div style=""font-size:60px;""> </div>","null","fixation","html-keyboard-response","216","818876","0.0-6.0-0.30","2486189","co37855","norming","","","","","","",""
"null","../img/tt/1243tt.jpg","null","mooney1","image-keyboard-response","217","821886","0.0-6.0-1.30","2486189","co37855","norming","","","","","","",""
"3844.8649999999907","","","post_mooney1_questions","survey-likert","218","825734","0.0-6.0-2.30","2486189","co37855","norming","","","{""curiosity"":4,""confidence"":2}","[0,1]","../img/tt/1243tt.jpg","",""
"1894.3249999999534","","","recognition","survey-text","219","827630","0.0-6.0-3.30","2486189","co37855","norming","","","{""guess"":""paard""}","","../img/tt/1243tt.jpg","",""
"null","../img/gs/1243gs.jpg","null","reveal","image-keyboard-response","220","829640","0.0-6.0-4.30","2486189","co37855","norming","","","","","","",""
"null","../img/tt/1243tt.jpg","null","mooney2","image-keyboard-response","221","831643","0.0-6.0-5.30","2486189","co37855","norming","","","","","","",""
"3113.0549999998184","","","post_reveal_questions","survey-likert","222","834750","0.0-6.0-6.30","2486189","co37855","norming","","","{""aha"":6}","[0]","../img/tt/1243tt.jpg","",""
"null","<div style=""font-size:60px;""> </div>","null","fixation","html-keyboard-response","223","834960","0.0-6.0-0.31","2486189","co37855","norming","","","","","","",""
"null","../img/tt/1040tt.jpg","null","mooney1","image-keyboard-response","224","837969","0.0-6.0-1.31","2486189","co37855","norming","","","","","","",""
"4986.495000000112","","","post_mooney1_questions","survey-likert","225","842959","0.0-6.0-2.31","2486189","co37855","norming","","","{""curiosity"":6,""confidence"":0}","[0,1]","../img/tt/1040tt.jpg","",""
"1062.1900000000605","","","recognition","survey-text","226","844022","0.0-6.0-3.31","2486189","co37855","norming","","","{""guess"":""""}","","../img/tt/1040tt.jpg","",""
"null","../img/gs/1040gs.jpg","null","reveal","image-keyboard-response","227","846033","0.0-6.0-4.31","2486189","co37855","norming","","","","","","",""
"null","../img/tt/1040tt.jpg","null","mooney2","image-keyboard-response","228","848041","0.0-6.0-5.31","2486189","co37855","norming","","","","","","",""
"3546.689999999944","","","post_reveal_questions","survey-likert","229","851590","0.0-6.0-6.31","2486189","co37855","norming","","","{""aha"":6}","[0]","../img/tt/1040tt.jpg","",""
"null","<div style=""font-size:60px;""> </div>","null","fixation","html-keyboard-response","230","851794","0.0-6.0-0.32","2486189","co37855","norming","","","","","","",""
"null","../img/tt/126tt.jpg","null","mooney1","image-keyboard-response","231","854800","0.0-6.0-1.32","2486189","co37855","norming","","","","","","",""
"4506.589999999967","","","post_mooney1_questions","survey-likert","232","859311","0.0-6.0-2.32","2486189","co37855","norming","","","{""curiosity"":6,""confidence"":0}","[0,1]","../img/tt/126tt.jpg","",""
"2133.8249999999534","","","recognition","survey-text","233","861446","0.0-6.0-3.32","2486189","co37855","norming","","","{""guess"":""zee""}","","../img/tt/126tt.jpg","",""
"null","../img/gs/126gs.jpg","null","reveal","image-keyboard-response","234","863453","0.0-6.0-4.32","2486189","co37855","norming","","","","","","",""
"null","../img/tt/126tt.jpg","null","mooney2","image-keyboard-response","235","865461","0.0-6.0-5.32","2486189","co37855","norming","","","","","","",""
"2824.1250000001164","","","post_reveal_questions","survey-likert","236","868286","0.0-6.0-6.32","2486189","co37855","norming","","","{""aha"":6}","[0]","../img/tt/126tt.jpg","",""
"null","<div style=""font-size:60px;""> </div>","null","fixation","html-keyboard-response","237","868489","0.0-6.0-0.33","2486189","co37855","norming","","","","","","",""
"null","../img/tt/031tt.jpg","null","mooney1","image-keyboard-response","238","871494","0.0-6.0-1.33","2486189","co37855","norming","","","","","","",""
"3774.0050000000047","","","post_mooney1_questions","survey-likert","239","875270","0.0-6.0-2.33","2486189","co37855","norming","","","{""curiosity"":5,""confidence"":2}","[0,1]","../img/tt/031tt.jpg","",""
"3293.6199999999953","","","recognition","survey-text","240","878566","0.0-6.0-3.33","2486189","co37855","norming","","","{""guess"":""varken""}","","../img/tt/031tt.jpg","",""
"null","../img/gs/031gs.jpg","null","reveal","image-keyboard-response","241","880576","0.0-6.0-4.33","2486189","co37855","norming","","","","","","",""
"null","../img/tt/031tt.jpg","null","mooney2","image-keyboard-response","242","882585","0.0-6.0-5.33","2486189","co37855","norming","","","","","","",""
"3546.8450000000885","","","post_reveal_questions","survey-likert","243","886134","0.0-6.0-6.33","2486189","co37855","norming","","","{""aha"":6}","[0]","../img/tt/031tt.jpg","",""
"null","<div style=""font-size:60px;""> </div>","null","fixation","html-keyboard-response","244","886344","0.0-6.0-0.34","2486189","co37855","norming","","","","","","",""
"null","../img/tt/111tt.jpg","null","mooney1","image-keyboard-response","245","889350","0.0-6.0-1.34","2486189","co37855","norming","","","","","","",""
"3598.960000000079","","","post_mooney1_questions","survey-likert","246","892950","0.0-6.0-2.34","2486189","co37855","norming","","","{""curiosity"":4,""confidence"":2}","[0,1]","../img/tt/111tt.jpg","",""
"2254.2600000001257","","","recognition","survey-text","247","895212","0.0-6.0-3.34","2486189","co37855","norming","","","{""guess"":""mens""}","","../img/tt/111tt.jpg","",""
"null","../img/gs/111gs.jpg","null","reveal","image-keyboard-response","248","897214","0.0-6.0-4.34","2486189","co37855","norming","","","","","","",""
"null","../img/tt/111tt.jpg","null","mooney2","image-keyboard-response","249","899216","0.0-6.0-5.34","2486189","co37855","norming","","","","","","",""
"2265.515000000014","","","post_reveal_questions","survey-likert","250","901484","0.0-6.0-6.34","2486189","co37855","norming","","","{""aha"":6}","[0]","../img/tt/111tt.jpg","",""
"null","<div style=""font-size:60px;""> </div>","null","fixation","html-keyboard-response","251","901687","0.0-6.0-0.35","2486189","co37855","norming","","","","","","",""
"null","../img/tt/1217tt.jpg","null","mooney1","image-keyboard-response","252","904697","0.0-6.0-1.35","2486189","co37855","norming","","","","","","",""
"3199.925000000163","","","post_mooney1_questions","survey-likert","253","907900","0.0-6.0-2.35","2486189","co37855","norming","","","{""curiosity"":5,""confidence"":2}","[0,1]","../img/tt/1217tt.jpg","",""
"1918.0050000000047","","","recognition","survey-text","254","909820","0.0-6.0-3.35","2486189","co37855","norming","","","{""guess"":""dieren""}","","../img/tt/1217tt.jpg","",""
"null","../img/gs/1217gs.jpg","null","reveal","image-keyboard-response","255","911823","0.0-6.0-4.35","2486189","co37855","norming","","","","","","",""
"null","../img/tt/1217tt.jpg","null","mooney2","image-keyboard-response","256","913827","0.0-6.0-5.35","2486189","co37855","norming","","","","","","",""
"1840.8099999999395","","","post_reveal_questions","survey-likert","257","915668","0.0-6.0-6.35","2486189","co37855","norming","","","{""aha"":6}","[0]","../img/tt/1217tt.jpg","",""
"null","<div style=""font-size:60px;""> </div>","null","fixation","html-keyboard-response","258","915878","0.0-6.0-0.36","2486189","co37855","norming","","","","","","",""
"null","../img/tt/081tt.jpg","null","mooney1","image-keyboard-response","259","918888","0.0-6.0-1.36","2486189","co37855","norming","","","","","","",""
"4473.295000000042","","","post_mooney1_questions","survey-likert","260","923364","0.0-6.0-2.36","2486189","co37855","norming","","","{""curiosity"":5,""confidence"":1}","[0,1]","../img/tt/081tt.jpg","",""
"2758.3499999999767","","","recognition","survey-text","261","926124","0.0-6.0-3.36","2486189","co37855","norming","","","{""guess"":""beer""}","","../img/tt/081tt.jpg","",""
"null","../img/gs/081gs.jpg","null","reveal","image-keyboard-response","262","928126","0.0-6.0-4.36","2486189","co37855","norming","","","","","","",""
"null","../img/tt/081tt.jpg","null","mooney2","image-keyboard-response","263","930135","0.0-6.0-5.36","2486189","co37855","norming","","","","","","",""
"2803.3000000000466","","","post_reveal_questions","survey-likert","264","932940","0.0-6.0-6.36","2486189","co37855","norming","","","{""aha"":6}","[0]","../img/tt/081tt.jpg","",""
"null","<div style=""font-size:60px;""> </div>","null","fixation","html-keyboard-response","265","933147","0.0-6.0-0.37","2486189","co37855","norming","","","","","","",""
"null","../img/tt/1154tt.jpg","null","mooney1","image-keyboard-response","266","936151","0.0-6.0-1.37","2486189","co37855","norming","","","","","","",""
"4482.70000000007","","","post_mooney1_questions","survey-likert","267","940636","0.0-6.0-2.37","2486189","co37855","norming","","","{""curiosity"":4,""confidence"":2}","[0,1]","../img/tt/1154tt.jpg","",""
"1278.0249999999069","","","recognition","survey-text","268","941916","0.0-6.0-3.37","2486189","co37855","norming","","","{""guess"":""""}","","../img/tt/1154tt.jpg","",""
"null","../img/gs/1154gs.jpg","null","reveal","image-keyboard-response","269","943919","0.0-6.0-4.37","2486189","co37855","norming","","","","","","",""
"null","../img/tt/1154tt.jpg","null","mooney2","image-keyboard-response","270","945922","0.0-6.0-5.37","2486189","co37855","norming","","","","","","",""
"2943.8749999998836","","","post_reveal_questions","survey-likert","271","948868","0.0-6.0-6.37","2486189","co37855","norming","","","{""aha"":6}","[0]","../img/tt/1154tt.jpg","",""
"null","<div style=""font-size:60px;""> </div>","null","fixation","html-keyboard-response","272","949076","0.0-6.0-0.38","2486189","co37855","norming","","","","","","",""
"null","../img/tt/1087tt.jpg","null","mooney1","image-keyboard-response","273","952087","0.0-6.0-1.38","2486189","co37855","norming","","","","","","",""
"4738.095000000205","","","post_mooney1_questions","survey-likert","274","956830","0.0-6.0-2.38","2486189","co37855","norming","","","{""curiosity"":4,""confidence"":3}","[0,1]","../img/tt/1087tt.jpg","",""
"2206.1650000000373","","","recognition","survey-text","275","959037","0.0-6.0-3.38","2486189","co37855","norming","","","{""guess"":""zeehond""}","","../img/tt/1087tt.jpg","",""
"null","../img/gs/1087gs.jpg","null","reveal","image-keyboard-response","276","961044","0.0-6.0-4.38","2486189","co37855","norming","","","","","","",""
"null","../img/tt/1087tt.jpg","null","mooney2","image-keyboard-response","277","963046","0.0-6.0-5.38","2486189","co37855","norming","","","","","","",""
"2996.344999999972","","","post_reveal_questions","survey-likert","278","966045","0.0-6.0-6.38","2486189","co37855","norming","","","{""aha"":5}","[0]","../img/tt/1087tt.jpg","",""
"null","<div style=""font-size:60px;""> </div>","null","fixation","html-keyboard-response","279","966253","0.0-6.0-0.39","2486189","co37855","norming","","","","","","",""
"null","../img/tt/378tt.jpg","null","mooney1","image-keyboard-response","280","969256","0.0-6.0-1.39","2486189","co37855","norming","","","","","","",""
"4618.499999999884","","","post_mooney1_questions","survey-likert","281","973878","0.0-6.0-2.39","2486189","co37855","norming","","","{""curiosity"":5,""confidence"":2}","[0,1]","../img/tt/378tt.jpg","",""
"2486.2800000001444","","","recognition","survey-text","282","976365","0.0-6.0-3.39","2486189","co37855","norming","","","{""guess"":""varken""}","","../img/tt/378tt.jpg","",""
"null","../img/gs/378gs.jpg","null","reveal","image-keyboard-response","283","978369","0.0-6.0-4.39","2486189","co37855","norming","","","","","","",""
"null","../img/tt/378tt.jpg","null","mooney2","image-keyboard-response","284","980372","0.0-6.0-5.39","2486189","co37855","norming","","","","","","",""
"2664.344999999972","","","post_reveal_questions","survey-likert","285","983037","0.0-6.0-6.39","2486189","co37855","norming","","","{""aha"":6}","[0]","../img/tt/378tt.jpg","",""
"null","<div style=""font-size:60px;""> </div>","null","fixation","html-keyboard-response","286","983240","0.0-6.0-0.40","2486189","co37855","norming","","","","","","",""
"null","../img/tt/416tt.jpg","null","mooney1","image-keyboard-response","287","986243","0.0-6.0-1.40","2486189","co37855","norming","","","","","","",""
"3519.3299999998417","","","post_mooney1_questions","survey-likert","288","989766","0.0-6.0-2.40","2486189","co37855","norming","","","{""curiosity"":5,""confidence"":2}","[0,1]","../img/tt/416tt.jpg","",""
"2566.430000000051","","","recognition","survey-text","289","992334","0.0-6.0-3.40","2486189","co37855","norming","","","{""guess"":""vogel""}","","../img/tt/416tt.jpg","",""
"null","../img/gs/416gs.jpg","null","reveal","image-keyboard-response","290","994342","0.0-6.0-4.40","2486189","co37855","norming","","","","","","",""
"null","../img/tt/416tt.jpg","null","mooney2","image-keyboard-response","291","996344","0.0-6.0-5.40","2486189","co37855","norming","","","","","","",""
"1986.6749999998137","","","post_reveal_questions","survey-likert","292","998333","0.0-6.0-6.40","2486189","co37855","norming","","","{""aha"":3}","[0]","../img/tt/416tt.jpg","",""
"null","<div style=""font-size:60px;""> </div>","null","fixation","html-keyboard-response","293","998542","0.0-6.0-0.41","2486189","co37855","norming","","","","","","",""
"null","../img/tt/301tt.jpg","null","mooney1","image-keyboard-response","294","1001545","0.0-6.0-1.41","2486189","co37855","norming","","","","","","",""
"4857.475000000093","","","post_mooney1_questions","survey-likert","295","1006406","0.0-6.0-2.41","2486189","co37855","norming","","","{""curiosity"":6,""confidence"":0}","[0,1]","../img/tt/301tt.jpg","",""
"910.0249999999069","","","recognition","survey-text","296","1007317","0.0-6.0-3.41","2486189","co37855","norming","","","{""guess"":""""}","","../img/tt/301tt.jpg","",""
"null","../img/gs/301gs.jpg","null","reveal","image-keyboard-response","297","1009320","0.0-6.0-4.41","2486189","co37855","norming","","","","","","",""
"null","../img/tt/301tt.jpg","null","mooney2","image-keyboard-response","298","1011331","0.0-6.0-5.41","2486189","co37855","norming","","","","","","",""
"3144.644999999902","","","post_reveal_questions","survey-likert","299","1014477","0.0-6.0-6.41","2486189","co37855","norming","","","{""aha"":6}","[0]","../img/tt/301tt.jpg","",""
"null","<div style=""font-size:60px;""> </div>","null","fixation","html-keyboard-response","300","1014681","0.0-6.0-0.42","2486189","co37855","norming","","","","","","",""
"null","../img/tt/1043tt.jpg","null","mooney1","image-keyboard-response","301","1017686","0.0-6.0-1.42","2486189","co37855","norming","","","","","","",""
"5013.2949999999255","","","post_mooney1_questions","survey-likert","302","1022702","0.0-6.0-2.42","2486189","co37855","norming","","","{""curiosity"":6,""confidence"":0}","[0,1]","../img/tt/1043tt.jpg","",""
"1206.0550000000512","","","recognition","survey-text","303","1023910","0.0-6.0-3.42","2486189","co37855","norming","","","{""guess"":""""}","","../img/tt/1043tt.jpg","",""
"null","../img/gs/1043gs.jpg","null","reveal","image-keyboard-response","304","1025911","0.0-6.0-4.42","2486189","co37855","norming","","","","","","",""
"null","../img/tt/1043tt.jpg","null","mooney2","image-keyboard-response","305","1027915","0.0-6.0-5.42","2486189","co37855","norming","","","","","","",""
"3109.765000000014","","","post_reveal_questions","survey-likert","306","1031030","0.0-6.0-6.42","2486189","co37855","norming","","","{""aha"":6}","[0]","../img/tt/1043tt.jpg","",""
"null","<div style=""font-size:60px;""> </div>","null","fixation","html-keyboard-response","307","1031237","0.0-6.0-0.43","2486189","co37855","norming","","","","","","",""
"null","../img/tt/1226tt.jpg","null","mooney1","image-keyboard-response","308","1034246","0.0-6.0-1.43","2486189","co37855","norming","","","","","","",""
"4405.099999999977","","","post_mooney1_questions","survey-likert","309","1038654","0.0-6.0-2.43","2486189","co37855","norming","","","{""curiosity"":5,""confidence"":3}","[0,1]","../img/tt/1226tt.jpg","",""
"1518.104999999865","","","recognition","survey-text","310","1040174","0.0-6.0-3.43","2486189","co37855","norming","","","{""guess"":""mens""}","","../img/tt/1226tt.jpg","",""
"null","../img/gs/1226gs.jpg","null","reveal","image-keyboard-response","311","1042175","0.0-6.0-4.43","2486189","co37855","norming","","","","","","",""
"null","../img/tt/1226tt.jpg","null","mooney2","image-keyboard-response","312","1044182","0.0-6.0-5.43","2486189","co37855","norming","","","","","","",""
"4373.315000000177","","","post_reveal_questions","survey-likert","313","1048558","0.0-6.0-6.43","2486189","co37855","norming","","","{""aha"":5}","[0]","../img/tt/1226tt.jpg","",""
"null","<div style=""font-size:60px;""> </div>","null","fixation","html-keyboard-response","314","1048767","0.0-6.0-0.44","2486189","co37855","norming","","","","","","",""
"null","../img/tt/036tt.jpg","null","mooney1","image-keyboard-response","315","1051774","0.0-6.0-1.44","2486189","co37855","norming","","","","","","",""
"4285.22499999986","","","post_mooney1_questions","survey-likert","316","1056062","0.0-6.0-2.44","2486189","co37855","norming","","","{""curiosity"":5,""confidence"":2}","[0,1]","../img/tt/036tt.jpg","",""
"3934.1650000000373","","","recognition","survey-text","317","1059998","0.0-6.0-3.44","2486189","co37855","norming","","","{""guess"":""blad""}","","../img/tt/036tt.jpg","",""
"null","../img/gs/036gs.jpg","null","reveal","image-keyboard-response","318","1062000","0.0-6.0-4.44","2486189","co37855","norming","","","","","","",""
"null","../img/tt/036tt.jpg","null","mooney2","image-keyboard-response","319","1064006","0.0-6.0-5.44","2486189","co37855","norming","","","","","","",""
"3284.284999999916","","","post_reveal_questions","survey-likert","320","1067294","0.0-6.0-6.44","2486189","co37855","norming","","","{""aha"":6}","[0]","../img/tt/036tt.jpg","",""
"null","<div style=""font-size:60px;""> </div>","null","fixation","html-keyboard-response","321","1067501","0.0-6.0-0.45","2486189","co37855","norming","","","","","","",""
"null","../img/tt/1366tt.jpg","null","mooney1","image-keyboard-response","322","1070510","0.0-6.0-1.45","2486189","co37855","norming","","","","","","",""
"4116.505000000121","","","post_mooney1_questions","survey-likert","323","1074630","0.0-6.0-2.45","2486189","co37855","norming","","","{""curiosity"":5,""confidence"":2}","[0,1]","../img/tt/1366tt.jpg","",""
"2230.0250000001397","","","recognition","survey-text","324","1076862","0.0-6.0-3.45","2486189","co37855","norming","","","{""guess"":""slak""}","","../img/tt/1366tt.jpg","",""
"null","../img/gs/1366gs.jpg","null","reveal","image-keyboard-response","325","1078864","0.0-6.0-4.45","2486189","co37855","norming","","","","","","",""
"null","../img/tt/1366tt.jpg","null","mooney2","image-keyboard-response","326","1080874","0.0-6.0-5.45","2486189","co37855","norming","","","","","","",""
"2089.1350000000093","","","post_reveal_questions","survey-likert","327","1082966","0.0-6.0-6.45","2486189","co37855","norming","","","{""aha"":6}","[0]","../img/tt/1366tt.jpg","",""
"null","<div style=""font-size:60px;""> </div>","null","fixation","html-keyboard-response","328","1083167","0.0-6.0-0.46","2486189","co37855","norming","","","","","","",""
"null","../img/tt/534tt.jpg","null","mooney1","image-keyboard-response","329","1086174","0.0-6.0-1.46","2486189","co37855","norming","","","","","","",""
"3397.320000000065","","","post_mooney1_questions","survey-likert","330","1089574","0.0-6.0-2.46","2486189","co37855","norming","","","{""curiosity"":5,""confidence"":3}","[0,1]","../img/tt/534tt.jpg","",""
"2230.119999999879","","","recognition","survey-text","331","1091806","0.0-6.0-3.46","2486189","co37855","norming","","","{""guess"":""blad""}","","../img/tt/534tt.jpg","",""
"null","../img/gs/534gs.jpg","null","reveal","image-keyboard-response","332","1093814","0.0-6.0-4.46","2486189","co37855","norming","","","","","","",""
"null","../img/tt/534tt.jpg","null","mooney2","image-keyboard-response","333","1095821","0.0-6.0-5.46","2486189","co37855","norming","","","","","","",""
"3581.8300000000745","","","post_reveal_questions","survey-likert","334","1099406","0.0-6.0-6.46","2486189","co37855","norming","","","{""aha"":6}","[0]","../img/tt/534tt.jpg","",""
"null","<div style=""font-size:60px;""> </div>","null","fixation","html-keyboard-response","335","1099612","0.0-6.0-0.47","2486189","co37855","norming","","","","","","",""
"null","../img/tt/1234tt.jpg","null","mooney1","image-keyboard-response","336","1102616","0.0-6.0-1.47","2486189","co37855","norming","","","","","","",""
"3755.644999999786","","","post_mooney1_questions","survey-likert","337","1106374","0.0-6.0-2.47","2486189","co37855","norming","","","{""curiosity"":5,""confidence"":3}","[0,1]","../img/tt/1234tt.jpg","",""
"2261.6500000001397","","","recognition","survey-text","338","1108638","0.0-6.0-3.47","2486189","co37855","norming","","","{""guess"":""paard""}","","../img/tt/1234tt.jpg","",""
"null","../img/gs/1234gs.jpg","null","reveal","image-keyboard-response","339","1110640","0.0-6.0-4.47","2486189","co37855","norming","","","","","","",""
"null","../img/tt/1234tt.jpg","null","mooney2","image-keyboard-response","340","1112650","0.0-6.0-5.47","2486189","co37855","norming","","","","","","",""
"2185.780000000028","","","post_reveal_questions","survey-likert","341","1114838","0.0-6.0-6.47","2486189","co37855","norming","","","{""aha"":4}","[0]","../img/tt/1234tt.jpg","",""
"null","<div style=""font-size:60px;""> </div>","null","fixation","html-keyboard-response","342","1115039","0.0-6.0-0.48","2486189","co37855","norming","","","","","","",""
"null","../img/tt/440tt.jpg","null","mooney1","image-keyboard-response","343","1118048","0.0-6.0-1.48","2486189","co37855","norming","","","","","","",""
"3603.8649999999907","","","post_mooney1_questions","survey-likert","344","1121654","0.0-6.0-2.48","2486189","co37855","norming","","","{""curiosity"":5,""confidence"":2}","[0,1]","../img/tt/440tt.jpg","",""
"5622.065000000177","","","recognition","survey-text","345","1127278","0.0-6.0-3.48","2486189","co37855","norming","","","{""guess"":""manege""}","","../img/tt/440tt.jpg","",""
"null","../img/gs/440gs.jpg","null","reveal","image-keyboard-response","346","1129281","0.0-6.0-4.48","2486189","co37855","norming","","","","","","",""
"null","../img/tt/440tt.jpg","null","mooney2","image-keyboard-response","347","1131288","0.0-6.0-5.48","2486189","co37855","norming","","","","","","",""
"4370.854999999981","","","post_reveal_questions","survey-likert","348","1135662","0.0-6.0-6.48","2486189","co37855","norming","","","{""aha"":4}","[0]","../img/tt/440tt.jpg","",""
"null","<div style=""font-size:60px;""> </div>","null","fixation","html-keyboard-response","349","1135864","0.0-6.0-0.49","2486189","co37855","norming","","","","","","",""
"null","../img/tt/442tt.jpg","null","mooney1","image-keyboard-response","350","1138867","0.0-6.0-1.49","2486189","co37855","norming","","","","","","",""
"3320.429999999935","","","post_mooney1_questions","survey-likert","351","1142190","0.0-6.0-2.49","2486189","co37855","norming","","","{""curiosity"":6,""confidence"":0}","[0,1]","../img/tt/442tt.jpg","",""
"1133.7849999999162","","","recognition","survey-text","352","1143325","0.0-6.0-3.49","2486189","co37855","norming","","","{""guess"":""""}","","../img/tt/442tt.jpg","",""
"null","../img/gs/442gs.jpg","null","reveal","image-keyboard-response","353","1145331","0.0-6.0-4.49","2486189","co37855","norming","","","","","","",""
"null","../img/tt/442tt.jpg","null","mooney2","image-keyboard-response","354","1147342","0.0-6.0-5.49","2486189","co37855","norming","","","","","","",""
"2894.8549999999814","","","post_reveal_questions","survey-likert","355","1150238","0.0-6.0-6.49","2486189","co37855","norming","","","{""aha"":6}","[0]","../img/tt/442tt.jpg","",""
"null","<div style=""font-size:60px;""> </div>","null","fixation","html-keyboard-response","356","1150445","0.0-6.0-0.50","2486189","co37855","norming","","","","","","",""
"null","../img/tt/1097tt.jpg","null","mooney1","image-keyboard-response","357","1153458","0.0-6.0-1.50","2486189","co37855","norming","","","","","","",""
"5834.320000000298","","","post_mooney1_questions","survey-likert","358","1159294","0.0-6.0-2.50","2486189","co37855","norming","","","{""curiosity"":6,""confidence"":2}","[0,1]","../img/tt/1097tt.jpg","",""
"1822.2050000000745","","","recognition","survey-text","359","1161118","0.0-6.0-3.50","2486189","co37855","norming","","","{""guess"":""mens""}","","../img/tt/1097tt.jpg","",""
"null","../img/gs/1097gs.jpg","null","reveal","image-keyboard-response","360","1163122","0.0-6.0-4.50","2486189","co37855","norming","","","","","","",""
"null","../img/tt/1097tt.jpg","null","mooney2","image-keyboard-response","361","1165124","0.0-6.0-5.50","2486189","co37855","norming","","","","","","",""
"2231.2950000001583","","","post_reveal_questions","survey-likert","362","1167358","0.0-6.0-6.50","2486189","co37855","norming","","","{""aha"":4}","[0]","../img/tt/1097tt.jpg","",""
"null","<div style=""font-size:60px;""> </div>","null","fixation","html-keyboard-response","363","1167568","0.0-6.0-0.51","2486189","co37855","norming","","","","","","",""
"null","../img/tt/084tt.jpg","null","mooney1","image-keyboard-response","364","1170579","0.0-6.0-1.51","2486189","co37855","norming","","","","","","",""
"3808.3600000001024","","","post_mooney1_questions","survey-likert","365","1174390","0.0-6.0-2.51","2486189","co37855","norming","","","{""curiosity"":5,""confidence"":3}","[0,1]","../img/tt/084tt.jpg","",""
"1958.3200000000652","","","recognition","survey-text","366","1176350","0.0-6.0-3.51","2486189","co37855","norming","","","{""guess"":""vogel""}","","../img/tt/084tt.jpg","",""
"null","../img/gs/084gs.jpg","null","reveal","image-keyboard-response","367","1178352","0.0-6.0-4.51","2486189","co37855","norming","","","","","","",""
"null","../img/tt/084tt.jpg","null","mooney2","image-keyboard-response","368","1180362","0.0-6.0-5.51","2486189","co37855","norming","","","","","","",""
"3696.885000000475","","","post_reveal_questions","survey-likert","369","1184062","0.0-6.0-6.51","2486189","co37855","norming","","","{""aha"":4}","[0]","../img/tt/084tt.jpg","",""
"null","<div style=""font-size:60px;""> </div>","null","fixation","html-keyboard-response","370","1184271","0.0-6.0-0.52","2486189","co37855","norming","","","","","","",""
"null","../img/tt/096tt.jpg","null","mooney1","image-keyboard-response","371","1187283","0.0-6.0-1.52","2486189","co37855","norming","","","","","","",""
"3568.0450000001583","","","post_mooney1_questions","survey-likert","372","1190854","0.0-6.0-2.52","2486189","co37855","norming","","","{""curiosity"":4,""confidence"":2}","[0,1]","../img/tt/096tt.jpg","",""
"3782.0400000000373","","","recognition","survey-text","373","1194638","0.0-6.0-3.52","2486189","co37855","norming","","","{""guess"":""naaimachine""}","","../img/tt/096tt.jpg","",""
"null","../img/gs/096gs.jpg","null","reveal","image-keyboard-response","374","1196648","0.0-6.0-4.52","2486189","co37855","norming","","","","","","",""
"null","../img/tt/096tt.jpg","null","mooney2","image-keyboard-response","375","1198655","0.0-6.0-5.52","2486189","co37855","norming","","","","","","",""
"2603.5250000003725","","","post_reveal_questions","survey-likert","376","1201258","0.0-6.0-6.52","2486189","co37855","norming","","","{""aha"":5}","[0]","../img/tt/096tt.jpg","",""
"null","<div style=""font-size:60px;""> </div>","null","fixation","html-keyboard-response","377","1201460","0.0-6.0-0.53","2486189","co37855","norming","","","","","","",""
"null","../img/tt/1046tt.jpg","null","mooney1","image-keyboard-response","378","1204467","0.0-6.0-1.53","2486189","co37855","norming","","","","","","",""
"3723.809999999823","","","post_mooney1_questions","survey-likert","379","1208194","0.0-6.0-2.53","2486189","co37855","norming","","","{""curiosity"":6,""confidence"":0}","[0,1]","../img/tt/1046tt.jpg","",""
"781.660000000149","","","recognition","survey-text","380","1208978","0.0-6.0-3.53","2486189","co37855","norming","","","{""guess"":""""}","","../img/tt/1046tt.jpg","",""
"null","../img/gs/1046gs.jpg","null","reveal","image-keyboard-response","381","1210986","0.0-6.0-4.53","2486189","co37855","norming","","","","","","",""
"null","../img/tt/1046tt.jpg","null","mooney2","image-keyboard-response","382","1212988","0.0-6.0-5.53","2486189","co37855","norming","","","","","","",""
"2018.7700000000186","","","post_reveal_questions","survey-likert","383","1215010","0.0-6.0-6.53","2486189","co37855","norming","","","{""aha"":5}","[0]","../img/tt/1046tt.jpg","",""
"null","<div style=""font-size:60px;""> </div>","null","fixation","html-keyboard-response","384","1215213","0.0-6.0-0.54","2486189","co37855","norming","","","","","","",""
"null","../img/tt/517tt.jpg","null","mooney1","image-keyboard-response","385","1218225","0.0-6.0-1.54","2486189","co37855","norming","","","","","","",""
"3406.285000000149","","","post_mooney1_questions","survey-likert","386","1221634","0.0-6.0-2.54","2486189","co37855","norming","","","{""curiosity"":5,""confidence"":2}","[0,1]","../img/tt/517tt.jpg","",""
"1925.8850000000093","","","recognition","survey-text","387","1223562","0.0-6.0-3.54","2486189","co37855","norming","","","{""guess"":""paard""}","","../img/tt/517tt.jpg","",""
"null","../img/gs/517gs.jpg","null","reveal","image-keyboard-response","388","1225572","0.0-6.0-4.54","2486189","co37855","norming","","","","","","",""
"null","../img/tt/517tt.jpg","null","mooney2","image-keyboard-response","389","1227574","0.0-6.0-5.54","2486189","co37855","norming","","","","","","",""
"2689.9000000003725","","","post_reveal_questions","survey-likert","390","1230266","0.0-6.0-6.54","2486189","co37855","norming","","","{""aha"":6}","[0]","../img/tt/517tt.jpg","",""
"null","<div style=""font-size:60px;""> </div>","null","fixation","html-keyboard-response","391","1230467","0.0-6.0-0.55","2486189","co37855","norming","","","","","","",""
"null","../img/tt/1228tt.jpg","null","mooney1","image-keyboard-response","392","1233470","0.0-6.0-1.55","2486189","co37855","norming","","","","","","",""
"3082.6650000000373","","","post_mooney1_questions","survey-likert","393","1236554","0.0-6.0-2.55","2486189","co37855","norming","","","{""curiosity"":6,""confidence"":0}","[0,1]","../img/tt/1228tt.jpg","",""
"957.8450000004377","","","recognition","survey-text","394","1237514","0.0-6.0-3.55","2486189","co37855","norming","","","{""guess"":""""}","","../img/tt/1228tt.jpg","",""
"null","../img/gs/1228gs.jpg","null","reveal","image-keyboard-response","395","1239516","0.0-6.0-4.55","2486189","co37855","norming","","","","","","",""
"null","../img/tt/1228tt.jpg","null","mooney2","image-keyboard-response","396","1241527","0.0-6.0-5.55","2486189","co37855","norming","","","","","","",""
"3032.2049999998417","","","post_reveal_questions","survey-likert","397","1244562","0.0-6.0-6.55","2486189","co37855","norming","","","{""aha"":6}","[0]","../img/tt/1228tt.jpg","",""
"null","<div style=""font-size:60px;""> </div>","null","fixation","html-keyboard-response","398","1244763","0.0-6.0-0.56","2486189","co37855","norming","","","","","","",""
"null","../img/tt/1063tt.jpg","null","mooney1","image-keyboard-response","399","1247774","0.0-6.0-1.56","2486189","co37855","norming","","","","","","",""
"3920.9050000002608","","","post_mooney1_questions","survey-likert","400","1251698","0.0-6.0-2.56","2486189","co37855","norming","","","{""curiosity"":6,""confidence"":0}","[0,1]","../img/tt/1063tt.jpg","",""
"654.0299999997951","","","recognition","survey-text","401","1252354","0.0-6.0-3.56","2486189","co37855","norming","","","{""guess"":""""}","","../img/tt/1063tt.jpg","",""
"null","../img/gs/1063gs.jpg","null","reveal","image-keyboard-response","402","1254357","0.0-6.0-4.56","2486189","co37855","norming","","","","","","",""
"null","../img/tt/1063tt.jpg","null","mooney2","image-keyboard-response","403","1256368","0.0-6.0-5.56","2486189","co37855","norming","","","","","","",""
"2647.350000000093","","","post_reveal_questions","survey-likert","404","1259018","0.0-6.0-6.56","2486189","co37855","norming","","","{""aha"":4}","[0]","../img/tt/1063tt.jpg","",""
"null","<div style=""font-size:60px;""> </div>","null","fixation","html-keyboard-response","405","1259228","0.0-6.0-0.57","2486189","co37855","norming","","","","","","",""
"null","../img/tt/1237tt.jpg","null","mooney1","image-keyboard-response","406","1262238","0.0-6.0-1.57","2486189","co37855","norming","","","","","","",""
"4815.129999999888","","","post_mooney1_questions","survey-likert","407","1267056","0.0-6.0-2.57","2486189","co37855","norming","","","{""curiosity"":5,""confidence"":2}","[0,1]","../img/tt/1237tt.jpg","",""
"1598.424999999581","","","recognition","survey-text","408","1268656","0.0-6.0-3.57","2486189","co37855","norming","","","{""guess"":""zee""}","","../img/tt/1237tt.jpg","",""
"null","../img/gs/1237gs.jpg","null","reveal","image-keyboard-response","409","1270666","0.0-6.0-4.57","2486189","co37855","norming","","","","","","",""
"null","../img/tt/1237tt.jpg","null","mooney2","image-keyboard-response","410","1272677","0.0-6.0-5.57","2486189","co37855","norming","","","","","","",""
"3240.6700000001583","","","post_reveal_questions","survey-likert","411","1275920","0.0-6.0-6.57","2486189","co37855","norming","","","{""aha"":4}","[0]","../img/tt/1237tt.jpg","",""
"null","<div style=""font-size:60px;""> </div>","null","fixation","html-keyboard-response","412","1276128","0.0-6.0-0.58","2486189","co37855","norming","","","","","","",""
"null","../img/tt/1151tt.jpg","null","mooney1","image-keyboard-response","413","1279135","0.0-6.0-1.58","2486189","co37855","norming","","","","","","",""
"6677.59999999986","","","post_mooney1_questions","survey-likert","414","1285816","0.0-6.0-2.58","2486189","co37855","norming","","","{""curiosity"":6,""confidence"":0}","[0,1]","../img/tt/1151tt.jpg","",""
"2230.3899999998976","","","recognition","survey-text","415","1288048","0.0-6.0-3.58","2486189","co37855","norming","","","{""guess"":""steenbok""}","","../img/tt/1151tt.jpg","",""
"null","../img/gs/1151gs.jpg","null","reveal","image-keyboard-response","416","1290059","0.0-6.0-4.58","2486189","co37855","norming","","","","","","",""
"null","../img/tt/1151tt.jpg","null","mooney2","image-keyboard-response","417","1292062","0.0-6.0-5.58","2486189","co37855","norming","","","","","","",""
"2487.7050000000745","","","post_reveal_questions","survey-likert","418","1294552","0.0-6.0-6.58","2486189","co37855","norming","","","{""aha"":5}","[0]","../img/tt/1151tt.jpg","",""
"null","<div style=""font-size:60px;""> </div>","null","fixation","html-keyboard-response","419","1294762","0.0-6.0-0.59","2486189","co37855","norming","","","","","","",""
"null","../img/tt/1254tt.jpg","null","mooney1","image-keyboard-response","420","1297765","0.0-6.0-1.59","2486189","co37855","norming","","","","","","",""
"4056.1450000000186","","","post_mooney1_questions","survey-likert","421","1301824","0.0-6.0-2.59","2486189","co37855","norming","","","{""curiosity"":5,""confidence"":3}","[0,1]","../img/tt/1254tt.jpg","",""
"4205.9199999999255","","","recognition","survey-text","422","1306032","0.0-6.0-3.59","2486189","co37855","norming","","","{""guess"":""konijn""}","","../img/tt/1254tt.jpg","",""
"null","../img/gs/1254gs.jpg","null","reveal","image-keyboard-response","423","1308033","0.0-6.0-4.59","2486189","co37855","norming","","","","","","",""
"null","../img/tt/1254tt.jpg","null","mooney2","image-keyboard-response","424","1310036","0.0-6.0-5.59","2486189","co37855","norming","","","","","","",""
"2267.119999999879","","","post_reveal_questions","survey-likert","425","1312304","0.0-6.0-6.59","2486189","co37855","norming","","","{""aha"":2}","[0]","../img/tt/1254tt.jpg","",""
"null","<div style=""font-size:60px;""> </div>","null","fixation","html-keyboard-response","426","1312507","0.0-6.0-0.60","2486189","co37855","norming","","","","","","",""
"null","../img/tt/076tt.jpg","null","mooney1","image-keyboard-response","427","1315510","0.0-6.0-1.60","2486189","co37855","norming","","","","","","",""
"3183.2650000001304","","","post_mooney1_questions","survey-likert","428","1318696","0.0-6.0-2.60","2486189","co37855","norming","","","{""curiosity"":4,""confidence"":3}","[0,1]","../img/tt/076tt.jpg","",""
"4454.255000000121","","","recognition","survey-text","429","1323148","0.0-6.0-3.60","2486189","co37855","norming","","","{""guess"":""rolschaats""}","","../img/tt/076tt.jpg","",""
"null","../img/gs/076gs.jpg","null","reveal","image-keyboard-response","430","1325150","0.0-6.0-4.60","2486189","co37855","norming","","","","","","",""
"null","../img/tt/076tt.jpg","null","mooney2","image-keyboard-response","431","1327152","0.0-6.0-5.60","2486189","co37855","norming","","","","","","",""
"2537.809999999823","","","post_reveal_questions","survey-likert","432","1329692","0.0-6.0-6.60","2486189","co37855","norming","","","{""aha"":1}","[0]","../img/tt/076tt.jpg","",""
"null","<div style=""font-size:60px;""> </div>","null","fixation","html-keyboard-response","433","1329899","0.0-6.0-0.61","2486189","co37855","norming","","","","","","",""
"null","../img/tt/1199tt.jpg","null","mooney1","image-keyboard-response","434","1332903","0.0-6.0-1.61","2486189","co37855","norming","","","","","","",""
"3257.7299999997485","","","post_mooney1_questions","survey-likert","435","1336164","0.0-6.0-2.61","2486189","co37855","norming","","","{""curiosity"":4,""confidence"":4}","[0,1]","../img/tt/1199tt.jpg","",""
"2182.6949999998324","","","recognition","survey-text","436","1338348","0.0-6.0-3.61","2486189","co37855","norming","","","{""guess"":""mens""}","","../img/tt/1199tt.jpg","",""
"null","../img/gs/1199gs.jpg","null","reveal","image-keyboard-response","437","1340350","0.0-6.0-4.61","2486189","co37855","norming","","","","","","",""
"null","../img/tt/1199tt.jpg","null","mooney2","image-keyboard-response","438","1342357","0.0-6.0-5.61","2486189","co37855","norming","","","","","","",""
"2340.560000000056","","","post_reveal_questions","survey-likert","439","1344700","0.0-6.0-6.61","2486189","co37855","norming","","","{""aha"":3}","[0]","../img/tt/1199tt.jpg","",""
"null","<div style=""font-size:60px;""> </div>","null","fixation","html-keyboard-response","440","1344907","0.0-6.0-0.62","2486189","co37855","norming","","","","","","",""
"null","../img/tt/1118tt.jpg","null","mooney1","image-keyboard-response","441","1347912","0.0-6.0-1.62","2486189","co37855","norming","","","","","","",""
"3817.0099999997765","","","post_mooney1_questions","survey-likert","442","1351732","0.0-6.0-2.62","2486189","co37855","norming","","","{""curiosity"":5,""confidence"":2}","[0,1]","../img/tt/1118tt.jpg","",""
"1462.0850000001956","","","recognition","survey-text","443","1353196","0.0-6.0-3.62","2486189","co37855","norming","","","{""guess"":""beer""}","","../img/tt/1118tt.jpg","",""
"null","../img/gs/1118gs.jpg","null","reveal","image-keyboard-response","444","1355206","0.0-6.0-4.62","2486189","co37855","norming","","","","","","",""
"null","../img/tt/1118tt.jpg","null","mooney2","image-keyboard-response","445","1357216","0.0-6.0-5.62","2486189","co37855","norming","","","","","","",""
"2417.5099999997765","","","post_reveal_questions","survey-likert","446","1359636","0.0-6.0-6.62","2486189","co37855","norming","","","{""aha"":4}","[0]","../img/tt/1118tt.jpg","",""
"null","<div style=""font-size:60px;""> </div>","null","fixation","html-keyboard-response","447","1359838","0.0-6.0-0.63","2486189","co37855","norming","","","","","","",""
"null","../img/tt/497tt.jpg","null","mooney1","image-keyboard-response","448","1362842","0.0-6.0-1.63","2486189","co37855","norming","","","","","","",""
"2910.904999999795","","","post_mooney1_questions","survey-likert","449","1365756","0.0-6.0-2.63","2486189","co37855","norming","","","{""curiosity"":4,""confidence"":2}","[0,1]","../img/tt/497tt.jpg","",""
"4349.945000000065","","","recognition","survey-text","450","1370108","0.0-6.0-3.63","2486189","co37855","norming","","","{""guess"":""boogschutter""}","","../img/tt/497tt.jpg","",""
"null","../img/gs/497gs.jpg","null","reveal","image-keyboard-response","451","1372113","0.0-6.0-4.63","2486189","co37855","norming","","","","","","",""
"null","../img/tt/497tt.jpg","null","mooney2","image-keyboard-response","452","1374115","0.0-6.0-5.63","2486189","co37855","norming","","","","","","",""
"2174.2349999998696","","","post_reveal_questions","survey-likert","453","1376292","0.0-6.0-6.63","2486189","co37855","norming","","","{""aha"":6}","[0]","../img/tt/497tt.jpg","",""
"null","<div style=""font-size:60px;""> </div>","null","fixation","html-keyboard-response","454","1376493","0.0-6.0-0.64","2486189","co37855","norming","","","","","","",""
"null","../img/tt/329tt.jpg","null","mooney1","image-keyboard-response","455","1379503","0.0-6.0-1.64","2486189","co37855","norming","","","","","","",""
"3484.035000000382","","","post_mooney1_questions","survey-likert","456","1382989","0.0-6.0-2.64","2486189","co37855","norming","","","{""curiosity"":6,""confidence"":0}","[0,1]","../img/tt/329tt.jpg","",""
"709.9750000000931","","","recognition","survey-text","457","1383701","0.0-6.0-3.64","2486189","co37855","norming","","","{""guess"":""""}","","../img/tt/329tt.jpg","",""
"null","../img/gs/329gs.jpg","null","reveal","image-keyboard-response","458","1385708","0.0-6.0-4.64","2486189","co37855","norming","","","","","","",""
"null","../img/tt/329tt.jpg","null","mooney2","image-keyboard-response","459","1387718","0.0-6.0-5.64","2486189","co37855","norming","","","","","","",""
"2901.0049999998882","","","post_reveal_questions","survey-likert","460","1390621","0.0-6.0-6.64","2486189","co37855","norming","","","{""aha"":6}","[0]","../img/tt/329tt.jpg","",""
"null","<div style=""font-size:60px;""> </div>","null","fixation","html-keyboard-response","461","1390825","0.0-6.0-0.65","2486189","co37855","norming","","","","","","",""
"null","../img/tt/300tt.jpg","null","mooney1","image-keyboard-response","462","1393838","0.0-6.0-1.65","2486189","co37855","norming","","","","","","",""
"2820.244999999879","","","post_mooney1_questions","survey-likert","463","1396661","0.0-6.0-2.65","2486189","co37855","norming","","","{""curiosity"":6,""confidence"":0}","[0,1]","../img/tt/300tt.jpg","",""
"1622.0100000000093","","","recognition","survey-text","464","1398285","0.0-6.0-3.65","2486189","co37855","norming","","","{""guess"":""""}","","../img/tt/300tt.jpg","",""
"null","../img/gs/300gs.jpg","null","reveal","image-keyboard-response","465","1400292","0.0-6.0-4.65","2486189","co37855","norming","","","","","","",""
"null","../img/tt/300tt.jpg","null","mooney2","image-keyboard-response","466","1402296","0.0-6.0-5.65","2486189","co37855","norming","","","","","","",""
"2626.3499999998603","","","post_reveal_questions","survey-likert","467","1404925","0.0-6.0-6.65","2486189","co37855","norming","","","{""aha"":6}","[0]","../img/tt/300tt.jpg","",""
"null","<div style=""font-size:60px;""> </div>","null","fixation","html-keyboard-response","468","1405127","0.0-6.0-0.66","2486189","co37855","norming","","","","","","",""
"null","../img/tt/1033tt.jpg","null","mooney1","image-keyboard-response","469","1408133","0.0-6.0-1.66","2486189","co37855","norming","","","","","","",""
"3557.064999999944","","","post_mooney1_questions","survey-likert","470","1411693","0.0-6.0-2.66","2486189","co37855","norming","","","{""curiosity"":5,""confidence"":1}","[0,1]","../img/tt/1033tt.jpg","",""
"1933.9449999995995","","","recognition","survey-text","471","1413629","0.0-6.0-3.66","2486189","co37855","norming","","","{""guess"":""mens""}","","../img/tt/1033tt.jpg","",""
"null","../img/gs/1033gs.jpg","null","reveal","image-keyboard-response","472","1415631","0.0-6.0-4.66","2486189","co37855","norming","","","","","","",""
"null","../img/tt/1033tt.jpg","null","mooney2","image-keyboard-response","473","1417634","0.0-6.0-5.66","2486189","co37855","norming","","","","","","",""
"2464.8950000000186","","","post_reveal_questions","survey-likert","474","1420101","0.0-6.0-6.66","2486189","co37855","norming","","","{""aha"":5}","[0]","../img/tt/1033tt.jpg","",""
"null","<div style=""font-size:60px;""> </div>","null","fixation","html-keyboard-response","475","1420310","0.0-6.0-0.67","2486189","co37855","norming","","","","","","",""
"null","../img/tt/1262tt.jpg","null","mooney1","image-keyboard-response","476","1423320","0.0-6.0-1.67","2486189","co37855","norming","","","","","","",""
"4497.429999999935","","","post_mooney1_questions","survey-likert","477","1427821","0.0-6.0-2.67","2486189","co37855","norming","","","{""curiosity"":5,""confidence"":3}","[0,1]","../img/tt/1262tt.jpg","",""
"2894.0449999999255","","","recognition","survey-text","478","1430717","0.0-6.0-3.67","2486189","co37855","norming","","","{""guess"":""paard""}","","../img/tt/1262tt.jpg","",""
"null","../img/gs/1262gs.jpg","null","reveal","image-keyboard-response","479","1432723","0.0-6.0-4.67","2486189","co37855","norming","","","","","","",""
"null","../img/tt/1262tt.jpg","null","mooney2","image-keyboard-response","480","1434733","0.0-6.0-5.67","2486189","co37855","norming","","","","","","",""
"3501.369999999879","","","post_reveal_questions","survey-likert","481","1438237","0.0-6.0-6.67","2486189","co37855","norming","","","{""aha"":5}","[0]","../img/tt/1262tt.jpg","",""
"null","<div style=""font-size:60px;""> </div>","null","fixation","html-keyboard-response","482","1438447","0.0-6.0-0.68","2486189","co37855","norming","","","","","","",""
"null","../img/tt/438tt.jpg","null","mooney1","image-keyboard-response","483","1441455","0.0-6.0-1.68","2486189","co37855","norming","","","","","","",""
"2765.285000000149","","","post_mooney1_questions","survey-likert","484","1444228","0.0-6.0-2.68","2486189","co37855","norming","","","{""curiosity"":6,""confidence"":0}","[0,1]","../img/tt/438tt.jpg","",""
"2494.2000000001863","","","recognition","survey-text","485","1446724","0.0-6.0-3.68","2486189","co37855","norming","","","{""guess"":""krokodil""}","","../img/tt/438tt.jpg","",""
"null","../img/gs/438gs.jpg","null","reveal","image-keyboard-response","486","1448731","0.0-6.0-4.68","2486189","co37855","norming","","","","","","",""
"null","../img/tt/438tt.jpg","null","mooney2","image-keyboard-response","487","1450742","0.0-6.0-5.68","2486189","co37855","norming","","","","","","",""
"3122.8799999998882","","","post_reveal_questions","survey-likert","488","1453868","0.0-6.0-6.68","2486189","co37855","norming","","","{""aha"":4}","[0]","../img/tt/438tt.jpg","",""
"null","<div style=""font-size:60px;""> </div>","null","fixation","html-keyboard-response","489","1454075","0.0-6.0-0.69","2486189","co37855","norming","","","","","","",""
"null","../img/tt/1171tt.jpg","null","mooney1","image-keyboard-response","490","1457086","0.0-6.0-1.69","2486189","co37855","norming","","","","","","",""
"5418.734999999637","","","post_mooney1_questions","survey-likert","491","1462508","0.0-6.0-2.69","2486189","co37855","norming","","","{""curiosity"":5,""confidence"":2}","[0,1]","../img/tt/1171tt.jpg","",""
"3782.399999999674","","","recognition","survey-text","492","1466292","0.0-6.0-3.69","2486189","co37855","norming","","","{""guess"":""hond""}","","../img/tt/1171tt.jpg","",""
"null","../img/gs/1171gs.jpg","null","reveal","image-keyboard-response","493","1468298","0.0-6.0-4.69","2486189","co37855","norming","","","","","","",""
"null","../img/tt/1171tt.jpg","null","mooney2","image-keyboard-response","494","1470301","0.0-6.0-5.69","2486189","co37855","norming","","","","","","",""
"2406.2299999999814","","","post_reveal_questions","survey-likert","495","1472709","0.0-6.0-6.69","2486189","co37855","norming","","","{""aha"":5}","[0]","../img/tt/1171tt.jpg","",""
"null","<div style=""font-size:60px;""> </div>","null","fixation","html-keyboard-response","496","1472914","0.0-6.0-0.70","2486189","co37855","norming","","","","","","",""
"null","../img/tt/273tt.jpg","null","mooney1","image-keyboard-response","497","1475921","0.0-6.0-1.70","2486189","co37855","norming","","","","","","",""
"4319.799999999814","","","post_mooney1_questions","survey-likert","498","1480244","0.0-6.0-2.70","2486189","co37855","norming","","","{""curiosity"":4,""confidence"":2}","[0,1]","../img/tt/273tt.jpg","",""
"1805.9950000003446","","","recognition","survey-text","499","1482052","0.0-6.0-3.70","2486189","co37855","norming","","","{""guess"":""paard""}","","../img/tt/273tt.jpg","",""
"null","../img/gs/273gs.jpg","null","reveal","image-keyboard-response","500","1484053","0.0-6.0-4.70","2486189","co37855","norming","","","","","","",""
"null","../img/tt/273tt.jpg","null","mooney2","image-keyboard-response","501","1486056","0.0-6.0-5.70","2486189","co37855","norming","","","","","","",""
"2328.605000000214","","","post_reveal_questions","survey-likert","502","1488388","0.0-6.0-6.70","2486189","co37855","norming","","","{""aha"":5}","[0]","../img/tt/273tt.jpg","",""
"null","<div style=""font-size:60px;""> </div>","null","fixation","html-keyboard-response","503","1488593","0.0-6.0-0.71","2486189","co37855","norming","","","","","","",""
"null","../img/tt/1148tt.jpg","null","mooney1","image-keyboard-response","504","1491604","0.0-6.0-1.71","2486189","co37855","norming","","","","","","",""
"3589.059999999823","","","post_mooney1_questions","survey-likert","505","1495196","0.0-6.0-2.71","2486189","co37855","norming","","","{""curiosity"":5,""confidence"":2}","[0,1]","../img/tt/1148tt.jpg","",""
"1286.065000000177","","","recognition","survey-text","506","1496484","0.0-6.0-3.71","2486189","co37855","norming","","","{""guess"":""""}","","../img/tt/1148tt.jpg","",""
"null","../img/gs/1148gs.jpg","null","reveal","image-keyboard-response","507","1498486","0.0-6.0-4.71","2486189","co37855","norming","","","","","","",""
"null","../img/tt/1148tt.jpg","null","mooney2","image-keyboard-response","508","1500488","0.0-6.0-5.71","2486189","co37855","norming","","","","","","",""
"2185.4699999997392","","","post_reveal_questions","survey-likert","509","1502677","0.0-6.0-6.71","2486189","co37855","norming","","","{""aha"":6}","[0]","../img/tt/1148tt.jpg","",""
"null","<div style=""font-size:60px;""> </div>","null","fixation","html-keyboard-response","510","1502884","0.0-6.0-0.72","2486189","co37855","norming","","","","","","",""
"null","../img/tt/1290tt.jpg","null","mooney1","image-keyboard-response","511","1505890","0.0-6.0-1.72","2486189","co37855","norming","","","","","","",""
"2775.4749999998603","","","post_mooney1_questions","survey-likert","512","1508669","0.0-6.0-2.72","2486189","co37855","norming","","","{""curiosity"":5,""confidence"":2}","[0,1]","../img/tt/1290tt.jpg","",""
"1605.9249999998137","","","recognition","survey-text","513","1510277","0.0-6.0-3.72","2486189","co37855","norming","","","{""guess"":""mens""}","","../img/tt/1290tt.jpg","",""
"null","../img/gs/1290gs.jpg","null","reveal","image-keyboard-response","514","1512283","0.0-6.0-4.72","2486189","co37855","norming","","","","","","",""
"null","../img/tt/1290tt.jpg","null","mooney2","image-keyboard-response","515","1514285","0.0-6.0-5.72","2486189","co37855","norming","","","","","","",""
"2108.595000000205","","","post_reveal_questions","survey-likert","516","1516397","0.0-6.0-6.72","2486189","co37855","norming","","","{""aha"":6}","[0]","../img/tt/1290tt.jpg","",""
"null","<div style=""font-size:60px;""> </div>","null","fixation","html-keyboard-response","517","1516607","0.0-6.0-0.73","2486189","co37855","norming","","","","","","",""
"null","../img/tt/1196tt.jpg","null","mooney1","image-keyboard-response","518","1519613","0.0-6.0-1.73","2486189","co37855","norming","","","","","","",""
"9587.959999999963","","","post_mooney1_questions","survey-likert","519","1529205","0.0-6.0-2.73","2486189","co37855","norming","","","{""curiosity"":4,""confidence"":2}","[0,1]","../img/tt/1196tt.jpg","",""
"2014.0049999998882","","","recognition","survey-text","520","1531221","0.0-6.0-3.73","2486189","co37855","norming","","","{""guess"":""mens""}","","../img/tt/1196tt.jpg","",""
"null","../img/gs/1196gs.jpg","null","reveal","image-keyboard-response","521","1533231","0.0-6.0-4.73","2486189","co37855","norming","","","","","","",""
"null","../img/tt/1196tt.jpg","null","mooney2","image-keyboard-response","522","1535241","0.0-6.0-5.73","2486189","co37855","norming","","","","","","",""
"1761.2650000001304","","","post_reveal_questions","survey-likert","523","1537005","0.0-6.0-6.73","2486189","co37855","norming","","","{""aha"":4}","[0]","../img/tt/1196tt.jpg","",""
"null","<div style=""font-size:60px;""> </div>","null","fixation","html-keyboard-response","524","1537207","0.0-6.0-0.74","2486189","co37855","norming","","","","","","",""
"null","../img/tt/108tt.jpg","null","mooney1","image-keyboard-response","525","1540209","0.0-6.0-1.74","2486189","co37855","norming","","","","","","",""
"3392.070000000065","","","post_mooney1_questions","survey-likert","526","1543605","0.0-6.0-2.74","2486189","co37855","norming","","","{""curiosity"":6,""confidence"":0}","[0,1]","../img/tt/108tt.jpg","",""
"830.190000000177","","","recognition","survey-text","527","1544436","0.0-6.0-3.74","2486189","co37855","norming","","","{""guess"":""""}","","../img/tt/108tt.jpg","",""
"null","../img/gs/108gs.jpg","null","reveal","image-keyboard-response","528","1546439","0.0-6.0-4.74","2486189","co37855","norming","","","","","","",""
"null","../img/tt/108tt.jpg","null","mooney2","image-keyboard-response","529","1548450","0.0-6.0-5.74","2486189","co37855","norming","","","","","","",""
"2624.024999999907","","","post_reveal_questions","survey-likert","530","1551076","0.0-6.0-6.74","2486189","co37855","norming","","","{""aha"":5}","[0]","../img/tt/108tt.jpg","",""
"null","<div style=""font-size:60px;""> </div>","null","fixation","html-keyboard-response","531","1551278","0.0-6.0-0.75","2486189","co37855","norming","","","","","","",""
"null","../img/tt/522tt.jpg","null","mooney1","image-keyboard-response","532","1554287","0.0-6.0-1.75","2486189","co37855","norming","","","","","","",""
"3329.989999999758","","","post_mooney1_questions","survey-likert","533","1557621","0.0-6.0-2.75","2486189","co37855","norming","","","{""curiosity"":6,""confidence"":0}","[0,1]","../img/tt/522tt.jpg","",""
"958.3449999999721","","","recognition","survey-text","534","1558580","0.0-6.0-3.75","2486189","co37855","norming","","","{""guess"":""""}","","../img/tt/522tt.jpg","",""
"null","../img/gs/522gs.jpg","null","reveal","image-keyboard-response","535","1560583","0.0-6.0-4.75","2486189","co37855","norming","","","","","","",""
"null","../img/tt/522tt.jpg","null","mooney2","image-keyboard-response","536","1562590","0.0-6.0-5.75","2486189","co37855","norming","","","","","","",""
"3931.850000000559","","","post_reveal_questions","survey-likert","537","1566519","0.0-6.0-6.75","2486189","co37855","norming","","","{""aha"":4}","[0]","../img/tt/522tt.jpg","",""
"null","<div style=""font-size:60px;""> </div>","null","fixation","html-keyboard-response","538","1566720","0.0-6.0-0.76","2486189","co37855","norming","","","","","","",""
"null","../img/tt/1190tt.jpg","null","mooney1","image-keyboard-response","539","1569723","0.0-6.0-1.76","2486189","co37855","norming","","","","","","",""
"3384.4150000000373","","","post_mooney1_questions","survey-likert","540","1573111","0.0-6.0-2.76","2486189","co37855","norming","","","{""curiosity"":5,""confidence"":1}","[0,1]","../img/tt/1190tt.jpg","",""
"1894.089999999851","","","recognition","survey-text","541","1575007","0.0-6.0-3.76","2486189","co37855","norming","","","{""guess"":""paard""}","","../img/tt/1190tt.jpg","",""
"null","../img/gs/1190gs.jpg","null","reveal","image-keyboard-response","542","1577008","0.0-6.0-4.76","2486189","co37855","norming","","","","","","",""
"null","../img/tt/1190tt.jpg","null","mooney2","image-keyboard-response","543","1579011","0.0-6.0-5.76","2486189","co37855","norming","","","","","","",""
"1880.2900000000373","","","post_reveal_questions","survey-likert","544","1580895","0.0-6.0-6.76","2486189","co37855","norming","","","{""aha"":4}","[0]","../img/tt/1190tt.jpg","",""
"null","<div style=""font-size:60px;""> </div>","null","fixation","html-keyboard-response","545","1581103","0.0-6.0-0.77","2486189","co37855","norming","","","","","","",""
"null","../img/tt/1260tt.jpg","null","mooney1","image-keyboard-response","546","1584112","0.0-6.0-1.77","2486189","co37855","norming","","","","","","",""
"6067.070000000065","","","post_mooney1_questions","survey-likert","547","1590183","0.0-6.0-2.77","2486189","co37855","norming","","","{""curiosity"":6,""confidence"":0}","[0,1]","../img/tt/1260tt.jpg","",""
"1069.9250000002794","","","recognition","survey-text","548","1591254","0.0-6.0-3.77","2486189","co37855","norming","","","{""guess"":""""}","","../img/tt/1260tt.jpg","",""
"null","../img/gs/1260gs.jpg","null","reveal","image-keyboard-response","549","1593260","0.0-6.0-4.77","2486189","co37855","norming","","","","","","",""
"null","../img/tt/1260tt.jpg","null","mooney2","image-keyboard-response","550","1595263","0.0-6.0-5.77","2486189","co37855","norming","","","","","","",""
"1629.065000000177","","","post_reveal_questions","survey-likert","551","1596895","0.0-6.0-6.77","2486189","co37855","norming","","","{""aha"":5}","[0]","../img/tt/1260tt.jpg","",""
"null","<div style=""font-size:60px;""> </div>","null","fixation","html-keyboard-response","552","1597101","0.0-6.0-0.78","2486189","co37855","norming","","","","","","",""
