"rt","stimulus","key_press","test_part","trial_type","trial_index","time_elapsed","internal_node_id","totalTime","subject","experiment_name","button_pressed","success","responses","question_order","currentStim","old","correct"
"18301.14500000002","Welcome to the experiment. This is an online experiment so please don't close the tab/window until we say goodbye.  Press any key to begin.","32","instructions","html-keyboard-response","0","18316","0.0-0.0","2945997","co37927","norming","","","","","","",""
"18766.214999999993","<div style='word-wrap: break-word; width: 900px'><h3>Please consider this information carefully before deciding whether to participate in this research</h3><ul style='text-align: left; font-size: .8em;'><li><b>Purpose of the research</b>: To examine how people process images.</li><li><b>What you will do in this research</b>:  Stimuli (images) will be presented on the computer and you will be asked different questions about them.</li><li><b>Time required</b>: Participation will take between 45 and 60 minutes to complete.</li><li><b>Risks</b>:  There are no anticipated risks associated with participating in this study. The effects of participating should be comparable to those you would experience from viewing a computer monitor for 30 minutes and using a mouse or keyboard.</li><li><b>Benefits</b>:  This study provides no benefits to you individually except for the credit. The study provides important information about the nature of perception and learning.</li><li><b>Confidentiality</b>:  Your participation in this study will remain confidential. No personally identifiable information will be associated with your data. Your de-identified data may be shared with other researchers and used in future projects.</li><li><b>Participation and withdrawal</b>:  Your participation in this study is completely voluntary and you may refuse to participate or you may choose to withdraw at any time without penalty.</li><li><b>How to contact the researchers</b>: If you have questions or concerns about your participation or payment, or want to request a summary of research findings, please contact Sander Van de Cruys (KU Leuven), at sander.vandecruys@kuleuven.be.</li></ul><p>The nature and purpose of this research have been sufficiently explained and I agree to participate in this study.  I understand that I am free to withdraw at any time without incurring any penalty.</p><p>Please consent by clicking the button below to continue. Otherwise, please exit the study at this time.</p></div>","","instructions","html-button-response","1","36860","0.0-1.0","2945997","co37927","norming","0","","","","","",""
"","","","instructions","fullscreen","2","41166","0.0-2.0","2945997","co37927","norming","","true","","","","",""
"50349.305000000015","","","sona","survey-html-form","3","91517","0.0-3.0","2945997","co37927","norming","","","[{""name"":""sonaid"",""value"":""37927""},{""name"":""debrief"",""value"":""yes""},{""name"":""datajoin"",""value"":""yes""}]","","","",""
"72320.03500000006","<div style='word-wrap: break-word; width: 900px'><h3>Instructions</h3><p>This experiment will have 3 parts. In the first part you will see a series of distorted images like the one below on the left. As you can see in the righthand image, the distorted images are derived from actual photographs. In what follows, you will <strong>briefly</strong> be presented with <strong>only</strong> the distorted image.</p> <div style='float: left; margin-right: 20px;'><img src='../img/018tt.jpg' height='250' width='250'></img></div><div style='float: right; margin-left: 20px;'><img src='../img/018gs.jpg' height='250' width='250'></img></div><p>Subsequently you will be asked a few questions about the image: One question on how <strong>curious</strong> you are about the solution and one on how <strong>confident</strong> you are that you know the solution.</p>Next, we ask you to make a guess on what is in the image. Note that it is OK to name just the <strong>basic level category</strong>. For example when you see a parrot in the image, 'parrot' will obviously be a correct answer but also correct is 'bird'. However, 'animal' will <strong>not</strong> be counted as a correct response. For the example above, 'rose' would be correct or 'flower', but not 'plant'. When soccer players are depicted, 'soccer', 'football', 'soccer players' will be correct, but not 'humans', 'outdoors', or 'sports'. You do not need to describe the image in full, just name the main object in it <strong>in one or two words</strong>. All images depict objects from one of the following broad level categories: animals, inanimate objects, plants, sports, vehicles, and food. Recognizing means knowing <strong>more</strong> than these broad labels for a given image. But we always encourage you to <strong>make a guess</strong> if you can. Note that you are allowed to use <strong>Dutch and English</strong> in your answers, whatever comes easiest for you.</p><p>Press any key to continue.</p></div>","32","instructions","html-keyboard-response","4","163454","0.0-4.0","2945997","co37927","norming","","","","","","",""
"62108.245000000024","<div style='word-wrap: break-word; width: 900px'><h3>Instructions</h3> <p>Next, the solution image will be revealed to you and you'll be asked to indicate how strong your <strong>aha-experience</strong> was after seeing the solution. This describes the positive feeling of the 'click' you sometimes experience, when the pieces of the 'puzzle' fall together and you suddenly have 'insight' in the image.</p><img src='aha.jpg' height='188' width='250'></img><p>Note that there are no right or wrong answers. We are interested in what <strong>you</strong> see in the image and how <strong>you</strong> feel about it.</p><p>Press any key to start the experiment.</p></div>","32","instructions","html-keyboard-response","5","225371","0.0-5.0","2945997","co37927","norming","","","","","","",""
"null","<div style=""font-size:60px;""> </div>","null","fixation","html-keyboard-response","6","225578","0.0-6.0-0.0","2945997","co37927","norming","","","","","","",""
"null","../img/tt/084tt.jpg","null","mooney1","image-keyboard-response","7","228589","0.0-6.0-1.0","2945997","co37927","norming","","","","","","",""
"15563.054999999964","","","post_mooney1_questions","survey-likert","8","244155","0.0-6.0-2.0","2945997","co37927","norming","","","{""curiosity"":3,""confidence"":1}","[0,1]","../img/tt/084tt.jpg","",""
"7173.495000000024","","","recognition","survey-text","9","251331","0.0-6.0-3.0","2945997","co37927","norming","","","{""guess"":""vogel""}","","../img/tt/084tt.jpg","",""
"null","../img/gs/084gs.jpg","null","reveal","image-keyboard-response","10","253341","0.0-6.0-4.0","2945997","co37927","norming","","","","","","",""
"null","../img/tt/084tt.jpg","null","mooney2","image-keyboard-response","11","255345","0.0-6.0-5.0","2945997","co37927","norming","","","","","","",""
"6815.565000000002","","","post_reveal_questions","survey-likert","12","262163","0.0-6.0-6.0","2945997","co37927","norming","","","{""aha"":2}","[0]","../img/tt/084tt.jpg","",""
"null","<div style=""font-size:60px;""> </div>","null","fixation","html-keyboard-response","13","262366","0.0-6.0-0.1","2945997","co37927","norming","","","","","","",""
"null","../img/tt/590tt.jpg","null","mooney1","image-keyboard-response","14","265375","0.0-6.0-1.1","2945997","co37927","norming","","","","","","",""
"9025.569999999949","","","post_mooney1_questions","survey-likert","15","274403","0.0-6.0-2.1","2945997","co37927","norming","","","{""curiosity"":4,""confidence"":1}","[0,1]","../img/tt/590tt.jpg","",""
"3557.9599999999627","","","recognition","survey-text","16","277963","0.0-6.0-3.1","2945997","co37927","norming","","","{""guess"":""tafel""}","","../img/tt/590tt.jpg","",""
"null","../img/gs/590gs.jpg","null","reveal","image-keyboard-response","17","279967","0.0-6.0-4.1","2945997","co37927","norming","","","","","","",""
"null","../img/tt/590tt.jpg","null","mooney2","image-keyboard-response","18","281975","0.0-6.0-5.1","2945997","co37927","norming","","","","","","",""
"3897.9649999999674","","","post_reveal_questions","survey-likert","19","285785","0.0-6.0-6.1","2945997","co37927","norming","","","{""aha"":5}","[0]","../img/tt/590tt.jpg","",""
"null","<div style=""font-size:60px;""> </div>","null","fixation","html-keyboard-response","20","285988","0.0-6.0-0.2","2945997","co37927","norming","","","","","","",""
"null","../img/tt/456tt.jpg","null","mooney1","image-keyboard-response","21","288996","0.0-6.0-1.2","2945997","co37927","norming","","","","","","",""
"6442.199999999953","","","post_mooney1_questions","survey-likert","22","295441","0.0-6.0-2.2","2945997","co37927","norming","","","{""curiosity"":2,""confidence"":3}","[0,1]","../img/tt/456tt.jpg","",""
"3133.9500000000116","","","recognition","survey-text","23","298576","0.0-6.0-3.2","2945997","co37927","norming","","","{""guess"":""berg""}","","../img/tt/456tt.jpg","",""
"null","../img/gs/456gs.jpg","null","reveal","image-keyboard-response","24","300578","0.0-6.0-4.2","2945997","co37927","norming","","","","","","",""
"null","../img/tt/456tt.jpg","null","mooney2","image-keyboard-response","25","302584","0.0-6.0-5.2","2945997","co37927","norming","","","","","","",""
"3823.195000000065","","","post_reveal_questions","survey-likert","26","306409","0.0-6.0-6.2","2945997","co37927","norming","","","{""aha"":4}","[0]","../img/tt/456tt.jpg","",""
"null","<div style=""font-size:60px;""> </div>","null","fixation","html-keyboard-response","27","306617","0.0-6.0-0.3","2945997","co37927","norming","","","","","","",""
"null","../img/tt/007tt.jpg","null","mooney1","image-keyboard-response","28","309627","0.0-6.0-1.3","2945997","co37927","norming","","","","","","",""
"5115.72000000003","","","post_mooney1_questions","survey-likert","29","314745","0.0-6.0-2.3","2945997","co37927","norming","","","{""curiosity"":4,""confidence"":2}","[0,1]","../img/tt/007tt.jpg","",""
"2894.4800000000396","","","recognition","survey-text","30","317641","0.0-6.0-3.3","2945997","co37927","norming","","","{""guess"":""kikker""}","","../img/tt/007tt.jpg","",""
"null","../img/gs/007gs.jpg","null","reveal","image-keyboard-response","31","319647","0.0-6.0-4.3","2945997","co37927","norming","","","","","","",""
"null","../img/tt/007tt.jpg","null","mooney2","image-keyboard-response","32","321656","0.0-6.0-5.3","2945997","co37927","norming","","","","","","",""
"4463.634999999951","","","post_reveal_questions","survey-likert","33","326120","0.0-6.0-6.3","2945997","co37927","norming","","","{""aha"":1}","[0]","../img/tt/007tt.jpg","",""
"null","<div style=""font-size:60px;""> </div>","null","fixation","html-keyboard-response","34","326323","0.0-6.0-0.4","2945997","co37927","norming","","","","","","",""
"null","../img/tt/140tt.jpg","null","mooney1","image-keyboard-response","35","329326","0.0-6.0-1.4","2945997","co37927","norming","","","","","","",""
"4800.679999999935","","","post_mooney1_questions","survey-likert","36","334129","0.0-6.0-2.4","2945997","co37927","norming","","","{""curiosity"":1,""confidence"":4}","[0,1]","../img/tt/140tt.jpg","",""
"3014.4249999999884","","","recognition","survey-text","37","337145","0.0-6.0-3.4","2945997","co37927","norming","","","{""guess"":""vork""}","","../img/tt/140tt.jpg","",""
"null","../img/gs/140gs.jpg","null","reveal","image-keyboard-response","38","339146","0.0-6.0-4.4","2945997","co37927","norming","","","","","","",""
"null","../img/tt/140tt.jpg","null","mooney2","image-keyboard-response","39","341159","0.0-6.0-5.4","2945997","co37927","norming","","","","","","",""
"5176.119999999995","","","post_reveal_questions","survey-likert","40","346335","0.0-6.0-6.4","2945997","co37927","norming","","","{""aha"":1}","[0]","../img/tt/140tt.jpg","",""
"null","<div style=""font-size:60px;""> </div>","null","fixation","html-keyboard-response","41","346541","0.0-6.0-0.5","2945997","co37927","norming","","","","","","",""
"null","../img/tt/121tt.jpg","null","mooney1","image-keyboard-response","42","349546","0.0-6.0-1.5","2945997","co37927","norming","","","","","","",""
"23514.409999999974","","","post_mooney1_questions","survey-likert","43","373063","0.0-6.0-2.5","2945997","co37927","norming","","","{""curiosity"":5,""confidence"":0}","[0,1]","../img/tt/121tt.jpg","",""
"3309.960000000079","","","recognition","survey-text","44","376375","0.0-6.0-3.5","2945997","co37927","norming","","","{""guess"":""rivier""}","","../img/tt/121tt.jpg","",""
"null","../img/gs/121gs.jpg","null","reveal","image-keyboard-response","45","378383","0.0-6.0-4.5","2945997","co37927","norming","","","","","","",""
"null","../img/tt/121tt.jpg","null","mooney2","image-keyboard-response","46","380389","0.0-6.0-5.5","2945997","co37927","norming","","","","","","",""
"4135.949999999953","","","post_reveal_questions","survey-likert","47","384527","0.0-6.0-6.5","2945997","co37927","norming","","","{""aha"":6}","[0]","../img/tt/121tt.jpg","",""
"null","<div style=""font-size:60px;""> </div>","null","fixation","html-keyboard-response","48","384736","0.0-6.0-0.6","2945997","co37927","norming","","","","","","",""
"null","../img/tt/603tt.jpg","null","mooney1","image-keyboard-response","49","387743","0.0-6.0-1.6","2945997","co37927","norming","","","","","","",""
"4061.7549999999464","","","post_mooney1_questions","survey-likert","50","391807","0.0-6.0-2.6","2945997","co37927","norming","","","{""curiosity"":6,""confidence"":0}","[0,1]","../img/tt/603tt.jpg","",""
"3893.9100000000326","","","recognition","survey-text","51","395703","0.0-6.0-3.6","2945997","co37927","norming","","","{""guess"":""""}","","../img/tt/603tt.jpg","",""
"null","../img/gs/603gs.jpg","null","reveal","image-keyboard-response","52","397710","0.0-6.0-4.6","2945997","co37927","norming","","","","","","",""
"null","../img/tt/603tt.jpg","null","mooney2","image-keyboard-response","53","399719","0.0-6.0-5.6","2945997","co37927","norming","","","","","","",""
"3077.539999999979","","","post_reveal_questions","survey-likert","54","402799","0.0-6.0-6.6","2945997","co37927","norming","","","{""aha"":6}","[0]","../img/tt/603tt.jpg","",""
"null","<div style=""font-size:60px;""> </div>","null","fixation","html-keyboard-response","55","403003","0.0-6.0-0.7","2945997","co37927","norming","","","","","","",""
"null","../img/tt/1024tt.jpg","null","mooney1","image-keyboard-response","56","406016","0.0-6.0-1.7","2945997","co37927","norming","","","","","","",""
"10605.029999999912","","","post_mooney1_questions","survey-likert","57","416624","0.0-6.0-2.7","2945997","co37927","norming","","","{""curiosity"":6,""confidence"":0}","[0,1]","../img/tt/1024tt.jpg","",""
"2246.1149999999325","","","recognition","survey-text","58","418872","0.0-6.0-3.7","2945997","co37927","norming","","","{""guess"":""""}","","../img/tt/1024tt.jpg","",""
"null","../img/gs/1024gs.jpg","null","reveal","image-keyboard-response","59","420882","0.0-6.0-4.7","2945997","co37927","norming","","","","","","",""
"null","../img/tt/1024tt.jpg","null","mooney2","image-keyboard-response","60","422884","0.0-6.0-5.7","2945997","co37927","norming","","","","","","",""
"2593.759999999951","","","post_reveal_questions","survey-likert","61","425480","0.0-6.0-6.7","2945997","co37927","norming","","","{""aha"":6}","[0]","../img/tt/1024tt.jpg","",""
"null","<div style=""font-size:60px;""> </div>","null","fixation","html-keyboard-response","62","425682","0.0-6.0-0.8","2945997","co37927","norming","","","","","","",""
"null","../img/tt/315tt.jpg","null","mooney1","image-keyboard-response","63","428686","0.0-6.0-1.8","2945997","co37927","norming","","","","","","",""
"4727.34500000003","","","post_mooney1_questions","survey-likert","64","433416","0.0-6.0-2.8","2945997","co37927","norming","","","{""curiosity"":5,""confidence"":1}","[0,1]","../img/tt/315tt.jpg","",""
"4046.0950000000303","","","recognition","survey-text","65","437464","0.0-6.0-3.8","2945997","co37927","norming","","","{""guess"":""kraai""}","","../img/tt/315tt.jpg","",""
"null","../img/gs/315gs.jpg","null","reveal","image-keyboard-response","66","439466","0.0-6.0-4.8","2945997","co37927","norming","","","","","","",""
"null","../img/tt/315tt.jpg","null","mooney2","image-keyboard-response","67","441472","0.0-6.0-5.8","2945997","co37927","norming","","","","","","",""
"2734.820000000007","","","post_reveal_questions","survey-likert","68","444208","0.0-6.0-6.8","2945997","co37927","norming","","","{""aha"":5}","[0]","../img/tt/315tt.jpg","",""
"null","<div style=""font-size:60px;""> </div>","null","fixation","html-keyboard-response","69","444415","0.0-6.0-0.9","2945997","co37927","norming","","","","","","",""
"null","../img/tt/306tt.jpg","null","mooney1","image-keyboard-response","70","447422","0.0-6.0-1.9","2945997","co37927","norming","","","","","","",""
"3887.499999999942","","","post_mooney1_questions","survey-likert","71","451312","0.0-6.0-2.9","2945997","co37927","norming","","","{""curiosity"":4,""confidence"":1}","[0,1]","../img/tt/306tt.jpg","",""
"2526.164999999979","","","recognition","survey-text","72","453840","0.0-6.0-3.9","2945997","co37927","norming","","","{""guess"":""boot""}","","../img/tt/306tt.jpg","",""
"null","../img/gs/306gs.jpg","null","reveal","image-keyboard-response","73","455841","0.0-6.0-4.9","2945997","co37927","norming","","","","","","",""
"null","../img/tt/306tt.jpg","null","mooney2","image-keyboard-response","74","457852","0.0-6.0-5.9","2945997","co37927","norming","","","","","","",""
"11066.36499999999","","","post_reveal_questions","survey-likert","75","468919","0.0-6.0-6.9","2945997","co37927","norming","","","{""aha"":5}","[0]","../img/tt/306tt.jpg","",""
"null","<div style=""font-size:60px;""> </div>","null","fixation","html-keyboard-response","76","469126","0.0-6.0-0.10","2945997","co37927","norming","","","","","","",""
"null","../img/tt/1143tt.jpg","null","mooney1","image-keyboard-response","77","472135","0.0-6.0-1.10","2945997","co37927","norming","","","","","","",""
"5958.90499999997","","","post_mooney1_questions","survey-likert","78","478095","0.0-6.0-2.10","2945997","co37927","norming","","","{""curiosity"":4,""confidence"":2}","[0,1]","../img/tt/1143tt.jpg","",""
"5190.280000000028","","","recognition","survey-text","79","483286","0.0-6.0-3.10","2945997","co37927","norming","","","{""guess"":""fitnesstoestellen""}","","../img/tt/1143tt.jpg","",""
"null","../img/gs/1143gs.jpg","null","reveal","image-keyboard-response","80","485291","0.0-6.0-4.10","2945997","co37927","norming","","","","","","",""
"null","../img/tt/1143tt.jpg","null","mooney2","image-keyboard-response","81","487300","0.0-6.0-5.10","2945997","co37927","norming","","","","","","",""
"4695.984999999986","","","post_reveal_questions","survey-likert","82","491999","0.0-6.0-6.10","2945997","co37927","norming","","","{""aha"":1}","[0]","../img/tt/1143tt.jpg","",""
"null","<div style=""font-size:60px;""> </div>","null","fixation","html-keyboard-response","83","492207","0.0-6.0-0.11","2945997","co37927","norming","","","","","","",""
"null","../img/tt/1211tt.jpg","null","mooney1","image-keyboard-response","84","495213","0.0-6.0-1.11","2945997","co37927","norming","","","","","","",""
"3687.070000000065","","","post_mooney1_questions","survey-likert","85","498903","0.0-6.0-2.11","2945997","co37927","norming","","","{""curiosity"":6,""confidence"":0}","[0,1]","../img/tt/1211tt.jpg","",""
"878.3449999999721","","","recognition","survey-text","86","499782","0.0-6.0-3.11","2945997","co37927","norming","","","{""guess"":""""}","","../img/tt/1211tt.jpg","",""
"null","../img/gs/1211gs.jpg","null","reveal","image-keyboard-response","87","501790","0.0-6.0-4.11","2945997","co37927","norming","","","","","","",""
"null","../img/tt/1211tt.jpg","null","mooney2","image-keyboard-response","88","503800","0.0-6.0-5.11","2945997","co37927","norming","","","","","","",""
"2484.3050000001094","","","post_reveal_questions","survey-likert","89","506287","0.0-6.0-6.11","2945997","co37927","norming","","","{""aha"":6}","[0]","../img/tt/1211tt.jpg","",""
"null","<div style=""font-size:60px;""> </div>","null","fixation","html-keyboard-response","90","506493","0.0-6.0-0.12","2945997","co37927","norming","","","","","","",""
"null","../img/tt/1272tt.jpg","null","mooney1","image-keyboard-response","91","509495","0.0-6.0-1.12","2945997","co37927","norming","","","","","","",""
"6268.794999999984","","","post_mooney1_questions","survey-likert","92","515766","0.0-6.0-2.12","2945997","co37927","norming","","","{""curiosity"":6,""confidence"":0}","[0,1]","../img/tt/1272tt.jpg","",""
"3126.350000000035","","","recognition","survey-text","93","518894","0.0-6.0-3.12","2945997","co37927","norming","","","{""guess"":""vliegtuig""}","","../img/tt/1272tt.jpg","",""
"null","../img/gs/1272gs.jpg","null","reveal","image-keyboard-response","94","520904","0.0-6.0-4.12","2945997","co37927","norming","","","","","","",""
"null","../img/tt/1272tt.jpg","null","mooney2","image-keyboard-response","95","522916","0.0-6.0-5.12","2945997","co37927","norming","","","","","","",""
"2088.589999999851","","","post_reveal_questions","survey-likert","96","525006","0.0-6.0-6.12","2945997","co37927","norming","","","{""aha"":6}","[0]","../img/tt/1272tt.jpg","",""
"null","<div style=""font-size:60px;""> </div>","null","fixation","html-keyboard-response","97","525211","0.0-6.0-0.13","2945997","co37927","norming","","","","","","",""
"null","../img/tt/559tt.jpg","null","mooney1","image-keyboard-response","98","528220","0.0-6.0-1.13","2945997","co37927","norming","","","","","","",""
"3505.57500000007","","","post_mooney1_questions","survey-likert","99","531720","0.0-6.0-2.13","2945997","co37927","norming","","","{""curiosity"":5,""confidence"":1}","[0,1]","../img/tt/559tt.jpg","",""
"2806.229999999865","","","recognition","survey-text","100","534527","0.0-6.0-3.13","2945997","co37927","norming","","","{""guess"":""piano""}","","../img/tt/559tt.jpg","",""
"null","../img/gs/559gs.jpg","null","reveal","image-keyboard-response","101","536534","0.0-6.0-4.13","2945997","co37927","norming","","","","","","",""
"null","../img/tt/559tt.jpg","null","mooney2","image-keyboard-response","102","538544","0.0-6.0-5.13","2945997","co37927","norming","","","","","","",""
"3541.0999999999767","","","post_reveal_questions","survey-likert","103","542088","0.0-6.0-6.13","2945997","co37927","norming","","","{""aha"":6}","[0]","../img/tt/559tt.jpg","",""
"null","<div style=""font-size:60px;""> </div>","null","fixation","html-keyboard-response","104","542295","0.0-6.0-0.14","2945997","co37927","norming","","","","","","",""
"null","../img/tt/091tt.jpg","null","mooney1","image-keyboard-response","105","545305","0.0-6.0-1.14","2945997","co37927","norming","","","","","","",""
"4572.22500000021","","","post_mooney1_questions","survey-likert","106","549880","0.0-6.0-2.14","2945997","co37927","norming","","","{""curiosity"":3,""confidence"":4}","[0,1]","../img/tt/091tt.jpg","",""
"2662.3600000001024","","","recognition","survey-text","107","552544","0.0-6.0-3.14","2945997","co37927","norming","","","{""guess"":""hond""}","","../img/tt/091tt.jpg","",""
"null","../img/gs/091gs.jpg","null","reveal","image-keyboard-response","108","554545","0.0-6.0-4.14","2945997","co37927","norming","","","","","","",""
"null","../img/tt/091tt.jpg","null","mooney2","image-keyboard-response","109","556547","0.0-6.0-5.14","2945997","co37927","norming","","","","","","",""
"2866.0499999998137","","","post_reveal_questions","survey-likert","110","559416","0.0-6.0-6.14","2945997","co37927","norming","","","{""aha"":6}","[0]","../img/tt/091tt.jpg","",""
"null","<div style=""font-size:60px;""> </div>","null","fixation","html-keyboard-response","111","559617","0.0-6.0-0.15","2945997","co37927","norming","","","","","","",""
"null","../img/tt/1234tt.jpg","null","mooney1","image-keyboard-response","112","562626","0.0-6.0-1.15","2945997","co37927","norming","","","","","","",""
"3907.2700000002515","","","post_mooney1_questions","survey-likert","113","566536","0.0-6.0-2.15","2945997","co37927","norming","","","{""curiosity"":5,""confidence"":1}","[0,1]","../img/tt/1234tt.jpg","",""
"3646.0100000000093","","","recognition","survey-text","114","570183","0.0-6.0-3.15","2945997","co37927","norming","","","{""guess"":""speedboot""}","","../img/tt/1234tt.jpg","",""
"null","../img/gs/1234gs.jpg","null","reveal","image-keyboard-response","115","572193","0.0-6.0-4.15","2945997","co37927","norming","","","","","","",""
"null","../img/tt/1234tt.jpg","null","mooney2","image-keyboard-response","116","574195","0.0-6.0-5.15","2945997","co37927","norming","","","","","","",""
"8571.865000000107","","","post_reveal_questions","survey-likert","117","582768","0.0-6.0-6.15","2945997","co37927","norming","","","{""aha"":5}","[0]","../img/tt/1234tt.jpg","",""
"null","<div style=""font-size:60px;""> </div>","null","fixation","html-keyboard-response","118","582973","0.0-6.0-0.16","2945997","co37927","norming","","","","","","",""
"null","../img/tt/112tt.jpg","null","mooney1","image-keyboard-response","119","585984","0.0-6.0-1.16","2945997","co37927","norming","","","","","","",""
"3140.644999999902","","","post_mooney1_questions","survey-likert","120","589128","0.0-6.0-2.16","2945997","co37927","norming","","","{""curiosity"":5,""confidence"":1}","[0,1]","../img/tt/112tt.jpg","",""
"2102.0800000000745","","","recognition","survey-text","121","591233","0.0-6.0-3.16","2945997","co37927","norming","","","{""guess"":""mes""}","","../img/tt/112tt.jpg","",""
"null","../img/gs/112gs.jpg","null","reveal","image-keyboard-response","122","593240","0.0-6.0-4.16","2945997","co37927","norming","","","","","","",""
"null","../img/tt/112tt.jpg","null","mooney2","image-keyboard-response","123","595250","0.0-6.0-5.16","2945997","co37927","norming","","","","","","",""
"2205.3000000000466","","","post_reveal_questions","survey-likert","124","597457","0.0-6.0-6.16","2945997","co37927","norming","","","{""aha"":5}","[0]","../img/tt/112tt.jpg","",""
"null","<div style=""font-size:60px;""> </div>","null","fixation","html-keyboard-response","125","597663","0.0-6.0-0.17","2945997","co37927","norming","","","","","","",""
"null","../img/tt/076tt.jpg","null","mooney1","image-keyboard-response","126","600669","0.0-6.0-1.17","2945997","co37927","norming","","","","","","",""
"2786.17499999993","","","post_mooney1_questions","survey-likert","127","603458","0.0-6.0-2.17","2945997","co37927","norming","","","{""curiosity"":4,""confidence"":3}","[0,1]","../img/tt/076tt.jpg","",""
"3677.1900000000605","","","recognition","survey-text","128","607137","0.0-6.0-3.17","2945997","co37927","norming","","","{""guess"":""rollerskate""}","","../img/tt/076tt.jpg","",""
"null","../img/gs/076gs.jpg","null","reveal","image-keyboard-response","129","609148","0.0-6.0-4.17","2945997","co37927","norming","","","","","","",""
"null","../img/tt/076tt.jpg","null","mooney2","image-keyboard-response","130","611156","0.0-6.0-5.17","2945997","co37927","norming","","","","","","",""
"3387.2750000000233","","","post_reveal_questions","survey-likert","131","614546","0.0-6.0-6.17","2945997","co37927","norming","","","{""aha"":1}","[0]","../img/tt/076tt.jpg","",""
"null","<div style=""font-size:60px;""> </div>","null","fixation","html-keyboard-response","132","614753","0.0-6.0-0.18","2945997","co37927","norming","","","","","","",""
"null","../img/tt/598tt.jpg","null","mooney1","image-keyboard-response","133","617760","0.0-6.0-1.18","2945997","co37927","norming","","","","","","",""
"5502.324999999953","","","post_mooney1_questions","survey-likert","134","623266","0.0-6.0-2.18","2945997","co37927","norming","","","{""curiosity"":4,""confidence"":3}","[0,1]","../img/tt/598tt.jpg","",""
"2949.945000000065","","","recognition","survey-text","135","626217","0.0-6.0-3.18","2945997","co37927","norming","","","{""guess"":""insect""}","","../img/tt/598tt.jpg","",""
"null","../img/gs/598gs.jpg","null","reveal","image-keyboard-response","136","628225","0.0-6.0-4.18","2945997","co37927","norming","","","","","","",""
"null","../img/tt/598tt.jpg","null","mooney2","image-keyboard-response","137","630235","0.0-6.0-5.18","2945997","co37927","norming","","","","","","",""
"2445.9899999998743","","","post_reveal_questions","survey-likert","138","632682","0.0-6.0-6.18","2945997","co37927","norming","","","{""aha"":4}","[0]","../img/tt/598tt.jpg","",""
"null","<div style=""font-size:60px;""> </div>","null","fixation","html-keyboard-response","139","632886","0.0-6.0-0.19","2945997","co37927","norming","","","","","","",""
"null","../img/tt/515tt.jpg","null","mooney1","image-keyboard-response","140","635890","0.0-6.0-1.19","2945997","co37927","norming","","","","","","",""
"3836.8449999998556","","","post_mooney1_questions","survey-likert","141","639730","0.0-6.0-2.19","2945997","co37927","norming","","","{""curiosity"":5,""confidence"":2}","[0,1]","../img/tt/515tt.jpg","",""
"2350.389999999781","","","recognition","survey-text","142","642081","0.0-6.0-3.19","2945997","co37927","norming","","","{""guess"":""boek""}","","../img/tt/515tt.jpg","",""
"null","../img/gs/515gs.jpg","null","reveal","image-keyboard-response","143","644085","0.0-6.0-4.19","2945997","co37927","norming","","","","","","",""
"null","../img/tt/515tt.jpg","null","mooney2","image-keyboard-response","144","646088","0.0-6.0-5.19","2945997","co37927","norming","","","","","","",""
"5239.6900000000605","","","post_reveal_questions","survey-likert","145","651333","0.0-6.0-6.19","2945997","co37927","norming","","","{""aha"":6}","[0]","../img/tt/515tt.jpg","",""
"null","<div style=""font-size:60px;""> </div>","null","fixation","html-keyboard-response","146","651542","0.0-6.0-0.20","2945997","co37927","norming","","","","","","",""
"null","../img/tt/108tt.jpg","null","mooney1","image-keyboard-response","147","654550","0.0-6.0-1.20","2945997","co37927","norming","","","","","","",""
"6060.5599999999395","","","post_mooney1_questions","survey-likert","148","660613","0.0-6.0-2.20","2945997","co37927","norming","","","{""curiosity"":6,""confidence"":1}","[0,1]","../img/tt/108tt.jpg","",""
"2550.3199999998324","","","recognition","survey-text","149","663165","0.0-6.0-3.20","2945997","co37927","norming","","","{""guess"":""beer""}","","../img/tt/108tt.jpg","",""
"null","../img/gs/108gs.jpg","null","reveal","image-keyboard-response","150","665170","0.0-6.0-4.20","2945997","co37927","norming","","","","","","",""
"null","../img/tt/108tt.jpg","null","mooney2","image-keyboard-response","151","667174","0.0-6.0-5.20","2945997","co37927","norming","","","","","","",""
"2436.67499999993","","","post_reveal_questions","survey-likert","152","669613","0.0-6.0-6.20","2945997","co37927","norming","","","{""aha"":4}","[0]","../img/tt/108tt.jpg","",""
"null","<div style=""font-size:60px;""> </div>","null","fixation","html-keyboard-response","153","669814","0.0-6.0-0.21","2945997","co37927","norming","","","","","","",""
"null","../img/tt/1070tt.jpg","null","mooney1","image-keyboard-response","154","672818","0.0-6.0-1.21","2945997","co37927","norming","","","","","","",""
"6016.400000000023","","","post_mooney1_questions","survey-likert","155","678837","0.0-6.0-2.21","2945997","co37927","norming","","","{""curiosity"":4,""confidence"":3}","[0,1]","../img/tt/1070tt.jpg","",""
"5446.140000000014","","","recognition","survey-text","156","684285","0.0-6.0-3.21","2945997","co37927","norming","","","{""guess"":""bord met eten""}","","../img/tt/1070tt.jpg","",""
"null","../img/gs/1070gs.jpg","null","reveal","image-keyboard-response","157","686294","0.0-6.0-4.21","2945997","co37927","norming","","","","","","",""
"null","../img/tt/1070tt.jpg","null","mooney2","image-keyboard-response","158","688300","0.0-6.0-5.21","2945997","co37927","norming","","","","","","",""
"4327.775000000023","","","post_reveal_questions","survey-likert","159","692629","0.0-6.0-6.21","2945997","co37927","norming","","","{""aha"":1}","[0]","../img/tt/1070tt.jpg","",""
"null","<div style=""font-size:60px;""> </div>","null","fixation","html-keyboard-response","160","692836","0.0-6.0-0.22","2945997","co37927","norming","","","","","","",""
"null","../img/tt/064tt.jpg","null","mooney1","image-keyboard-response","161","695841","0.0-6.0-1.22","2945997","co37927","norming","","","","","","",""
"3809.2099999998463","","","post_mooney1_questions","survey-likert","162","699653","0.0-6.0-2.22","2945997","co37927","norming","","","{""curiosity"":5,""confidence"":3}","[0,1]","../img/tt/064tt.jpg","",""
"4134.219999999972","","","recognition","survey-text","163","703789","0.0-6.0-3.22","2945997","co37927","norming","","","{""guess"":""schildpad""}","","../img/tt/064tt.jpg","",""
"null","../img/gs/064gs.jpg","null","reveal","image-keyboard-response","164","705799","0.0-6.0-4.22","2945997","co37927","norming","","","","","","",""
"null","../img/tt/064tt.jpg","null","mooney2","image-keyboard-response","165","707801","0.0-6.0-5.22","2945997","co37927","norming","","","","","","",""
"3297.354999999865","","","post_reveal_questions","survey-likert","166","711097","0.0-6.0-6.22","2945997","co37927","norming","","","{""aha"":1}","[0]","../img/tt/064tt.jpg","",""
"null","<div style=""font-size:60px;""> </div>","null","fixation","html-keyboard-response","167","711299","0.0-6.0-0.23","2945997","co37927","norming","","","","","","",""
"null","../img/tt/1053tt.jpg","null","mooney1","image-keyboard-response","168","714303","0.0-6.0-1.23","2945997","co37927","norming","","","","","","",""
"4038.7899999998044","","","post_mooney1_questions","survey-likert","169","718345","0.0-6.0-2.23","2945997","co37927","norming","","","{""curiosity"":5,""confidence"":4}","[0,1]","../img/tt/1053tt.jpg","",""
"4494.125000000116","","","recognition","survey-text","170","722841","0.0-6.0-3.23","2945997","co37927","norming","","","{""guess"":""grote dieren""}","","../img/tt/1053tt.jpg","",""
"null","../img/gs/1053gs.jpg","null","reveal","image-keyboard-response","171","724850","0.0-6.0-4.23","2945997","co37927","norming","","","","","","",""
"null","../img/tt/1053tt.jpg","null","mooney2","image-keyboard-response","172","726859","0.0-6.0-5.23","2945997","co37927","norming","","","","","","",""
"2379.100000000093","","","post_reveal_questions","survey-likert","173","729241","0.0-6.0-6.23","2945997","co37927","norming","","","{""aha"":6}","[0]","../img/tt/1053tt.jpg","",""
"null","<div style=""font-size:60px;""> </div>","null","fixation","html-keyboard-response","174","729447","0.0-6.0-0.24","2945997","co37927","norming","","","","","","",""
"null","../img/tt/1241tt.jpg","null","mooney1","image-keyboard-response","175","732456","0.0-6.0-1.24","2945997","co37927","norming","","","","","","",""
"5597.530000000028","","","post_mooney1_questions","survey-likert","176","738057","0.0-6.0-2.24","2945997","co37927","norming","","","{""curiosity"":5,""confidence"":5}","[0,1]","../img/tt/1241tt.jpg","",""
"2422.2249999999767","","","recognition","survey-text","177","740480","0.0-6.0-3.24","2945997","co37927","norming","","","{""guess"":""wolf""}","","../img/tt/1241tt.jpg","",""
"null","../img/gs/1241gs.jpg","null","reveal","image-keyboard-response","178","742487","0.0-6.0-4.24","2945997","co37927","norming","","","","","","",""
"null","../img/tt/1241tt.jpg","null","mooney2","image-keyboard-response","179","744496","0.0-6.0-5.24","2945997","co37927","norming","","","","","","",""
"2966.4000000000233","","","post_reveal_questions","survey-likert","180","747465","0.0-6.0-6.24","2945997","co37927","norming","","","{""aha"":0}","[0]","../img/tt/1241tt.jpg","",""
"null","<div style=""font-size:60px;""> </div>","null","fixation","html-keyboard-response","181","747674","0.0-6.0-0.25","2945997","co37927","norming","","","","","","",""
"null","../img/tt/1063tt.jpg","null","mooney1","image-keyboard-response","182","750683","0.0-6.0-1.25","2945997","co37927","norming","","","","","","",""
"4556.790000000037","","","post_mooney1_questions","survey-likert","183","755241","0.0-6.0-2.25","2945997","co37927","norming","","","{""curiosity"":6,""confidence"":0}","[0,1]","../img/tt/1063tt.jpg","",""
"2933.719999999972","","","recognition","survey-text","184","758176","0.0-6.0-3.25","2945997","co37927","norming","","","{""guess"":""dier""}","","../img/tt/1063tt.jpg","",""
"null","../img/gs/1063gs.jpg","null","reveal","image-keyboard-response","185","760179","0.0-6.0-4.25","2945997","co37927","norming","","","","","","",""
"null","../img/tt/1063tt.jpg","null","mooney2","image-keyboard-response","186","762179","0.0-6.0-5.25","2945997","co37927","norming","","","","","","",""
"2652.350000000093","","","post_reveal_questions","survey-likert","187","764833","0.0-6.0-6.25","2945997","co37927","norming","","","{""aha"":6}","[0]","../img/tt/1063tt.jpg","",""
"null","<div style=""font-size:60px;""> </div>","null","fixation","html-keyboard-response","188","765034","0.0-6.0-0.26","2945997","co37927","norming","","","","","","",""
"null","../img/tt/1173tt.jpg","null","mooney1","image-keyboard-response","189","768042","0.0-6.0-1.26","2945997","co37927","norming","","","","","","",""
"4796.285000000149","","","post_mooney1_questions","survey-likert","190","772850","0.0-6.0-2.26","2945997","co37927","norming","","","{""curiosity"":2,""confidence"":5}","[0,1]","../img/tt/1173tt.jpg","",""
"4533.82500000007","","","recognition","survey-text","191","777386","0.0-6.0-3.26","2945997","co37927","norming","","","{""guess"":""hockeyspeler""}","","../img/tt/1173tt.jpg","",""
"null","../img/gs/1173gs.jpg","null","reveal","image-keyboard-response","192","779387","0.0-6.0-4.26","2945997","co37927","norming","","","","","","",""
"null","../img/tt/1173tt.jpg","null","mooney2","image-keyboard-response","193","781394","0.0-6.0-5.26","2945997","co37927","norming","","","","","","",""
"6333.9049999999115","","","post_reveal_questions","survey-likert","194","787730","0.0-6.0-6.26","2945997","co37927","norming","","","{""aha"":0}","[0]","../img/tt/1173tt.jpg","",""
"null","<div style=""font-size:60px;""> </div>","null","fixation","html-keyboard-response","195","787934","0.0-6.0-0.27","2945997","co37927","norming","","","","","","",""
"null","../img/tt/222tt.jpg","null","mooney1","image-keyboard-response","196","790936","0.0-6.0-1.27","2945997","co37927","norming","","","","","","",""
"9696.544999999925","","","post_mooney1_questions","survey-likert","197","800634","0.0-6.0-2.27","2945997","co37927","norming","","","{""curiosity"":6,""confidence"":0}","[0,1]","../img/tt/222tt.jpg","",""
"918.160000000149","","","recognition","survey-text","198","801554","0.0-6.0-3.27","2945997","co37927","norming","","","{""guess"":""""}","","../img/tt/222tt.jpg","",""
"null","../img/gs/222gs.jpg","null","reveal","image-keyboard-response","199","803558","0.0-6.0-4.27","2945997","co37927","norming","","","","","","",""
"null","../img/tt/222tt.jpg","null","mooney2","image-keyboard-response","200","805566","0.0-6.0-5.27","2945997","co37927","norming","","","","","","",""
"2378.7049999998417","","","post_reveal_questions","survey-likert","201","807946","0.0-6.0-6.27","2945997","co37927","norming","","","{""aha"":6}","[0]","../img/tt/222tt.jpg","",""
"null","<div style=""font-size:60px;""> </div>","null","fixation","html-keyboard-response","202","808150","0.0-6.0-0.28","2945997","co37927","norming","","","","","","",""
"null","../img/tt/599tt.jpg","null","mooney1","image-keyboard-response","203","811155","0.0-6.0-1.28","2945997","co37927","norming","","","","","","",""
"3301.5250000000233","","","post_mooney1_questions","survey-likert","204","814458","0.0-6.0-2.28","2945997","co37927","norming","","","{""curiosity"":6,""confidence"":5}","[0,1]","../img/tt/599tt.jpg","",""
"3830.030000000028","","","recognition","survey-text","205","818289","0.0-6.0-3.28","2945997","co37927","norming","","","{""guess"":""uil""}","","../img/tt/599tt.jpg","",""
"null","../img/gs/599gs.jpg","null","reveal","image-keyboard-response","206","820291","0.0-6.0-4.28","2945997","co37927","norming","","","","","","",""
"null","../img/tt/599tt.jpg","null","mooney2","image-keyboard-response","207","822296","0.0-6.0-5.28","2945997","co37927","norming","","","","","","",""
"2864.5999999998603","","","post_reveal_questions","survey-likert","208","825162","0.0-6.0-6.28","2945997","co37927","norming","","","{""aha"":0}","[0]","../img/tt/599tt.jpg","",""
"null","<div style=""font-size:60px;""> </div>","null","fixation","html-keyboard-response","209","825366","0.0-6.0-0.29","2945997","co37927","norming","","","","","","",""
"null","../img/tt/1250tt.jpg","null","mooney1","image-keyboard-response","210","828375","0.0-6.0-1.29","2945997","co37927","norming","","","","","","",""
"3889.6399999998976","","","post_mooney1_questions","survey-likert","211","832266","0.0-6.0-2.29","2945997","co37927","norming","","","{""curiosity"":6,""confidence"":0}","[0,1]","../img/tt/1250tt.jpg","",""
"3702.050000000163","","","recognition","survey-text","212","835967","0.0-6.0-3.29","2945997","co37927","norming","","","{""guess"":""""}","","../img/tt/1250tt.jpg","",""
"null","../img/gs/1250gs.jpg","null","reveal","image-keyboard-response","213","837974","0.0-6.0-4.29","2945997","co37927","norming","","","","","","",""
"null","../img/tt/1250tt.jpg","null","mooney2","image-keyboard-response","214","839984","0.0-6.0-5.29","2945997","co37927","norming","","","","","","",""
"2278.444999999949","","","post_reveal_questions","survey-likert","215","842263","0.0-6.0-6.29","2945997","co37927","norming","","","{""aha"":6}","[0]","../img/tt/1250tt.jpg","",""
"null","<div style=""font-size:60px;""> </div>","null","fixation","html-keyboard-response","216","842474","0.0-6.0-0.30","2945997","co37927","norming","","","","","","",""
"null","../img/tt/1175tt.jpg","null","mooney1","image-keyboard-response","217","845481","0.0-6.0-1.30","2945997","co37927","norming","","","","","","",""
"4149.629999999888","","","post_mooney1_questions","survey-likert","218","849631","0.0-6.0-2.30","2945997","co37927","norming","","","{""curiosity"":6,""confidence"":0}","[0,1]","../img/tt/1175tt.jpg","",""
"973.9850000001024","","","recognition","survey-text","219","850607","0.0-6.0-3.30","2945997","co37927","norming","","","{""guess"":""""}","","../img/tt/1175tt.jpg","",""
"null","../img/gs/1175gs.jpg","null","reveal","image-keyboard-response","220","852610","0.0-6.0-4.30","2945997","co37927","norming","","","","","","",""
"null","../img/tt/1175tt.jpg","null","mooney2","image-keyboard-response","221","854612","0.0-6.0-5.30","2945997","co37927","norming","","","","","","",""
"1778.4149999999208","","","post_reveal_questions","survey-likert","222","856391","0.0-6.0-6.30","2945997","co37927","norming","","","{""aha"":6}","[0]","../img/tt/1175tt.jpg","",""
"null","<div style=""font-size:60px;""> </div>","null","fixation","html-keyboard-response","223","856595","0.0-6.0-0.31","2945997","co37927","norming","","","","","","",""
"null","../img/tt/1262tt.jpg","null","mooney1","image-keyboard-response","224","859601","0.0-6.0-1.31","2945997","co37927","norming","","","","","","",""
"3117.5800000000745","","","post_mooney1_questions","survey-likert","225","862719","0.0-6.0-2.31","2945997","co37927","norming","","","{""curiosity"":6,""confidence"":2}","[0,1]","../img/tt/1262tt.jpg","",""
"2437.9999999998836","","","recognition","survey-text","226","865159","0.0-6.0-3.31","2945997","co37927","norming","","","{""guess"":""vogel""}","","../img/tt/1262tt.jpg","",""
"null","../img/gs/1262gs.jpg","null","reveal","image-keyboard-response","227","867160","0.0-6.0-4.31","2945997","co37927","norming","","","","","","",""
"null","../img/tt/1262tt.jpg","null","mooney2","image-keyboard-response","228","869162","0.0-6.0-5.31","2945997","co37927","norming","","","","","","",""
"1355.9350000000559","","","post_reveal_questions","survey-likert","229","870519","0.0-6.0-6.31","2945997","co37927","norming","","","{""aha"":5}","[0]","../img/tt/1262tt.jpg","",""
"null","<div style=""font-size:60px;""> </div>","null","fixation","html-keyboard-response","230","870722","0.0-6.0-0.32","2945997","co37927","norming","","","","","","",""
"null","../img/tt/270tt.jpg","null","mooney1","image-keyboard-response","231","873724","0.0-6.0-1.32","2945997","co37927","norming","","","","","","",""
"5178.019999999786","","","post_mooney1_questions","survey-likert","232","878903","0.0-6.0-2.32","2945997","co37927","norming","","","{""curiosity"":6,""confidence"":0}","[0,1]","../img/tt/270tt.jpg","",""
"3846.0899999999674","","","recognition","survey-text","233","882751","0.0-6.0-3.32","2945997","co37927","norming","","","{""guess"":""""}","","../img/tt/270tt.jpg","",""
"null","../img/gs/270gs.jpg","null","reveal","image-keyboard-response","234","884761","0.0-6.0-4.32","2945997","co37927","norming","","","","","","",""
"null","../img/tt/270tt.jpg","null","mooney2","image-keyboard-response","235","886763","0.0-6.0-5.32","2945997","co37927","norming","","","","","","",""
"3003.140000000014","","","post_reveal_questions","survey-likert","236","889767","0.0-6.0-6.32","2945997","co37927","norming","","","{""aha"":6}","[0]","../img/tt/270tt.jpg","",""
"null","<div style=""font-size:60px;""> </div>","null","fixation","html-keyboard-response","237","889976","0.0-6.0-0.33","2945997","co37927","norming","","","","","","",""
"null","../img/tt/440tt.jpg","null","mooney1","image-keyboard-response","238","892980","0.0-6.0-1.33","2945997","co37927","norming","","","","","","",""
"4457.820000000182","","","post_mooney1_questions","survey-likert","239","897435","0.0-6.0-2.33","2945997","co37927","norming","","","{""curiosity"":3,""confidence"":4}","[0,1]","../img/tt/440tt.jpg","",""
"3157.5049999998882","","","recognition","survey-text","240","900594","0.0-6.0-3.33","2945997","co37927","norming","","","{""guess"":""varken""}","","../img/tt/440tt.jpg","",""
"null","../img/gs/440gs.jpg","null","reveal","image-keyboard-response","241","902597","0.0-6.0-4.33","2945997","co37927","norming","","","","","","",""
"null","../img/tt/440tt.jpg","null","mooney2","image-keyboard-response","242","904600","0.0-6.0-5.33","2945997","co37927","norming","","","","","","",""
"4778.369999999995","","","post_reveal_questions","survey-likert","243","909379","0.0-6.0-6.33","2945997","co37927","norming","","","{""aha"":4}","[0]","../img/tt/440tt.jpg","",""
"null","<div style=""font-size:60px;""> </div>","null","fixation","html-keyboard-response","244","909586","0.0-6.0-0.34","2945997","co37927","norming","","","","","","",""
"null","../img/tt/1247tt.jpg","null","mooney1","image-keyboard-response","245","912596","0.0-6.0-1.34","2945997","co37927","norming","","","","","","",""
"4325.7949999999255","","","post_mooney1_questions","survey-likert","246","916923","0.0-6.0-2.34","2945997","co37927","norming","","","{""curiosity"":5,""confidence"":2}","[0,1]","../img/tt/1247tt.jpg","",""
"2733.969999999972","","","recognition","survey-text","247","919659","0.0-6.0-3.34","2945997","co37927","norming","","","{""guess"":""tijger""}","","../img/tt/1247tt.jpg","",""
"null","../img/gs/1247gs.jpg","null","reveal","image-keyboard-response","248","921661","0.0-6.0-4.34","2945997","co37927","norming","","","","","","",""
"null","../img/tt/1247tt.jpg","null","mooney2","image-keyboard-response","249","923672","0.0-6.0-5.34","2945997","co37927","norming","","","","","","",""
"2984.555000000051","","","post_reveal_questions","survey-likert","250","926659","0.0-6.0-6.34","2945997","co37927","norming","","","{""aha"":4}","[0]","../img/tt/1247tt.jpg","",""
"null","<div style=""font-size:60px;""> </div>","null","fixation","html-keyboard-response","251","926862","0.0-6.0-0.35","2945997","co37927","norming","","","","","","",""
"null","../img/tt/010tt.jpg","null","mooney1","image-keyboard-response","252","929868","0.0-6.0-1.35","2945997","co37927","norming","","","","","","",""
"5078.114999999991","","","post_mooney1_questions","survey-likert","253","934947","0.0-6.0-2.35","2945997","co37927","norming","","","{""curiosity"":6,""confidence"":1}","[0,1]","../img/tt/010tt.jpg","",""
"2542.2349999998696","","","recognition","survey-text","254","937491","0.0-6.0-3.35","2945997","co37927","norming","","","{""guess"":""dier""}","","../img/tt/010tt.jpg","",""
"null","../img/gs/010gs.jpg","null","reveal","image-keyboard-response","255","939498","0.0-6.0-4.35","2945997","co37927","norming","","","","","","",""
"null","../img/tt/010tt.jpg","null","mooney2","image-keyboard-response","256","941507","0.0-6.0-5.35","2945997","co37927","norming","","","","","","",""
"6581.780000000028","","","post_reveal_questions","survey-likert","257","948091","0.0-6.0-6.35","2945997","co37927","norming","","","{""aha"":5}","[0]","../img/tt/010tt.jpg","",""
"null","<div style=""font-size:60px;""> </div>","null","fixation","html-keyboard-response","258","948298","0.0-6.0-0.36","2945997","co37927","norming","","","","","","",""
"null","../img/tt/1102tt.jpg","null","mooney1","image-keyboard-response","259","951308","0.0-6.0-1.36","2945997","co37927","norming","","","","","","",""
"8924.619999999995","","","post_mooney1_questions","survey-likert","260","960241","0.0-6.0-2.36","2945997","co37927","norming","","","{""curiosity"":5,""confidence"":0}","[0,1]","../img/tt/1102tt.jpg","",""
"5382.4349999999395","","","recognition","survey-text","261","965625","0.0-6.0-3.36","2945997","co37927","norming","","","{""guess"":""""}","","../img/tt/1102tt.jpg","",""
"null","../img/gs/1102gs.jpg","null","reveal","image-keyboard-response","262","967634","0.0-6.0-4.36","2945997","co37927","norming","","","","","","",""
"null","../img/tt/1102tt.jpg","null","mooney2","image-keyboard-response","263","969643","0.0-6.0-5.36","2945997","co37927","norming","","","","","","",""
"2268.755000000121","","","post_reveal_questions","survey-likert","264","971913","0.0-6.0-6.36","2945997","co37927","norming","","","{""aha"":6}","[0]","../img/tt/1102tt.jpg","",""
"null","<div style=""font-size:60px;""> </div>","null","fixation","html-keyboard-response","265","972118","0.0-6.0-0.37","2945997","co37927","norming","","","","","","",""
"null","../img/tt/1116tt.jpg","null","mooney1","image-keyboard-response","266","975122","0.0-6.0-1.37","2945997","co37927","norming","","","","","","",""
"3708.4850000001024","","","post_mooney1_questions","survey-likert","267","978833","0.0-6.0-2.37","2945997","co37927","norming","","","{""curiosity"":2,""confidence"":4}","[0,1]","../img/tt/1116tt.jpg","",""
"3558.2249999999767","","","recognition","survey-text","268","982393","0.0-6.0-3.37","2945997","co37927","norming","","","{""guess"":""auto's""}","","../img/tt/1116tt.jpg","",""
"null","../img/gs/1116gs.jpg","null","reveal","image-keyboard-response","269","984404","0.0-6.0-4.37","2945997","co37927","norming","","","","","","",""
"null","../img/tt/1116tt.jpg","null","mooney2","image-keyboard-response","270","986406","0.0-6.0-5.37","2945997","co37927","norming","","","","","","",""
"2112.6699999999255","","","post_reveal_questions","survey-likert","271","988521","0.0-6.0-6.37","2945997","co37927","norming","","","{""aha"":5}","[0]","../img/tt/1116tt.jpg","",""
"null","<div style=""font-size:60px;""> </div>","null","fixation","html-keyboard-response","272","988723","0.0-6.0-0.38","2945997","co37927","norming","","","","","","",""
"null","../img/tt/1002tt.jpg","null","mooney1","image-keyboard-response","273","991731","0.0-6.0-1.38","2945997","co37927","norming","","","","","","",""
"5355.01500000013","","","post_mooney1_questions","survey-likert","274","997089","0.0-6.0-2.38","2945997","co37927","norming","","","{""curiosity"":1,""confidence"":6}","[0,1]","../img/tt/1002tt.jpg","",""
"3190.109999999986","","","recognition","survey-text","275","1000281","0.0-6.0-3.38","2945997","co37927","norming","","","{""guess"":""beer""}","","../img/tt/1002tt.jpg","",""
"null","../img/gs/1002gs.jpg","null","reveal","image-keyboard-response","276","1002282","0.0-6.0-4.38","2945997","co37927","norming","","","","","","",""
"null","../img/tt/1002tt.jpg","null","mooney2","image-keyboard-response","277","1004284","0.0-6.0-5.38","2945997","co37927","norming","","","","","","",""
"1779.390000000014","","","post_reveal_questions","survey-likert","278","1006065","0.0-6.0-6.38","2945997","co37927","norming","","","{""aha"":0}","[0]","../img/tt/1002tt.jpg","",""
"null","<div style=""font-size:60px;""> </div>","null","fixation","html-keyboard-response","279","1006268","0.0-6.0-0.39","2945997","co37927","norming","","","","","","",""
"null","../img/tt/1086tt.jpg","null","mooney1","image-keyboard-response","280","1009272","0.0-6.0-1.39","2945997","co37927","norming","","","","","","",""
"3430.29999999993","","","post_mooney1_questions","survey-likert","281","1012705","0.0-6.0-2.39","2945997","co37927","norming","","","{""curiosity"":3,""confidence"":4}","[0,1]","../img/tt/1086tt.jpg","",""
"3286.0200000000186","","","recognition","survey-text","282","1015998","0.0-6.0-3.39","2945997","co37927","norming","","","{""guess"":""husky""}","","../img/tt/1086tt.jpg","",""
"null","../img/gs/1086gs.jpg","null","reveal","image-keyboard-response","283","1018008","0.0-6.0-4.39","2945997","co37927","norming","","","","","","",""
"null","../img/tt/1086tt.jpg","null","mooney2","image-keyboard-response","284","1020010","0.0-6.0-5.39","2945997","co37927","norming","","","","","","",""
"2489.314999999944","","","post_reveal_questions","survey-likert","285","1022502","0.0-6.0-6.39","2945997","co37927","norming","","","{""aha"":1}","[0]","../img/tt/1086tt.jpg","",""
"null","<div style=""font-size:60px;""> </div>","null","fixation","html-keyboard-response","286","1022708","0.0-6.0-0.40","2945997","co37927","norming","","","","","","",""
"null","../img/tt/418tt.jpg","null","mooney1","image-keyboard-response","287","1025717","0.0-6.0-1.40","2945997","co37927","norming","","","","","","",""
"3950.6750000000466","","","post_mooney1_questions","survey-likert","288","1029670","0.0-6.0-2.40","2945997","co37927","norming","","","{""curiosity"":6,""confidence"":0}","[0,1]","../img/tt/418tt.jpg","",""
"1133.8899999998976","","","recognition","survey-text","289","1030806","0.0-6.0-3.40","2945997","co37927","norming","","","{""guess"":""""}","","../img/tt/418tt.jpg","",""
"null","../img/gs/418gs.jpg","null","reveal","image-keyboard-response","290","1032807","0.0-6.0-4.40","2945997","co37927","norming","","","","","","",""
"null","../img/tt/418tt.jpg","null","mooney2","image-keyboard-response","291","1034808","0.0-6.0-5.40","2945997","co37927","norming","","","","","","",""
"1651.234999999986","","","post_reveal_questions","survey-likert","292","1036462","0.0-6.0-6.40","2945997","co37927","norming","","","{""aha"":6}","[0]","../img/tt/418tt.jpg","",""
"null","<div style=""font-size:60px;""> </div>","null","fixation","html-keyboard-response","293","1036671","0.0-6.0-0.41","2945997","co37927","norming","","","","","","",""
"null","../img/tt/1125tt.jpg","null","mooney1","image-keyboard-response","294","1039682","0.0-6.0-1.41","2945997","co37927","norming","","","","","","",""
"2753.8649999998743","","","post_mooney1_questions","survey-likert","295","1042438","0.0-6.0-2.41","2945997","co37927","norming","","","{""curiosity"":2,""confidence"":4}","[0,1]","../img/tt/1125tt.jpg","",""
"4229.890000000014","","","recognition","survey-text","296","1046670","0.0-6.0-3.41","2945997","co37927","norming","","","{""guess"":""vioolspeler""}","","../img/tt/1125tt.jpg","",""
"null","../img/gs/1125gs.jpg","null","reveal","image-keyboard-response","297","1048679","0.0-6.0-4.41","2945997","co37927","norming","","","","","","",""
"null","../img/tt/1125tt.jpg","null","mooney2","image-keyboard-response","298","1050682","0.0-6.0-5.41","2945997","co37927","norming","","","","","","",""
"3783.689999999944","","","post_reveal_questions","survey-likert","299","1054470","0.0-6.0-6.41","2945997","co37927","norming","","","{""aha"":6}","[0]","../img/tt/1125tt.jpg","",""
"null","<div style=""font-size:60px;""> </div>","null","fixation","html-keyboard-response","300","1054677","0.0-6.0-0.42","2945997","co37927","norming","","","","","","",""
"null","../img/tt/1004tt.jpg","null","mooney1","image-keyboard-response","301","1057689","0.0-6.0-1.42","2945997","co37927","norming","","","","","","",""
"4314.47499999986","","","post_mooney1_questions","survey-likert","302","1062006","0.0-6.0-2.42","2945997","co37927","norming","","","{""curiosity"":2,""confidence"":4}","[0,1]","../img/tt/1004tt.jpg","",""
"2341.975000000093","","","recognition","survey-text","303","1064350","0.0-6.0-3.42","2945997","co37927","norming","","","{""guess"":""hond""}","","../img/tt/1004tt.jpg","",""
"null","../img/gs/1004gs.jpg","null","reveal","image-keyboard-response","304","1066357","0.0-6.0-4.42","2945997","co37927","norming","","","","","","",""
"null","../img/tt/1004tt.jpg","null","mooney2","image-keyboard-response","305","1068361","0.0-6.0-5.42","2945997","co37927","norming","","","","","","",""
"2442.9000000001397","","","post_reveal_questions","survey-likert","306","1070806","0.0-6.0-6.42","2945997","co37927","norming","","","{""aha"":6}","[0]","../img/tt/1004tt.jpg","",""
"null","<div style=""font-size:60px;""> </div>","null","fixation","html-keyboard-response","307","1071009","0.0-6.0-0.43","2945997","co37927","norming","","","","","","",""
"null","../img/tt/406tt.jpg","null","mooney1","image-keyboard-response","308","1074017","0.0-6.0-1.43","2945997","co37927","norming","","","","","","",""
"4618.229999999981","","","post_mooney1_questions","survey-likert","309","1078638","0.0-6.0-2.43","2945997","co37927","norming","","","{""curiosity"":3,""confidence"":4}","[0,1]","../img/tt/406tt.jpg","",""
"4542.219999999972","","","recognition","survey-text","310","1083182","0.0-6.0-3.43","2945997","co37927","norming","","","{""guess"":""vleermuis""}","","../img/tt/406tt.jpg","",""
"null","../img/gs/406gs.jpg","null","reveal","image-keyboard-response","311","1085187","0.0-6.0-4.43","2945997","co37927","norming","","","","","","",""
"null","../img/tt/406tt.jpg","null","mooney2","image-keyboard-response","312","1087197","0.0-6.0-5.43","2945997","co37927","norming","","","","","","",""
"2248.7600000000093","","","post_reveal_questions","survey-likert","313","1089446","0.0-6.0-6.43","2945997","co37927","norming","","","{""aha"":0}","[0]","../img/tt/406tt.jpg","",""
"null","<div style=""font-size:60px;""> </div>","null","fixation","html-keyboard-response","314","1089653","0.0-6.0-0.44","2945997","co37927","norming","","","","","","",""
"null","../img/tt/1027tt.jpg","null","mooney1","image-keyboard-response","315","1092658","0.0-6.0-1.44","2945997","co37927","norming","","","","","","",""
"6001.3549999997485","","","post_mooney1_questions","survey-likert","316","1098662","0.0-6.0-2.44","2945997","co37927","norming","","","{""curiosity"":5,""confidence"":3}","[0,1]","../img/tt/1027tt.jpg","",""
"2830.25","","","recognition","survey-text","317","1101494","0.0-6.0-3.44","2945997","co37927","norming","","","{""guess"":""olifant""}","","../img/tt/1027tt.jpg","",""
"null","../img/gs/1027gs.jpg","null","reveal","image-keyboard-response","318","1103503","0.0-6.0-4.44","2945997","co37927","norming","","","","","","",""
"null","../img/tt/1027tt.jpg","null","mooney2","image-keyboard-response","319","1105506","0.0-6.0-5.44","2945997","co37927","norming","","","","","","",""
"3138.280000000028","","","post_reveal_questions","survey-likert","320","1108646","0.0-6.0-6.44","2945997","co37927","norming","","","{""aha"":4}","[0]","../img/tt/1027tt.jpg","",""
"null","<div style=""font-size:60px;""> </div>","null","fixation","html-keyboard-response","321","1108853","0.0-6.0-0.45","2945997","co37927","norming","","","","","","",""
"null","../img/tt/1096tt.jpg","null","mooney1","image-keyboard-response","322","1111859","0.0-6.0-1.45","2945997","co37927","norming","","","","","","",""
"4296.72499999986","","","post_mooney1_questions","survey-likert","323","1116158","0.0-6.0-2.45","2945997","co37927","norming","","","{""curiosity"":5,""confidence"":2}","[0,1]","../img/tt/1096tt.jpg","",""
"3702.350000000093","","","recognition","survey-text","324","1119862","0.0-6.0-3.45","2945997","co37927","norming","","","{""guess"":""keuken""}","","../img/tt/1096tt.jpg","",""
"null","../img/gs/1096gs.jpg","null","reveal","image-keyboard-response","325","1121870","0.0-6.0-4.45","2945997","co37927","norming","","","","","","",""
"null","../img/tt/1096tt.jpg","null","mooney2","image-keyboard-response","326","1123878","0.0-6.0-5.45","2945997","co37927","norming","","","","","","",""
"1654.255000000121","","","post_reveal_questions","survey-likert","327","1125535","0.0-6.0-6.45","2945997","co37927","norming","","","{""aha"":5}","[0]","../img/tt/1096tt.jpg","",""
"null","<div style=""font-size:60px;""> </div>","null","fixation","html-keyboard-response","328","1125735","0.0-6.0-0.46","2945997","co37927","norming","","","","","","",""
"null","../img/tt/1196tt.jpg","null","mooney1","image-keyboard-response","329","1128738","0.0-6.0-1.46","2945997","co37927","norming","","","","","","",""
"8465.575000000186","","","post_mooney1_questions","survey-likert","330","1137207","0.0-6.0-2.46","2945997","co37927","norming","","","{""curiosity"":5,""confidence"":1}","[0,1]","../img/tt/1196tt.jpg","",""
"5310.030000000028","","","recognition","survey-text","331","1142519","0.0-6.0-3.46","2945997","co37927","norming","","","{""guess"":""pianospeler""}","","../img/tt/1196tt.jpg","",""
"null","../img/gs/1196gs.jpg","null","reveal","image-keyboard-response","332","1144523","0.0-6.0-4.46","2945997","co37927","norming","","","","","","",""
"null","../img/tt/1196tt.jpg","null","mooney2","image-keyboard-response","333","1146528","0.0-6.0-5.46","2945997","co37927","norming","","","","","","",""
"2564.0849999999627","","","post_reveal_questions","survey-likert","334","1149094","0.0-6.0-6.46","2945997","co37927","norming","","","{""aha"":6}","[0]","../img/tt/1196tt.jpg","",""
"null","<div style=""font-size:60px;""> </div>","null","fixation","html-keyboard-response","335","1149297","0.0-6.0-0.47","2945997","co37927","norming","","","","","","",""
"null","../img/tt/1107tt.jpg","null","mooney1","image-keyboard-response","336","1152309","0.0-6.0-1.47","2945997","co37927","norming","","","","","","",""
"6391.460000000196","","","post_mooney1_questions","survey-likert","337","1158703","0.0-6.0-2.47","2945997","co37927","norming","","","{""curiosity"":3,""confidence"":5}","[0,1]","../img/tt/1107tt.jpg","",""
"2893.744999999879","","","recognition","survey-text","338","1161599","0.0-6.0-3.47","2945997","co37927","norming","","","{""guess"":""kitten""}","","../img/tt/1107tt.jpg","",""
"null","../img/gs/1107gs.jpg","null","reveal","image-keyboard-response","339","1163600","0.0-6.0-4.47","2945997","co37927","norming","","","","","","",""
"null","../img/tt/1107tt.jpg","null","mooney2","image-keyboard-response","340","1165612","0.0-6.0-5.47","2945997","co37927","norming","","","","","","",""
"2832.590000000084","","","post_reveal_questions","survey-likert","341","1168447","0.0-6.0-6.47","2945997","co37927","norming","","","{""aha"":1}","[0]","../img/tt/1107tt.jpg","",""
"null","<div style=""font-size:60px;""> </div>","null","fixation","html-keyboard-response","342","1168657","0.0-6.0-0.48","2945997","co37927","norming","","","","","","",""
"null","../img/tt/1275tt.jpg","null","mooney1","image-keyboard-response","343","1171667","0.0-6.0-1.48","2945997","co37927","norming","","","","","","",""
"3705.0400000000373","","","post_mooney1_questions","survey-likert","344","1175375","0.0-6.0-2.48","2945997","co37927","norming","","","{""curiosity"":3,""confidence"":4}","[0,1]","../img/tt/1275tt.jpg","",""
"2542.2349999998696","","","recognition","survey-text","345","1177919","0.0-6.0-3.48","2945997","co37927","norming","","","{""guess"":""zwijn""}","","../img/tt/1275tt.jpg","",""
"null","../img/gs/1275gs.jpg","null","reveal","image-keyboard-response","346","1179927","0.0-6.0-4.48","2945997","co37927","norming","","","","","","",""
"null","../img/tt/1275tt.jpg","null","mooney2","image-keyboard-response","347","1181929","0.0-6.0-5.48","2945997","co37927","norming","","","","","","",""
"1371.195000000298","","","post_reveal_questions","survey-likert","348","1183303","0.0-6.0-6.48","2945997","co37927","norming","","","{""aha"":0}","[0]","../img/tt/1275tt.jpg","",""
"null","<div style=""font-size:60px;""> </div>","null","fixation","html-keyboard-response","349","1183504","0.0-6.0-0.49","2945997","co37927","norming","","","","","","",""
"null","../img/tt/124tt.jpg","null","mooney1","image-keyboard-response","350","1186507","0.0-6.0-1.49","2945997","co37927","norming","","","","","","",""
"3641.5250000001397","","","post_mooney1_questions","survey-likert","351","1190151","0.0-6.0-2.49","2945997","co37927","norming","","","{""curiosity"":1,""confidence"":5}","[0,1]","../img/tt/124tt.jpg","",""
"1942.2699999997858","","","recognition","survey-text","352","1192095","0.0-6.0-3.49","2945997","co37927","norming","","","{""guess"":""aap""}","","../img/tt/124tt.jpg","",""
"null","../img/gs/124gs.jpg","null","reveal","image-keyboard-response","353","1194097","0.0-6.0-4.49","2945997","co37927","norming","","","","","","",""
"null","../img/tt/124tt.jpg","null","mooney2","image-keyboard-response","354","1196107","0.0-6.0-5.49","2945997","co37927","norming","","","","","","",""
"1953.0349999999162","","","post_reveal_questions","survey-likert","355","1198053","0.0-6.0-6.49","2945997","co37927","norming","","","{""aha"":0}","[0]","../img/tt/124tt.jpg","",""
"null","<div style=""font-size:60px;""> </div>","null","fixation","html-keyboard-response","356","1198257","0.0-6.0-0.50","2945997","co37927","norming","","","","","","",""
"null","../img/tt/301tt.jpg","null","mooney1","image-keyboard-response","357","1201263","0.0-6.0-1.50","2945997","co37927","norming","","","","","","",""
"4347.655000000028","","","post_mooney1_questions","survey-likert","358","1205613","0.0-6.0-2.50","2945997","co37927","norming","","","{""curiosity"":4,""confidence"":2}","[0,1]","../img/tt/301tt.jpg","",""
"3966.0500000000466","","","recognition","survey-text","359","1209581","0.0-6.0-3.50","2945997","co37927","norming","","","{""guess"":""pistool""}","","../img/tt/301tt.jpg","",""
"null","../img/gs/301gs.jpg","null","reveal","image-keyboard-response","360","1211591","0.0-6.0-4.50","2945997","co37927","norming","","","","","","",""
"null","../img/tt/301tt.jpg","null","mooney2","image-keyboard-response","361","1213602","0.0-6.0-5.50","2945997","co37927","norming","","","","","","",""
"2121.1099999998696","","","post_reveal_questions","survey-likert","362","1215725","0.0-6.0-6.50","2945997","co37927","norming","","","{""aha"":5}","[0]","../img/tt/301tt.jpg","",""
"null","<div style=""font-size:60px;""> </div>","null","fixation","html-keyboard-response","363","1215934","0.0-6.0-0.51","2945997","co37927","norming","","","","","","",""
"null","../img/tt/1128tt.jpg","null","mooney1","image-keyboard-response","364","1218942","0.0-6.0-1.51","2945997","co37927","norming","","","","","","",""
"6604.885000000009","","","post_mooney1_questions","survey-likert","365","1225550","0.0-6.0-2.51","2945997","co37927","norming","","","{""curiosity"":6,""confidence"":0}","[0,1]","../img/tt/1128tt.jpg","",""
"1742.0549999999348","","","recognition","survey-text","366","1227293","0.0-6.0-3.51","2945997","co37927","norming","","","{""guess"":""""}","","../img/tt/1128tt.jpg","",""
"null","../img/gs/1128gs.jpg","null","reveal","image-keyboard-response","367","1229302","0.0-6.0-4.51","2945997","co37927","norming","","","","","","",""
"null","../img/tt/1128tt.jpg","null","mooney2","image-keyboard-response","368","1231305","0.0-6.0-5.51","2945997","co37927","norming","","","","","","",""
"2537.875000000233","","","post_reveal_questions","survey-likert","369","1233845","0.0-6.0-6.51","2945997","co37927","norming","","","{""aha"":6}","[0]","../img/tt/1128tt.jpg","",""
"null","<div style=""font-size:60px;""> </div>","null","fixation","html-keyboard-response","370","1234046","0.0-6.0-0.52","2945997","co37927","norming","","","","","","",""
"null","../img/tt/1061tt.jpg","null","mooney1","image-keyboard-response","371","1237049","0.0-6.0-1.52","2945997","co37927","norming","","","","","","",""
"6425.165000000037","","","post_mooney1_questions","survey-likert","372","1243477","0.0-6.0-2.52","2945997","co37927","norming","","","{""curiosity"":5,""confidence"":3}","[0,1]","../img/tt/1061tt.jpg","",""
"2838.2949999999255","","","recognition","survey-text","373","1246317","0.0-6.0-3.52","2945997","co37927","norming","","","{""guess"":""kayakker""}","","../img/tt/1061tt.jpg","",""
"null","../img/gs/1061gs.jpg","null","reveal","image-keyboard-response","374","1248324","0.0-6.0-4.52","2945997","co37927","norming","","","","","","",""
"null","../img/tt/1061tt.jpg","null","mooney2","image-keyboard-response","375","1250330","0.0-6.0-5.52","2945997","co37927","norming","","","","","","",""
"4529.989999999991","","","post_reveal_questions","survey-likert","376","1254861","0.0-6.0-6.52","2945997","co37927","norming","","","{""aha"":4}","[0]","../img/tt/1061tt.jpg","",""
"null","<div style=""font-size:60px;""> </div>","null","fixation","html-keyboard-response","377","1255065","0.0-6.0-0.53","2945997","co37927","norming","","","","","","",""
"null","../img/tt/1353tt.jpg","null","mooney1","image-keyboard-response","378","1258078","0.0-6.0-1.53","2945997","co37927","norming","","","","","","",""
"3341.9749999998603","","","post_mooney1_questions","survey-likert","379","1261423","0.0-6.0-2.53","2945997","co37927","norming","","","{""curiosity"":0,""confidence"":6}","[0,1]","../img/tt/1353tt.jpg","",""
"2646.195000000065","","","recognition","survey-text","380","1264070","0.0-6.0-3.53","2945997","co37927","norming","","","{""guess"":""paprika""}","","../img/tt/1353tt.jpg","",""
"null","../img/gs/1353gs.jpg","null","reveal","image-keyboard-response","381","1266078","0.0-6.0-4.53","2945997","co37927","norming","","","","","","",""
"null","../img/tt/1353tt.jpg","null","mooney2","image-keyboard-response","382","1268087","0.0-6.0-5.53","2945997","co37927","norming","","","","","","",""
"12428.899999999907","","","post_reveal_questions","survey-likert","383","1280519","0.0-6.0-6.53","2945997","co37927","norming","","","{""aha"":0}","[0]","../img/tt/1353tt.jpg","",""
"null","<div style=""font-size:60px;""> </div>","null","fixation","html-keyboard-response","384","1280727","0.0-6.0-0.54","2945997","co37927","norming","","","","","","",""
"null","../img/tt/1199tt.jpg","null","mooney1","image-keyboard-response","385","1283731","0.0-6.0-1.54","2945997","co37927","norming","","","","","","",""
"4744.034999999916","","","post_mooney1_questions","survey-likert","386","1288479","0.0-6.0-2.54","2945997","co37927","norming","","","{""curiosity"":6,""confidence"":0}","[0,1]","../img/tt/1199tt.jpg","",""
"1421.8949999997858","","","recognition","survey-text","387","1289902","0.0-6.0-3.54","2945997","co37927","norming","","","{""guess"":""""}","","../img/tt/1199tt.jpg","",""
"null","../img/gs/1199gs.jpg","null","reveal","image-keyboard-response","388","1291912","0.0-6.0-4.54","2945997","co37927","norming","","","","","","",""
"null","../img/tt/1199tt.jpg","null","mooney2","image-keyboard-response","389","1293921","0.0-6.0-5.54","2945997","co37927","norming","","","","","","",""
"5339.25","","","post_reveal_questions","survey-likert","390","1299262","0.0-6.0-6.54","2945997","co37927","norming","","","{""aha"":5}","[0]","../img/tt/1199tt.jpg","",""
"null","<div style=""font-size:60px;""> </div>","null","fixation","html-keyboard-response","391","1299465","0.0-6.0-0.55","2945997","co37927","norming","","","","","","",""
"null","../img/tt/1191tt.jpg","null","mooney1","image-keyboard-response","392","1302473","0.0-6.0-1.55","2945997","co37927","norming","","","","","","",""
"5778.7400000002235","","","post_mooney1_questions","survey-likert","393","1308255","0.0-6.0-2.55","2945997","co37927","norming","","","{""curiosity"":5,""confidence"":3}","[0,1]","../img/tt/1191tt.jpg","",""
"3566.0849999999627","","","recognition","survey-text","394","1311822","0.0-6.0-3.55","2945997","co37927","norming","","","{""guess"":""paardrijder""}","","../img/tt/1191tt.jpg","",""
"null","../img/gs/1191gs.jpg","null","reveal","image-keyboard-response","395","1313829","0.0-6.0-4.55","2945997","co37927","norming","","","","","","",""
"null","../img/tt/1191tt.jpg","null","mooney2","image-keyboard-response","396","1315837","0.0-6.0-5.55","2945997","co37927","norming","","","","","","",""
"17527.32999999984","","","post_reveal_questions","survey-likert","397","1333363","0.0-6.0-6.55","2945997","co37927","norming","","","{""aha"":4}","[0]","../img/tt/1191tt.jpg","",""
"null","<div style=""font-size:60px;""> </div>","null","fixation","html-keyboard-response","398","1333566","0.0-6.0-0.56","2945997","co37927","norming","","","","","","",""
"null","../img/tt/040tt.jpg","null","mooney1","image-keyboard-response","399","1336573","0.0-6.0-1.56","2945997","co37927","norming","","","","","","",""
"8731.274999999907","","","post_mooney1_questions","survey-likert","400","1345307","0.0-6.0-2.56","2945997","co37927","norming","","","{""curiosity"":5,""confidence"":3}","[0,1]","../img/tt/040tt.jpg","",""
"3174.1350000000093","","","recognition","survey-text","401","1348483","0.0-6.0-3.56","2945997","co37927","norming","","","{""guess"":""hondje""}","","../img/tt/040tt.jpg","",""
"null","../img/gs/040gs.jpg","null","reveal","image-keyboard-response","402","1350489","0.0-6.0-4.56","2945997","co37927","norming","","","","","","",""
"null","../img/tt/040tt.jpg","null","mooney2","image-keyboard-response","403","1352495","0.0-6.0-5.56","2945997","co37927","norming","","","","","","",""
"2793.560000000056","","","post_reveal_questions","survey-likert","404","1355291","0.0-6.0-6.56","2945997","co37927","norming","","","{""aha"":6}","[0]","../img/tt/040tt.jpg","",""
"null","<div style=""font-size:60px;""> </div>","null","fixation","html-keyboard-response","405","1355492","0.0-6.0-0.57","2945997","co37927","norming","","","","","","",""
"null","../img/tt/1278tt.jpg","null","mooney1","image-keyboard-response","406","1358504","0.0-6.0-1.57","2945997","co37927","norming","","","","","","",""
"7728.659999999916","","","post_mooney1_questions","survey-likert","407","1366235","0.0-6.0-2.57","2945997","co37927","norming","","","{""curiosity"":5,""confidence"":1}","[0,1]","../img/tt/1278tt.jpg","",""
"6013.925000000047","","","recognition","survey-text","408","1372251","0.0-6.0-3.57","2945997","co37927","norming","","","{""guess"":""verkleedde man""}","","../img/tt/1278tt.jpg","",""
"null","../img/gs/1278gs.jpg","null","reveal","image-keyboard-response","409","1374255","0.0-6.0-4.57","2945997","co37927","norming","","","","","","",""
"null","../img/tt/1278tt.jpg","null","mooney2","image-keyboard-response","410","1376264","0.0-6.0-5.57","2945997","co37927","norming","","","","","","",""
"2186.279999999795","","","post_reveal_questions","survey-likert","411","1378451","0.0-6.0-6.57","2945997","co37927","norming","","","{""aha"":6}","[0]","../img/tt/1278tt.jpg","",""
"null","<div style=""font-size:60px;""> </div>","null","fixation","html-keyboard-response","412","1378654","0.0-6.0-0.58","2945997","co37927","norming","","","","","","",""
"null","../img/tt/1276tt.jpg","null","mooney1","image-keyboard-response","413","1381657","0.0-6.0-1.58","2945997","co37927","norming","","","","","","",""
"4671.435000000056","","","post_mooney1_questions","survey-likert","414","1386331","0.0-6.0-2.58","2945997","co37927","norming","","","{""curiosity"":6,""confidence"":0}","[0,1]","../img/tt/1276tt.jpg","",""
"750.0849999999627","","","recognition","survey-text","415","1387083","0.0-6.0-3.58","2945997","co37927","norming","","","{""guess"":""""}","","../img/tt/1276tt.jpg","",""
"null","../img/gs/1276gs.jpg","null","reveal","image-keyboard-response","416","1389086","0.0-6.0-4.58","2945997","co37927","norming","","","","","","",""
"null","../img/tt/1276tt.jpg","null","mooney2","image-keyboard-response","417","1391094","0.0-6.0-5.58","2945997","co37927","norming","","","","","","",""
"2291.225000000093","","","post_reveal_questions","survey-likert","418","1393391","0.0-6.0-6.58","2945997","co37927","norming","","","{""aha"":6}","[0]","../img/tt/1276tt.jpg","",""
"null","<div style=""font-size:60px;""> </div>","null","fixation","html-keyboard-response","419","1393593","0.0-6.0-0.59","2945997","co37927","norming","","","","","","",""
"null","../img/tt/1123tt.jpg","null","mooney1","image-keyboard-response","420","1396601","0.0-6.0-1.59","2945997","co37927","norming","","","","","","",""
"8147.239999999991","","","post_mooney1_questions","survey-likert","421","1404751","0.0-6.0-2.59","2945997","co37927","norming","","","{""curiosity"":3,""confidence"":3}","[0,1]","../img/tt/1123tt.jpg","",""
"4125.770000000019","","","recognition","survey-text","422","1408879","0.0-6.0-3.59","2945997","co37927","norming","","","{""guess"":""balsportspeler""}","","../img/tt/1123tt.jpg","",""
"null","../img/gs/1123gs.jpg","null","reveal","image-keyboard-response","423","1410889","0.0-6.0-4.59","2945997","co37927","norming","","","","","","",""
"null","../img/tt/1123tt.jpg","null","mooney2","image-keyboard-response","424","1412892","0.0-6.0-5.59","2945997","co37927","norming","","","","","","",""
"3344.6450000002515","","","post_reveal_questions","survey-likert","425","1416239","0.0-6.0-6.59","2945997","co37927","norming","","","{""aha"":3}","[0]","../img/tt/1123tt.jpg","",""
"null","<div style=""font-size:60px;""> </div>","null","fixation","html-keyboard-response","426","1416446","0.0-6.0-0.60","2945997","co37927","norming","","","","","","",""
"null","../img/tt/1190tt.jpg","null","mooney1","image-keyboard-response","427","1419452","0.0-6.0-1.60","2945997","co37927","norming","","","","","","",""
"3632.0149999998976","","","post_mooney1_questions","survey-likert","428","1423087","0.0-6.0-2.60","2945997","co37927","norming","","","{""curiosity"":5,""confidence"":1}","[0,1]","../img/tt/1190tt.jpg","",""
"2902.2099999999627","","","recognition","survey-text","429","1425991","0.0-6.0-3.60","2945997","co37927","norming","","","{""guess"":""wolf""}","","../img/tt/1190tt.jpg","",""
"null","../img/gs/1190gs.jpg","null","reveal","image-keyboard-response","430","1428001","0.0-6.0-4.60","2945997","co37927","norming","","","","","","",""
"null","../img/tt/1190tt.jpg","null","mooney2","image-keyboard-response","431","1430003","0.0-6.0-5.60","2945997","co37927","norming","","","","","","",""
"2763.2649999996647","","","post_reveal_questions","survey-likert","432","1432767","0.0-6.0-6.60","2945997","co37927","norming","","","{""aha"":6}","[0]","../img/tt/1190tt.jpg","",""
"null","<div style=""font-size:60px;""> </div>","null","fixation","html-keyboard-response","433","1432969","0.0-6.0-0.61","2945997","co37927","norming","","","","","","",""
"null","../img/tt/300tt.jpg","null","mooney1","image-keyboard-response","434","1435977","0.0-6.0-1.61","2945997","co37927","norming","","","","","","",""
"4299.5449999999255","","","post_mooney1_questions","survey-likert","435","1440279","0.0-6.0-2.61","2945997","co37927","norming","","","{""curiosity"":5,""confidence"":3}","[0,1]","../img/tt/300tt.jpg","",""
"6038.160000000149","","","recognition","survey-text","436","1446319","0.0-6.0-3.61","2945997","co37927","norming","","","{""guess"":""danseres""}","","../img/tt/300tt.jpg","",""
"null","../img/gs/300gs.jpg","null","reveal","image-keyboard-response","437","1448324","0.0-6.0-4.61","2945997","co37927","norming","","","","","","",""
"null","../img/tt/300tt.jpg","null","mooney2","image-keyboard-response","438","1450326","0.0-6.0-5.61","2945997","co37927","norming","","","","","","",""
"2030.4750000000931","","","post_reveal_questions","survey-likert","439","1452359","0.0-6.0-6.61","2945997","co37927","norming","","","{""aha"":5}","[0]","../img/tt/300tt.jpg","",""
"null","<div style=""font-size:60px;""> </div>","null","fixation","html-keyboard-response","440","1452561","0.0-6.0-0.62","2945997","co37927","norming","","","","","","",""
"null","../img/tt/1101tt.jpg","null","mooney1","image-keyboard-response","441","1455567","0.0-6.0-1.62","2945997","co37927","norming","","","","","","",""
"4892.64000000013","","","post_mooney1_questions","survey-likert","442","1460463","0.0-6.0-2.62","2945997","co37927","norming","","","{""curiosity"":4,""confidence"":4}","[0,1]","../img/tt/1101tt.jpg","",""
"3606.034999999916","","","recognition","survey-text","443","1464071","0.0-6.0-3.62","2945997","co37927","norming","","","{""guess"":""sportspeler""}","","../img/tt/1101tt.jpg","",""
"null","../img/gs/1101gs.jpg","null","reveal","image-keyboard-response","444","1466078","0.0-6.0-4.62","2945997","co37927","norming","","","","","","",""
"null","../img/tt/1101tt.jpg","null","mooney2","image-keyboard-response","445","1468087","0.0-6.0-5.62","2945997","co37927","norming","","","","","","",""
"2628.8549999999814","","","post_reveal_questions","survey-likert","446","1470719","0.0-6.0-6.62","2945997","co37927","norming","","","{""aha"":4}","[0]","../img/tt/1101tt.jpg","",""
"null","<div style=""font-size:60px;""> </div>","null","fixation","html-keyboard-response","447","1470925","0.0-6.0-0.63","2945997","co37927","norming","","","","","","",""
"null","../img/tt/189tt.jpg","null","mooney1","image-keyboard-response","448","1473937","0.0-6.0-1.63","2945997","co37927","norming","","","","","","",""
"6539.045000000158","","","post_mooney1_questions","survey-likert","449","1480479","0.0-6.0-2.63","2945997","co37927","norming","","","{""curiosity"":4,""confidence"":1}","[0,1]","../img/tt/189tt.jpg","",""
"3094.304999999935","","","recognition","survey-text","450","1483575","0.0-6.0-3.63","2945997","co37927","norming","","","{""guess"":""hangmat""}","","../img/tt/189tt.jpg","",""
"null","../img/gs/189gs.jpg","null","reveal","image-keyboard-response","451","1485582","0.0-6.0-4.63","2945997","co37927","norming","","","","","","",""
"null","../img/tt/189tt.jpg","null","mooney2","image-keyboard-response","452","1487592","0.0-6.0-5.63","2945997","co37927","norming","","","","","","",""
"1948.7150000000838","","","post_reveal_questions","survey-likert","453","1489543","0.0-6.0-6.63","2945997","co37927","norming","","","{""aha"":4}","[0]","../img/tt/189tt.jpg","",""
"null","<div style=""font-size:60px;""> </div>","null","fixation","html-keyboard-response","454","1489746","0.0-6.0-0.64","2945997","co37927","norming","","","","","","",""
"null","../img/tt/123tt.jpg","null","mooney1","image-keyboard-response","455","1492750","0.0-6.0-1.64","2945997","co37927","norming","","","","","","",""
"3334.280000000028","","","post_mooney1_questions","survey-likert","456","1496087","0.0-6.0-2.64","2945997","co37927","norming","","","{""curiosity"":2,""confidence"":5}","[0,1]","../img/tt/123tt.jpg","",""
"2678.280000000028","","","recognition","survey-text","457","1498767","0.0-6.0-3.64","2945997","co37927","norming","","","{""guess"":""boekentas""}","","../img/tt/123tt.jpg","",""
"null","../img/gs/123gs.jpg","null","reveal","image-keyboard-response","458","1500769","0.0-6.0-4.64","2945997","co37927","norming","","","","","","",""
"null","../img/tt/123tt.jpg","null","mooney2","image-keyboard-response","459","1502778","0.0-6.0-5.64","2945997","co37927","norming","","","","","","",""
"1890.5099999997765","","","post_reveal_questions","survey-likert","460","1504671","0.0-6.0-6.64","2945997","co37927","norming","","","{""aha"":0}","[0]","../img/tt/123tt.jpg","",""
"null","<div style=""font-size:60px;""> </div>","null","fixation","html-keyboard-response","461","1504877","0.0-6.0-0.65","2945997","co37927","norming","","","","","","",""
"null","../img/tt/1156tt.jpg","null","mooney1","image-keyboard-response","462","1507882","0.0-6.0-1.65","2945997","co37927","norming","","","","","","",""
"6706.429999999935","","","post_mooney1_questions","survey-likert","463","1514591","0.0-6.0-2.65","2945997","co37927","norming","","","{""curiosity"":6,""confidence"":0}","[0,1]","../img/tt/1156tt.jpg","",""
"597.8199999998324","","","recognition","survey-text","464","1515191","0.0-6.0-3.65","2945997","co37927","norming","","","{""guess"":""""}","","../img/tt/1156tt.jpg","",""
"null","../img/gs/1156gs.jpg","null","reveal","image-keyboard-response","465","1517192","0.0-6.0-4.65","2945997","co37927","norming","","","","","","",""
"null","../img/tt/1156tt.jpg","null","mooney2","image-keyboard-response","466","1519203","0.0-6.0-5.65","2945997","co37927","norming","","","","","","",""
"2769.8299999998417","","","post_reveal_questions","survey-likert","467","1521975","0.0-6.0-6.65","2945997","co37927","norming","","","{""aha"":5}","[0]","../img/tt/1156tt.jpg","",""
"null","<div style=""font-size:60px;""> </div>","null","fixation","html-keyboard-response","468","1522181","0.0-6.0-0.66","2945997","co37927","norming","","","","","","",""
"null","../img/tt/1130tt.jpg","null","mooney1","image-keyboard-response","469","1525190","0.0-6.0-1.66","2945997","co37927","norming","","","","","","",""
"3718.2600000000093","","","post_mooney1_questions","survey-likert","470","1528911","0.0-6.0-2.66","2945997","co37927","norming","","","{""curiosity"":0,""confidence"":6}","[0,1]","../img/tt/1130tt.jpg","",""
"2862.0349999996834","","","recognition","survey-text","471","1531775","0.0-6.0-3.66","2945997","co37927","norming","","","{""guess"":""wielrenner""}","","../img/tt/1130tt.jpg","",""
"null","../img/gs/1130gs.jpg","null","reveal","image-keyboard-response","472","1533779","0.0-6.0-4.66","2945997","co37927","norming","","","","","","",""
"null","../img/tt/1130tt.jpg","null","mooney2","image-keyboard-response","473","1535781","0.0-6.0-5.66","2945997","co37927","norming","","","","","","",""
"3985.2549999998882","","","post_reveal_questions","survey-likert","474","1539767","0.0-6.0-6.66","2945997","co37927","norming","","","{""aha"":1}","[0]","../img/tt/1130tt.jpg","",""
"null","<div style=""font-size:60px;""> </div>","null","fixation","html-keyboard-response","475","1539977","0.0-6.0-0.67","2945997","co37927","norming","","","","","","",""
"null","../img/tt/496tt.jpg","null","mooney1","image-keyboard-response","476","1542981","0.0-6.0-1.67","2945997","co37927","norming","","","","","","",""
"4207.425000000047","","","post_mooney1_questions","survey-likert","477","1547191","0.0-6.0-2.67","2945997","co37927","norming","","","{""curiosity"":6,""confidence"":0}","[0,1]","../img/tt/496tt.jpg","",""
"1214.0699999998324","","","recognition","survey-text","478","1548407","0.0-6.0-3.67","2945997","co37927","norming","","","{""guess"":""""}","","../img/tt/496tt.jpg","",""
"null","../img/gs/496gs.jpg","null","reveal","image-keyboard-response","479","1550417","0.0-6.0-4.67","2945997","co37927","norming","","","","","","",""
"null","../img/tt/496tt.jpg","null","mooney2","image-keyboard-response","480","1552429","0.0-6.0-5.67","2945997","co37927","norming","","","","","","",""
"3608.0450000001583","","","post_reveal_questions","survey-likert","481","1556039","0.0-6.0-6.67","2945997","co37927","norming","","","{""aha"":6}","[0]","../img/tt/496tt.jpg","",""
"null","<div style=""font-size:60px;""> </div>","null","fixation","html-keyboard-response","482","1556246","0.0-6.0-0.68","2945997","co37927","norming","","","","","","",""
"null","../img/tt/549tt.jpg","null","mooney1","image-keyboard-response","483","1559249","0.0-6.0-1.68","2945997","co37927","norming","","","","","","",""
"5036.565000000177","","","post_mooney1_questions","survey-likert","484","1564287","0.0-6.0-2.68","2945997","co37927","norming","","","{""curiosity"":5,""confidence"":1}","[0,1]","../img/tt/549tt.jpg","",""
"3110.125","","","recognition","survey-text","485","1567399","0.0-6.0-3.68","2945997","co37927","norming","","","{""guess"":""vechter""}","","../img/tt/549tt.jpg","",""
"null","../img/gs/549gs.jpg","null","reveal","image-keyboard-response","486","1569409","0.0-6.0-4.68","2945997","co37927","norming","","","","","","",""
"null","../img/tt/549tt.jpg","null","mooney2","image-keyboard-response","487","1571417","0.0-6.0-5.68","2945997","co37927","norming","","","","","","",""
"21563.38000000012","","","post_reveal_questions","survey-likert","488","1592974","0.0-6.0-6.68","2945997","co37927","norming","","","{""aha"":4}","[0]","../img/tt/549tt.jpg","",""
"null","<div style=""font-size:60px;""> </div>","null","fixation","html-keyboard-response","489","1593177","0.0-6.0-0.69","2945997","co37927","norming","","","","","","",""
"null","../img/tt/096tt.jpg","null","mooney1","image-keyboard-response","490","1596179","0.0-6.0-1.69","2945997","co37927","norming","","","","","","",""
"4225.440000000177","","","post_mooney1_questions","survey-likert","491","1600406","0.0-6.0-2.69","2945997","co37927","norming","","","{""curiosity"":1,""confidence"":6}","[0,1]","../img/tt/096tt.jpg","",""
"2574.0400000000373","","","recognition","survey-text","492","1602982","0.0-6.0-3.69","2945997","co37927","norming","","","{""guess"":""piano""}","","../img/tt/096tt.jpg","",""
"null","../img/gs/096gs.jpg","null","reveal","image-keyboard-response","493","1604989","0.0-6.0-4.69","2945997","co37927","norming","","","","","","",""
"null","../img/tt/096tt.jpg","null","mooney2","image-keyboard-response","494","1606991","0.0-6.0-5.69","2945997","co37927","norming","","","","","","",""
"1709.0349999999162","","","post_reveal_questions","survey-likert","495","1608702","0.0-6.0-6.69","2945997","co37927","norming","","","{""aha"":0}","[0]","../img/tt/096tt.jpg","",""
"null","<div style=""font-size:60px;""> </div>","null","fixation","html-keyboard-response","496","1608913","0.0-6.0-0.70","2945997","co37927","norming","","","","","","",""
"null","../img/tt/1227tt.jpg","null","mooney1","image-keyboard-response","497","1611918","0.0-6.0-1.70","2945997","co37927","norming","","","","","","",""
"3677.6350000000093","","","post_mooney1_questions","survey-likert","498","1615598","0.0-6.0-2.70","2945997","co37927","norming","","","{""curiosity"":5,""confidence"":3}","[0,1]","../img/tt/1227tt.jpg","",""
"10286.26000000001","","","recognition","survey-text","499","1625886","0.0-6.0-3.70","2945997","co37927","norming","","","{""guess"":""zaal""}","","../img/tt/1227tt.jpg","",""
"null","../img/gs/1227gs.jpg","null","reveal","image-keyboard-response","500","1627888","0.0-6.0-4.70","2945997","co37927","norming","","","","","","",""
"null","../img/tt/1227tt.jpg","null","mooney2","image-keyboard-response","501","1629890","0.0-6.0-5.70","2945997","co37927","norming","","","","","","",""
"1706.125","","","post_reveal_questions","survey-likert","502","1631598","0.0-6.0-6.70","2945997","co37927","norming","","","{""aha"":6}","[0]","../img/tt/1227tt.jpg","",""
"null","<div style=""font-size:60px;""> </div>","null","fixation","html-keyboard-response","503","1631805","0.0-6.0-0.71","2945997","co37927","norming","","","","","","",""
"null","../img/tt/1243tt.jpg","null","mooney1","image-keyboard-response","504","1634808","0.0-6.0-1.71","2945997","co37927","norming","","","","","","",""
"6171.054999999935","","","post_mooney1_questions","survey-likert","505","1640982","0.0-6.0-2.71","2945997","co37927","norming","","","{""curiosity"":5,""confidence"":3}","[0,1]","../img/tt/1243tt.jpg","",""
"2750.04000000027","","","recognition","survey-text","506","1643734","0.0-6.0-3.71","2945997","co37927","norming","","","{""guess"":""goal""}","","../img/tt/1243tt.jpg","",""
"null","../img/gs/1243gs.jpg","null","reveal","image-keyboard-response","507","1645742","0.0-6.0-4.71","2945997","co37927","norming","","","","","","",""
"null","../img/tt/1243tt.jpg","null","mooney2","image-keyboard-response","508","1647754","0.0-6.0-5.71","2945997","co37927","norming","","","","","","",""
"2554.570000000065","","","post_reveal_questions","survey-likert","509","1650310","0.0-6.0-6.71","2945997","co37927","norming","","","{""aha"":6}","[0]","../img/tt/1243tt.jpg","",""
"null","<div style=""font-size:60px;""> </div>","null","fixation","html-keyboard-response","510","1650516","0.0-6.0-0.72","2945997","co37927","norming","","","","","","",""
"null","../img/tt/1097tt.jpg","null","mooney1","image-keyboard-response","511","1653530","0.0-6.0-1.72","2945997","co37927","norming","","","","","","",""
"5954.250000000233","","","post_mooney1_questions","survey-likert","512","1659488","0.0-6.0-2.72","2945997","co37927","norming","","","{""curiosity"":6,""confidence"":0}","[0,1]","../img/tt/1097tt.jpg","",""
"17925.970000000205","","","recognition","survey-text","513","1677415","0.0-6.0-3.72","2945997","co37927","norming","","","{""guess"":""bootje""}","","../img/tt/1097tt.jpg","",""
"null","../img/gs/1097gs.jpg","null","reveal","image-keyboard-response","514","1679419","0.0-6.0-4.72","2945997","co37927","norming","","","","","","",""
"null","../img/tt/1097tt.jpg","null","mooney2","image-keyboard-response","515","1681421","0.0-6.0-5.72","2945997","co37927","norming","","","","","","",""
"4032.2849999996834","","","post_reveal_questions","survey-likert","516","1685455","0.0-6.0-6.72","2945997","co37927","norming","","","{""aha"":2}","[0]","../img/tt/1097tt.jpg","",""
"null","<div style=""font-size:60px;""> </div>","null","fixation","html-keyboard-response","517","1685666","0.0-6.0-0.73","2945997","co37927","norming","","","","","","",""
"null","../img/tt/194tt.jpg","null","mooney1","image-keyboard-response","518","1688672","0.0-6.0-1.73","2945997","co37927","norming","","","","","","",""
"4500.805000000168","","","post_mooney1_questions","survey-likert","519","1693176","0.0-6.0-2.73","2945997","co37927","norming","","","{""curiosity"":5,""confidence"":3}","[0,1]","../img/tt/194tt.jpg","",""
"5397.600000000326","","","recognition","survey-text","520","1698575","0.0-6.0-3.73","2945997","co37927","norming","","","{""guess"":""zittende vrouw""}","","../img/tt/194tt.jpg","",""
"null","../img/gs/194gs.jpg","null","reveal","image-keyboard-response","521","1700578","0.0-6.0-4.73","2945997","co37927","norming","","","","","","",""
"null","../img/tt/194tt.jpg","null","mooney2","image-keyboard-response","522","1702588","0.0-6.0-5.73","2945997","co37927","norming","","","","","","",""
"2544.8249999999534","","","post_reveal_questions","survey-likert","523","1705135","0.0-6.0-6.73","2945997","co37927","norming","","","{""aha"":4}","[0]","../img/tt/194tt.jpg","",""
"null","<div style=""font-size:60px;""> </div>","null","fixation","html-keyboard-response","524","1705337","0.0-6.0-0.74","2945997","co37927","norming","","","","","","",""
"null","../img/tt/082tt.jpg","null","mooney1","image-keyboard-response","525","1708347","0.0-6.0-1.74","2945997","co37927","norming","","","","","","",""
"3633.470000000205","","","post_mooney1_questions","survey-likert","526","1711984","0.0-6.0-2.74","2945997","co37927","norming","","","{""curiosity"":5,""confidence"":4}","[0,1]","../img/tt/082tt.jpg","",""
"3557.9000000003725","","","recognition","survey-text","527","1715539","0.0-6.0-3.74","2945997","co37927","norming","","","{""guess"":""paardrijder""}","","../img/tt/082tt.jpg","",""
"null","../img/gs/082gs.jpg","null","reveal","image-keyboard-response","528","1717543","0.0-6.0-4.74","2945997","co37927","norming","","","","","","",""
"null","../img/tt/082tt.jpg","null","mooney2","image-keyboard-response","529","1719553","0.0-6.0-5.74","2945997","co37927","norming","","","","","","",""
"1598.565000000177","","","post_reveal_questions","survey-likert","530","1721154","0.0-6.0-6.74","2945997","co37927","norming","","","{""aha"":6}","[0]","../img/tt/082tt.jpg","",""
"null","<div style=""font-size:60px;""> </div>","null","fixation","html-keyboard-response","531","1721356","0.0-6.0-0.75","2945997","co37927","norming","","","","","","",""
"null","../img/tt/1159tt.jpg","null","mooney1","image-keyboard-response","532","1724368","0.0-6.0-1.75","2945997","co37927","norming","","","","","","",""
"5640.044999999693","","","post_mooney1_questions","survey-likert","533","1730011","0.0-6.0-2.75","2945997","co37927","norming","","","{""curiosity"":5,""confidence"":1}","[0,1]","../img/tt/1159tt.jpg","",""
"6238.1699999999255","","","recognition","survey-text","534","1736251","0.0-6.0-3.75","2945997","co37927","norming","","","{""guess"":""rugbyspeler""}","","../img/tt/1159tt.jpg","",""
"null","../img/gs/1159gs.jpg","null","reveal","image-keyboard-response","535","1738252","0.0-6.0-4.75","2945997","co37927","norming","","","","","","",""
"null","../img/tt/1159tt.jpg","null","mooney2","image-keyboard-response","536","1740254","0.0-6.0-5.75","2945997","co37927","norming","","","","","","",""
"4883.629999999888","","","post_reveal_questions","survey-likert","537","1745139","0.0-6.0-6.75","2945997","co37927","norming","","","{""aha"":3}","[0]","../img/tt/1159tt.jpg","",""
"null","<div style=""font-size:60px;""> </div>","null","fixation","html-keyboard-response","538","1745340","0.0-6.0-0.76","2945997","co37927","norming","","","","","","",""
"null","../img/tt/031tt.jpg","null","mooney1","image-keyboard-response","539","1748343","0.0-6.0-1.76","2945997","co37927","norming","","","","","","",""
"2544.7099999999627","","","post_mooney1_questions","survey-likert","540","1750891","0.0-6.0-2.76","2945997","co37927","norming","","","{""curiosity"":2,""confidence"":5}","[0,1]","../img/tt/031tt.jpg","",""
"2293.994999999879","","","recognition","survey-text","541","1753187","0.0-6.0-3.76","2945997","co37927","norming","","","{""guess"":""beer""}","","../img/tt/031tt.jpg","",""
"null","../img/gs/031gs.jpg","null","reveal","image-keyboard-response","542","1755191","0.0-6.0-4.76","2945997","co37927","norming","","","","","","",""
"null","../img/tt/031tt.jpg","null","mooney2","image-keyboard-response","543","1757194","0.0-6.0-5.76","2945997","co37927","norming","","","","","","",""
"1735.905000000028","","","post_reveal_questions","survey-likert","544","1758931","0.0-6.0-6.76","2945997","co37927","norming","","","{""aha"":0}","[0]","../img/tt/031tt.jpg","",""
"null","<div style=""font-size:60px;""> </div>","null","fixation","html-keyboard-response","545","1759134","0.0-6.0-0.77","2945997","co37927","norming","","","","","","",""
"null","../img/tt/1188tt.jpg","null","mooney1","image-keyboard-response","546","1762142","0.0-6.0-1.77","2945997","co37927","norming","","","","","","",""
"5970.209999999963","","","post_mooney1_questions","survey-likert","547","1768115","0.0-6.0-2.77","2945997","co37927","norming","","","{""curiosity"":6,""confidence"":0}","[0,1]","../img/tt/1188tt.jpg","",""
"637.7449999998789","","","recognition","survey-text","548","1768755","0.0-6.0-3.77","2945997","co37927","norming","","","{""guess"":""""}","","../img/tt/1188tt.jpg","",""
"null","../img/gs/1188gs.jpg","null","reveal","image-keyboard-response","549","1770764","0.0-6.0-4.77","2945997","co37927","norming","","","","","","",""
"null","../img/tt/1188tt.jpg","null","mooney2","image-keyboard-response","550","1772768","0.0-6.0-5.77","2945997","co37927","norming","","","","","","",""
"2336.1949999998324","","","post_reveal_questions","survey-likert","551","1775113","0.0-6.0-6.77","2945997","co37927","norming","","","{""aha"":6}","[0]","../img/tt/1188tt.jpg","",""
