"rt","stimulus","key_press","test_part","trial_type","trial_index","time_elapsed","internal_node_id","totalTime","subject","experiment_name","button_pressed","success","responses","question_order","currentStim","old","correct"
"15141.40999999654","Welcome to the experiment. This is an online experiment so please don't close the tab/window until we say goodbye.  Press any key to begin.","32","instructions","html-keyboard-response","0","15153","0.0-0.0","3325737","co37783","norming","","","","","","",""
"42073.51000000199","<div style='word-wrap: break-word; width: 900px'><h3>Please consider this information carefully before deciding whether to participate in this research</h3><ul style='text-align: left; font-size: .8em;'><li><b>Purpose of the research</b>: To examine how people process images.</li><li><b>What you will do in this research</b>:  Stimuli (images) will be presented on the computer and you will be asked different questions about them.</li><li><b>Time required</b>: Participation will take between 45 and 60 minutes to complete.</li><li><b>Risks</b>:  There are no anticipated risks associated with participating in this study. The effects of participating should be comparable to those you would experience from viewing a computer monitor for 30 minutes and using a mouse or keyboard.</li><li><b>Benefits</b>:  This study provides no benefits to you individually except for the credit. The study provides important information about the nature of perception and learning.</li><li><b>Confidentiality</b>:  Your participation in this study will remain confidential. No personally identifiable information will be associated with your data. Your de-identified data may be shared with other researchers and used in future projects.</li><li><b>Participation and withdrawal</b>:  Your participation in this study is completely voluntary and you may refuse to participate or you may choose to withdraw at any time without penalty.</li><li><b>How to contact the researchers</b>: If you have questions or concerns about your participation or payment, or want to request a summary of research findings, please contact Sander Van de Cruys (KU Leuven), at sander.vandecruys@kuleuven.be.</li></ul><p>The nature and purpose of this research have been sufficiently explained and I agree to participate in this study.  I understand that I am free to withdraw at any time without incurring any penalty.</p><p>Please consent by clicking the button below to continue. Otherwise, please exit the study at this time.</p></div>","","instructions","html-button-response","1","57229","0.0-1.0","3325737","co37783","norming","0","","","","","",""
"","","","instructions","fullscreen","2","63339","0.0-2.0","3325737","co37783","norming","","true","","","","",""
"72407.4249999976","","","sona","survey-html-form","3","135752","0.0-3.0","3325737","co37783","norming","","","[{""name"":""sonaid"",""value"":""37783""},{""name"":""debrief"",""value"":""yes""},{""name"":""datajoin"",""value"":""yes""}]","","","",""
"66035.34999999101","<div style='word-wrap: break-word; width: 900px'><h3>Instructions</h3><p>This experiment will have 3 parts. In the first part you will see a series of distorted images like the one below on the left. As you can see in the righthand image, the distorted images are derived from actual photographs. In what follows, you will <strong>briefly</strong> be presented with <strong>only</strong> the distorted image.</p> <div style='float: left; margin-right: 20px;'><img src='../img/018tt.jpg' height='250' width='250'></img></div><div style='float: right; margin-left: 20px;'><img src='../img/018gs.jpg' height='250' width='250'></img></div><p>Subsequently you will be asked a few questions about the image: One question on how <strong>curious</strong> you are about the solution and one on how <strong>confident</strong> you are that you know the solution.</p>Next, we ask you to make a guess on what is in the image. Note that it is OK to name just the <strong>basic level category</strong>. For example when you see a parrot in the image, 'parrot' will obviously be a correct answer but also correct is 'bird'. However, 'animal' will <strong>not</strong> be counted as a correct response. For the example above, 'rose' would be correct or 'flower', but not 'plant'. When soccer players are depicted, 'soccer', 'football', 'soccer players' will be correct, but not 'humans', 'outdoors', or 'sports'. You do not need to describe the image in full, just name the main object in it <strong>in one or two words</strong>. All images depict objects from one of the following broad level categories: animals, inanimate objects, plants, sports, vehicles, and food. Recognizing means knowing <strong>more</strong> than these broad labels for a given image. But we always encourage you to <strong>make a guess</strong> if you can. Note that you are allowed to use <strong>Dutch and English</strong> in your answers, whatever comes easiest for you.</p><p>Press any key to continue.</p></div>","32","instructions","html-keyboard-response","4","201793","0.0-4.0","3325737","co37783","norming","","","","","","",""
"18078.40500000748","<div style='word-wrap: break-word; width: 900px'><h3>Instructions</h3> <p>Next, the solution image will be revealed to you and you'll be asked to indicate how strong your <strong>aha-experience</strong> was after seeing the solution. This describes the positive feeling of the 'click' you sometimes experience, when the pieces of the 'puzzle' fall together and you suddenly have 'insight' in the image.</p><img src='aha.jpg' height='188' width='250'></img><p>Note that there are no right or wrong answers. We are interested in what <strong>you</strong> see in the image and how <strong>you</strong> feel about it.</p><p>Press any key to start the experiment.</p></div>","32","instructions","html-keyboard-response","5","219873","0.0-5.0","3325737","co37783","norming","","","","","","",""
"null","<div style=""font-size:60px;""> </div>","null","fixation","html-keyboard-response","6","220075","0.0-6.0-0.0","3325737","co37783","norming","","","","","","",""
"null","../img/tt/1055tt.jpg","null","mooney1","image-keyboard-response","7","223078","0.0-6.0-1.0","3325737","co37783","norming","","","","","","",""
"13889.374999998836","","","post_mooney1_questions","survey-likert","8","236969","0.0-6.0-2.0","3325737","co37783","norming","","","{""curiosity"":5,""confidence"":0}","[0,1]","../img/tt/1055tt.jpg","",""
"7645.5300000088755","","","recognition","survey-text","9","244617","0.0-6.0-3.0","3325737","co37783","norming","","","{""guess"":""boat""}","","../img/tt/1055tt.jpg","",""
"null","../img/gs/1055gs.jpg","null","reveal","image-keyboard-response","10","246622","0.0-6.0-4.0","3325737","co37783","norming","","","","","","",""
"null","../img/tt/1055tt.jpg","null","mooney2","image-keyboard-response","11","248624","0.0-6.0-5.0","3325737","co37783","norming","","","","","","",""
"5270.8200000051875","","","post_reveal_questions","survey-likert","12","253897","0.0-6.0-6.0","3325737","co37783","norming","","","{""aha"":3}","[0]","../img/tt/1055tt.jpg","",""
"null","<div style=""font-size:60px;""> </div>","null","fixation","html-keyboard-response","13","254098","0.0-6.0-0.1","3325737","co37783","norming","","","","","","",""
"null","../img/tt/1255tt.jpg","null","mooney1","image-keyboard-response","14","257107","0.0-6.0-1.1","3325737","co37783","norming","","","","","","",""
"6412.789999987581","","","post_mooney1_questions","survey-likert","15","263519","0.0-6.0-2.1","3325737","co37783","norming","","","{""curiosity"":2,""confidence"":4}","[0,1]","../img/tt/1255tt.jpg","",""
"4142.084999999497","","","recognition","survey-text","16","267663","0.0-6.0-3.1","3325737","co37783","norming","","","{""guess"":""rabbit""}","","../img/tt/1255tt.jpg","",""
"null","../img/gs/1255gs.jpg","null","reveal","image-keyboard-response","17","269666","0.0-6.0-4.1","3325737","co37783","norming","","","","","","",""
"null","../img/tt/1255tt.jpg","null","mooney2","image-keyboard-response","18","271671","0.0-6.0-5.1","3325737","co37783","norming","","","","","","",""
"3541.3550000084797","","","post_reveal_questions","survey-likert","19","275215","0.0-6.0-6.1","3325737","co37783","norming","","","{""aha"":2}","[0]","../img/tt/1255tt.jpg","",""
"null","<div style=""font-size:60px;""> </div>","null","fixation","html-keyboard-response","20","275418","0.0-6.0-0.2","3325737","co37783","norming","","","","","","",""
"null","../img/tt/436tt.jpg","null","mooney1","image-keyboard-response","21","278430","0.0-6.0-1.2","3325737","co37783","norming","","","","","","",""
"5910.524999999325","","","post_mooney1_questions","survey-likert","22","284343","0.0-6.0-2.2","3325737","co37783","norming","","","{""curiosity"":2,""confidence"":1}","[0,1]","../img/tt/436tt.jpg","",""
"4590.185000008205","","","recognition","survey-text","23","288935","0.0-6.0-3.2","3325737","co37783","norming","","","{""guess"":""zebra""}","","../img/tt/436tt.jpg","",""
"null","../img/gs/436gs.jpg","null","reveal","image-keyboard-response","24","290940","0.0-6.0-4.2","3325737","co37783","norming","","","","","","",""
"null","../img/tt/436tt.jpg","null","mooney2","image-keyboard-response","25","292945","0.0-6.0-5.2","3325737","co37783","norming","","","","","","",""
"7051.60999999498","","","post_reveal_questions","survey-likert","26","299999","0.0-6.0-6.2","3325737","co37783","norming","","","{""aha"":2}","[0]","../img/tt/436tt.jpg","",""
"null","<div style=""font-size:60px;""> </div>","null","fixation","html-keyboard-response","27","300201","0.0-6.0-0.3","3325737","co37783","norming","","","","","","",""
"null","../img/tt/1116tt.jpg","null","mooney1","image-keyboard-response","28","303209","0.0-6.0-1.3","3325737","co37783","norming","","","","","","",""
"7531.109999996261","","","post_mooney1_questions","survey-likert","29","310743","0.0-6.0-2.3","3325737","co37783","norming","","","{""curiosity"":2,""confidence"":3}","[0,1]","../img/tt/1116tt.jpg","",""
"6110.184999997728","","","recognition","survey-text","30","316855","0.0-6.0-3.3","3325737","co37783","norming","","","{""guess"":""airoplane""}","","../img/tt/1116tt.jpg","",""
"null","../img/gs/1116gs.jpg","null","reveal","image-keyboard-response","31","318863","0.0-6.0-4.3","3325737","co37783","norming","","","","","","",""
"null","../img/tt/1116tt.jpg","null","mooney2","image-keyboard-response","32","320870","0.0-6.0-5.3","3325737","co37783","norming","","","","","","",""
"3435.9649999969406","","","post_reveal_questions","survey-likert","33","324308","0.0-6.0-6.3","3325737","co37783","norming","","","{""aha"":4}","[0]","../img/tt/1116tt.jpg","",""
"null","<div style=""font-size:60px;""> </div>","null","fixation","html-keyboard-response","34","324513","0.0-6.0-0.4","3325737","co37783","norming","","","","","","",""
"null","../img/tt/279tt.jpg","null","mooney1","image-keyboard-response","35","327516","0.0-6.0-1.4","3325737","co37783","norming","","","","","","",""
"7533.129999996163","","","post_mooney1_questions","survey-likert","36","335052","0.0-6.0-2.4","3325737","co37783","norming","","","{""curiosity"":2,""confidence"":5}","[0,1]","../img/tt/279tt.jpg","",""
"6238.270000001648","","","recognition","survey-text","37","341292","0.0-6.0-3.4","3325737","co37783","norming","","","{""guess"":""koala""}","","../img/tt/279tt.jpg","",""
"null","../img/gs/279gs.jpg","null","reveal","image-keyboard-response","38","343298","0.0-6.0-4.4","3325737","co37783","norming","","","","","","",""
"null","../img/tt/279tt.jpg","null","mooney2","image-keyboard-response","39","345315","0.0-6.0-5.4","3325737","co37783","norming","","","","","","",""
"2864.3749999901047","","","post_reveal_questions","survey-likert","40","348180","0.0-6.0-6.4","3325737","co37783","norming","","","{""aha"":1}","[0]","../img/tt/279tt.jpg","",""
"null","<div style=""font-size:60px;""> </div>","null","fixation","html-keyboard-response","41","348382","0.0-6.0-0.5","3325737","co37783","norming","","","","","","",""
"null","../img/tt/080tt.jpg","null","mooney1","image-keyboard-response","42","351386","0.0-6.0-1.5","3325737","co37783","norming","","","","","","",""
"5071.35999998718","","","post_mooney1_questions","survey-likert","43","356460","0.0-6.0-2.5","3325737","co37783","norming","","","{""curiosity"":5,""confidence"":1}","[0,1]","../img/tt/080tt.jpg","",""
"6118.05999999342","","","recognition","survey-text","44","362580","0.0-6.0-3.5","3325737","co37783","norming","","","{""guess"":""egg""}","","../img/tt/080tt.jpg","",""
"null","../img/gs/080gs.jpg","null","reveal","image-keyboard-response","45","364585","0.0-6.0-4.5","3325737","co37783","norming","","","","","","",""
"null","../img/tt/080tt.jpg","null","mooney2","image-keyboard-response","46","366588","0.0-6.0-5.5","3325737","co37783","norming","","","","","","",""
"2589.86000000732","","","post_reveal_questions","survey-likert","47","369180","0.0-6.0-6.5","3325737","co37783","norming","","","{""aha"":5}","[0]","../img/tt/080tt.jpg","",""
"null","<div style=""font-size:60px;""> </div>","null","fixation","html-keyboard-response","48","369381","0.0-6.0-0.6","3325737","co37783","norming","","","","","","",""
"null","../img/tt/1247tt.jpg","null","mooney1","image-keyboard-response","49","372390","0.0-6.0-1.6","3325737","co37783","norming","","","","","","",""
"4900.130000009085","","","post_mooney1_questions","survey-likert","50","377292","0.0-6.0-2.6","3325737","co37783","norming","","","{""curiosity"":3,""confidence"":3}","[0,1]","../img/tt/1247tt.jpg","",""
"6342.124999995576","","","recognition","survey-text","51","383632","0.0-6.0-3.6","3325737","co37783","norming","","","{""guess"":""panther""}","","../img/tt/1247tt.jpg","",""
"null","../img/gs/1247gs.jpg","null","reveal","image-keyboard-response","52","385639","0.0-6.0-4.6","3325737","co37783","norming","","","","","","",""
"null","../img/tt/1247tt.jpg","null","mooney2","image-keyboard-response","53","387645","0.0-6.0-5.6","3325737","co37783","norming","","","","","","",""
"3953.815000000759","","","post_reveal_questions","survey-likert","54","391600","0.0-6.0-6.6","3325737","co37783","norming","","","{""aha"":6}","[0]","../img/tt/1247tt.jpg","",""
"null","<div style=""font-size:60px;""> </div>","null","fixation","html-keyboard-response","55","391809","0.0-6.0-0.7","3325737","co37783","norming","","","","","","",""
"null","../img/tt/1118tt.jpg","null","mooney1","image-keyboard-response","56","394812","0.0-6.0-1.7","3325737","co37783","norming","","","","","","",""
"5994.519999992917","","","post_mooney1_questions","survey-likert","57","400809","0.0-6.0-2.7","3325737","co37783","norming","","","{""curiosity"":4,""confidence"":0}","[0,1]","../img/tt/1118tt.jpg","",""
"1054.100000008475","","","recognition","survey-text","58","401864","0.0-6.0-3.7","3325737","co37783","norming","","","{""guess"":""""}","","../img/tt/1118tt.jpg","",""
"null","../img/gs/1118gs.jpg","null","reveal","image-keyboard-response","59","403874","0.0-6.0-4.7","3325737","co37783","norming","","","","","","",""
"null","../img/tt/1118tt.jpg","null","mooney2","image-keyboard-response","60","405876","0.0-6.0-5.7","3325737","co37783","norming","","","","","","",""
"3546.5150000090944","","","post_reveal_questions","survey-likert","61","409424","0.0-6.0-6.7","3325737","co37783","norming","","","{""aha"":1}","[0]","../img/tt/1118tt.jpg","",""
"null","<div style=""font-size:60px;""> </div>","null","fixation","html-keyboard-response","62","409626","0.0-6.0-0.8","3325737","co37783","norming","","","","","","",""
"null","../img/tt/1148tt.jpg","null","mooney1","image-keyboard-response","63","412636","0.0-6.0-1.8","3325737","co37783","norming","","","","","","",""
"6833.915000010165","","","post_mooney1_questions","survey-likert","64","419472","0.0-6.0-2.8","3325737","co37783","norming","","","{""curiosity"":3,""confidence"":3}","[0,1]","../img/tt/1148tt.jpg","",""
"10014.4650000002","","","recognition","survey-text","65","429488","0.0-6.0-3.8","3325737","co37783","norming","","","{""guess"":""woman painting""}","","../img/tt/1148tt.jpg","",""
"null","../img/gs/1148gs.jpg","null","reveal","image-keyboard-response","66","431496","0.0-6.0-4.8","3325737","co37783","norming","","","","","","",""
"null","../img/tt/1148tt.jpg","null","mooney2","image-keyboard-response","67","433505","0.0-6.0-5.8","3325737","co37783","norming","","","","","","",""
"2061.020000008284","","","post_reveal_questions","survey-likert","68","435568","0.0-6.0-6.8","3325737","co37783","norming","","","{""aha"":5}","[0]","../img/tt/1148tt.jpg","",""
"null","<div style=""font-size:60px;""> </div>","null","fixation","html-keyboard-response","69","435776","0.0-6.0-0.9","3325737","co37783","norming","","","","","","",""
"null","../img/tt/1200tt.jpg","null","mooney1","image-keyboard-response","70","438786","0.0-6.0-1.9","3325737","co37783","norming","","","","","","",""
"5115.9500000067055","","","post_mooney1_questions","survey-likert","71","443907","0.0-6.0-2.9","3325737","co37783","norming","","","{""curiosity"":4,""confidence"":1}","[0,1]","../img/tt/1200tt.jpg","",""
"2830.06999999634","","","recognition","survey-text","72","446739","0.0-6.0-3.9","3325737","co37783","norming","","","{""guess"":""boat""}","","../img/tt/1200tt.jpg","",""
"null","../img/gs/1200gs.jpg","null","reveal","image-keyboard-response","73","448749","0.0-6.0-4.9","3325737","co37783","norming","","","","","","",""
"null","../img/tt/1200tt.jpg","null","mooney2","image-keyboard-response","74","450751","0.0-6.0-5.9","3325737","co37783","norming","","","","","","",""
"1969.6249999979045","","","post_reveal_questions","survey-likert","75","452723","0.0-6.0-6.9","3325737","co37783","norming","","","{""aha"":5}","[0]","../img/tt/1200tt.jpg","",""
"null","<div style=""font-size:60px;""> </div>","null","fixation","html-keyboard-response","76","452924","0.0-6.0-0.10","3325737","co37783","norming","","","","","","",""
"null","../img/tt/1063tt.jpg","null","mooney1","image-keyboard-response","77","455932","0.0-6.0-1.10","3325737","co37783","norming","","","","","","",""
"4483.909999995376","","","post_mooney1_questions","survey-likert","78","460419","0.0-6.0-2.10","3325737","co37783","norming","","","{""curiosity"":4,""confidence"":3}","[0,1]","../img/tt/1063tt.jpg","",""
"6541.135000006761","","","recognition","survey-text","79","466963","0.0-6.0-3.10","3325737","co37783","norming","","","{""guess"":""sleeping dog""}","","../img/tt/1063tt.jpg","",""
"null","../img/gs/1063gs.jpg","null","reveal","image-keyboard-response","80","468974","0.0-6.0-4.10","3325737","co37783","norming","","","","","","",""
"null","../img/tt/1063tt.jpg","null","mooney2","image-keyboard-response","81","470977","0.0-6.0-5.10","3325737","co37783","norming","","","","","","",""
"4160.084999995888","","","post_reveal_questions","survey-likert","82","475139","0.0-6.0-6.10","3325737","co37783","norming","","","{""aha"":6}","[0]","../img/tt/1063tt.jpg","",""
"null","<div style=""font-size:60px;""> </div>","null","fixation","html-keyboard-response","83","475340","0.0-6.0-0.11","3325737","co37783","norming","","","","","","",""
"null","../img/tt/123tt.jpg","null","mooney1","image-keyboard-response","84","478343","0.0-6.0-1.11","3325737","co37783","norming","","","","","","",""
"5089.435000001686","","","post_mooney1_questions","survey-likert","85","483435","0.0-6.0-2.11","3325737","co37783","norming","","","{""curiosity"":4,""confidence"":1}","[0,1]","../img/tt/123tt.jpg","",""
"3750.0699999945937","","","recognition","survey-text","86","487187","0.0-6.0-3.11","3325737","co37783","norming","","","{""guess"":""boat""}","","../img/tt/123tt.jpg","",""
"null","../img/gs/123gs.jpg","null","reveal","image-keyboard-response","87","489193","0.0-6.0-4.11","3325737","co37783","norming","","","","","","",""
"null","../img/tt/123tt.jpg","null","mooney2","image-keyboard-response","88","491197","0.0-6.0-5.11","3325737","co37783","norming","","","","","","",""
"3291.9550000078743","","","post_reveal_questions","survey-likert","89","494491","0.0-6.0-6.11","3325737","co37783","norming","","","{""aha"":5}","[0]","../img/tt/123tt.jpg","",""
"null","<div style=""font-size:60px;""> </div>","null","fixation","html-keyboard-response","90","494695","0.0-6.0-0.12","3325737","co37783","norming","","","","","","",""
"null","../img/tt/416tt.jpg","null","mooney1","image-keyboard-response","91","497701","0.0-6.0-1.12","3325737","co37783","norming","","","","","","",""
"5715.330000006361","","","post_mooney1_questions","survey-likert","92","503415","0.0-6.0-2.12","3325737","co37783","norming","","","{""curiosity"":2,""confidence"":4}","[0,1]","../img/tt/416tt.jpg","",""
"6870.209999993676","","","recognition","survey-text","93","510287","0.0-6.0-3.12","3325737","co37783","norming","","","{""guess"":""ostriches""}","","../img/tt/416tt.jpg","",""
"null","../img/gs/416gs.jpg","null","reveal","image-keyboard-response","94","512291","0.0-6.0-4.12","3325737","co37783","norming","","","","","","",""
"null","../img/tt/416tt.jpg","null","mooney2","image-keyboard-response","95","514302","0.0-6.0-5.12","3325737","co37783","norming","","","","","","",""
"3599.270000006072","","","post_reveal_questions","survey-likert","96","517903","0.0-6.0-6.12","3325737","co37783","norming","","","{""aha"":0}","[0]","../img/tt/416tt.jpg","",""
"null","<div style=""font-size:60px;""> </div>","null","fixation","html-keyboard-response","97","518105","0.0-6.0-0.13","3325737","co37783","norming","","","","","","",""
"null","../img/tt/497tt.jpg","null","mooney1","image-keyboard-response","98","521114","0.0-6.0-1.13","3325737","co37783","norming","","","","","","",""
"5212.585000001127","","","post_mooney1_questions","survey-likert","99","526327","0.0-6.0-2.13","3325737","co37783","norming","","","{""curiosity"":4,""confidence"":3}","[0,1]","../img/tt/497tt.jpg","",""
"12214.025000008405","","","recognition","survey-text","100","538543","0.0-6.0-3.13","3325737","co37783","norming","","","{""guess"":""stearingwheel (not car)""}","","../img/tt/497tt.jpg","",""
"null","../img/gs/497gs.jpg","null","reveal","image-keyboard-response","101","540552","0.0-6.0-4.13","3325737","co37783","norming","","","","","","",""
"null","../img/tt/497tt.jpg","null","mooney2","image-keyboard-response","102","542560","0.0-6.0-5.13","3325737","co37783","norming","","","","","","",""
"2357.4549999902956","","","post_reveal_questions","survey-likert","103","544919","0.0-6.0-6.13","3325737","co37783","norming","","","{""aha"":5}","[0]","../img/tt/497tt.jpg","",""
"null","<div style=""font-size:60px;""> </div>","null","fixation","html-keyboard-response","104","545128","0.0-6.0-0.14","3325737","co37783","norming","","","","","","",""
"null","../img/tt/1217tt.jpg","null","mooney1","image-keyboard-response","105","548136","0.0-6.0-1.14","3325737","co37783","norming","","","","","","",""
"5085.330000001704","","","post_mooney1_questions","survey-likert","106","553223","0.0-6.0-2.14","3325737","co37783","norming","","","{""curiosity"":3,""confidence"":1}","[0,1]","../img/tt/1217tt.jpg","",""
"7446.17000001017","","","recognition","survey-text","107","560671","0.0-6.0-3.14","3325737","co37783","norming","","","{""guess"":""cow""}","","../img/tt/1217tt.jpg","",""
"null","../img/gs/1217gs.jpg","null","reveal","image-keyboard-response","108","562680","0.0-6.0-4.14","3325737","co37783","norming","","","","","","",""
"null","../img/tt/1217tt.jpg","null","mooney2","image-keyboard-response","109","564682","0.0-6.0-5.14","3325737","co37783","norming","","","","","","",""
"2537.974999999278","","","post_reveal_questions","survey-likert","110","567222","0.0-6.0-6.14","3325737","co37783","norming","","","{""aha"":6}","[0]","../img/tt/1217tt.jpg","",""
"null","<div style=""font-size:60px;""> </div>","null","fixation","html-keyboard-response","111","567426","0.0-6.0-0.15","3325737","co37783","norming","","","","","","",""
"null","../img/tt/1243tt.jpg","null","mooney1","image-keyboard-response","112","570437","0.0-6.0-1.15","3325737","co37783","norming","","","","","","",""
"5807.744999998249","","","post_mooney1_questions","survey-likert","113","576246","0.0-6.0-2.15","3325737","co37783","norming","","","{""curiosity"":4,""confidence"":1}","[0,1]","../img/tt/1243tt.jpg","",""
"3438.240000003134","","","recognition","survey-text","114","579686","0.0-6.0-3.15","3325737","co37783","norming","","","{""guess"":""bear""}","","../img/tt/1243tt.jpg","",""
"null","../img/gs/1243gs.jpg","null","reveal","image-keyboard-response","115","581688","0.0-6.0-4.15","3325737","co37783","norming","","","","","","",""
"null","../img/tt/1243tt.jpg","null","mooney2","image-keyboard-response","116","583690","0.0-6.0-5.15","3325737","co37783","norming","","","","","","",""
"2905.7400000019697","","","post_reveal_questions","survey-likert","117","586598","0.0-6.0-6.15","3325737","co37783","norming","","","{""aha"":5}","[0]","../img/tt/1243tt.jpg","",""
"null","<div style=""font-size:60px;""> </div>","null","fixation","html-keyboard-response","118","586800","0.0-6.0-0.16","3325737","co37783","norming","","","","","","",""
"null","../img/tt/189tt.jpg","null","mooney1","image-keyboard-response","119","589807","0.0-6.0-1.16","3325737","co37783","norming","","","","","","",""
"5412.230000001728","","","post_mooney1_questions","survey-likert","120","595222","0.0-6.0-2.16","3325737","co37783","norming","","","{""curiosity"":5,""confidence"":2}","[0,1]","../img/tt/189tt.jpg","",""
"4462.07000000868","","","recognition","survey-text","121","599686","0.0-6.0-3.16","3325737","co37783","norming","","","{""guess"":""butterfly""}","","../img/tt/189tt.jpg","",""
"null","../img/gs/189gs.jpg","null","reveal","image-keyboard-response","122","601694","0.0-6.0-4.16","3325737","co37783","norming","","","","","","",""
"null","../img/tt/189tt.jpg","null","mooney2","image-keyboard-response","123","603704","0.0-6.0-5.16","3325737","co37783","norming","","","","","","",""
"3339.6300000022165","","","post_reveal_questions","survey-likert","124","607046","0.0-6.0-6.16","3325737","co37783","norming","","","{""aha"":6}","[0]","../img/tt/189tt.jpg","",""
"null","<div style=""font-size:60px;""> </div>","null","fixation","html-keyboard-response","125","607247","0.0-6.0-0.17","3325737","co37783","norming","","","","","","",""
"null","../img/tt/380tt.jpg","null","mooney1","image-keyboard-response","126","610258","0.0-6.0-1.17","3325737","co37783","norming","","","","","","",""
"11698.795000003884","","","post_mooney1_questions","survey-likert","127","621958","0.0-6.0-2.17","3325737","co37783","norming","","","{""curiosity"":2,""confidence"":1}","[0,1]","../img/tt/380tt.jpg","",""
"6462.220000001253","","","recognition","survey-text","128","628422","0.0-6.0-3.17","3325737","co37783","norming","","","{""guess"":""insect""}","","../img/tt/380tt.jpg","",""
"null","../img/gs/380gs.jpg","null","reveal","image-keyboard-response","129","630423","0.0-6.0-4.17","3325737","co37783","norming","","","","","","",""
"null","../img/tt/380tt.jpg","null","mooney2","image-keyboard-response","130","632426","0.0-6.0-5.17","3325737","co37783","norming","","","","","","",""
"2057.650000002468","","","post_reveal_questions","survey-likert","131","634486","0.0-6.0-6.17","3325737","co37783","norming","","","{""aha"":5}","[0]","../img/tt/380tt.jpg","",""
"null","<div style=""font-size:60px;""> </div>","null","fixation","html-keyboard-response","132","634691","0.0-6.0-0.18","3325737","co37783","norming","","","","","","",""
"null","../img/tt/1228tt.jpg","null","mooney1","image-keyboard-response","133","637694","0.0-6.0-1.18","3325737","co37783","norming","","","","","","",""
"3797.0749999949476","","","post_mooney1_questions","survey-likert","134","641494","0.0-6.0-2.18","3325737","co37783","norming","","","{""curiosity"":4,""confidence"":1}","[0,1]","../img/tt/1228tt.jpg","",""
"4222.0499999966705","","","recognition","survey-text","135","645718","0.0-6.0-3.18","3325737","co37783","norming","","","{""guess"":""bird""}","","../img/tt/1228tt.jpg","",""
"null","../img/gs/1228gs.jpg","null","reveal","image-keyboard-response","136","647728","0.0-6.0-4.18","3325737","co37783","norming","","","","","","",""
"null","../img/tt/1228tt.jpg","null","mooney2","image-keyboard-response","137","649731","0.0-6.0-5.18","3325737","co37783","norming","","","","","","",""
"2528.5100000037346","","","post_reveal_questions","survey-likert","138","652262","0.0-6.0-6.18","3325737","co37783","norming","","","{""aha"":5}","[0]","../img/tt/1228tt.jpg","",""
"null","<div style=""font-size:60px;""> </div>","null","fixation","html-keyboard-response","139","652463","0.0-6.0-0.19","3325737","co37783","norming","","","","","","",""
"null","../img/tt/1087tt.jpg","null","mooney1","image-keyboard-response","140","655475","0.0-6.0-1.19","3325737","co37783","norming","","","","","","",""
"7120.444999993197","","","post_mooney1_questions","survey-likert","141","662598","0.0-6.0-2.19","3325737","co37783","norming","","","{""curiosity"":2,""confidence"":3}","[0,1]","../img/tt/1087tt.jpg","",""
"2782.104999991134","","","recognition","survey-text","142","665382","0.0-6.0-3.19","3325737","co37783","norming","","","{""guess"":""sheep""}","","../img/tt/1087tt.jpg","",""
"null","../img/gs/1087gs.jpg","null","reveal","image-keyboard-response","143","667392","0.0-6.0-4.19","3325737","co37783","norming","","","","","","",""
"null","../img/tt/1087tt.jpg","null","mooney2","image-keyboard-response","144","669395","0.0-6.0-5.19","3325737","co37783","norming","","","","","","",""
"2600.8900000015274","","","post_reveal_questions","survey-likert","145","671998","0.0-6.0-6.19","3325737","co37783","norming","","","{""aha"":1}","[0]","../img/tt/1087tt.jpg","",""
"null","<div style=""font-size:60px;""> </div>","null","fixation","html-keyboard-response","146","672204","0.0-6.0-0.20","3325737","co37783","norming","","","","","","",""
"null","../img/tt/1024tt.jpg","null","mooney1","image-keyboard-response","147","675213","0.0-6.0-1.20","3325737","co37783","norming","","","","","","",""
"17342.5900000002","","","post_mooney1_questions","survey-likert","148","692553","0.0-6.0-2.20","3325737","co37783","norming","","","{""curiosity"":4,""confidence"":3}","[0,1]","../img/tt/1024tt.jpg","",""
"6037.750000003143","","","recognition","survey-text","149","698593","0.0-6.0-3.20","3325737","co37783","norming","","","{""guess"":""""}","","../img/tt/1024tt.jpg","",""
"null","../img/gs/1024gs.jpg","null","reveal","image-keyboard-response","150","700599","0.0-6.0-4.20","3325737","co37783","norming","","","","","","",""
"null","../img/tt/1024tt.jpg","null","mooney2","image-keyboard-response","151","702601","0.0-6.0-5.20","3325737","co37783","norming","","","","","","",""
"4309.589999989839","","","post_reveal_questions","survey-likert","152","706913","0.0-6.0-6.20","3325737","co37783","norming","","","{""aha"":5}","[0]","../img/tt/1024tt.jpg","",""
"null","<div style=""font-size:60px;""> </div>","null","fixation","html-keyboard-response","153","707115","0.0-6.0-0.21","3325737","co37783","norming","","","","","","",""
"null","../img/tt/559tt.jpg","null","mooney1","image-keyboard-response","154","710118","0.0-6.0-1.21","3325737","co37783","norming","","","","","","",""
"12224.199999996927","","","post_mooney1_questions","survey-likert","155","722345","0.0-6.0-2.21","3325737","co37783","norming","","","{""curiosity"":4,""confidence"":1}","[0,1]","../img/tt/559tt.jpg","",""
"4022.2050000011222","","","recognition","survey-text","156","726369","0.0-6.0-3.21","3325737","co37783","norming","","","{""guess"":""chair""}","","../img/tt/559tt.jpg","",""
"null","../img/gs/559gs.jpg","null","reveal","image-keyboard-response","157","728372","0.0-6.0-4.21","3325737","co37783","norming","","","","","","",""
"null","../img/tt/559tt.jpg","null","mooney2","image-keyboard-response","158","730378","0.0-6.0-5.21","3325737","co37783","norming","","","","","","",""
"2213.000000003376","","","post_reveal_questions","survey-likert","159","732593","0.0-6.0-6.21","3325737","co37783","norming","","","{""aha"":4}","[0]","../img/tt/559tt.jpg","",""
"null","<div style=""font-size:60px;""> </div>","null","fixation","html-keyboard-response","160","732799","0.0-6.0-0.22","3325737","co37783","norming","","","","","","",""
"null","../img/tt/081tt.jpg","null","mooney1","image-keyboard-response","161","735810","0.0-6.0-1.22","3325737","co37783","norming","","","","","","",""
"4795.725000003586","","","post_mooney1_questions","survey-likert","162","740609","0.0-6.0-2.22","3325737","co37783","norming","","","{""curiosity"":3,""confidence"":1}","[0,1]","../img/tt/081tt.jpg","",""
"4782.234999991488","","","recognition","survey-text","163","745393","0.0-6.0-3.22","3325737","co37783","norming","","","{""guess"":""motor""}","","../img/tt/081tt.jpg","",""
"null","../img/gs/081gs.jpg","null","reveal","image-keyboard-response","164","747395","0.0-6.0-4.22","3325737","co37783","norming","","","","","","",""
"null","../img/tt/081tt.jpg","null","mooney2","image-keyboard-response","165","749397","0.0-6.0-5.22","3325737","co37783","norming","","","","","","",""
"2601.3549999915995","","","post_reveal_questions","survey-likert","166","752000","0.0-6.0-6.22","3325737","co37783","norming","","","{""aha"":4}","[0]","../img/tt/081tt.jpg","",""
"null","<div style=""font-size:60px;""> </div>","null","fixation","html-keyboard-response","167","752201","0.0-6.0-0.23","3325737","co37783","norming","","","","","","",""
"null","../img/tt/1027tt.jpg","null","mooney1","image-keyboard-response","168","755204","0.0-6.0-1.23","3325737","co37783","norming","","","","","","",""
"7721.30499999912","","","post_mooney1_questions","survey-likert","169","762928","0.0-6.0-2.23","3325737","co37783","norming","","","{""curiosity"":5,""confidence"":2}","[0,1]","../img/tt/1027tt.jpg","",""
"4878.3800000092015","","","recognition","survey-text","170","767808","0.0-6.0-3.23","3325737","co37783","norming","","","{""guess"":""sheep""}","","../img/tt/1027tt.jpg","",""
"null","../img/gs/1027gs.jpg","null","reveal","image-keyboard-response","171","769818","0.0-6.0-4.23","3325737","co37783","norming","","","","","","",""
"null","../img/tt/1027tt.jpg","null","mooney2","image-keyboard-response","172","771826","0.0-6.0-5.23","3325737","co37783","norming","","","","","","",""
"1923.9500000112457","","","post_reveal_questions","survey-likert","173","773752","0.0-6.0-6.23","3325737","co37783","norming","","","{""aha"":1}","[0]","../img/tt/1027tt.jpg","",""
"null","<div style=""font-size:60px;""> </div>","null","fixation","html-keyboard-response","174","773955","0.0-6.0-0.24","3325737","co37783","norming","","","","","","",""
"null","../img/tt/1123tt.jpg","null","mooney1","image-keyboard-response","175","776960","0.0-6.0-1.24","3325737","co37783","norming","","","","","","",""
"5652.365000001737","","","post_mooney1_questions","survey-likert","176","782616","0.0-6.0-2.24","3325737","co37783","norming","","","{""curiosity"":2,""confidence"":4}","[0,1]","../img/tt/1123tt.jpg","",""
"7158.125000001746","","","recognition","survey-text","177","789776","0.0-6.0-3.24","3325737","co37783","norming","","","{""guess"":""volleybal player""}","","../img/tt/1123tt.jpg","",""
"null","../img/gs/1123gs.jpg","null","reveal","image-keyboard-response","178","791778","0.0-6.0-4.24","3325737","co37783","norming","","","","","","",""
"null","../img/tt/1123tt.jpg","null","mooney2","image-keyboard-response","179","793780","0.0-6.0-5.24","3325737","co37783","norming","","","","","","",""
"2793.7849999871105","","","post_reveal_questions","survey-likert","180","796576","0.0-6.0-6.24","3325737","co37783","norming","","","{""aha"":5}","[0]","../img/tt/1123tt.jpg","",""
"null","<div style=""font-size:60px;""> </div>","null","fixation","html-keyboard-response","181","796777","0.0-6.0-0.25","3325737","co37783","norming","","","","","","",""
"null","../img/tt/036tt.jpg","null","mooney1","image-keyboard-response","182","799782","0.0-6.0-1.25","3325737","co37783","norming","","","","","","",""
"6831.18999999715","","","post_mooney1_questions","survey-likert","183","806616","0.0-6.0-2.25","3325737","co37783","norming","","","{""curiosity"":6,""confidence"":1}","[0,1]","../img/tt/036tt.jpg","",""
"2726.1100000032457","","","recognition","survey-text","184","809344","0.0-6.0-3.25","3325737","co37783","norming","","","{""guess"":""web""}","","../img/tt/036tt.jpg","",""
"null","../img/gs/036gs.jpg","null","reveal","image-keyboard-response","185","811354","0.0-6.0-4.25","3325737","co37783","norming","","","","","","",""
"null","../img/tt/036tt.jpg","null","mooney2","image-keyboard-response","186","813362","0.0-6.0-5.25","3325737","co37783","norming","","","","","","",""
"3660.134999998263","","","post_reveal_questions","survey-likert","187","817024","0.0-6.0-6.25","3325737","co37783","norming","","","{""aha"":1}","[0]","../img/tt/036tt.jpg","",""
"null","<div style=""font-size:60px;""> </div>","null","fixation","html-keyboard-response","188","817231","0.0-6.0-0.26","3325737","co37783","norming","","","","","","",""
"null","../img/tt/567tt.jpg","null","mooney1","image-keyboard-response","189","820240","0.0-6.0-1.26","3325737","co37783","norming","","","","","","",""
"5933.775000012247","","","post_mooney1_questions","survey-likert","190","826176","0.0-6.0-2.26","3325737","co37783","norming","","","{""curiosity"":4,""confidence"":1}","[0,1]","../img/tt/567tt.jpg","",""
"3029.7999999893364","","","recognition","survey-text","191","829208","0.0-6.0-3.26","3325737","co37783","norming","","","{""guess"":""steak""}","","../img/tt/567tt.jpg","",""
"null","../img/gs/567gs.jpg","null","reveal","image-keyboard-response","192","831216","0.0-6.0-4.26","3325737","co37783","norming","","","","","","",""
"null","../img/tt/567tt.jpg","null","mooney2","image-keyboard-response","193","833218","0.0-6.0-5.26","3325737","co37783","norming","","","","","","",""
"2228.0099999916274","","","post_reveal_questions","survey-likert","194","835448","0.0-6.0-6.26","3325737","co37783","norming","","","{""aha"":4}","[0]","../img/tt/567tt.jpg","",""
"null","<div style=""font-size:60px;""> </div>","null","fixation","html-keyboard-response","195","835650","0.0-6.0-0.27","3325737","co37783","norming","","","","","","",""
"null","../img/tt/1211tt.jpg","null","mooney1","image-keyboard-response","196","838654","0.0-6.0-1.27","3325737","co37783","norming","","","","","","",""
"5695.800000001327","","","post_mooney1_questions","survey-likert","197","844352","0.0-6.0-2.27","3325737","co37783","norming","","","{""curiosity"":4,""confidence"":1}","[0,1]","../img/tt/1211tt.jpg","",""
"2502.074999996694","","","recognition","survey-text","198","846856","0.0-6.0-3.27","3325737","co37783","norming","","","{""guess"":""boat""}","","../img/tt/1211tt.jpg","",""
"null","../img/gs/1211gs.jpg","null","reveal","image-keyboard-response","199","848861","0.0-6.0-4.27","3325737","co37783","norming","","","","","","",""
"null","../img/tt/1211tt.jpg","null","mooney2","image-keyboard-response","200","850869","0.0-6.0-5.27","3325737","co37783","norming","","","","","","",""
"2632.8000000066822","","","post_reveal_questions","survey-likert","201","853504","0.0-6.0-6.27","3325737","co37783","norming","","","{""aha"":5}","[0]","../img/tt/1211tt.jpg","",""
"null","<div style=""font-size:60px;""> </div>","null","fixation","html-keyboard-response","202","853706","0.0-6.0-0.28","3325737","co37783","norming","","","","","","",""
"null","../img/tt/1143tt.jpg","null","mooney1","image-keyboard-response","203","856713","0.0-6.0-1.28","3325737","co37783","norming","","","","","","",""
"4100.59000000183","","","post_mooney1_questions","survey-likert","204","860816","0.0-6.0-2.28","3325737","co37783","norming","","","{""curiosity"":4,""confidence"":2}","[0,1]","../img/tt/1143tt.jpg","",""
"7302.144999994198","","","recognition","survey-text","205","868120","0.0-6.0-3.28","3325737","co37783","norming","","","{""guess"":""cinema row""}","","../img/tt/1143tt.jpg","",""
"null","../img/gs/1143gs.jpg","null","reveal","image-keyboard-response","206","870122","0.0-6.0-4.28","3325737","co37783","norming","","","","","","",""
"null","../img/tt/1143tt.jpg","null","mooney2","image-keyboard-response","207","872124","0.0-6.0-5.28","3325737","co37783","norming","","","","","","",""
"1986.350000006496","","","post_reveal_questions","survey-likert","208","874113","0.0-6.0-6.28","3325737","co37783","norming","","","{""aha"":5}","[0]","../img/tt/1143tt.jpg","",""
"null","<div style=""font-size:60px;""> </div>","null","fixation","html-keyboard-response","209","874321","0.0-6.0-0.29","3325737","co37783","norming","","","","","","",""
"null","../img/tt/1362tt.jpg","null","mooney1","image-keyboard-response","210","877329","0.0-6.0-1.29","3325737","co37783","norming","","","","","","",""
"6404.925000009825","","","post_mooney1_questions","survey-likert","211","883737","0.0-6.0-2.29","3325737","co37783","norming","","","{""curiosity"":4,""confidence"":0}","[0,1]","../img/tt/1362tt.jpg","",""
"2526.050000000396","","","recognition","survey-text","212","886265","0.0-6.0-3.29","3325737","co37783","norming","","","{""guess"":""hat""}","","../img/tt/1362tt.jpg","",""
"null","../img/gs/1362gs.jpg","null","reveal","image-keyboard-response","213","888273","0.0-6.0-4.29","3325737","co37783","norming","","","","","","",""
"null","../img/tt/1362tt.jpg","null","mooney2","image-keyboard-response","214","890284","0.0-6.0-5.29","3325737","co37783","norming","","","","","","",""
"2907.2200000082375","","","post_reveal_questions","survey-likert","215","893192","0.0-6.0-6.29","3325737","co37783","norming","","","{""aha"":3}","[0]","../img/tt/1362tt.jpg","",""
"null","<div style=""font-size:60px;""> </div>","null","fixation","html-keyboard-response","216","893395","0.0-6.0-0.30","3325737","co37783","norming","","","","","","",""
"null","../img/tt/442tt.jpg","null","mooney1","image-keyboard-response","217","896404","0.0-6.0-1.30","3325737","co37783","norming","","","","","","",""
"5243.6650000017835","","","post_mooney1_questions","survey-likert","218","901649","0.0-6.0-2.30","3325737","co37783","norming","","","{""curiosity"":2,""confidence"":1}","[0,1]","../img/tt/442tt.jpg","",""
"3013.6199999979","","","recognition","survey-text","219","904664","0.0-6.0-3.30","3325737","co37783","norming","","","{""guess"":""insect""}","","../img/tt/442tt.jpg","",""
"null","../img/gs/442gs.jpg","null","reveal","image-keyboard-response","220","906673","0.0-6.0-4.30","3325737","co37783","norming","","","","","","",""
"null","../img/tt/442tt.jpg","null","mooney2","image-keyboard-response","221","908677","0.0-6.0-5.30","3325737","co37783","norming","","","","","","",""
"2066.7600000015227","","","post_reveal_questions","survey-likert","222","910744","0.0-6.0-6.30","3325737","co37783","norming","","","{""aha"":3}","[0]","../img/tt/442tt.jpg","",""
"null","<div style=""font-size:60px;""> </div>","null","fixation","html-keyboard-response","223","910946","0.0-6.0-0.31","3325737","co37783","norming","","","","","","",""
"null","../img/tt/085tt.jpg","null","mooney1","image-keyboard-response","224","913951","0.0-6.0-1.31","3325737","co37783","norming","","","","","","",""
"6176.625000007334","","","post_mooney1_questions","survey-likert","225","920129","0.0-6.0-2.31","3325737","co37783","norming","","","{""curiosity"":3,""confidence"":2}","[0,1]","../img/tt/085tt.jpg","",""
"6262.030000012601","","","recognition","survey-text","226","926393","0.0-6.0-3.31","3325737","co37783","norming","","","{""guess"":""insect""}","","../img/tt/085tt.jpg","",""
"null","../img/gs/085gs.jpg","null","reveal","image-keyboard-response","227","928395","0.0-6.0-4.31","3325737","co37783","norming","","","","","","",""
"null","../img/tt/085tt.jpg","null","mooney2","image-keyboard-response","228","930398","0.0-6.0-5.31","3325737","co37783","norming","","","","","","",""
"1856.130000000121","","","post_reveal_questions","survey-likert","229","932248","0.0-6.0-6.31","3325737","co37783","norming","","","{""aha"":1}","[0]","../img/tt/085tt.jpg","",""
"null","<div style=""font-size:60px;""> </div>","null","fixation","html-keyboard-response","230","932453","0.0-6.0-0.32","3325737","co37783","norming","","","","","","",""
"null","../img/tt/1069tt.jpg","null","mooney1","image-keyboard-response","231","935464","0.0-6.0-1.32","3325737","co37783","norming","","","","","","",""
"6901.8099999957485","","","post_mooney1_questions","survey-likert","232","942368","0.0-6.0-2.32","3325737","co37783","norming","","","{""curiosity"":4,""confidence"":1}","[0,1]","../img/tt/1069tt.jpg","",""
"3566.129999991972","","","recognition","survey-text","233","945936","0.0-6.0-3.32","3325737","co37783","norming","","","{""guess"":""dancer""}","","../img/tt/1069tt.jpg","",""
"null","../img/gs/1069gs.jpg","null","reveal","image-keyboard-response","234","947938","0.0-6.0-4.32","3325737","co37783","norming","","","","","","",""
"null","../img/tt/1069tt.jpg","null","mooney2","image-keyboard-response","235","949942","0.0-6.0-5.32","3325737","co37783","norming","","","","","","",""
"2887.9300000116928","","","post_reveal_questions","survey-likert","236","952832","0.0-6.0-6.32","3325737","co37783","norming","","","{""aha"":4}","[0]","../img/tt/1069tt.jpg","",""
"null","<div style=""font-size:60px;""> </div>","null","fixation","html-keyboard-response","237","953039","0.0-6.0-0.33","3325737","co37783","norming","","","","","","",""
"null","../img/tt/1012tt.jpg","null","mooney1","image-keyboard-response","238","956043","0.0-6.0-1.33","3325737","co37783","norming","","","","","","",""
"5786.08499999973","","","post_mooney1_questions","survey-likert","239","961832","0.0-6.0-2.33","3325737","co37783","norming","","","{""curiosity"":4,""confidence"":2}","[0,1]","../img/tt/1012tt.jpg","",""
"4917.990000001737","","","recognition","survey-text","240","966752","0.0-6.0-3.33","3325737","co37783","norming","","","{""guess"":""horse""}","","../img/tt/1012tt.jpg","",""
"null","../img/gs/1012gs.jpg","null","reveal","image-keyboard-response","241","968759","0.0-6.0-4.33","3325737","co37783","norming","","","","","","",""
"null","../img/tt/1012tt.jpg","null","mooney2","image-keyboard-response","242","970761","0.0-6.0-5.33","3325737","co37783","norming","","","","","","",""
"5412.0700000057695","","","post_reveal_questions","survey-likert","243","976176","0.0-6.0-6.33","3325737","co37783","norming","","","{""aha"":5}","[0]","../img/tt/1012tt.jpg","",""
"null","<div style=""font-size:60px;""> </div>","null","fixation","html-keyboard-response","244","976378","0.0-6.0-0.34","3325737","co37783","norming","","","","","","",""
"null","../img/tt/1237tt.jpg","null","mooney1","image-keyboard-response","245","979382","0.0-6.0-1.34","3325737","co37783","norming","","","","","","",""
"5800.795000002836","","","post_mooney1_questions","survey-likert","246","985184","0.0-6.0-2.34","3325737","co37783","norming","","","{""curiosity"":2,""confidence"":5}","[0,1]","../img/tt/1237tt.jpg","",""
"2958.2250000094064","","","recognition","survey-text","247","988144","0.0-6.0-3.34","3325737","co37783","norming","","","{""guess"":""duck""}","","../img/tt/1237tt.jpg","",""
"null","../img/gs/1237gs.jpg","null","reveal","image-keyboard-response","248","990146","0.0-6.0-4.34","3325737","co37783","norming","","","","","","",""
"null","../img/tt/1237tt.jpg","null","mooney2","image-keyboard-response","249","992148","0.0-6.0-5.34","3325737","co37783","norming","","","","","","",""
"3145.170000003418","","","post_reveal_questions","survey-likert","250","995304","0.0-6.0-6.34","3325737","co37783","norming","","","{""aha"":1}","[0]","../img/tt/1237tt.jpg","",""
"null","<div style=""font-size:60px;""> </div>","null","fixation","html-keyboard-response","251","995506","0.0-6.0-0.35","3325737","co37783","norming","","","","","","",""
"null","../img/tt/406tt.jpg","null","mooney1","image-keyboard-response","252","998509","0.0-6.0-1.35","3325737","co37783","norming","","","","","","",""
"5401.3449999911245","","","post_mooney1_questions","survey-likert","253","1003913","0.0-6.0-2.35","3325737","co37783","norming","","","{""curiosity"":6,""confidence"":2}","[0,1]","../img/tt/406tt.jpg","",""
"3326.0949999967124","","","recognition","survey-text","254","1007240","0.0-6.0-3.35","3325737","co37783","norming","","","{""guess"":""hoarses""}","","../img/tt/406tt.jpg","",""
"null","../img/gs/406gs.jpg","null","reveal","image-keyboard-response","255","1009250","0.0-6.0-4.35","3325737","co37783","norming","","","","","","",""
"null","../img/tt/406tt.jpg","null","mooney2","image-keyboard-response","256","1011252","0.0-6.0-5.35","3325737","co37783","norming","","","","","","",""
"6202.120000001742","","","post_reveal_questions","survey-likert","257","1017456","0.0-6.0-6.35","3325737","co37783","norming","","","{""aha"":6}","[0]","../img/tt/406tt.jpg","",""
"null","<div style=""font-size:60px;""> </div>","null","fixation","html-keyboard-response","258","1017661","0.0-6.0-0.36","3325737","co37783","norming","","","","","","",""
"null","../img/tt/412tt.jpg","null","mooney1","image-keyboard-response","259","1020672","0.0-6.0-1.36","3325737","co37783","norming","","","","","","",""
"5485.704999999143","","","post_mooney1_questions","survey-likert","260","1026160","0.0-6.0-2.36","3325737","co37783","norming","","","{""curiosity"":5,""confidence"":1}","[0,1]","../img/tt/412tt.jpg","",""
"4694.190000009257","","","recognition","survey-text","261","1030856","0.0-6.0-3.36","3325737","co37783","norming","","","{""guess"":""microphone""}","","../img/tt/412tt.jpg","",""
"null","../img/gs/412gs.jpg","null","reveal","image-keyboard-response","262","1032858","0.0-6.0-4.36","3325737","co37783","norming","","","","","","",""
"null","../img/tt/412tt.jpg","null","mooney2","image-keyboard-response","263","1034865","0.0-6.0-5.36","3325737","co37783","norming","","","","","","",""
"4389.009999998962","","","post_reveal_questions","survey-likert","264","1039256","0.0-6.0-6.36","3325737","co37783","norming","","","{""aha"":4}","[0]","../img/tt/412tt.jpg","",""
"null","<div style=""font-size:60px;""> </div>","null","fixation","html-keyboard-response","265","1039465","0.0-6.0-0.37","3325737","co37783","norming","","","","","","",""
"null","../img/tt/1097tt.jpg","null","mooney1","image-keyboard-response","266","1042475","0.0-6.0-1.37","3325737","co37783","norming","","","","","","",""
"13058.454999991343","","","post_mooney1_questions","survey-likert","267","1055535","0.0-6.0-2.37","3325737","co37783","norming","","","{""curiosity"":3,""confidence"":5}","[0,1]","../img/tt/1097tt.jpg","",""
"7541.725000002887","","","recognition","survey-text","268","1063078","0.0-6.0-3.37","3325737","co37783","norming","","","{""guess"":""rower (person)""}","","../img/tt/1097tt.jpg","",""
"null","../img/gs/1097gs.jpg","null","reveal","image-keyboard-response","269","1065089","0.0-6.0-4.37","3325737","co37783","norming","","","","","","",""
"null","../img/tt/1097tt.jpg","null","mooney2","image-keyboard-response","270","1067096","0.0-6.0-5.37","3325737","co37783","norming","","","","","","",""
"2213.6950000131037","","","post_reveal_questions","survey-likert","271","1069311","0.0-6.0-6.37","3325737","co37783","norming","","","{""aha"":2}","[0]","../img/tt/1097tt.jpg","",""
"null","<div style=""font-size:60px;""> </div>","null","fixation","html-keyboard-response","272","1069513","0.0-6.0-0.38","3325737","co37783","norming","","","","","","",""
"null","../img/tt/1078tt.jpg","null","mooney1","image-keyboard-response","273","1072515","0.0-6.0-1.38","3325737","co37783","norming","","","","","","",""
"4663.700000004843","","","post_mooney1_questions","survey-likert","274","1077183","0.0-6.0-2.38","3325737","co37783","norming","","","{""curiosity"":3,""confidence"":5}","[0,1]","../img/tt/1078tt.jpg","",""
"3062.235000004759","","","recognition","survey-text","275","1080247","0.0-6.0-3.38","3325737","co37783","norming","","","{""guess"":""skater""}","","../img/tt/1078tt.jpg","",""
"null","../img/gs/1078gs.jpg","null","reveal","image-keyboard-response","276","1082248","0.0-6.0-4.38","3325737","co37783","norming","","","","","","",""
"null","../img/tt/1078tt.jpg","null","mooney2","image-keyboard-response","277","1084251","0.0-6.0-5.38","3325737","co37783","norming","","","","","","",""
"2097.110000002198","","","post_reveal_questions","survey-likert","278","1086351","0.0-6.0-6.38","3325737","co37783","norming","","","{""aha"":0}","[0]","../img/tt/1078tt.jpg","",""
"null","<div style=""font-size:60px;""> </div>","null","fixation","html-keyboard-response","279","1086552","0.0-6.0-0.39","3325737","co37783","norming","","","","","","",""
"null","../img/tt/318tt.jpg","null","mooney1","image-keyboard-response","280","1089559","0.0-6.0-1.39","3325737","co37783","norming","","","","","","",""
"13100.879999998026","","","post_mooney1_questions","survey-likert","281","1102663","0.0-6.0-2.39","3325737","co37783","norming","","","{""curiosity"":2,""confidence"":2}","[0,1]","../img/tt/318tt.jpg","",""
"3453.5800000012387","","","recognition","survey-text","282","1106118","0.0-6.0-3.39","3325737","co37783","norming","","","{""guess"":""head""}","","../img/tt/318tt.jpg","",""
"null","../img/gs/318gs.jpg","null","reveal","image-keyboard-response","283","1108119","0.0-6.0-4.39","3325737","co37783","norming","","","","","","",""
"null","../img/tt/318tt.jpg","null","mooney2","image-keyboard-response","284","1110122","0.0-6.0-5.39","3325737","co37783","norming","","","","","","",""
"2315.4099999954924","","","post_reveal_questions","survey-likert","285","1112438","0.0-6.0-6.39","3325737","co37783","norming","","","{""aha"":5}","[0]","../img/tt/318tt.jpg","",""
"null","<div style=""font-size:60px;""> </div>","null","fixation","html-keyboard-response","286","1112642","0.0-6.0-0.40","3325737","co37783","norming","","","","","","",""
"null","../img/tt/1127tt.jpg","null","mooney1","image-keyboard-response","287","1115655","0.0-6.0-1.40","3325737","co37783","norming","","","","","","",""
"9968.605000001844","","","post_mooney1_questions","survey-likert","288","1125627","0.0-6.0-2.40","3325737","co37783","norming","","","{""curiosity"":5,""confidence"":3}","[0,1]","../img/tt/1127tt.jpg","",""
"4621.939999997383","","","recognition","survey-text","289","1130251","0.0-6.0-3.40","3325737","co37783","norming","","","{""guess"":""waiter""}","","../img/tt/1127tt.jpg","",""
"null","../img/gs/1127gs.jpg","null","reveal","image-keyboard-response","290","1132260","0.0-6.0-4.40","3325737","co37783","norming","","","","","","",""
"null","../img/tt/1127tt.jpg","null","mooney2","image-keyboard-response","291","1134262","0.0-6.0-5.40","3325737","co37783","norming","","","","","","",""
"2154.290000006091","","","post_reveal_questions","survey-likert","292","1136419","0.0-6.0-6.40","3325737","co37783","norming","","","{""aha"":5}","[0]","../img/tt/1127tt.jpg","",""
"null","<div style=""font-size:60px;""> </div>","null","fixation","html-keyboard-response","293","1136628","0.0-6.0-0.41","3325737","co37783","norming","","","","","","",""
"null","../img/tt/031tt.jpg","null","mooney1","image-keyboard-response","294","1139631","0.0-6.0-1.41","3325737","co37783","norming","","","","","","",""
"4544.785000005271","","","post_mooney1_questions","survey-likert","295","1144179","0.0-6.0-2.41","3325737","co37783","norming","","","{""curiosity"":4,""confidence"":4}","[0,1]","../img/tt/031tt.jpg","",""
"3270.25499999593","","","recognition","survey-text","296","1147451","0.0-6.0-3.41","3325737","co37783","norming","","","{""guess"":""bear""}","","../img/tt/031tt.jpg","",""
"null","../img/gs/031gs.jpg","null","reveal","image-keyboard-response","297","1149456","0.0-6.0-4.41","3325737","co37783","norming","","","","","","",""
"null","../img/tt/031tt.jpg","null","mooney2","image-keyboard-response","298","1151459","0.0-6.0-5.41","3325737","co37783","norming","","","","","","",""
"1541.0600000033155","","","post_reveal_questions","survey-likert","299","1153003","0.0-6.0-6.41","3325737","co37783","norming","","","{""aha"":4}","[0]","../img/tt/031tt.jpg","",""
"null","<div style=""font-size:60px;""> </div>","null","fixation","html-keyboard-response","300","1153204","0.0-6.0-0.42","3325737","co37783","norming","","","","","","",""
"null","../img/tt/1040tt.jpg","null","mooney1","image-keyboard-response","301","1156210","0.0-6.0-1.42","3325737","co37783","norming","","","","","","",""
"6934.9450000009965","","","post_mooney1_questions","survey-likert","302","1163147","0.0-6.0-2.42","3325737","co37783","norming","","","{""curiosity"":5,""confidence"":2}","[0,1]","../img/tt/1040tt.jpg","",""
"4077.5350000038743","","","recognition","survey-text","303","1167227","0.0-6.0-3.42","3325737","co37783","norming","","","{""guess"":""crocodille""}","","../img/tt/1040tt.jpg","",""
"null","../img/gs/1040gs.jpg","null","reveal","image-keyboard-response","304","1169234","0.0-6.0-4.42","3325737","co37783","norming","","","","","","",""
"null","../img/tt/1040tt.jpg","null","mooney2","image-keyboard-response","305","1171235","0.0-6.0-5.42","3325737","co37783","norming","","","","","","",""
"2093.57500000624","","","post_reveal_questions","survey-likert","306","1173330","0.0-6.0-6.42","3325737","co37783","norming","","","{""aha"":6}","[0]","../img/tt/1040tt.jpg","",""
"null","<div style=""font-size:60px;""> </div>","null","fixation","html-keyboard-response","307","1173537","0.0-6.0-0.43","3325737","co37783","norming","","","","","","",""
"null","../img/tt/1091tt.jpg","null","mooney1","image-keyboard-response","308","1176540","0.0-6.0-1.43","3325737","co37783","norming","","","","","","",""
"4613.710000005085","","","post_mooney1_questions","survey-likert","309","1181155","0.0-6.0-2.43","3325737","co37783","norming","","","{""curiosity"":2,""confidence"":5}","[0,1]","../img/tt/1091tt.jpg","",""
"3253.890000007348","","","recognition","survey-text","310","1184411","0.0-6.0-3.43","3325737","co37783","norming","","","{""guess"":""hoarse""}","","../img/tt/1091tt.jpg","",""
"null","../img/gs/1091gs.jpg","null","reveal","image-keyboard-response","311","1186415","0.0-6.0-4.43","3325737","co37783","norming","","","","","","",""
"null","../img/tt/1091tt.jpg","null","mooney2","image-keyboard-response","312","1188422","0.0-6.0-5.43","3325737","co37783","norming","","","","","","",""
"4138.789999997243","","","post_reveal_questions","survey-likert","313","1192563","0.0-6.0-6.43","3325737","co37783","norming","","","{""aha"":1}","[0]","../img/tt/1091tt.jpg","",""
"null","<div style=""font-size:60px;""> </div>","null","fixation","html-keyboard-response","314","1192765","0.0-6.0-0.44","3325737","co37783","norming","","","","","","",""
"null","../img/tt/1254tt.jpg","null","mooney1","image-keyboard-response","315","1195778","0.0-6.0-1.44","3325737","co37783","norming","","","","","","",""
"4869.9249999918975","","","post_mooney1_questions","survey-likert","316","1200651","0.0-6.0-2.44","3325737","co37783","norming","","","{""curiosity"":5,""confidence"":2}","[0,1]","../img/tt/1254tt.jpg","",""
"3358.0799999907613","","","recognition","survey-text","317","1204011","0.0-6.0-3.44","3325737","co37783","norming","","","{""guess"":""rabbit""}","","../img/tt/1254tt.jpg","",""
"null","../img/gs/1254gs.jpg","null","reveal","image-keyboard-response","318","1206018","0.0-6.0-4.44","3325737","co37783","norming","","","","","","",""
"null","../img/tt/1254tt.jpg","null","mooney2","image-keyboard-response","319","1208027","0.0-6.0-5.44","3325737","co37783","norming","","","","","","",""
"2885.6649999942165","","","post_reveal_questions","survey-likert","320","1210915","0.0-6.0-6.44","3325737","co37783","norming","","","{""aha"":3}","[0]","../img/tt/1254tt.jpg","",""
"null","<div style=""font-size:60px;""> </div>","null","fixation","html-keyboard-response","321","1211118","0.0-6.0-0.45","3325737","co37783","norming","","","","","","",""
"null","../img/tt/1239tt.jpg","null","mooney1","image-keyboard-response","322","1214128","0.0-6.0-1.45","3325737","co37783","norming","","","","","","",""
"7544.4649999991525","","","post_mooney1_questions","survey-likert","323","1221675","0.0-6.0-2.45","3325737","co37783","norming","","","{""curiosity"":4,""confidence"":4}","[0,1]","../img/tt/1239tt.jpg","",""
"2110.009999989299","","","recognition","survey-text","324","1223787","0.0-6.0-3.45","3325737","co37783","norming","","","{""guess"":""dog""}","","../img/tt/1239tt.jpg","",""
"null","../img/gs/1239gs.jpg","null","reveal","image-keyboard-response","325","1225797","0.0-6.0-4.45","3325737","co37783","norming","","","","","","",""
"null","../img/tt/1239tt.jpg","null","mooney2","image-keyboard-response","326","1227805","0.0-6.0-5.45","3325737","co37783","norming","","","","","","",""
"2116.0349999992177","","","post_reveal_questions","survey-likert","327","1229923","0.0-6.0-6.45","3325737","co37783","norming","","","{""aha"":1}","[0]","../img/tt/1239tt.jpg","",""
"null","<div style=""font-size:60px;""> </div>","null","fixation","html-keyboard-response","328","1230127","0.0-6.0-0.46","3325737","co37783","norming","","","","","","",""
"null","../img/tt/456tt.jpg","null","mooney1","image-keyboard-response","329","1233130","0.0-6.0-1.46","3325737","co37783","norming","","","","","","",""
"4584.694999997504","","","post_mooney1_questions","survey-likert","330","1237714","0.0-6.0-2.46","3325737","co37783","norming","","","{""curiosity"":5,""confidence"":1}","[0,1]","../img/tt/456tt.jpg","",""
"3381.8199999951757","","","recognition","survey-text","331","1241097","0.0-6.0-3.46","3325737","co37783","norming","","","{""guess"":""fish""}","","../img/tt/456tt.jpg","",""
"null","../img/gs/456gs.jpg","null","reveal","image-keyboard-response","332","1243105","0.0-6.0-4.46","3325737","co37783","norming","","","","","","",""
"null","../img/tt/456tt.jpg","null","mooney2","image-keyboard-response","333","1245106","0.0-6.0-5.46","3325737","co37783","norming","","","","","","",""
"1958.750000005355","","","post_reveal_questions","survey-likert","334","1247065","0.0-6.0-6.46","3325737","co37783","norming","","","{""aha"":6}","[0]","../img/tt/456tt.jpg","",""
"null","<div style=""font-size:60px;""> </div>","null","fixation","html-keyboard-response","335","1247269","0.0-6.0-0.47","3325737","co37783","norming","","","","","","",""
"null","../img/tt/056tt.jpg","null","mooney1","image-keyboard-response","336","1250281","0.0-6.0-1.47","3325737","co37783","norming","","","","","","",""
"4701.914999997709","","","post_mooney1_questions","survey-likert","337","1254986","0.0-6.0-2.47","3325737","co37783","norming","","","{""curiosity"":5,""confidence"":2}","[0,1]","../img/tt/056tt.jpg","",""
"3421.549999999348","","","recognition","survey-text","338","1258410","0.0-6.0-3.47","3325737","co37783","norming","","","{""guess"":""cactus""}","","../img/tt/056tt.jpg","",""
"null","../img/gs/056gs.jpg","null","reveal","image-keyboard-response","339","1260414","0.0-6.0-4.47","3325737","co37783","norming","","","","","","",""
"null","../img/tt/056tt.jpg","null","mooney2","image-keyboard-response","340","1262421","0.0-6.0-5.47","3325737","co37783","norming","","","","","","",""
"2097.7100000018254","","","post_reveal_questions","survey-likert","341","1264522","0.0-6.0-6.47","3325737","co37783","norming","","","{""aha"":5}","[0]","../img/tt/056tt.jpg","",""
"null","<div style=""font-size:60px;""> </div>","null","fixation","html-keyboard-response","342","1264723","0.0-6.0-0.48","3325737","co37783","norming","","","","","","",""
"null","../img/tt/1269tt.jpg","null","mooney1","image-keyboard-response","343","1267735","0.0-6.0-1.48","3325737","co37783","norming","","","","","","",""
"9255.95000000624","","","post_mooney1_questions","survey-likert","344","1276994","0.0-6.0-2.48","3325737","co37783","norming","","","{""curiosity"":2,""confidence"":4}","[0,1]","../img/tt/1269tt.jpg","",""
"3750.1799999880604","","","recognition","survey-text","345","1280746","0.0-6.0-3.48","3325737","co37783","norming","","","{""guess"":""squirel""}","","../img/tt/1269tt.jpg","",""
"null","../img/gs/1269gs.jpg","null","reveal","image-keyboard-response","346","1282752","0.0-6.0-4.48","3325737","co37783","norming","","","","","","",""
"null","../img/tt/1269tt.jpg","null","mooney2","image-keyboard-response","347","1284761","0.0-6.0-5.48","3325737","co37783","norming","","","","","","",""
"1629.93999999878","","","post_reveal_questions","survey-likert","348","1286394","0.0-6.0-6.48","3325737","co37783","norming","","","{""aha"":1}","[0]","../img/tt/1269tt.jpg","",""
"null","<div style=""font-size:60px;""> </div>","null","fixation","html-keyboard-response","349","1286600","0.0-6.0-0.49","3325737","co37783","norming","","","","","","",""
"null","../img/tt/1066tt.jpg","null","mooney1","image-keyboard-response","350","1289605","0.0-6.0-1.49","3325737","co37783","norming","","","","","","",""
"4081.9250000058673","","","post_mooney1_questions","survey-likert","351","1293690","0.0-6.0-2.49","3325737","co37783","norming","","","{""curiosity"":4,""confidence"":2}","[0,1]","../img/tt/1066tt.jpg","",""
"3054.130000004079","","","recognition","survey-text","352","1296746","0.0-6.0-3.49","3325737","co37783","norming","","","{""guess"":""truck""}","","../img/tt/1066tt.jpg","",""
"null","../img/gs/1066gs.jpg","null","reveal","image-keyboard-response","353","1298756","0.0-6.0-4.49","3325737","co37783","norming","","","","","","",""
"null","../img/tt/1066tt.jpg","null","mooney2","image-keyboard-response","354","1300764","0.0-6.0-5.49","3325737","co37783","norming","","","","","","",""
"6813.699999998789","","","post_reveal_questions","survey-likert","355","1307580","0.0-6.0-6.49","3325737","co37783","norming","","","{""aha"":5}","[0]","../img/tt/1066tt.jpg","",""
"null","<div style=""font-size:60px;""> </div>","null","fixation","html-keyboard-response","356","1307781","0.0-6.0-0.50","3325737","co37783","norming","","","","","","",""
"null","../img/tt/064tt.jpg","null","mooney1","image-keyboard-response","357","1310785","0.0-6.0-1.50","3325737","co37783","norming","","","","","","",""
"4911.730000006966","","","post_mooney1_questions","survey-likert","358","1315700","0.0-6.0-2.50","3325737","co37783","norming","","","{""curiosity"":4,""confidence"":2}","[0,1]","../img/tt/064tt.jpg","",""
"2214.1449999907054","","","recognition","survey-text","359","1317916","0.0-6.0-3.50","3325737","co37783","norming","","","{""guess"":""rope""}","","../img/tt/064tt.jpg","",""
"null","../img/gs/064gs.jpg","null","reveal","image-keyboard-response","360","1319923","0.0-6.0-4.50","3325737","co37783","norming","","","","","","",""
"null","../img/tt/064tt.jpg","null","mooney2","image-keyboard-response","361","1321932","0.0-6.0-5.50","3325737","co37783","norming","","","","","","",""
"2909.7600000095554","","","post_reveal_questions","survey-likert","362","1324844","0.0-6.0-6.50","3325737","co37783","norming","","","{""aha"":5}","[0]","../img/tt/064tt.jpg","",""
"null","<div style=""font-size:60px;""> </div>","null","fixation","html-keyboard-response","363","1325045","0.0-6.0-0.51","3325737","co37783","norming","","","","","","",""
"null","../img/tt/184tt.jpg","null","mooney1","image-keyboard-response","364","1328054","0.0-6.0-1.51","3325737","co37783","norming","","","","","","",""
"4547.015000003856","","","post_mooney1_questions","survey-likert","365","1332604","0.0-6.0-2.51","3325737","co37783","norming","","","{""curiosity"":5,""confidence"":1}","[0,1]","../img/tt/184tt.jpg","",""
"2862.2199999955483","","","recognition","survey-text","366","1335468","0.0-6.0-3.51","3325737","co37783","norming","","","{""guess"":""owl""}","","../img/tt/184tt.jpg","",""
"null","../img/gs/184gs.jpg","null","reveal","image-keyboard-response","367","1337475","0.0-6.0-4.51","3325737","co37783","norming","","","","","","",""
"null","../img/tt/184tt.jpg","null","mooney2","image-keyboard-response","368","1339485","0.0-6.0-5.51","3325737","co37783","norming","","","","","","",""
"3308.2350000040606","","","post_reveal_questions","survey-likert","369","1342796","0.0-6.0-6.51","3325737","co37783","norming","","","{""aha"":5}","[0]","../img/tt/184tt.jpg","",""
"null","<div style=""font-size:60px;""> </div>","null","fixation","html-keyboard-response","370","1342997","0.0-6.0-0.52","3325737","co37783","norming","","","","","","",""
"null","../img/tt/1363tt.jpg","null","mooney1","image-keyboard-response","371","1346007","0.0-6.0-1.52","3325737","co37783","norming","","","","","","",""
"7114.744999998715","","","post_mooney1_questions","survey-likert","372","1353124","0.0-6.0-2.52","3325737","co37783","norming","","","{""curiosity"":2,""confidence"":5}","[0,1]","../img/tt/1363tt.jpg","",""
"10566.205000009853","","","recognition","survey-text","373","1363683","0.0-6.0-3.52","3325737","co37783","norming","","","{""guess"":""sauce can""}","","../img/tt/1363tt.jpg","",""
"null","../img/gs/1363gs.jpg","null","reveal","image-keyboard-response","374","1365687","0.0-6.0-4.52","3325737","co37783","norming","","","","","","",""
"null","../img/tt/1363tt.jpg","null","mooney2","image-keyboard-response","375","1367692","0.0-6.0-5.52","3325737","co37783","norming","","","","","","",""
"1771.8699999968521","","","post_reveal_questions","survey-likert","376","1369467","0.0-6.0-6.52","3325737","co37783","norming","","","{""aha"":0}","[0]","../img/tt/1363tt.jpg","",""
"null","<div style=""font-size:60px;""> </div>","null","fixation","html-keyboard-response","377","1369671","0.0-6.0-0.53","3325737","co37783","norming","","","","","","",""
"null","../img/tt/1234tt.jpg","null","mooney1","image-keyboard-response","378","1372682","0.0-6.0-1.53","3325737","co37783","norming","","","","","","",""
"5526.225000008708","","","post_mooney1_questions","survey-likert","379","1378211","0.0-6.0-2.53","3325737","co37783","norming","","","{""curiosity"":4,""confidence"":2}","[0,1]","../img/tt/1234tt.jpg","",""
"3021.999999997206","","","recognition","survey-text","380","1381235","0.0-6.0-3.53","3325737","co37783","norming","","","{""guess"":""boat""}","","../img/tt/1234tt.jpg","",""
"null","../img/gs/1234gs.jpg","null","reveal","image-keyboard-response","381","1383242","0.0-6.0-4.53","3325737","co37783","norming","","","","","","",""
"null","../img/tt/1234tt.jpg","null","mooney2","image-keyboard-response","382","1385251","0.0-6.0-5.53","3325737","co37783","norming","","","","","","",""
"4285.235000003129","","","post_reveal_questions","survey-likert","383","1389539","0.0-6.0-6.53","3325737","co37783","norming","","","{""aha"":4}","[0]","../img/tt/1234tt.jpg","",""
"null","<div style=""font-size:60px;""> </div>","null","fixation","html-keyboard-response","384","1389740","0.0-6.0-0.54","3325737","co37783","norming","","","","","","",""
"null","../img/tt/1205tt.jpg","null","mooney1","image-keyboard-response","385","1392748","0.0-6.0-1.54","3325737","co37783","norming","","","","","","",""
"8740.34500001301","","","post_mooney1_questions","survey-likert","386","1401491","0.0-6.0-2.54","3325737","co37783","norming","","","{""curiosity"":4,""confidence"":3}","[0,1]","../img/tt/1205tt.jpg","",""
"4445.9550000028685","","","recognition","survey-text","387","1405939","0.0-6.0-3.54","3325737","co37783","norming","","","{""guess"":""dancers""}","","../img/tt/1205tt.jpg","",""
"null","../img/gs/1205gs.jpg","null","reveal","image-keyboard-response","388","1407940","0.0-6.0-4.54","3325737","co37783","norming","","","","","","",""
"null","../img/tt/1205tt.jpg","null","mooney2","image-keyboard-response","389","1409943","0.0-6.0-5.54","3325737","co37783","norming","","","","","","",""
"2088.1499999961816","","","post_reveal_questions","survey-likert","390","1412035","0.0-6.0-6.54","3325737","co37783","norming","","","{""aha"":2}","[0]","../img/tt/1205tt.jpg","",""
"null","<div style=""font-size:60px;""> </div>","null","fixation","html-keyboard-response","391","1412239","0.0-6.0-0.55","3325737","co37783","norming","","","","","","",""
"null","../img/tt/1235tt.jpg","null","mooney1","image-keyboard-response","392","1415247","0.0-6.0-1.55","3325737","co37783","norming","","","","","","",""
"4097.1300000092015","","","post_mooney1_questions","survey-likert","393","1419350","0.0-6.0-2.55","3325737","co37783","norming","","","{""curiosity"":4,""confidence"":4}","[0,1]","../img/tt/1235tt.jpg","",""
"2974.0349999922328","","","recognition","survey-text","394","1422326","0.0-6.0-3.55","3325737","co37783","norming","","","{""guess"":""rabbit""}","","../img/tt/1235tt.jpg","",""
"null","../img/gs/1235gs.jpg","null","reveal","image-keyboard-response","395","1424333","0.0-6.0-4.55","3325737","co37783","norming","","","","","","",""
"null","../img/tt/1235tt.jpg","null","mooney2","image-keyboard-response","396","1426344","0.0-6.0-5.55","3325737","co37783","norming","","","","","","",""
"2540.229999998817","","","post_reveal_questions","survey-likert","397","1428886","0.0-6.0-6.55","3325737","co37783","norming","","","{""aha"":6}","[0]","../img/tt/1235tt.jpg","",""
"null","<div style=""font-size:60px;""> </div>","null","fixation","html-keyboard-response","398","1429088","0.0-6.0-0.56","3325737","co37783","norming","","","","","","",""
"null","../img/tt/307tt.jpg","null","mooney1","image-keyboard-response","399","1432089","0.0-6.0-1.56","3325737","co37783","norming","","","","","","",""
"7937.680000002729","","","post_mooney1_questions","survey-likert","400","1440030","0.0-6.0-2.56","3325737","co37783","norming","","","{""curiosity"":6,""confidence"":1}","[0,1]","../img/tt/307tt.jpg","",""
"3990.0000000051223","","","recognition","survey-text","401","1444022","0.0-6.0-3.56","3325737","co37783","norming","","","{""guess"":""shoes""}","","../img/tt/307tt.jpg","",""
"null","../img/gs/307gs.jpg","null","reveal","image-keyboard-response","402","1446030","0.0-6.0-4.56","3325737","co37783","norming","","","","","","",""
"null","../img/tt/307tt.jpg","null","mooney2","image-keyboard-response","403","1448037","0.0-6.0-5.56","3325737","co37783","norming","","","","","","",""
"2119.0500000086613","","","post_reveal_questions","survey-likert","404","1450158","0.0-6.0-6.56","3325737","co37783","norming","","","{""aha"":6}","[0]","../img/tt/307tt.jpg","",""
"null","<div style=""font-size:60px;""> </div>","null","fixation","html-keyboard-response","405","1450363","0.0-6.0-0.57","3325737","co37783","norming","","","","","","",""
"null","../img/tt/296tt.jpg","null","mooney1","image-keyboard-response","406","1453365","0.0-6.0-1.57","3325737","co37783","norming","","","","","","",""
"13621.975000001956","","","post_mooney1_questions","survey-likert","407","1466990","0.0-6.0-2.57","3325737","co37783","norming","","","{""curiosity"":5,""confidence"":2}","[0,1]","../img/tt/296tt.jpg","",""
"3957.829999999143","","","recognition","survey-text","408","1470950","0.0-6.0-3.57","3325737","co37783","norming","","","{""guess"":""coffin""}","","../img/tt/296tt.jpg","",""
"null","../img/gs/296gs.jpg","null","reveal","image-keyboard-response","409","1472956","0.0-6.0-4.57","3325737","co37783","norming","","","","","","",""
"null","../img/tt/296tt.jpg","null","mooney2","image-keyboard-response","410","1474958","0.0-6.0-5.57","3325737","co37783","norming","","","","","","",""
"3359.10000000149","","","post_reveal_questions","survey-likert","411","1478318","0.0-6.0-6.57","3325737","co37783","norming","","","{""aha"":5}","[0]","../img/tt/296tt.jpg","",""
"null","<div style=""font-size:60px;""> </div>","null","fixation","html-keyboard-response","412","1478526","0.0-6.0-0.58","3325737","co37783","norming","","","","","","",""
"null","../img/tt/1226tt.jpg","null","mooney1","image-keyboard-response","413","1481540","0.0-6.0-1.58","3325737","co37783","norming","","","","","","",""
"5790.655000004452","","","post_mooney1_questions","survey-likert","414","1487333","0.0-6.0-2.58","3325737","co37783","norming","","","{""curiosity"":2,""confidence"":3}","[0,1]","../img/tt/1226tt.jpg","",""
"3621.964999998454","","","recognition","survey-text","415","1490957","0.0-6.0-3.58","3325737","co37783","norming","","","{""guess"":""ducks""}","","../img/tt/1226tt.jpg","",""
"null","../img/gs/1226gs.jpg","null","reveal","image-keyboard-response","416","1492959","0.0-6.0-4.58","3325737","co37783","norming","","","","","","",""
"null","../img/tt/1226tt.jpg","null","mooney2","image-keyboard-response","417","1494969","0.0-6.0-5.58","3325737","co37783","norming","","","","","","",""
"2081.5900000017136","","","post_reveal_questions","survey-likert","418","1497053","0.0-6.0-6.58","3325737","co37783","norming","","","{""aha"":4}","[0]","../img/tt/1226tt.jpg","",""
"null","<div style=""font-size:60px;""> </div>","null","fixation","html-keyboard-response","419","1497256","0.0-6.0-0.59","3325737","co37783","norming","","","","","","",""
"null","../img/tt/1044tt.jpg","null","mooney1","image-keyboard-response","420","1500262","0.0-6.0-1.59","3325737","co37783","norming","","","","","","",""
"4243.990000002785","","","post_mooney1_questions","survey-likert","421","1504509","0.0-6.0-2.59","3325737","co37783","norming","","","{""curiosity"":5,""confidence"":3}","[0,1]","../img/tt/1044tt.jpg","",""
"3518.1100000045262","","","recognition","survey-text","422","1508029","0.0-6.0-3.59","3325737","co37783","norming","","","{""guess"":""giraffe""}","","../img/tt/1044tt.jpg","",""
"null","../img/gs/1044gs.jpg","null","reveal","image-keyboard-response","423","1510034","0.0-6.0-4.59","3325737","co37783","norming","","","","","","",""
"null","../img/tt/1044tt.jpg","null","mooney2","image-keyboard-response","424","1512037","0.0-6.0-5.59","3325737","co37783","norming","","","","","","",""
"2941.3499999938067","","","post_reveal_questions","survey-likert","425","1514981","0.0-6.0-6.59","3325737","co37783","norming","","","{""aha"":2}","[0]","../img/tt/1044tt.jpg","",""
"null","<div style=""font-size:60px;""> </div>","null","fixation","html-keyboard-response","426","1515184","0.0-6.0-0.60","3325737","co37783","norming","","","","","","",""
"null","../img/tt/112tt.jpg","null","mooney1","image-keyboard-response","427","1518185","0.0-6.0-1.60","3325737","co37783","norming","","","","","","",""
"5177.209999994375","","","post_mooney1_questions","survey-likert","428","1523365","0.0-6.0-2.60","3325737","co37783","norming","","","{""curiosity"":3,""confidence"":3}","[0,1]","../img/tt/112tt.jpg","",""
"5045.865000007441","","","recognition","survey-text","429","1528413","0.0-6.0-3.60","3325737","co37783","norming","","","{""guess"":""wine bottle""}","","../img/tt/112tt.jpg","",""
"null","../img/gs/112gs.jpg","null","reveal","image-keyboard-response","430","1530415","0.0-6.0-4.60","3325737","co37783","norming","","","","","","",""
"null","../img/tt/112tt.jpg","null","mooney2","image-keyboard-response","431","1532418","0.0-6.0-5.60","3325737","co37783","norming","","","","","","",""
"3121.2399999932386","","","post_reveal_questions","survey-likert","432","1535541","0.0-6.0-6.60","3325737","co37783","norming","","","{""aha"":5}","[0]","../img/tt/112tt.jpg","",""
"null","<div style=""font-size:60px;""> </div>","null","fixation","html-keyboard-response","433","1535747","0.0-6.0-0.61","3325737","co37783","norming","","","","","","",""
"null","../img/tt/603tt.jpg","null","mooney1","image-keyboard-response","434","1538758","0.0-6.0-1.61","3325737","co37783","norming","","","","","","",""
"6579.610000000568","","","post_mooney1_questions","survey-likert","435","1545342","0.0-6.0-2.61","3325737","co37783","norming","","","{""curiosity"":6,""confidence"":1}","[0,1]","../img/tt/603tt.jpg","",""
"3422.0200000128243","","","recognition","survey-text","436","1548765","0.0-6.0-3.61","3325737","co37783","norming","","","{""guess"":""duck""}","","../img/tt/603tt.jpg","",""
"null","../img/gs/603gs.jpg","null","reveal","image-keyboard-response","437","1550773","0.0-6.0-4.61","3325737","co37783","norming","","","","","","",""
"null","../img/tt/603tt.jpg","null","mooney2","image-keyboard-response","438","1552774","0.0-6.0-5.61","3325737","co37783","norming","","","","","","",""
"1948.4249999951571","","","post_reveal_questions","survey-likert","439","1554725","0.0-6.0-6.61","3325737","co37783","norming","","","{""aha"":5}","[0]","../img/tt/603tt.jpg","",""
"null","<div style=""font-size:60px;""> </div>","null","fixation","html-keyboard-response","440","1554929","0.0-6.0-0.62","3325737","co37783","norming","","","","","","",""
"null","../img/tt/273tt.jpg","null","mooney1","image-keyboard-response","441","1557933","0.0-6.0-1.62","3325737","co37783","norming","","","","","","",""
"6085.10999999987","","","post_mooney1_questions","survey-likert","442","1564022","0.0-6.0-2.62","3325737","co37783","norming","","","{""curiosity"":4,""confidence"":1}","[0,1]","../img/tt/273tt.jpg","",""
"2998.160000002943","","","recognition","survey-text","443","1567021","0.0-6.0-3.62","3325737","co37783","norming","","","{""guess"":""hand""}","","../img/tt/273tt.jpg","",""
"null","../img/gs/273gs.jpg","null","reveal","image-keyboard-response","444","1569024","0.0-6.0-4.62","3325737","co37783","norming","","","","","","",""
"null","../img/tt/273tt.jpg","null","mooney2","image-keyboard-response","445","1571031","0.0-6.0-5.62","3325737","co37783","norming","","","","","","",""
"3451.9349999898113","","","post_reveal_questions","survey-likert","446","1574485","0.0-6.0-6.62","3325737","co37783","norming","","","{""aha"":3}","[0]","../img/tt/273tt.jpg","",""
"null","<div style=""font-size:60px;""> </div>","null","fixation","html-keyboard-response","447","1574687","0.0-6.0-0.63","3325737","co37783","norming","","","","","","",""
"null","../img/tt/496tt.jpg","null","mooney1","image-keyboard-response","448","1577689","0.0-6.0-1.63","3325737","co37783","norming","","","","","","",""
"5217.155000005849","","","post_mooney1_questions","survey-likert","449","1582910","0.0-6.0-2.63","3325737","co37783","norming","","","{""curiosity"":2,""confidence"":1}","[0,1]","../img/tt/496tt.jpg","",""
"2734.0800000093877","","","recognition","survey-text","450","1585645","0.0-6.0-3.63","3325737","co37783","norming","","","{""guess"":""wolf""}","","../img/tt/496tt.jpg","",""
"null","../img/gs/496gs.jpg","null","reveal","image-keyboard-response","451","1587652","0.0-6.0-4.63","3325737","co37783","norming","","","","","","",""
"null","../img/tt/496tt.jpg","null","mooney2","image-keyboard-response","452","1589662","0.0-6.0-5.63","3325737","co37783","norming","","","","","","",""
"2284.874999997439","","","post_reveal_questions","survey-likert","453","1591950","0.0-6.0-6.63","3325737","co37783","norming","","","{""aha"":4}","[0]","../img/tt/496tt.jpg","",""
"null","<div style=""font-size:60px;""> </div>","null","fixation","html-keyboard-response","454","1592158","0.0-6.0-0.64","3325737","co37783","norming","","","","","","",""
"null","../img/tt/1251tt.jpg","null","mooney1","image-keyboard-response","455","1595164","0.0-6.0-1.64","3325737","co37783","norming","","","","","","",""
"4768.219999997877","","","post_mooney1_questions","survey-likert","456","1599934","0.0-6.0-2.64","3325737","co37783","norming","","","{""curiosity"":5,""confidence"":1}","[0,1]","../img/tt/1251tt.jpg","",""
"3054.0949999997392","","","recognition","survey-text","457","1602990","0.0-6.0-3.64","3325737","co37783","norming","","","{""guess"":""hoarse""}","","../img/tt/1251tt.jpg","",""
"null","../img/gs/1251gs.jpg","null","reveal","image-keyboard-response","458","1604993","0.0-6.0-4.64","3325737","co37783","norming","","","","","","",""
"null","../img/tt/1251tt.jpg","null","mooney2","image-keyboard-response","459","1606995","0.0-6.0-5.64","3325737","co37783","norming","","","","","","",""
"1617.060000004014","","","post_reveal_questions","survey-likert","460","1608614","0.0-6.0-6.64","3325737","co37783","norming","","","{""aha"":5}","[0]","../img/tt/1251tt.jpg","",""
"null","<div style=""font-size:60px;""> </div>","null","fixation","html-keyboard-response","461","1608823","0.0-6.0-0.65","3325737","co37783","norming","","","","","","",""
"null","../img/tt/1353tt.jpg","null","mooney1","image-keyboard-response","462","1611831","0.0-6.0-1.65","3325737","co37783","norming","","","","","","",""
"5091.9099999885075","","","post_mooney1_questions","survey-likert","463","1616926","0.0-6.0-2.65","3325737","co37783","norming","","","{""curiosity"":1,""confidence"":5}","[0,1]","../img/tt/1353tt.jpg","",""
"4046.074999991106","","","recognition","survey-text","464","1620974","0.0-6.0-3.65","3325737","co37783","norming","","","{""guess"":""pepper""}","","../img/tt/1353tt.jpg","",""
"null","../img/gs/1353gs.jpg","null","reveal","image-keyboard-response","465","1622977","0.0-6.0-4.65","3325737","co37783","norming","","","","","","",""
"null","../img/tt/1353tt.jpg","null","mooney2","image-keyboard-response","466","1624979","0.0-6.0-5.65","3325737","co37783","norming","","","","","","",""
"3424.1150000016205","","","post_reveal_questions","survey-likert","467","1628406","0.0-6.0-6.65","3325737","co37783","norming","","","{""aha"":0}","[0]","../img/tt/1353tt.jpg","",""
"null","<div style=""font-size:60px;""> </div>","null","fixation","html-keyboard-response","468","1628611","0.0-6.0-0.66","3325737","co37783","norming","","","","","","",""
"null","../img/tt/044tt.jpg","null","mooney1","image-keyboard-response","469","1631623","0.0-6.0-1.66","3325737","co37783","norming","","","","","","",""
"7444.120000000112","","","post_mooney1_questions","survey-likert","470","1639070","0.0-6.0-2.66","3325737","co37783","norming","","","{""curiosity"":4,""confidence"":3}","[0,1]","../img/tt/044tt.jpg","",""
"3582.2699999988545","","","recognition","survey-text","471","1642654","0.0-6.0-3.66","3325737","co37783","norming","","","{""guess"":""piano""}","","../img/tt/044tt.jpg","",""
"null","../img/gs/044gs.jpg","null","reveal","image-keyboard-response","472","1644662","0.0-6.0-4.66","3325737","co37783","norming","","","","","","",""
"null","../img/tt/044tt.jpg","null","mooney2","image-keyboard-response","473","1646666","0.0-6.0-5.66","3325737","co37783","norming","","","","","","",""
"2921.284999989439","","","post_reveal_questions","survey-likert","474","1649590","0.0-6.0-6.66","3325737","co37783","norming","","","{""aha"":4}","[0]","../img/tt/044tt.jpg","",""
"null","<div style=""font-size:60px;""> </div>","null","fixation","html-keyboard-response","475","1649791","0.0-6.0-0.67","3325737","co37783","norming","","","","","","",""
"null","../img/tt/076tt.jpg","null","mooney1","image-keyboard-response","476","1652794","0.0-6.0-1.67","3325737","co37783","norming","","","","","","",""
"5600.730000005569","","","post_mooney1_questions","survey-likert","477","1658398","0.0-6.0-2.67","3325737","co37783","norming","","","{""curiosity"":2,""confidence"":4}","[0,1]","../img/tt/076tt.jpg","",""
"4494.065000006231","","","recognition","survey-text","478","1662894","0.0-6.0-3.67","3325737","co37783","norming","","","{""guess"":""rollerblade""}","","../img/tt/076tt.jpg","",""
"null","../img/gs/076gs.jpg","null","reveal","image-keyboard-response","479","1664896","0.0-6.0-4.67","3325737","co37783","norming","","","","","","",""
"null","../img/tt/076tt.jpg","null","mooney2","image-keyboard-response","480","1666902","0.0-6.0-5.67","3325737","co37783","norming","","","","","","",""
"2157.4949999921955","","","post_reveal_questions","survey-likert","481","1669062","0.0-6.0-6.67","3325737","co37783","norming","","","{""aha"":0}","[0]","../img/tt/076tt.jpg","",""
"null","<div style=""font-size:60px;""> </div>","null","fixation","html-keyboard-response","482","1669268","0.0-6.0-0.68","3325737","co37783","norming","","","","","","",""
"null","../img/tt/1276tt.jpg","null","mooney1","image-keyboard-response","483","1672275","0.0-6.0-1.68","3325737","co37783","norming","","","","","","",""
"4263.955000001937","","","post_mooney1_questions","survey-likert","484","1676543","0.0-6.0-2.68","3325737","co37783","norming","","","{""curiosity"":4,""confidence"":2}","[0,1]","../img/tt/1276tt.jpg","",""
"2381.7650000127032","","","recognition","survey-text","485","1678927","0.0-6.0-3.68","3325737","co37783","norming","","","{""guess"":""pig""}","","../img/tt/1276tt.jpg","",""
"null","../img/gs/1276gs.jpg","null","reveal","image-keyboard-response","486","1680934","0.0-6.0-4.68","3325737","co37783","norming","","","","","","",""
"null","../img/tt/1276tt.jpg","null","mooney2","image-keyboard-response","487","1682942","0.0-6.0-5.68","3325737","co37783","norming","","","","","","",""
"2197.5899999961257","","","post_reveal_questions","survey-likert","488","1685142","0.0-6.0-6.68","3325737","co37783","norming","","","{""aha"":1}","[0]","../img/tt/1276tt.jpg","",""
"null","<div style=""font-size:60px;""> </div>","null","fixation","html-keyboard-response","489","1685350","0.0-6.0-0.69","3325737","co37783","norming","","","","","","",""
"null","../img/tt/580tt.jpg","null","mooney1","image-keyboard-response","490","1688361","0.0-6.0-1.69","3325737","co37783","norming","","","","","","",""
"5571.200000005774","","","post_mooney1_questions","survey-likert","491","1693935","0.0-6.0-2.69","3325737","co37783","norming","","","{""curiosity"":5,""confidence"":1}","[0,1]","../img/tt/580tt.jpg","",""
"5982.049999991432","","","recognition","survey-text","492","1699918","0.0-6.0-3.69","3325737","co37783","norming","","","{""guess"":""flower""}","","../img/tt/580tt.jpg","",""
"null","../img/gs/580gs.jpg","null","reveal","image-keyboard-response","493","1701921","0.0-6.0-4.69","3325737","co37783","norming","","","","","","",""
"null","../img/tt/580tt.jpg","null","mooney2","image-keyboard-response","494","1703923","0.0-6.0-5.69","3325737","co37783","norming","","","","","","",""
"7528.260000006529","","","post_reveal_questions","survey-likert","495","1711455","0.0-6.0-6.69","3325737","co37783","norming","","","{""aha"":4}","[0]","../img/tt/580tt.jpg","",""
"null","<div style=""font-size:60px;""> </div>","null","fixation","html-keyboard-response","496","1711659","0.0-6.0-0.70","3325737","co37783","norming","","","","","","",""
"null","../img/tt/300tt.jpg","null","mooney1","image-keyboard-response","497","1714666","0.0-6.0-1.70","3325737","co37783","norming","","","","","","",""
"6529.385000001639","","","post_mooney1_questions","survey-likert","498","1721199","0.0-6.0-2.70","3325737","co37783","norming","","","{""curiosity"":4,""confidence"":3}","[0,1]","../img/tt/300tt.jpg","",""
"2653.989999991376","","","recognition","survey-text","499","1723854","0.0-6.0-3.70","3325737","co37783","norming","","","{""guess"":""ape""}","","../img/tt/300tt.jpg","",""
"null","../img/gs/300gs.jpg","null","reveal","image-keyboard-response","500","1725862","0.0-6.0-4.70","3325737","co37783","norming","","","","","","",""
"null","../img/tt/300tt.jpg","null","mooney2","image-keyboard-response","501","1727864","0.0-6.0-5.70","3325737","co37783","norming","","","","","","",""
"5644.299999999814","","","post_reveal_questions","survey-likert","502","1733511","0.0-6.0-6.70","3325737","co37783","norming","","","{""aha"":3}","[0]","../img/tt/300tt.jpg","",""
"null","<div style=""font-size:60px;""> </div>","null","fixation","html-keyboard-response","503","1733718","0.0-6.0-0.71","3325737","co37783","norming","","","","","","",""
"null","../img/tt/1186tt.jpg","null","mooney1","image-keyboard-response","504","1736730","0.0-6.0-1.71","3325737","co37783","norming","","","","","","",""
"9122.045000011101","","","post_mooney1_questions","survey-likert","505","1745855","0.0-6.0-2.71","3325737","co37783","norming","","","{""curiosity"":3,""confidence"":2}","[0,1]","../img/tt/1186tt.jpg","",""
"4317.985000001499","","","recognition","survey-text","506","1750175","0.0-6.0-3.71","3325737","co37783","norming","","","{""guess"":""soldier""}","","../img/tt/1186tt.jpg","",""
"null","../img/gs/1186gs.jpg","null","reveal","image-keyboard-response","507","1752181","0.0-6.0-4.71","3325737","co37783","norming","","","","","","",""
"null","../img/tt/1186tt.jpg","null","mooney2","image-keyboard-response","508","1754190","0.0-6.0-5.71","3325737","co37783","norming","","","","","","",""
"2926.3099999951664","","","post_reveal_questions","survey-likert","509","1757119","0.0-6.0-6.71","3325737","co37783","norming","","","{""aha"":4}","[0]","../img/tt/1186tt.jpg","",""
"null","<div style=""font-size:60px;""> </div>","null","fixation","html-keyboard-response","510","1757320","0.0-6.0-0.72","3325737","co37783","norming","","","","","","",""
"null","../img/tt/1232tt.jpg","null","mooney1","image-keyboard-response","511","1760329","0.0-6.0-1.72","3325737","co37783","norming","","","","","","",""
"5986.4450000023935","","","post_mooney1_questions","survey-likert","512","1766319","0.0-6.0-2.72","3325737","co37783","norming","","","{""curiosity"":2,""confidence"":3}","[0,1]","../img/tt/1232tt.jpg","",""
"2925.7950000029523","","","recognition","survey-text","513","1769247","0.0-6.0-3.72","3325737","co37783","norming","","","{""guess"":""duck""}","","../img/tt/1232tt.jpg","",""
"null","../img/gs/1232gs.jpg","null","reveal","image-keyboard-response","514","1771249","0.0-6.0-4.72","3325737","co37783","norming","","","","","","",""
"null","../img/tt/1232tt.jpg","null","mooney2","image-keyboard-response","515","1773251","0.0-6.0-5.72","3325737","co37783","norming","","","","","","",""
"4569.650000005029","","","post_reveal_questions","survey-likert","516","1777823","0.0-6.0-6.72","3325737","co37783","norming","","","{""aha"":3}","[0]","../img/tt/1232tt.jpg","",""
"null","<div style=""font-size:60px;""> </div>","null","fixation","html-keyboard-response","517","1778024","0.0-6.0-0.73","3325737","co37783","norming","","","","","","",""
"null","../img/tt/1202tt.jpg","null","mooney1","image-keyboard-response","518","1781031","0.0-6.0-1.73","3325737","co37783","norming","","","","","","",""
"4924.159999995027","","","post_mooney1_questions","survey-likert","519","1785953","0.0-6.0-2.73","3325737","co37783","norming","","","{""curiosity"":5,""confidence"":1}","[0,1]","../img/tt/1202tt.jpg","",""
"2566.064999991795","","","recognition","survey-text","520","1788521","0.0-6.0-3.73","3325737","co37783","norming","","","{""guess"":""bunny""}","","../img/tt/1202tt.jpg","",""
"null","../img/gs/1202gs.jpg","null","reveal","image-keyboard-response","521","1790531","0.0-6.0-4.73","3325737","co37783","norming","","","","","","",""
"null","../img/tt/1202tt.jpg","null","mooney2","image-keyboard-response","522","1792533","0.0-6.0-5.73","3325737","co37783","norming","","","","","","",""
"1608.910000009928","","","post_reveal_questions","survey-likert","523","1794145","0.0-6.0-6.73","3325737","co37783","norming","","","{""aha"":5}","[0]","../img/tt/1202tt.jpg","",""
"null","<div style=""font-size:60px;""> </div>","null","fixation","html-keyboard-response","524","1794350","0.0-6.0-0.74","3325737","co37783","norming","","","","","","",""
"null","../img/tt/358tt.jpg","null","mooney1","image-keyboard-response","525","1797355","0.0-6.0-1.74","3325737","co37783","norming","","","","","","",""
"5844.985000003362","","","post_mooney1_questions","survey-likert","526","1803201","0.0-6.0-2.74","3325737","co37783","norming","","","{""curiosity"":3,""confidence"":1}","[0,1]","../img/tt/358tt.jpg","",""
"3606.2299999902025","","","recognition","survey-text","527","1806809","0.0-6.0-3.74","3325737","co37783","norming","","","{""guess"":""chicken""}","","../img/tt/358tt.jpg","",""
"null","../img/gs/358gs.jpg","null","reveal","image-keyboard-response","528","1808812","0.0-6.0-4.74","3325737","co37783","norming","","","","","","",""
"null","../img/tt/358tt.jpg","null","mooney2","image-keyboard-response","529","1810823","0.0-6.0-5.74","3325737","co37783","norming","","","","","","",""
"1751.2550000101328","","","post_reveal_questions","survey-likert","530","1812577","0.0-6.0-6.74","3325737","co37783","norming","","","{""aha"":5}","[0]","../img/tt/358tt.jpg","",""
"null","<div style=""font-size:60px;""> </div>","null","fixation","html-keyboard-response","531","1812786","0.0-6.0-0.75","3325737","co37783","norming","","","","","","",""
"null","../img/tt/270tt.jpg","null","mooney1","image-keyboard-response","532","1815794","0.0-6.0-1.75","3325737","co37783","norming","","","","","","",""
"5099.365000001853","","","post_mooney1_questions","survey-likert","533","1820897","0.0-6.0-2.75","3325737","co37783","norming","","","{""curiosity"":4,""confidence"":2}","[0,1]","../img/tt/270tt.jpg","",""
"5189.854999989504","","","recognition","survey-text","534","1826089","0.0-6.0-3.75","3325737","co37783","norming","","","{""guess"":""deer""}","","../img/tt/270tt.jpg","",""
"null","../img/gs/270gs.jpg","null","reveal","image-keyboard-response","535","1828095","0.0-6.0-4.75","3325737","co37783","norming","","","","","","",""
"null","../img/tt/270tt.jpg","null","mooney2","image-keyboard-response","536","1830097","0.0-6.0-5.75","3325737","co37783","norming","","","","","","",""
"1581.3499999931082","","","post_reveal_questions","survey-likert","537","1831681","0.0-6.0-6.75","3325737","co37783","norming","","","{""aha"":1}","[0]","../img/tt/270tt.jpg","",""
"null","<div style=""font-size:60px;""> </div>","null","fixation","html-keyboard-response","538","1831888","0.0-6.0-0.76","3325737","co37783","norming","","","","","","",""
"null","../img/tt/1154tt.jpg","null","mooney1","image-keyboard-response","539","1834899","0.0-6.0-1.76","3325737","co37783","norming","","","","","","",""
"3786.1700000066776","","","post_mooney1_questions","survey-likert","540","1838689","0.0-6.0-2.76","3325737","co37783","norming","","","{""curiosity"":6,""confidence"":0}","[0,1]","../img/tt/1154tt.jpg","",""
"789.9099999922328","","","recognition","survey-text","541","1839481","0.0-6.0-3.76","3325737","co37783","norming","","","{""guess"":""""}","","../img/tt/1154tt.jpg","",""
"null","../img/gs/1154gs.jpg","null","reveal","image-keyboard-response","542","1841483","0.0-6.0-4.76","3325737","co37783","norming","","","","","","",""
"null","../img/tt/1154tt.jpg","null","mooney2","image-keyboard-response","543","1843491","0.0-6.0-5.76","3325737","co37783","norming","","","","","","",""
"1722.9450000012293","","","post_reveal_questions","survey-likert","544","1845217","0.0-6.0-6.76","3325737","co37783","norming","","","{""aha"":5}","[0]","../img/tt/1154tt.jpg","",""
"null","<div style=""font-size:60px;""> </div>","null","fixation","html-keyboard-response","545","1845427","0.0-6.0-0.77","3325737","co37783","norming","","","","","","",""
"null","../img/tt/013tt.jpg","null","mooney1","image-keyboard-response","546","1848441","0.0-6.0-1.77","3325737","co37783","norming","","","","","","",""
"4834.875000000466","","","post_mooney1_questions","survey-likert","547","1853279","0.0-6.0-2.77","3325737","co37783","norming","","","{""curiosity"":5,""confidence"":1}","[0,1]","../img/tt/013tt.jpg","",""
"6830.379999999423","","","recognition","survey-text","548","1860112","0.0-6.0-3.77","3325737","co37783","norming","","","{""guess"":""kammel""}","","../img/tt/013tt.jpg","",""
"null","../img/gs/013gs.jpg","null","reveal","image-keyboard-response","549","1862113","0.0-6.0-4.77","3325737","co37783","norming","","","","","","",""
"null","../img/tt/013tt.jpg","null","mooney2","image-keyboard-response","550","1864115","0.0-6.0-5.77","3325737","co37783","norming","","","","","","",""
"2050.1050000023097","","","post_reveal_questions","survey-likert","551","1866168","0.0-6.0-6.77","3325737","co37783","norming","","","{""aha"":1}","[0]","../img/tt/013tt.jpg","",""
