"rt","stimulus","key_press","test_part","trial_type","trial_index","time_elapsed","internal_node_id","totalTime","subject","experiment_name","button_pressed","success","responses","question_order","currentStim","old","correct"
"6562.234999999987","Welcome to the experiment. This is an online experiment so please don't close the tab/window until we say goodbye.  Press any key to begin.","88","instructions","html-keyboard-response","0","6593","0.0-0.0","2546821","co37903","norming","","","","","","",""
"4862.2750000000115","<div style='word-wrap: break-word; width: 900px'><h3>Please consider this information carefully before deciding whether to participate in this research</h3><ul style='text-align: left; font-size: .8em;'><li><b>Purpose of the research</b>: To examine how people process images.</li><li><b>What you will do in this research</b>:  Stimuli (images) will be presented on the computer and you will be asked different questions about them.</li><li><b>Time required</b>: Participation will take between 45 and 60 minutes to complete.</li><li><b>Risks</b>:  There are no anticipated risks associated with participating in this study. The effects of participating should be comparable to those you would experience from viewing a computer monitor for 30 minutes and using a mouse or keyboard.</li><li><b>Benefits</b>:  This study provides no benefits to you individually except for the credit. The study provides important information about the nature of perception and learning.</li><li><b>Confidentiality</b>:  Your participation in this study will remain confidential. No personally identifiable information will be associated with your data. Your de-identified data may be shared with other researchers and used in future projects.</li><li><b>Participation and withdrawal</b>:  Your participation in this study is completely voluntary and you may refuse to participate or you may choose to withdraw at any time without penalty.</li><li><b>How to contact the researchers</b>: If you have questions or concerns about your participation or payment, or want to request a summary of research findings, please contact Sander Van de Cruys (KU Leuven), at sander.vandecruys@kuleuven.be.</li></ul><p>The nature and purpose of this research have been sufficiently explained and I agree to participate in this study.  I understand that I am free to withdraw at any time without incurring any penalty.</p><p>Please consent by clicking the button below to continue. Otherwise, please exit the study at this time.</p></div>","","instructions","html-button-response","1","11456","0.0-1.0","2546821","co37903","norming","0","","","","","",""
"","","","instructions","fullscreen","2","14914","0.0-2.0","2546821","co37903","norming","","true","","","","",""
"18997.639999999992","","","sona","survey-html-form","3","33916","0.0-3.0","2546821","co37903","norming","","","[{""name"":""sonaid"",""value"":""37903""},{""name"":""debrief"",""value"":""no""},{""name"":""datajoin"",""value"":""yes""}]","","","",""
"96483.135","<div style='word-wrap: break-word; width: 900px'><h3>Instructions</h3><p>This experiment will have 3 parts. In the first part you will see a series of distorted images like the one below on the left. As you can see in the righthand image, the distorted images are derived from actual photographs. In what follows, you will <strong>briefly</strong> be presented with <strong>only</strong> the distorted image.</p> <div style='float: left; margin-right: 20px;'><img src='../img/018tt.jpg' height='250' width='250'></img></div><div style='float: right; margin-left: 20px;'><img src='../img/018gs.jpg' height='250' width='250'></img></div><p>Subsequently you will be asked a few questions about the image: One question on how <strong>curious</strong> you are about the solution and one on how <strong>confident</strong> you are that you know the solution.</p>Next, we ask you to make a guess on what is in the image. Note that it is OK to name just the <strong>basic level category</strong>. For example when you see a parrot in the image, 'parrot' will obviously be a correct answer but also correct is 'bird'. However, 'animal' will <strong>not</strong> be counted as a correct response. For the example above, 'rose' would be correct or 'flower', but not 'plant'. When soccer players are depicted, 'soccer', 'football', 'soccer players' will be correct, but not 'humans', 'outdoors', or 'sports'. You do not need to describe the image in full, just name the main object in it <strong>in one or two words</strong>. All images depict objects from one of the following broad level categories: animals, inanimate objects, plants, sports, vehicles, and food. Recognizing means knowing <strong>more</strong> than these broad labels for a given image. But we always encourage you to <strong>make a guess</strong> if you can. Note that you are allowed to use <strong>Dutch and English</strong> in your answers, whatever comes easiest for you.</p><p>Press any key to continue.</p></div>","32","instructions","html-keyboard-response","4","130466","0.0-4.0","2546821","co37903","norming","","","","","","",""
"97551.54999999996","<div style='word-wrap: break-word; width: 900px'><h3>Instructions</h3> <p>Next, the solution image will be revealed to you and you'll be asked to indicate how strong your <strong>aha-experience</strong> was after seeing the solution. This describes the positive feeling of the 'click' you sometimes experience, when the pieces of the 'puzzle' fall together and you suddenly have 'insight' in the image.</p><img src='aha.jpg' height='188' width='250'></img><p>Note that there are no right or wrong answers. We are interested in what <strong>you</strong> see in the image and how <strong>you</strong> feel about it.</p><p>Press any key to start the experiment.</p></div>","32","instructions","html-keyboard-response","5","228074","0.0-5.0","2546821","co37903","norming","","","","","","",""
"null","<div style=""font-size:60px;""> </div>","null","fixation","html-keyboard-response","6","228280","0.0-6.0-0.0","2546821","co37903","norming","","","","","","",""
"null","../img/tt/1102tt.jpg","null","mooney1","image-keyboard-response","7","231286","0.0-6.0-1.0","2546821","co37903","norming","","","","","","",""
"10171.395000000077","","","post_mooney1_questions","survey-likert","8","241459","0.0-6.0-2.0","2546821","co37903","norming","","","{""curiosity"":4,""confidence"":1}","[0,1]","../img/tt/1102tt.jpg","",""
"5573.41499999995","","","recognition","survey-text","9","247034","0.0-6.0-3.0","2546821","co37903","norming","","","{""guess"":""palmboom""}","","../img/tt/1102tt.jpg","",""
"null","../img/gs/1102gs.jpg","null","reveal","image-keyboard-response","10","249036","0.0-6.0-4.0","2546821","co37903","norming","","","","","","",""
"null","../img/tt/1102tt.jpg","null","mooney2","image-keyboard-response","11","251039","0.0-6.0-5.0","2546821","co37903","norming","","","","","","",""
"5648.694999999978","","","post_reveal_questions","survey-likert","12","256690","0.0-6.0-6.0","2546821","co37903","norming","","","{""aha"":3}","[0]","../img/tt/1102tt.jpg","",""
"null","<div style=""font-size:60px;""> </div>","null","fixation","html-keyboard-response","13","256892","0.0-6.0-0.1","2546821","co37903","norming","","","","","","",""
"null","../img/tt/1004tt.jpg","null","mooney1","image-keyboard-response","14","259894","0.0-6.0-1.1","2546821","co37903","norming","","","","","","",""
"6291.095000000001","","","post_mooney1_questions","survey-likert","15","266186","0.0-6.0-2.1","2546821","co37903","norming","","","{""curiosity"":4,""confidence"":2}","[0,1]","../img/tt/1004tt.jpg","",""
"2654.039999999979","","","recognition","survey-text","16","268842","0.0-6.0-3.1","2546821","co37903","norming","","","{""guess"":""schaap""}","","../img/tt/1004tt.jpg","",""
"null","../img/gs/1004gs.jpg","null","reveal","image-keyboard-response","17","270850","0.0-6.0-4.1","2546821","co37903","norming","","","","","","",""
"null","../img/tt/1004tt.jpg","null","mooney2","image-keyboard-response","18","272861","0.0-6.0-5.1","2546821","co37903","norming","","","","","","",""
"3426.480000000098","","","post_reveal_questions","survey-likert","19","276290","0.0-6.0-6.1","2546821","co37903","norming","","","{""aha"":4}","[0]","../img/tt/1004tt.jpg","",""
"null","<div style=""font-size:60px;""> </div>","null","fixation","html-keyboard-response","20","276495","0.0-6.0-0.2","2546821","co37903","norming","","","","","","",""
"null","../img/tt/1033tt.jpg","null","mooney1","image-keyboard-response","21","279499","0.0-6.0-1.2","2546821","co37903","norming","","","","","","",""
"8532.424999999988","","","post_mooney1_questions","survey-likert","22","288034","0.0-6.0-2.2","2546821","co37903","norming","","","{""curiosity"":5,""confidence"":1}","[0,1]","../img/tt/1033tt.jpg","",""
"5598.399999999965","","","recognition","survey-text","23","293660","0.0-6.0-3.2","2546821","co37903","norming","","","{""guess"":""""}","","../img/tt/1033tt.jpg","",""
"null","../img/gs/1033gs.jpg","null","reveal","image-keyboard-response","24","295662","0.0-6.0-4.2","2546821","co37903","norming","","","","","","",""
"null","../img/tt/1033tt.jpg","null","mooney2","image-keyboard-response","25","297669","0.0-6.0-5.2","2546821","co37903","norming","","","","","","",""
"2676.3899999999558","","","post_reveal_questions","survey-likert","26","300348","0.0-6.0-6.2","2546821","co37903","norming","","","{""aha"":5}","[0]","../img/tt/1033tt.jpg","",""
"null","<div style=""font-size:60px;""> </div>","null","fixation","html-keyboard-response","27","300549","0.0-6.0-0.3","2546821","co37903","norming","","","","","","",""
"null","../img/tt/031tt.jpg","null","mooney1","image-keyboard-response","28","303558","0.0-6.0-1.3","2546821","co37903","norming","","","","","","",""
"6763.150000000023","","","post_mooney1_questions","survey-likert","29","310324","0.0-6.0-2.3","2546821","co37903","norming","","","{""curiosity"":5,""confidence"":0}","[0,1]","../img/tt/031tt.jpg","",""
"5054.024999999907","","","recognition","survey-text","30","315380","0.0-6.0-3.3","2546821","co37903","norming","","","{""guess"":""sprookje""}","","../img/tt/031tt.jpg","",""
"null","../img/gs/031gs.jpg","null","reveal","image-keyboard-response","31","317390","0.0-6.0-4.3","2546821","co37903","norming","","","","","","",""
"null","../img/tt/031tt.jpg","null","mooney2","image-keyboard-response","32","319396","0.0-6.0-5.3","2546821","co37903","norming","","","","","","",""
"3382.369999999879","","","post_reveal_questions","survey-likert","33","322780","0.0-6.0-6.3","2546821","co37903","norming","","","{""aha"":2}","[0]","../img/tt/031tt.jpg","",""
"null","<div style=""font-size:60px;""> </div>","null","fixation","html-keyboard-response","34","322987","0.0-6.0-0.4","2546821","co37903","norming","","","","","","",""
"null","../img/tt/112tt.jpg","null","mooney1","image-keyboard-response","35","325990","0.0-6.0-1.4","2546821","co37903","norming","","","","","","",""
"6259.819999999949","","","post_mooney1_questions","survey-likert","36","332252","0.0-6.0-2.4","2546821","co37903","norming","","","{""curiosity"":2,""confidence"":5}","[0,1]","../img/tt/112tt.jpg","",""
"3254.0500000000466","","","recognition","survey-text","37","335508","0.0-6.0-3.4","2546821","co37903","norming","","","{""guess"":""fluitje""}","","../img/tt/112tt.jpg","",""
"null","../img/gs/112gs.jpg","null","reveal","image-keyboard-response","38","337509","0.0-6.0-4.4","2546821","co37903","norming","","","","","","",""
"null","../img/tt/112tt.jpg","null","mooney2","image-keyboard-response","39","339519","0.0-6.0-5.4","2546821","co37903","norming","","","","","","",""
"1747.6199999999371","","","post_reveal_questions","survey-likert","40","341267","0.0-6.0-6.4","2546821","co37903","norming","","","{""aha"":0}","[0]","../img/tt/112tt.jpg","",""
"null","<div style=""font-size:60px;""> </div>","null","fixation","html-keyboard-response","41","341472","0.0-6.0-0.5","2546821","co37903","norming","","","","","","",""
"null","../img/tt/1261tt.jpg","null","mooney1","image-keyboard-response","42","344476","0.0-6.0-1.5","2546821","co37903","norming","","","","","","",""
"6061.169999999984","","","post_mooney1_questions","survey-likert","43","350540","0.0-6.0-2.5","2546821","co37903","norming","","","{""curiosity"":2,""confidence"":4}","[0,1]","../img/tt/1261tt.jpg","",""
"2725.7600000000093","","","recognition","survey-text","44","353267","0.0-6.0-3.5","2546821","co37903","norming","","","{""guess"":""hamster""}","","../img/tt/1261tt.jpg","",""
"null","../img/gs/1261gs.jpg","null","reveal","image-keyboard-response","45","355281","0.0-6.0-4.5","2546821","co37903","norming","","","","","","",""
"null","../img/tt/1261tt.jpg","null","mooney2","image-keyboard-response","46","357290","0.0-6.0-5.5","2546821","co37903","norming","","","","","","",""
"3861.70000000007","","","post_reveal_questions","survey-likert","47","361152","0.0-6.0-6.5","2546821","co37903","norming","","","{""aha"":1}","[0]","../img/tt/1261tt.jpg","",""
"null","<div style=""font-size:60px;""> </div>","null","fixation","html-keyboard-response","48","361359","0.0-6.0-0.6","2546821","co37903","norming","","","","","","",""
"null","../img/tt/552tt.jpg","null","mooney1","image-keyboard-response","49","364363","0.0-6.0-1.6","2546821","co37903","norming","","","","","","",""
"6491.350000000035","","","post_mooney1_questions","survey-likert","50","370857","0.0-6.0-2.6","2546821","co37903","norming","","","{""curiosity"":4,""confidence"":3}","[0,1]","../img/tt/552tt.jpg","",""
"2461.880000000121","","","recognition","survey-text","51","373320","0.0-6.0-3.6","2546821","co37903","norming","","","{""guess"":""toilet""}","","../img/tt/552tt.jpg","",""
"null","../img/gs/552gs.jpg","null","reveal","image-keyboard-response","52","375323","0.0-6.0-4.6","2546821","co37903","norming","","","","","","",""
"null","../img/tt/552tt.jpg","null","mooney2","image-keyboard-response","53","377331","0.0-6.0-5.6","2546821","co37903","norming","","","","","","",""
"2469.225000000035","","","post_reveal_questions","survey-likert","54","379801","0.0-6.0-6.6","2546821","co37903","norming","","","{""aha"":5}","[0]","../img/tt/552tt.jpg","",""
"null","<div style=""font-size:60px;""> </div>","null","fixation","html-keyboard-response","55","380008","0.0-6.0-0.7","2546821","co37903","norming","","","","","","",""
"null","../img/tt/497tt.jpg","null","mooney1","image-keyboard-response","56","383015","0.0-6.0-1.7","2546821","co37903","norming","","","","","","",""
"4030.5000000001164","","","post_mooney1_questions","survey-likert","57","387049","0.0-6.0-2.7","2546821","co37903","norming","","","{""curiosity"":4,""confidence"":2}","[0,1]","../img/tt/497tt.jpg","",""
"1902.3250000000698","","","recognition","survey-text","58","388953","0.0-6.0-3.7","2546821","co37903","norming","","","{""guess"":""taart""}","","../img/tt/497tt.jpg","",""
"null","../img/gs/497gs.jpg","null","reveal","image-keyboard-response","59","390954","0.0-6.0-4.7","2546821","co37903","norming","","","","","","",""
"null","../img/tt/497tt.jpg","null","mooney2","image-keyboard-response","60","392959","0.0-6.0-5.7","2546821","co37903","norming","","","","","","",""
"4192.77999999997","","","post_reveal_questions","survey-likert","61","397153","0.0-6.0-6.7","2546821","co37903","norming","","","{""aha"":4}","[0]","../img/tt/497tt.jpg","",""
"null","<div style=""font-size:60px;""> </div>","null","fixation","html-keyboard-response","62","397358","0.0-6.0-0.8","2546821","co37903","norming","","","","","","",""
"null","../img/tt/1181tt.jpg","null","mooney1","image-keyboard-response","63","400363","0.0-6.0-1.8","2546821","co37903","norming","","","","","","",""
"8483.235000000044","","","post_mooney1_questions","survey-likert","64","408849","0.0-6.0-2.8","2546821","co37903","norming","","","{""curiosity"":6,""confidence"":2}","[0,1]","../img/tt/1181tt.jpg","",""
"4294.119999999995","","","recognition","survey-text","65","413144","0.0-6.0-3.8","2546821","co37903","norming","","","{""guess"":""publiek""}","","../img/tt/1181tt.jpg","",""
"null","../img/gs/1181gs.jpg","null","reveal","image-keyboard-response","66","415146","0.0-6.0-4.8","2546821","co37903","norming","","","","","","",""
"null","../img/tt/1181tt.jpg","null","mooney2","image-keyboard-response","67","417149","0.0-6.0-5.8","2546821","co37903","norming","","","","","","",""
"2696.9100000000326","","","post_reveal_questions","survey-likert","68","419848","0.0-6.0-6.8","2546821","co37903","norming","","","{""aha"":4}","[0]","../img/tt/1181tt.jpg","",""
"null","<div style=""font-size:60px;""> </div>","null","fixation","html-keyboard-response","69","420054","0.0-6.0-0.9","2546821","co37903","norming","","","","","","",""
"null","../img/tt/1247tt.jpg","null","mooney1","image-keyboard-response","70","423059","0.0-6.0-1.9","2546821","co37903","norming","","","","","","",""
"7058.494999999995","","","post_mooney1_questions","survey-likert","71","430120","0.0-6.0-2.9","2546821","co37903","norming","","","{""curiosity"":4,""confidence"":2}","[0,1]","../img/tt/1247tt.jpg","",""
"1516.1849999999395","","","recognition","survey-text","72","431640","0.0-6.0-3.9","2546821","co37903","norming","","","{""guess"":""sla""}","","../img/tt/1247tt.jpg","",""
"null","../img/gs/1247gs.jpg","null","reveal","image-keyboard-response","73","433649","0.0-6.0-4.9","2546821","co37903","norming","","","","","","",""
"null","../img/tt/1247tt.jpg","null","mooney2","image-keyboard-response","74","435658","0.0-6.0-5.9","2546821","co37903","norming","","","","","","",""
"3252.730000000098","","","post_reveal_questions","survey-likert","75","438912","0.0-6.0-6.9","2546821","co37903","norming","","","{""aha"":5}","[0]","../img/tt/1247tt.jpg","",""
"null","<div style=""font-size:60px;""> </div>","null","fixation","html-keyboard-response","76","439117","0.0-6.0-0.10","2546821","co37903","norming","","","","","","",""
"null","../img/tt/1087tt.jpg","null","mooney1","image-keyboard-response","77","442118","0.0-6.0-1.10","2546821","co37903","norming","","","","","","",""
"7705.200000000012","","","post_mooney1_questions","survey-likert","78","449824","0.0-6.0-2.10","2546821","co37903","norming","","","{""curiosity"":3,""confidence"":5}","[0,1]","../img/tt/1087tt.jpg","",""
"2614.164999999921","","","recognition","survey-text","79","452440","0.0-6.0-3.10","2546821","co37903","norming","","","{""guess"":""nijlpaard""}","","../img/tt/1087tt.jpg","",""
"null","../img/gs/1087gs.jpg","null","reveal","image-keyboard-response","80","454441","0.0-6.0-4.10","2546821","co37903","norming","","","","","","",""
"null","../img/tt/1087tt.jpg","null","mooney2","image-keyboard-response","81","456448","0.0-6.0-5.10","2546821","co37903","norming","","","","","","",""
"2503.3549999999814","","","post_reveal_questions","survey-likert","82","458952","0.0-6.0-6.10","2546821","co37903","norming","","","{""aha"":5}","[0]","../img/tt/1087tt.jpg","",""
"null","<div style=""font-size:60px;""> </div>","null","fixation","html-keyboard-response","83","459163","0.0-6.0-0.11","2546821","co37903","norming","","","","","","",""
"null","../img/tt/064tt.jpg","null","mooney1","image-keyboard-response","84","462169","0.0-6.0-1.11","2546821","co37903","norming","","","","","","",""
"9325.380000000005","","","post_mooney1_questions","survey-likert","85","471496","0.0-6.0-2.11","2546821","co37903","norming","","","{""curiosity"":5,""confidence"":5}","[0,1]","../img/tt/064tt.jpg","",""
"4429.824999999895","","","recognition","survey-text","86","475928","0.0-6.0-3.11","2546821","co37903","norming","","","{""guess"":""schildpad""}","","../img/tt/064tt.jpg","",""
"null","../img/gs/064gs.jpg","null","reveal","image-keyboard-response","87","477931","0.0-6.0-4.11","2546821","co37903","norming","","","","","","",""
"null","../img/tt/064tt.jpg","null","mooney2","image-keyboard-response","88","479936","0.0-6.0-5.11","2546821","co37903","norming","","","","","","",""
"3815.7399999999907","","","post_reveal_questions","survey-likert","89","483752","0.0-6.0-6.11","2546821","co37903","norming","","","{""aha"":2}","[0]","../img/tt/064tt.jpg","",""
"null","<div style=""font-size:60px;""> </div>","null","fixation","html-keyboard-response","90","483957","0.0-6.0-0.12","2546821","co37903","norming","","","","","","",""
"null","../img/tt/559tt.jpg","null","mooney1","image-keyboard-response","91","486960","0.0-6.0-1.12","2546821","co37903","norming","","","","","","",""
"5519.375000000116","","","post_mooney1_questions","survey-likert","92","492480","0.0-6.0-2.12","2546821","co37903","norming","","","{""curiosity"":5,""confidence"":3}","[0,1]","../img/tt/559tt.jpg","",""
"3286.0900000000256","","","recognition","survey-text","93","495768","0.0-6.0-3.12","2546821","co37903","norming","","","{""guess"":""naaimachine""}","","../img/tt/559tt.jpg","",""
"null","../img/gs/559gs.jpg","null","reveal","image-keyboard-response","94","497771","0.0-6.0-4.12","2546821","co37903","norming","","","","","","",""
"null","../img/tt/559tt.jpg","null","mooney2","image-keyboard-response","95","499772","0.0-6.0-5.12","2546821","co37903","norming","","","","","","",""
"1763.8899999999558","","","post_reveal_questions","survey-likert","96","501536","0.0-6.0-6.12","2546821","co37903","norming","","","{""aha"":1}","[0]","../img/tt/559tt.jpg","",""
"null","<div style=""font-size:60px;""> </div>","null","fixation","html-keyboard-response","97","501741","0.0-6.0-0.13","2546821","co37903","norming","","","","","","",""
"null","../img/tt/001tt.jpg","null","mooney1","image-keyboard-response","98","504751","0.0-6.0-1.13","2546821","co37903","norming","","","","","","",""
"5024.610000000044","","","post_mooney1_questions","survey-likert","99","509777","0.0-6.0-2.13","2546821","co37903","norming","","","{""curiosity"":5,""confidence"":1}","[0,1]","../img/tt/001tt.jpg","",""
"1509.615000000049","","","recognition","survey-text","100","511288","0.0-6.0-3.13","2546821","co37903","norming","","","{""guess"":""kat""}","","../img/tt/001tt.jpg","",""
"null","../img/gs/001gs.jpg","null","reveal","image-keyboard-response","101","513289","0.0-6.0-4.13","2546821","co37903","norming","","","","","","",""
"null","../img/tt/001tt.jpg","null","mooney2","image-keyboard-response","102","515292","0.0-6.0-5.13","2546821","co37903","norming","","","","","","",""
"2491.6699999999837","","","post_reveal_questions","survey-likert","103","517784","0.0-6.0-6.13","2546821","co37903","norming","","","{""aha"":5}","[0]","../img/tt/001tt.jpg","",""
"null","<div style=""font-size:60px;""> </div>","null","fixation","html-keyboard-response","104","517990","0.0-6.0-0.14","2546821","co37903","norming","","","","","","",""
"null","../img/tt/598tt.jpg","null","mooney1","image-keyboard-response","105","521000","0.0-6.0-1.14","2546821","co37903","norming","","","","","","",""
"6190.885000000009","","","post_mooney1_questions","survey-likert","106","527192","0.0-6.0-2.14","2546821","co37903","norming","","","{""curiosity"":3,""confidence"":5}","[0,1]","../img/tt/598tt.jpg","",""
"1581.530000000028","","","recognition","survey-text","107","528776","0.0-6.0-3.14","2546821","co37903","norming","","","{""guess"":""slak""}","","../img/tt/598tt.jpg","",""
"null","../img/gs/598gs.jpg","null","reveal","image-keyboard-response","108","530782","0.0-6.0-4.14","2546821","co37903","norming","","","","","","",""
"null","../img/tt/598tt.jpg","null","mooney2","image-keyboard-response","109","532784","0.0-6.0-5.14","2546821","co37903","norming","","","","","","",""
"2951.1699999999255","","","post_reveal_questions","survey-likert","110","535736","0.0-6.0-6.14","2546821","co37903","norming","","","{""aha"":2}","[0]","../img/tt/598tt.jpg","",""
"null","<div style=""font-size:60px;""> </div>","null","fixation","html-keyboard-response","111","535941","0.0-6.0-0.15","2546821","co37903","norming","","","","","","",""
"null","../img/tt/078tt.jpg","null","mooney1","image-keyboard-response","112","538946","0.0-6.0-1.15","2546821","co37903","norming","","","","","","",""
"5380.880000000005","","","post_mooney1_questions","survey-likert","113","544328","0.0-6.0-2.15","2546821","co37903","norming","","","{""curiosity"":5,""confidence"":4}","[0,1]","../img/tt/078tt.jpg","",""
"2189.945000000065","","","recognition","survey-text","114","546520","0.0-6.0-3.15","2546821","co37903","norming","","","{""guess"":""druiven""}","","../img/tt/078tt.jpg","",""
"null","../img/gs/078gs.jpg","null","reveal","image-keyboard-response","115","548530","0.0-6.0-4.15","2546821","co37903","norming","","","","","","",""
"null","../img/tt/078tt.jpg","null","mooney2","image-keyboard-response","116","550535","0.0-6.0-5.15","2546821","co37903","norming","","","","","","",""
"2608.730000000098","","","post_reveal_questions","survey-likert","117","553144","0.0-6.0-6.15","2546821","co37903","norming","","","{""aha"":2}","[0]","../img/tt/078tt.jpg","",""
"null","<div style=""font-size:60px;""> </div>","null","fixation","html-keyboard-response","118","553347","0.0-6.0-0.16","2546821","co37903","norming","","","","","","",""
"null","../img/tt/300tt.jpg","null","mooney1","image-keyboard-response","119","556351","0.0-6.0-1.16","2546821","co37903","norming","","","","","","",""
"6951.569999999949","","","post_mooney1_questions","survey-likert","120","563304","0.0-6.0-2.16","2546821","co37903","norming","","","{""curiosity"":4,""confidence"":4}","[0,1]","../img/tt/300tt.jpg","",""
"3582.3950000000186","","","recognition","survey-text","121","566889","0.0-6.0-3.16","2546821","co37903","norming","","","{""guess"":""zittende mensen""}","","../img/tt/300tt.jpg","",""
"null","../img/gs/300gs.jpg","null","reveal","image-keyboard-response","122","568893","0.0-6.0-4.16","2546821","co37903","norming","","","","","","",""
"null","../img/tt/300tt.jpg","null","mooney2","image-keyboard-response","123","570900","0.0-6.0-5.16","2546821","co37903","norming","","","","","","",""
"5746.384999999893","","","post_reveal_questions","survey-likert","124","576648","0.0-6.0-6.16","2546821","co37903","norming","","","{""aha"":0}","[0]","../img/tt/300tt.jpg","",""
"null","<div style=""font-size:60px;""> </div>","null","fixation","html-keyboard-response","125","576850","0.0-6.0-0.17","2546821","co37903","norming","","","","","","",""
"null","../img/tt/1128tt.jpg","null","mooney1","image-keyboard-response","126","579851","0.0-6.0-1.17","2546821","co37903","norming","","","","","","",""
"6293.045000000042","","","post_mooney1_questions","survey-likert","127","586145","0.0-6.0-2.17","2546821","co37903","norming","","","{""curiosity"":5,""confidence"":4}","[0,1]","../img/tt/1128tt.jpg","",""
"1829.5350000000326","","","recognition","survey-text","128","587976","0.0-6.0-3.17","2546821","co37903","norming","","","{""guess"":""panda""}","","../img/tt/1128tt.jpg","",""
"null","../img/gs/1128gs.jpg","null","reveal","image-keyboard-response","129","589982","0.0-6.0-4.17","2546821","co37903","norming","","","","","","",""
"null","../img/tt/1128tt.jpg","null","mooney2","image-keyboard-response","130","591985","0.0-6.0-5.17","2546821","co37903","norming","","","","","","",""
"3942.969999999972","","","post_reveal_questions","survey-likert","131","595928","0.0-6.0-6.17","2546821","co37903","norming","","","{""aha"":6}","[0]","../img/tt/1128tt.jpg","",""
"null","<div style=""font-size:60px;""> </div>","null","fixation","html-keyboard-response","132","596130","0.0-6.0-0.18","2546821","co37903","norming","","","","","","",""
"null","../img/tt/111tt.jpg","null","mooney1","image-keyboard-response","133","599139","0.0-6.0-1.18","2546821","co37903","norming","","","","","","",""
"5708.160000000033","","","post_mooney1_questions","survey-likert","134","604849","0.0-6.0-2.18","2546821","co37903","norming","","","{""curiosity"":6,""confidence"":0}","[0,1]","../img/tt/111tt.jpg","",""
"1182.1199999999953","","","recognition","survey-text","135","606032","0.0-6.0-3.18","2546821","co37903","norming","","","{""guess"":""""}","","../img/tt/111tt.jpg","",""
"null","../img/gs/111gs.jpg","null","reveal","image-keyboard-response","136","608035","0.0-6.0-4.18","2546821","co37903","norming","","","","","","",""
"null","../img/tt/111tt.jpg","null","mooney2","image-keyboard-response","137","610045","0.0-6.0-5.18","2546821","co37903","norming","","","","","","",""
"2728.8950000000186","","","post_reveal_questions","survey-likert","138","612776","0.0-6.0-6.18","2546821","co37903","norming","","","{""aha"":6}","[0]","../img/tt/111tt.jpg","",""
"null","<div style=""font-size:60px;""> </div>","null","fixation","html-keyboard-response","139","612983","0.0-6.0-0.19","2546821","co37903","norming","","","","","","",""
"null","../img/tt/1086tt.jpg","null","mooney1","image-keyboard-response","140","615985","0.0-6.0-1.19","2546821","co37903","norming","","","","","","",""
"4284.929999999935","","","post_mooney1_questions","survey-likert","141","620273","0.0-6.0-2.19","2546821","co37903","norming","","","{""curiosity"":5,""confidence"":2}","[0,1]","../img/tt/1086tt.jpg","",""
"3894.115000000107","","","recognition","survey-text","142","624168","0.0-6.0-3.19","2546821","co37903","norming","","","{""guess"":""schaken""}","","../img/tt/1086tt.jpg","",""
"null","../img/gs/1086gs.jpg","null","reveal","image-keyboard-response","143","626170","0.0-6.0-4.19","2546821","co37903","norming","","","","","","",""
"null","../img/tt/1086tt.jpg","null","mooney2","image-keyboard-response","144","628181","0.0-6.0-5.19","2546821","co37903","norming","","","","","","",""
"4136.875","","","post_reveal_questions","survey-likert","145","632320","0.0-6.0-6.19","2546821","co37903","norming","","","{""aha"":5}","[0]","../img/tt/1086tt.jpg","",""
"null","<div style=""font-size:60px;""> </div>","null","fixation","html-keyboard-response","146","632524","0.0-6.0-0.20","2546821","co37903","norming","","","","","","",""
"null","../img/tt/1307tt.jpg","null","mooney1","image-keyboard-response","147","635531","0.0-6.0-1.20","2546821","co37903","norming","","","","","","",""
"4626.569999999949","","","post_mooney1_questions","survey-likert","148","640160","0.0-6.0-2.20","2546821","co37903","norming","","","{""curiosity"":5,""confidence"":3}","[0,1]","../img/tt/1307tt.jpg","",""
"2806.3899999998976","","","recognition","survey-text","149","642968","0.0-6.0-3.20","2546821","co37903","norming","","","{""guess"":""appelsien""}","","../img/tt/1307tt.jpg","",""
"null","../img/gs/1307gs.jpg","null","reveal","image-keyboard-response","150","644976","0.0-6.0-4.20","2546821","co37903","norming","","","","","","",""
"null","../img/tt/1307tt.jpg","null","mooney2","image-keyboard-response","151","646979","0.0-6.0-5.20","2546821","co37903","norming","","","","","","",""
"2019.280000000028","","","post_reveal_questions","survey-likert","152","649000","0.0-6.0-6.20","2546821","co37903","norming","","","{""aha"":6}","[0]","../img/tt/1307tt.jpg","",""
"null","<div style=""font-size:60px;""> </div>","null","fixation","html-keyboard-response","153","649204","0.0-6.0-0.21","2546821","co37903","norming","","","","","","",""
"null","../img/tt/1190tt.jpg","null","mooney1","image-keyboard-response","154","652214","0.0-6.0-1.21","2546821","co37903","norming","","","","","","",""
"4935.895000000019","","","post_mooney1_questions","survey-likert","155","657153","0.0-6.0-2.21","2546821","co37903","norming","","","{""curiosity"":6,""confidence"":0}","[0,1]","../img/tt/1190tt.jpg","",""
"829.9399999999441","","","recognition","survey-text","156","657984","0.0-6.0-3.21","2546821","co37903","norming","","","{""guess"":""""}","","../img/tt/1190tt.jpg","",""
"null","../img/gs/1190gs.jpg","null","reveal","image-keyboard-response","157","659994","0.0-6.0-4.21","2546821","co37903","norming","","","","","","",""
"null","../img/tt/1190tt.jpg","null","mooney2","image-keyboard-response","158","662002","0.0-6.0-5.21","2546821","co37903","norming","","","","","","",""
"3004.060000000056","","","post_reveal_questions","survey-likert","159","665008","0.0-6.0-6.21","2546821","co37903","norming","","","{""aha"":6}","[0]","../img/tt/1190tt.jpg","",""
"null","<div style=""font-size:60px;""> </div>","null","fixation","html-keyboard-response","160","665216","0.0-6.0-0.22","2546821","co37903","norming","","","","","","",""
"null","../img/tt/010tt.jpg","null","mooney1","image-keyboard-response","161","668223","0.0-6.0-1.22","2546821","co37903","norming","","","","","","",""
"3702.320000000065","","","post_mooney1_questions","survey-likert","162","671928","0.0-6.0-2.22","2546821","co37903","norming","","","{""curiosity"":5,""confidence"":2}","[0,1]","../img/tt/010tt.jpg","",""
"2046.2050000000745","","","recognition","survey-text","163","673976","0.0-6.0-3.22","2546821","co37903","norming","","","{""guess"":""kikker""}","","../img/tt/010tt.jpg","",""
"null","../img/gs/010gs.jpg","null","reveal","image-keyboard-response","164","675979","0.0-6.0-4.22","2546821","co37903","norming","","","","","","",""
"null","../img/tt/010tt.jpg","null","mooney2","image-keyboard-response","165","677982","0.0-6.0-5.22","2546821","co37903","norming","","","","","","",""
"2999.104999999865","","","post_reveal_questions","survey-likert","166","680984","0.0-6.0-6.22","2546821","co37903","norming","","","{""aha"":4}","[0]","../img/tt/010tt.jpg","",""
"null","<div style=""font-size:60px;""> </div>","null","fixation","html-keyboard-response","167","681191","0.0-6.0-0.23","2546821","co37903","norming","","","","","","",""
"null","../img/tt/1255tt.jpg","null","mooney1","image-keyboard-response","168","684203","0.0-6.0-1.23","2546821","co37903","norming","","","","","","",""
"4162.329999999958","","","post_mooney1_questions","survey-likert","169","688369","0.0-6.0-2.23","2546821","co37903","norming","","","{""curiosity"":6,""confidence"":0}","[0,1]","../img/tt/1255tt.jpg","",""
"853.7299999999814","","","recognition","survey-text","170","689224","0.0-6.0-3.23","2546821","co37903","norming","","","{""guess"":""""}","","../img/tt/1255tt.jpg","",""
"null","../img/gs/1255gs.jpg","null","reveal","image-keyboard-response","171","691226","0.0-6.0-4.23","2546821","co37903","norming","","","","","","",""
"null","../img/tt/1255tt.jpg","null","mooney2","image-keyboard-response","172","693229","0.0-6.0-5.23","2546821","co37903","norming","","","","","","",""
"1736.7199999998556","","","post_reveal_questions","survey-likert","173","694968","0.0-6.0-6.23","2546821","co37903","norming","","","{""aha"":6}","[0]","../img/tt/1255tt.jpg","",""
"null","<div style=""font-size:60px;""> </div>","null","fixation","html-keyboard-response","174","695169","0.0-6.0-0.24","2546821","co37903","norming","","","","","","",""
"null","../img/tt/082tt.jpg","null","mooney1","image-keyboard-response","175","698176","0.0-6.0-1.24","2546821","co37903","norming","","","","","","",""
"4909.810000000056","","","post_mooney1_questions","survey-likert","176","703088","0.0-6.0-2.24","2546821","co37903","norming","","","{""curiosity"":4,""confidence"":5}","[0,1]","../img/tt/082tt.jpg","",""
"3206.1350000001257","","","recognition","survey-text","177","706296","0.0-6.0-3.24","2546821","co37903","norming","","","{""guess"":""papegaai""}","","../img/tt/082tt.jpg","",""
"null","../img/gs/082gs.jpg","null","reveal","image-keyboard-response","178","708305","0.0-6.0-4.24","2546821","co37903","norming","","","","","","",""
"null","../img/tt/082tt.jpg","null","mooney2","image-keyboard-response","179","710307","0.0-6.0-5.24","2546821","co37903","norming","","","","","","",""
"1185.0549999999348","","","post_reveal_questions","survey-likert","180","711496","0.0-6.0-6.24","2546821","co37903","norming","","","{""aha"":2}","[0]","../img/tt/082tt.jpg","",""
"null","<div style=""font-size:60px;""> </div>","null","fixation","html-keyboard-response","181","711698","0.0-6.0-0.25","2546821","co37903","norming","","","","","","",""
"null","../img/tt/456tt.jpg","null","mooney1","image-keyboard-response","182","714703","0.0-6.0-1.25","2546821","co37903","norming","","","","","","",""
"4534.045000000158","","","post_mooney1_questions","survey-likert","183","719240","0.0-6.0-2.25","2546821","co37903","norming","","","{""curiosity"":5,""confidence"":2}","[0,1]","../img/tt/456tt.jpg","",""
"2510.2749999997905","","","recognition","survey-text","184","721747","0.0-6.0-3.25","2546821","co37903","norming","","","{""guess"":""zeehond""}","","../img/tt/456tt.jpg","",""
"null","../img/gs/456gs.jpg","null","reveal","image-keyboard-response","185","723755","0.0-6.0-4.25","2546821","co37903","norming","","","","","","",""
"null","../img/tt/456tt.jpg","null","mooney2","image-keyboard-response","186","725757","0.0-6.0-5.25","2546821","co37903","norming","","","","","","",""
"1915.6900000000605","","","post_reveal_questions","survey-likert","187","727675","0.0-6.0-6.25","2546821","co37903","norming","","","{""aha"":5}","[0]","../img/tt/456tt.jpg","",""
"null","<div style=""font-size:60px;""> </div>","null","fixation","html-keyboard-response","188","727877","0.0-6.0-0.26","2546821","co37903","norming","","","","","","",""
"null","../img/tt/279tt.jpg","null","mooney1","image-keyboard-response","189","730880","0.0-6.0-1.26","2546821","co37903","norming","","","","","","",""
"3360.205000000191","","","post_mooney1_questions","survey-likert","190","734243","0.0-6.0-2.26","2546821","co37903","norming","","","{""curiosity"":4,""confidence"":4}","[0,1]","../img/tt/279tt.jpg","",""
"2158.160000000149","","","recognition","survey-text","191","736403","0.0-6.0-3.26","2546821","co37903","norming","","","{""guess"":""koala""}","","../img/tt/279tt.jpg","",""
"null","../img/gs/279gs.jpg","null","reveal","image-keyboard-response","192","738410","0.0-6.0-4.26","2546821","co37903","norming","","","","","","",""
"null","../img/tt/279tt.jpg","null","mooney2","image-keyboard-response","193","740411","0.0-6.0-5.26","2546821","co37903","norming","","","","","","",""
"1781.594999999972","","","post_reveal_questions","survey-likert","194","742195","0.0-6.0-6.26","2546821","co37903","norming","","","{""aha"":1}","[0]","../img/tt/279tt.jpg","",""
"null","<div style=""font-size:60px;""> </div>","null","fixation","html-keyboard-response","195","742398","0.0-6.0-0.27","2546821","co37903","norming","","","","","","",""
"null","../img/tt/1148tt.jpg","null","mooney1","image-keyboard-response","196","745405","0.0-6.0-1.27","2546821","co37903","norming","","","","","","",""
"4269.214999999967","","","post_mooney1_questions","survey-likert","197","749675","0.0-6.0-2.27","2546821","co37903","norming","","","{""curiosity"":5,""confidence"":2}","[0,1]","../img/tt/1148tt.jpg","",""
"1798","","","recognition","survey-text","198","751475","0.0-6.0-3.27","2546821","co37903","norming","","","{""guess"":""danser""}","","../img/tt/1148tt.jpg","",""
"null","../img/gs/1148gs.jpg","null","reveal","image-keyboard-response","199","753476","0.0-6.0-4.27","2546821","co37903","norming","","","","","","",""
"null","../img/tt/1148tt.jpg","null","mooney2","image-keyboard-response","200","755478","0.0-6.0-5.27","2546821","co37903","norming","","","","","","",""
"2562.469999999972","","","post_reveal_questions","survey-likert","201","758043","0.0-6.0-6.27","2546821","co37903","norming","","","{""aha"":5}","[0]","../img/tt/1148tt.jpg","",""
"null","<div style=""font-size:60px;""> </div>","null","fixation","html-keyboard-response","202","758250","0.0-6.0-0.28","2546821","co37903","norming","","","","","","",""
"null","../img/tt/1072tt.jpg","null","mooney1","image-keyboard-response","203","761258","0.0-6.0-1.28","2546821","co37903","norming","","","","","","",""
"4526.180000000051","","","post_mooney1_questions","survey-likert","204","765787","0.0-6.0-2.28","2546821","co37903","norming","","","{""curiosity"":5,""confidence"":1}","[0,1]","../img/tt/1072tt.jpg","",""
"1478.0499999999302","","","recognition","survey-text","205","767267","0.0-6.0-3.28","2546821","co37903","norming","","","{""guess"":""weg""}","","../img/tt/1072tt.jpg","",""
"null","../img/gs/1072gs.jpg","null","reveal","image-keyboard-response","206","769269","0.0-6.0-4.28","2546821","co37903","norming","","","","","","",""
"null","../img/tt/1072tt.jpg","null","mooney2","image-keyboard-response","207","771271","0.0-6.0-5.28","2546821","co37903","norming","","","","","","",""
"1314.160000000149","","","post_reveal_questions","survey-likert","208","772587","0.0-6.0-6.28","2546821","co37903","norming","","","{""aha"":4}","[0]","../img/tt/1072tt.jpg","",""
"null","<div style=""font-size:60px;""> </div>","null","fixation","html-keyboard-response","209","772791","0.0-6.0-0.29","2546821","co37903","norming","","","","","","",""
"null","../img/tt/1046tt.jpg","null","mooney1","image-keyboard-response","210","775800","0.0-6.0-1.29","2546821","co37903","norming","","","","","","",""
"5680.005000000121","","","post_mooney1_questions","survey-likert","211","781492","0.0-6.0-2.29","2546821","co37903","norming","","","{""curiosity"":5,""confidence"":3}","[0,1]","../img/tt/1046tt.jpg","",""
"2741.9950000001118","","","recognition","survey-text","212","784236","0.0-6.0-3.29","2546821","co37903","norming","","","{""guess"":""bord ""}","","../img/tt/1046tt.jpg","",""
"null","../img/gs/1046gs.jpg","null","reveal","image-keyboard-response","213","786241","0.0-6.0-4.29","2546821","co37903","norming","","","","","","",""
"null","../img/tt/1046tt.jpg","null","mooney2","image-keyboard-response","214","788242","0.0-6.0-5.29","2546821","co37903","norming","","","","","","",""
"2439.390000000014","","","post_reveal_questions","survey-likert","215","790684","0.0-6.0-6.29","2546821","co37903","norming","","","{""aha"":4}","[0]","../img/tt/1046tt.jpg","",""
"null","<div style=""font-size:60px;""> </div>","null","fixation","html-keyboard-response","216","790891","0.0-6.0-0.30","2546821","co37903","norming","","","","","","",""
"null","../img/tt/1126tt.jpg","null","mooney1","image-keyboard-response","217","793900","0.0-6.0-1.30","2546821","co37903","norming","","","","","","",""
"3916.9349999999395","","","post_mooney1_questions","survey-likert","218","797820","0.0-6.0-2.30","2546821","co37903","norming","","","{""curiosity"":5,""confidence"":2}","[0,1]","../img/tt/1126tt.jpg","",""
"3278.2449999999953","","","recognition","survey-text","219","801100","0.0-6.0-3.30","2546821","co37903","norming","","","{""guess"":""rotswand""}","","../img/tt/1126tt.jpg","",""
"null","../img/gs/1126gs.jpg","null","reveal","image-keyboard-response","220","803106","0.0-6.0-4.30","2546821","co37903","norming","","","","","","",""
"null","../img/tt/1126tt.jpg","null","mooney2","image-keyboard-response","221","805114","0.0-6.0-5.30","2546821","co37903","norming","","","","","","",""
"2319.0499999998137","","","post_reveal_questions","survey-likert","222","807436","0.0-6.0-6.30","2546821","co37903","norming","","","{""aha"":2}","[0]","../img/tt/1126tt.jpg","",""
"null","<div style=""font-size:60px;""> </div>","null","fixation","html-keyboard-response","223","807637","0.0-6.0-0.31","2546821","co37903","norming","","","","","","",""
"null","../img/tt/1241tt.jpg","null","mooney1","image-keyboard-response","224","810638","0.0-6.0-1.31","2546821","co37903","norming","","","","","","",""
"4619.0950000000885","","","post_mooney1_questions","survey-likert","225","815260","0.0-6.0-2.31","2546821","co37903","norming","","","{""curiosity"":5,""confidence"":2}","[0,1]","../img/tt/1241tt.jpg","",""
"2254.259999999893","","","recognition","survey-text","226","817516","0.0-6.0-3.31","2546821","co37903","norming","","","{""guess"":""leeuw""}","","../img/tt/1241tt.jpg","",""
"null","../img/gs/1241gs.jpg","null","reveal","image-keyboard-response","227","819522","0.0-6.0-4.31","2546821","co37903","norming","","","","","","",""
"null","../img/tt/1241tt.jpg","null","mooney2","image-keyboard-response","228","821525","0.0-6.0-5.31","2546821","co37903","norming","","","","","","",""
"2509.0949999998556","","","post_reveal_questions","survey-likert","229","824036","0.0-6.0-6.31","2546821","co37903","norming","","","{""aha"":5}","[0]","../img/tt/1241tt.jpg","",""
"null","<div style=""font-size:60px;""> </div>","null","fixation","html-keyboard-response","230","824240","0.0-6.0-0.32","2546821","co37903","norming","","","","","","",""
"null","../img/tt/301tt.jpg","null","mooney1","image-keyboard-response","231","827246","0.0-6.0-1.32","2546821","co37903","norming","","","","","","",""
"6075.525000000023","","","post_mooney1_questions","survey-likert","232","833324","0.0-6.0-2.32","2546821","co37903","norming","","","{""curiosity"":5,""confidence"":4}","[0,1]","../img/tt/301tt.jpg","",""
"2942.295000000042","","","recognition","survey-text","233","836268","0.0-6.0-3.32","2546821","co37903","norming","","","{""guess"":""stoelen""}","","../img/tt/301tt.jpg","",""
"null","../img/gs/301gs.jpg","null","reveal","image-keyboard-response","234","838273","0.0-6.0-4.32","2546821","co37903","norming","","","","","","",""
"null","../img/tt/301tt.jpg","null","mooney2","image-keyboard-response","235","840284","0.0-6.0-5.32","2546821","co37903","norming","","","","","","",""
"2725.140000000014","","","post_reveal_questions","survey-likert","236","843009","0.0-6.0-6.32","2546821","co37903","norming","","","{""aha"":6}","[0]","../img/tt/301tt.jpg","",""
"null","<div style=""font-size:60px;""> </div>","null","fixation","html-keyboard-response","237","843210","0.0-6.0-0.33","2546821","co37903","norming","","","","","","",""
"null","../img/tt/1156tt.jpg","null","mooney1","image-keyboard-response","238","846221","0.0-6.0-1.33","2546821","co37903","norming","","","","","","",""
"3641.030000000028","","","post_mooney1_questions","survey-likert","239","849865","0.0-6.0-2.33","2546821","co37903","norming","","","{""curiosity"":5,""confidence"":5}","[0,1]","../img/tt/1156tt.jpg","",""
"2830.155000000028","","","recognition","survey-text","240","852697","0.0-6.0-3.33","2546821","co37903","norming","","","{""guess"":""bruinen""}","","../img/tt/1156tt.jpg","",""
"null","../img/gs/1156gs.jpg","null","reveal","image-keyboard-response","241","854703","0.0-6.0-4.33","2546821","co37903","norming","","","","","","",""
"null","../img/tt/1156tt.jpg","null","mooney2","image-keyboard-response","242","856706","0.0-6.0-5.33","2546821","co37903","norming","","","","","","",""
"3150.5450000001583","","","post_reveal_questions","survey-likert","243","859857","0.0-6.0-6.33","2546821","co37903","norming","","","{""aha"":3}","[0]","../img/tt/1156tt.jpg","",""
"null","<div style=""font-size:60px;""> </div>","null","fixation","html-keyboard-response","244","860061","0.0-6.0-0.34","2546821","co37903","norming","","","","","","",""
"null","../img/tt/140tt.jpg","null","mooney1","image-keyboard-response","245","863064","0.0-6.0-1.34","2546821","co37903","norming","","","","","","",""
"3669.9749999999767","","","post_mooney1_questions","survey-likert","246","866737","0.0-6.0-2.34","2546821","co37903","norming","","","{""curiosity"":5,""confidence"":5}","[0,1]","../img/tt/140tt.jpg","",""
"1637.895000000135","","","recognition","survey-text","247","868377","0.0-6.0-3.34","2546821","co37903","norming","","","{""guess"":""vork""}","","../img/tt/140tt.jpg","",""
"null","../img/gs/140gs.jpg","null","reveal","image-keyboard-response","248","870378","0.0-6.0-4.34","2546821","co37903","norming","","","","","","",""
"null","../img/tt/140tt.jpg","null","mooney2","image-keyboard-response","249","872380","0.0-6.0-5.34","2546821","co37903","norming","","","","","","",""
"1794.0849999999627","","","post_reveal_questions","survey-likert","250","874177","0.0-6.0-6.34","2546821","co37903","norming","","","{""aha"":1}","[0]","../img/tt/140tt.jpg","",""
"null","<div style=""font-size:60px;""> </div>","null","fixation","html-keyboard-response","251","874378","0.0-6.0-0.35","2546821","co37903","norming","","","","","","",""
"null","../img/tt/032tt.jpg","null","mooney1","image-keyboard-response","252","877382","0.0-6.0-1.35","2546821","co37903","norming","","","","","","",""
"4745.879999999888","","","post_mooney1_questions","survey-likert","253","882129","0.0-6.0-2.35","2546821","co37903","norming","","","{""curiosity"":6,""confidence"":1}","[0,1]","../img/tt/032tt.jpg","",""
"1782.0950000000885","","","recognition","survey-text","254","883913","0.0-6.0-3.35","2546821","co37903","norming","","","{""guess"":""sneaker""}","","../img/tt/032tt.jpg","",""
"null","../img/gs/032gs.jpg","null","reveal","image-keyboard-response","255","885919","0.0-6.0-4.35","2546821","co37903","norming","","","","","","",""
"null","../img/tt/032tt.jpg","null","mooney2","image-keyboard-response","256","887928","0.0-6.0-5.35","2546821","co37903","norming","","","","","","",""
"2503.4100000000326","","","post_reveal_questions","survey-likert","257","890433","0.0-6.0-6.35","2546821","co37903","norming","","","{""aha"":6}","[0]","../img/tt/032tt.jpg","",""
"null","<div style=""font-size:60px;""> </div>","null","fixation","html-keyboard-response","258","890639","0.0-6.0-0.36","2546821","co37903","norming","","","","","","",""
"null","../img/tt/085tt.jpg","null","mooney1","image-keyboard-response","259","893649","0.0-6.0-1.36","2546821","co37903","norming","","","","","","",""
"5655.099999999977","","","post_mooney1_questions","survey-likert","260","899305","0.0-6.0-2.36","2546821","co37903","norming","","","{""curiosity"":5,""confidence"":2}","[0,1]","../img/tt/085tt.jpg","",""
"1966.2699999999022","","","recognition","survey-text","261","901273","0.0-6.0-3.36","2546821","co37903","norming","","","{""guess"":""sneaker""}","","../img/tt/085tt.jpg","",""
"null","../img/gs/085gs.jpg","null","reveal","image-keyboard-response","262","903284","0.0-6.0-4.36","2546821","co37903","norming","","","","","","",""
"null","../img/tt/085tt.jpg","null","mooney2","image-keyboard-response","263","905291","0.0-6.0-5.36","2546821","co37903","norming","","","","","","",""
"11454.86499999999","","","post_reveal_questions","survey-likert","264","916746","0.0-6.0-6.36","2546821","co37903","norming","","","{""aha"":5}","[0]","../img/tt/085tt.jpg","",""
"null","<div style=""font-size:60px;""> </div>","null","fixation","html-keyboard-response","265","916952","0.0-6.0-0.37","2546821","co37903","norming","","","","","","",""
"null","../img/tt/442tt.jpg","null","mooney1","image-keyboard-response","266","919959","0.0-6.0-1.37","2546821","co37903","norming","","","","","","",""
"3824.039999999921","","","post_mooney1_questions","survey-likert","267","923787","0.0-6.0-2.37","2546821","co37903","norming","","","{""curiosity"":6,""confidence"":0}","[0,1]","../img/tt/442tt.jpg","",""
"1581.6450000002515","","","recognition","survey-text","268","925370","0.0-6.0-3.37","2546821","co37903","norming","","","{""guess"":""""}","","../img/tt/442tt.jpg","",""
"null","../img/gs/442gs.jpg","null","reveal","image-keyboard-response","269","927371","0.0-6.0-4.37","2546821","co37903","norming","","","","","","",""
"null","../img/tt/442tt.jpg","null","mooney2","image-keyboard-response","270","929378","0.0-6.0-5.37","2546821","co37903","norming","","","","","","",""
"2471.704999999958","","","post_reveal_questions","survey-likert","271","931850","0.0-6.0-6.37","2546821","co37903","norming","","","{""aha"":6}","[0]","../img/tt/442tt.jpg","",""
"null","<div style=""font-size:60px;""> </div>","null","fixation","html-keyboard-response","272","932059","0.0-6.0-0.38","2546821","co37903","norming","","","","","","",""
"null","../img/tt/1006tt.jpg","null","mooney1","image-keyboard-response","273","935067","0.0-6.0-1.38","2546821","co37903","norming","","","","","","",""
"4580.429999999935","","","post_mooney1_questions","survey-likert","274","939650","0.0-6.0-2.38","2546821","co37903","norming","","","{""curiosity"":4,""confidence"":2}","[0,1]","../img/tt/1006tt.jpg","",""
"3918.1199999997625","","","recognition","survey-text","275","943570","0.0-6.0-3.38","2546821","co37903","norming","","","{""guess"":""weiland""}","","../img/tt/1006tt.jpg","",""
"null","../img/gs/1006gs.jpg","null","reveal","image-keyboard-response","276","945578","0.0-6.0-4.38","2546821","co37903","norming","","","","","","",""
"null","../img/tt/1006tt.jpg","null","mooney2","image-keyboard-response","277","947585","0.0-6.0-5.38","2546821","co37903","norming","","","","","","",""
"2189.5899999999674","","","post_reveal_questions","survey-likert","278","949778","0.0-6.0-6.38","2546821","co37903","norming","","","{""aha"":5}","[0]","../img/tt/1006tt.jpg","",""
"null","<div style=""font-size:60px;""> </div>","null","fixation","html-keyboard-response","279","949984","0.0-6.0-0.39","2546821","co37903","norming","","","","","","",""
"null","../img/tt/1146tt.jpg","null","mooney1","image-keyboard-response","280","952987","0.0-6.0-1.39","2546821","co37903","norming","","","","","","",""
"5877.260000000009","","","post_mooney1_questions","survey-likert","281","958866","0.0-6.0-2.39","2546821","co37903","norming","","","{""curiosity"":5,""confidence"":2}","[0,1]","../img/tt/1146tt.jpg","",""
"4797.914999999921","","","recognition","survey-text","282","963668","0.0-6.0-3.39","2546821","co37903","norming","","","{""guess"":""zonnen""}","","../img/tt/1146tt.jpg","",""
"null","../img/gs/1146gs.jpg","null","reveal","image-keyboard-response","283","965669","0.0-6.0-4.39","2546821","co37903","norming","","","","","","",""
"null","../img/tt/1146tt.jpg","null","mooney2","image-keyboard-response","284","967679","0.0-6.0-5.39","2546821","co37903","norming","","","","","","",""
"3138.0350000000326","","","post_reveal_questions","survey-likert","285","970820","0.0-6.0-6.39","2546821","co37903","norming","","","{""aha"":5}","[0]","../img/tt/1146tt.jpg","",""
"null","<div style=""font-size:60px;""> </div>","null","fixation","html-keyboard-response","286","971022","0.0-6.0-0.40","2546821","co37903","norming","","","","","","",""
"null","../img/tt/076tt.jpg","null","mooney1","image-keyboard-response","287","974025","0.0-6.0-1.40","2546821","co37903","norming","","","","","","",""
"3175.944999999949","","","post_mooney1_questions","survey-likert","288","977204","0.0-6.0-2.40","2546821","co37903","norming","","","{""curiosity"":5,""confidence"":4}","[0,1]","../img/tt/076tt.jpg","",""
"5118.285000000033","","","recognition","survey-text","289","982324","0.0-6.0-3.40","2546821","co37903","norming","","","{""guess"":""rollerskates""}","","../img/tt/076tt.jpg","",""
"null","../img/gs/076gs.jpg","null","reveal","image-keyboard-response","290","984325","0.0-6.0-4.40","2546821","co37903","norming","","","","","","",""
"null","../img/tt/076tt.jpg","null","mooney2","image-keyboard-response","291","986331","0.0-6.0-5.40","2546821","co37903","norming","","","","","","",""
"1686.3150000000605","","","post_reveal_questions","survey-likert","292","988020","0.0-6.0-6.40","2546821","co37903","norming","","","{""aha"":1}","[0]","../img/tt/076tt.jpg","",""
"null","<div style=""font-size:60px;""> </div>","null","fixation","html-keyboard-response","293","988229","0.0-6.0-0.41","2546821","co37903","norming","","","","","","",""
"null","../img/tt/094tt.jpg","null","mooney1","image-keyboard-response","294","991239","0.0-6.0-1.41","2546821","co37903","norming","","","","","","",""
"3658.1350000001257","","","post_mooney1_questions","survey-likert","295","994900","0.0-6.0-2.41","2546821","co37903","norming","","","{""curiosity"":6,""confidence"":0}","[0,1]","../img/tt/094tt.jpg","",""
"942.1050000000978","","","recognition","survey-text","296","995844","0.0-6.0-3.41","2546821","co37903","norming","","","{""guess"":""""}","","../img/tt/094tt.jpg","",""
"null","../img/gs/094gs.jpg","null","reveal","image-keyboard-response","297","997849","0.0-6.0-4.41","2546821","co37903","norming","","","","","","",""
"null","../img/tt/094tt.jpg","null","mooney2","image-keyboard-response","298","999856","0.0-6.0-5.41","2546821","co37903","norming","","","","","","",""
"3619.100000000093","","","post_reveal_questions","survey-likert","299","1003476","0.0-6.0-6.41","2546821","co37903","norming","","","{""aha"":4}","[0]","../img/tt/094tt.jpg","",""
"null","<div style=""font-size:60px;""> </div>","null","fixation","html-keyboard-response","300","1003684","0.0-6.0-0.42","2546821","co37903","norming","","","","","","",""
"null","../img/tt/1154tt.jpg","null","mooney1","image-keyboard-response","301","1006691","0.0-6.0-1.42","2546821","co37903","norming","","","","","","",""
"3501.5400000000373","","","post_mooney1_questions","survey-likert","302","1010196","0.0-6.0-2.42","2546821","co37903","norming","","","{""curiosity"":5,""confidence"":4}","[0,1]","../img/tt/1154tt.jpg","",""
"3101.9699999998556","","","recognition","survey-text","303","1013300","0.0-6.0-3.42","2546821","co37903","norming","","","{""guess"":""kanoen""}","","../img/tt/1154tt.jpg","",""
"null","../img/gs/1154gs.jpg","null","reveal","image-keyboard-response","304","1015303","0.0-6.0-4.42","2546821","co37903","norming","","","","","","",""
"null","../img/tt/1154tt.jpg","null","mooney2","image-keyboard-response","305","1017310","0.0-6.0-5.42","2546821","co37903","norming","","","","","","",""
"1859.7599999997765","","","post_reveal_questions","survey-likert","306","1019172","0.0-6.0-6.42","2546821","co37903","norming","","","{""aha"":2}","[0]","../img/tt/1154tt.jpg","",""
"null","<div style=""font-size:60px;""> </div>","null","fixation","html-keyboard-response","307","1019374","0.0-6.0-0.43","2546821","co37903","norming","","","","","","",""
"null","../img/tt/412tt.jpg","null","mooney1","image-keyboard-response","308","1022375","0.0-6.0-1.43","2546821","co37903","norming","","","","","","",""
"4467.955000000191","","","post_mooney1_questions","survey-likert","309","1026844","0.0-6.0-2.43","2546821","co37903","norming","","","{""curiosity"":6,""confidence"":0}","[0,1]","../img/tt/412tt.jpg","",""
"822.1249999996508","","","recognition","survey-text","310","1027668","0.0-6.0-3.43","2546821","co37903","norming","","","{""guess"":""""}","","../img/tt/412tt.jpg","",""
"null","../img/gs/412gs.jpg","null","reveal","image-keyboard-response","311","1029676","0.0-6.0-4.43","2546821","co37903","norming","","","","","","",""
"null","../img/tt/412tt.jpg","null","mooney2","image-keyboard-response","312","1031678","0.0-6.0-5.43","2546821","co37903","norming","","","","","","",""
"2339.460000000079","","","post_reveal_questions","survey-likert","313","1034020","0.0-6.0-6.43","2546821","co37903","norming","","","{""aha"":4}","[0]","../img/tt/412tt.jpg","",""
"null","<div style=""font-size:60px;""> </div>","null","fixation","html-keyboard-response","314","1034224","0.0-6.0-0.44","2546821","co37903","norming","","","","","","",""
"null","../img/tt/1130tt.jpg","null","mooney1","image-keyboard-response","315","1037231","0.0-6.0-1.44","2546821","co37903","norming","","","","","","",""
"4371.195000000182","","","post_mooney1_questions","survey-likert","316","1041604","0.0-6.0-2.44","2546821","co37903","norming","","","{""curiosity"":3,""confidence"":5}","[0,1]","../img/tt/1130tt.jpg","",""
"2509.9899999999907","","","recognition","survey-text","317","1044116","0.0-6.0-3.44","2546821","co37903","norming","","","{""guess"":""sporten""}","","../img/tt/1130tt.jpg","",""
"null","../img/gs/1130gs.jpg","null","reveal","image-keyboard-response","318","1046126","0.0-6.0-4.44","2546821","co37903","norming","","","","","","",""
"null","../img/tt/1130tt.jpg","null","mooney2","image-keyboard-response","319","1048129","0.0-6.0-5.44","2546821","co37903","norming","","","","","","",""
"2152.340000000084","","","post_reveal_questions","survey-likert","320","1050284","0.0-6.0-6.44","2546821","co37903","norming","","","{""aha"":5}","[0]","../img/tt/1130tt.jpg","",""
"null","<div style=""font-size:60px;""> </div>","null","fixation","html-keyboard-response","321","1050489","0.0-6.0-0.45","2546821","co37903","norming","","","","","","",""
"null","../img/tt/590tt.jpg","null","mooney1","image-keyboard-response","322","1053495","0.0-6.0-1.45","2546821","co37903","norming","","","","","","",""
"4177.3549999997485","","","post_mooney1_questions","survey-likert","323","1057676","0.0-6.0-2.45","2546821","co37903","norming","","","{""curiosity"":6,""confidence"":0}","[0,1]","../img/tt/590tt.jpg","",""
"830.0100000000093","","","recognition","survey-text","324","1058508","0.0-6.0-3.45","2546821","co37903","norming","","","{""guess"":""""}","","../img/tt/590tt.jpg","",""
"null","../img/gs/590gs.jpg","null","reveal","image-keyboard-response","325","1060514","0.0-6.0-4.45","2546821","co37903","norming","","","","","","",""
"null","../img/tt/590tt.jpg","null","mooney2","image-keyboard-response","326","1062524","0.0-6.0-5.45","2546821","co37903","norming","","","","","","",""
"3988.784999999916","","","post_reveal_questions","survey-likert","327","1066516","0.0-6.0-6.45","2546821","co37903","norming","","","{""aha"":4}","[0]","../img/tt/590tt.jpg","",""
"null","<div style=""font-size:60px;""> </div>","null","fixation","html-keyboard-response","328","1066722","0.0-6.0-0.46","2546821","co37903","norming","","","","","","",""
"null","../img/tt/1189tt.jpg","null","mooney1","image-keyboard-response","329","1069725","0.0-6.0-1.46","2546821","co37903","norming","","","","","","",""
"2667.214999999851","","","post_mooney1_questions","survey-likert","330","1072396","0.0-6.0-2.46","2546821","co37903","norming","","","{""curiosity"":5,""confidence"":5}","[0,1]","../img/tt/1189tt.jpg","",""
"5878.110000000102","","","recognition","survey-text","331","1078276","0.0-6.0-3.46","2546821","co37903","norming","","","{""guess"":""zwemmen crawl""}","","../img/tt/1189tt.jpg","",""
"null","../img/gs/1189gs.jpg","null","reveal","image-keyboard-response","332","1080278","0.0-6.0-4.46","2546821","co37903","norming","","","","","","",""
"null","../img/tt/1189tt.jpg","null","mooney2","image-keyboard-response","333","1082280","0.0-6.0-5.46","2546821","co37903","norming","","","","","","",""
"1752.7049999998417","","","post_reveal_questions","survey-likert","334","1084036","0.0-6.0-6.46","2546821","co37903","norming","","","{""aha"":4}","[0]","../img/tt/1189tt.jpg","",""
"null","<div style=""font-size:60px;""> </div>","null","fixation","html-keyboard-response","335","1084242","0.0-6.0-0.47","2546821","co37903","norming","","","","","","",""
"null","../img/tt/1191tt.jpg","null","mooney1","image-keyboard-response","336","1087247","0.0-6.0-1.47","2546821","co37903","norming","","","","","","",""
"3181.355000000214","","","post_mooney1_questions","survey-likert","337","1090431","0.0-6.0-2.47","2546821","co37903","norming","","","{""curiosity"":5,""confidence"":4}","[0,1]","../img/tt/1191tt.jpg","",""
"2277.560000000056","","","recognition","survey-text","338","1092711","0.0-6.0-3.47","2546821","co37903","norming","","","{""guess"":""koppeldans""}","","../img/tt/1191tt.jpg","",""
"null","../img/gs/1191gs.jpg","null","reveal","image-keyboard-response","339","1094712","0.0-6.0-4.47","2546821","co37903","norming","","","","","","",""
"null","../img/tt/1191tt.jpg","null","mooney2","image-keyboard-response","340","1096720","0.0-6.0-5.47","2546821","co37903","norming","","","","","","",""
"2029.0049999998882","","","post_reveal_questions","survey-likert","341","1098751","0.0-6.0-6.47","2546821","co37903","norming","","","{""aha"":5}","[0]","../img/tt/1191tt.jpg","",""
"null","<div style=""font-size:60px;""> </div>","null","fixation","html-keyboard-response","342","1098955","0.0-6.0-0.48","2546821","co37903","norming","","","","","","",""
"null","../img/tt/049tt.jpg","null","mooney1","image-keyboard-response","343","1101965","0.0-6.0-1.48","2546821","co37903","norming","","","","","","",""
"3191.2399999999907","","","post_mooney1_questions","survey-likert","344","1105160","0.0-6.0-2.48","2546821","co37903","norming","","","{""curiosity"":5,""confidence"":1}","[0,1]","../img/tt/049tt.jpg","",""
"629.6700000003912","","","recognition","survey-text","345","1105791","0.0-6.0-3.48","2546821","co37903","norming","","","{""guess"":""""}","","../img/tt/049tt.jpg","",""
"null","../img/gs/049gs.jpg","null","reveal","image-keyboard-response","346","1107792","0.0-6.0-4.48","2546821","co37903","norming","","","","","","",""
"null","../img/tt/049tt.jpg","null","mooney2","image-keyboard-response","347","1109794","0.0-6.0-5.48","2546821","co37903","norming","","","","","","",""
"1370.654999999795","","","post_reveal_questions","survey-likert","348","1111167","0.0-6.0-6.48","2546821","co37903","norming","","","{""aha"":4}","[0]","../img/tt/049tt.jpg","",""
"null","<div style=""font-size:60px;""> </div>","null","fixation","html-keyboard-response","349","1111378","0.0-6.0-0.49","2546821","co37903","norming","","","","","","",""
"null","../img/tt/1142tt.jpg","null","mooney1","image-keyboard-response","350","1114380","0.0-6.0-1.49","2546821","co37903","norming","","","","","","",""
"3696.4300000004005","","","post_mooney1_questions","survey-likert","351","1118079","0.0-6.0-2.49","2546821","co37903","norming","","","{""curiosity"":5,""confidence"":4}","[0,1]","../img/tt/1142tt.jpg","",""
"2005.904999999795","","","recognition","survey-text","352","1120087","0.0-6.0-3.49","2546821","co37903","norming","","","{""guess"":""boksen""}","","../img/tt/1142tt.jpg","",""
"null","../img/gs/1142gs.jpg","null","reveal","image-keyboard-response","353","1122091","0.0-6.0-4.49","2546821","co37903","norming","","","","","","",""
"null","../img/tt/1142tt.jpg","null","mooney2","image-keyboard-response","354","1124095","0.0-6.0-5.49","2546821","co37903","norming","","","","","","",""
"2309.4599999999627","","","post_reveal_questions","survey-likert","355","1126407","0.0-6.0-6.49","2546821","co37903","norming","","","{""aha"":5}","[0]","../img/tt/1142tt.jpg","",""
"null","<div style=""font-size:60px;""> </div>","null","fixation","html-keyboard-response","356","1126609","0.0-6.0-0.50","2546821","co37903","norming","","","","","","",""
"null","../img/tt/1269tt.jpg","null","mooney1","image-keyboard-response","357","1129618","0.0-6.0-1.50","2546821","co37903","norming","","","","","","",""
"3481.730000000447","","","post_mooney1_questions","survey-likert","358","1133103","0.0-6.0-2.50","2546821","co37903","norming","","","{""curiosity"":5,""confidence"":5}","[0,1]","../img/tt/1269tt.jpg","",""
"1765.95999999973","","","recognition","survey-text","359","1134871","0.0-6.0-3.50","2546821","co37903","norming","","","{""guess"":""lynx""}","","../img/tt/1269tt.jpg","",""
"null","../img/gs/1269gs.jpg","null","reveal","image-keyboard-response","360","1136874","0.0-6.0-4.50","2546821","co37903","norming","","","","","","",""
"null","../img/tt/1269tt.jpg","null","mooney2","image-keyboard-response","361","1138883","0.0-6.0-5.50","2546821","co37903","norming","","","","","","",""
"2890.0049999996554","","","post_reveal_questions","survey-likert","362","1141775","0.0-6.0-6.50","2546821","co37903","norming","","","{""aha"":6}","[0]","../img/tt/1269tt.jpg","",""
"null","<div style=""font-size:60px;""> </div>","null","fixation","html-keyboard-response","363","1141981","0.0-6.0-0.51","2546821","co37903","norming","","","","","","",""
"null","../img/tt/515tt.jpg","null","mooney1","image-keyboard-response","364","1144991","0.0-6.0-1.51","2546821","co37903","norming","","","","","","",""
"3317.0250000003725","","","post_mooney1_questions","survey-likert","365","1148312","0.0-6.0-2.51","2546821","co37903","norming","","","{""curiosity"":5,""confidence"":3}","[0,1]","../img/tt/515tt.jpg","",""
"1534.1499999999069","","","recognition","survey-text","366","1149847","0.0-6.0-3.51","2546821","co37903","norming","","","{""guess"":""vogel""}","","../img/tt/515tt.jpg","",""
"null","../img/gs/515gs.jpg","null","reveal","image-keyboard-response","367","1151850","0.0-6.0-4.51","2546821","co37903","norming","","","","","","",""
"null","../img/tt/515tt.jpg","null","mooney2","image-keyboard-response","368","1153860","0.0-6.0-5.51","2546821","co37903","norming","","","","","","",""
"2305.969999999972","","","post_reveal_questions","survey-likert","369","1156167","0.0-6.0-6.51","2546821","co37903","norming","","","{""aha"":4}","[0]","../img/tt/515tt.jpg","",""
"null","<div style=""font-size:60px;""> </div>","null","fixation","html-keyboard-response","370","1156371","0.0-6.0-0.52","2546821","co37903","norming","","","","","","",""
"null","../img/tt/108tt.jpg","null","mooney1","image-keyboard-response","371","1159374","0.0-6.0-1.52","2546821","co37903","norming","","","","","","",""
"4800.925000000047","","","post_mooney1_questions","survey-likert","372","1164176","0.0-6.0-2.52","2546821","co37903","norming","","","{""curiosity"":6,""confidence"":0}","[0,1]","../img/tt/108tt.jpg","",""
"1125.905000000028","","","recognition","survey-text","373","1165303","0.0-6.0-3.52","2546821","co37903","norming","","","{""guess"":""""}","","../img/tt/108tt.jpg","",""
"null","../img/gs/108gs.jpg","null","reveal","image-keyboard-response","374","1167308","0.0-6.0-4.52","2546821","co37903","norming","","","","","","",""
"null","../img/tt/108tt.jpg","null","mooney2","image-keyboard-response","375","1169310","0.0-6.0-5.52","2546821","co37903","norming","","","","","","",""
"2038.369999999879","","","post_reveal_questions","survey-likert","376","1171351","0.0-6.0-6.52","2546821","co37903","norming","","","{""aha"":4}","[0]","../img/tt/108tt.jpg","",""
"null","<div style=""font-size:60px;""> </div>","null","fixation","html-keyboard-response","377","1171553","0.0-6.0-0.53","2546821","co37903","norming","","","","","","",""
"null","../img/tt/1161tt.jpg","null","mooney1","image-keyboard-response","378","1174563","0.0-6.0-1.53","2546821","co37903","norming","","","","","","",""
"3856.804999999935","","","post_mooney1_questions","survey-likert","379","1178424","0.0-6.0-2.53","2546821","co37903","norming","","","{""curiosity"":6,""confidence"":0}","[0,1]","../img/tt/1161tt.jpg","",""
"582.1549999995623","","","recognition","survey-text","380","1179007","0.0-6.0-3.53","2546821","co37903","norming","","","{""guess"":""""}","","../img/tt/1161tt.jpg","",""
"null","../img/gs/1161gs.jpg","null","reveal","image-keyboard-response","381","1181017","0.0-6.0-4.53","2546821","co37903","norming","","","","","","",""
"null","../img/tt/1161tt.jpg","null","mooney2","image-keyboard-response","382","1183019","0.0-6.0-5.53","2546821","co37903","norming","","","","","","",""
"1521.8199999998324","","","post_reveal_questions","survey-likert","383","1184543","0.0-6.0-6.53","2546821","co37903","norming","","","{""aha"":5}","[0]","../img/tt/1161tt.jpg","",""
"null","<div style=""font-size:60px;""> </div>","null","fixation","html-keyboard-response","384","1184746","0.0-6.0-0.54","2546821","co37903","norming","","","","","","",""
"null","../img/tt/1278tt.jpg","null","mooney1","image-keyboard-response","385","1187758","0.0-6.0-1.54","2546821","co37903","norming","","","","","","",""
"6133.945000000065","","","post_mooney1_questions","survey-likert","386","1193895","0.0-6.0-2.54","2546821","co37903","norming","","","{""curiosity"":6,""confidence"":0}","[0,1]","../img/tt/1278tt.jpg","",""
"1141.9600000004284","","","recognition","survey-text","387","1195039","0.0-6.0-3.54","2546821","co37903","norming","","","{""guess"":""""}","","../img/tt/1278tt.jpg","",""
"null","../img/gs/1278gs.jpg","null","reveal","image-keyboard-response","388","1197041","0.0-6.0-4.54","2546821","co37903","norming","","","","","","",""
"null","../img/tt/1278tt.jpg","null","mooney2","image-keyboard-response","389","1199044","0.0-6.0-5.54","2546821","co37903","norming","","","","","","",""
"1840.820000000298","","","post_reveal_questions","survey-likert","390","1200887","0.0-6.0-6.54","2546821","co37903","norming","","","{""aha"":4}","[0]","../img/tt/1278tt.jpg","",""
"null","<div style=""font-size:60px;""> </div>","null","fixation","html-keyboard-response","391","1201098","0.0-6.0-0.55","2546821","co37903","norming","","","","","","",""
"null","../img/tt/522tt.jpg","null","mooney1","image-keyboard-response","392","1204104","0.0-6.0-1.55","2546821","co37903","norming","","","","","","",""
"4236.575000000419","","","post_mooney1_questions","survey-likert","393","1208339","0.0-6.0-2.55","2546821","co37903","norming","","","{""curiosity"":5,""confidence"":1}","[0,1]","../img/tt/522tt.jpg","",""
"3053.9550000003073","","","recognition","survey-text","394","1211395","0.0-6.0-3.55","2546821","co37903","norming","","","{""guess"":""vvlinder""}","","../img/tt/522tt.jpg","",""
"null","../img/gs/522gs.jpg","null","reveal","image-keyboard-response","395","1213403","0.0-6.0-4.55","2546821","co37903","norming","","","","","","",""
"null","../img/tt/522tt.jpg","null","mooney2","image-keyboard-response","396","1215408","0.0-6.0-5.55","2546821","co37903","norming","","","","","","",""
"4073.969999999972","","","post_reveal_questions","survey-likert","397","1219483","0.0-6.0-6.55","2546821","co37903","norming","","","{""aha"":4}","[0]","../img/tt/522tt.jpg","",""
"null","<div style=""font-size:60px;""> </div>","null","fixation","html-keyboard-response","398","1219685","0.0-6.0-0.56","2546821","co37903","norming","","","","","","",""
"null","../img/tt/524tt.jpg","null","mooney1","image-keyboard-response","399","1222692","0.0-6.0-1.56","2546821","co37903","norming","","","","","","",""
"3563.685000000056","","","post_mooney1_questions","survey-likert","400","1226259","0.0-6.0-2.56","2546821","co37903","norming","","","{""curiosity"":5,""confidence"":5}","[0,1]","../img/tt/524tt.jpg","",""
"1309.9749999996275","","","recognition","survey-text","401","1227571","0.0-6.0-3.56","2546821","co37903","norming","","","{""guess"":""aap""}","","../img/tt/524tt.jpg","",""
"null","../img/gs/524gs.jpg","null","reveal","image-keyboard-response","402","1229574","0.0-6.0-4.56","2546821","co37903","norming","","","","","","",""
"null","../img/tt/524tt.jpg","null","mooney2","image-keyboard-response","403","1231584","0.0-6.0-5.56","2546821","co37903","norming","","","","","","",""
"2792.489999999758","","","post_reveal_questions","survey-likert","404","1234379","0.0-6.0-6.56","2546821","co37903","norming","","","{""aha"":5}","[0]","../img/tt/524tt.jpg","",""
"null","<div style=""font-size:60px;""> </div>","null","fixation","html-keyboard-response","405","1234588","0.0-6.0-0.57","2546821","co37903","norming","","","","","","",""
"null","../img/tt/1283tt.jpg","null","mooney1","image-keyboard-response","406","1237593","0.0-6.0-1.57","2546821","co37903","norming","","","","","","",""
"3974.3199999998324","","","post_mooney1_questions","survey-likert","407","1241571","0.0-6.0-2.57","2546821","co37903","norming","","","{""curiosity"":6,""confidence"":0}","[0,1]","../img/tt/1283tt.jpg","",""
"525.8899999998976","","","recognition","survey-text","408","1242099","0.0-6.0-3.57","2546821","co37903","norming","","","{""guess"":""""}","","../img/tt/1283tt.jpg","",""
"null","../img/gs/1283gs.jpg","null","reveal","image-keyboard-response","409","1244110","0.0-6.0-4.57","2546821","co37903","norming","","","","","","",""
"null","../img/tt/1283tt.jpg","null","mooney2","image-keyboard-response","410","1246112","0.0-6.0-5.57","2546821","co37903","norming","","","","","","",""
"1736.0949999997392","","","post_reveal_questions","survey-likert","411","1247851","0.0-6.0-6.57","2546821","co37903","norming","","","{""aha"":5}","[0]","../img/tt/1283tt.jpg","",""
"null","<div style=""font-size:60px;""> </div>","null","fixation","html-keyboard-response","412","1248054","0.0-6.0-0.58","2546821","co37903","norming","","","","","","",""
"null","../img/tt/1226tt.jpg","null","mooney1","image-keyboard-response","413","1251062","0.0-6.0-1.58","2546821","co37903","norming","","","","","","",""
"3497.4950000001118","","","post_mooney1_questions","survey-likert","414","1254563","0.0-6.0-2.58","2546821","co37903","norming","","","{""curiosity"":5,""confidence"":6}","[0,1]","../img/tt/1226tt.jpg","",""
"1566.1500000001397","","","recognition","survey-text","415","1256131","0.0-6.0-3.58","2546821","co37903","norming","","","{""guess"":""kip""}","","../img/tt/1226tt.jpg","",""
"null","../img/gs/1226gs.jpg","null","reveal","image-keyboard-response","416","1258133","0.0-6.0-4.58","2546821","co37903","norming","","","","","","",""
"null","../img/tt/1226tt.jpg","null","mooney2","image-keyboard-response","417","1260135","0.0-6.0-5.58","2546821","co37903","norming","","","","","","",""
"2009.3549999999814","","","post_reveal_questions","survey-likert","418","1262146","0.0-6.0-6.58","2546821","co37903","norming","","","{""aha"":4}","[0]","../img/tt/1226tt.jpg","",""
"null","<div style=""font-size:60px;""> </div>","null","fixation","html-keyboard-response","419","1262352","0.0-6.0-0.59","2546821","co37903","norming","","","","","","",""
"null","../img/tt/1260tt.jpg","null","mooney1","image-keyboard-response","420","1265355","0.0-6.0-1.59","2546821","co37903","norming","","","","","","",""
"5183.139999999665","","","post_mooney1_questions","survey-likert","421","1270534","0.0-6.0-2.59","2546821","co37903","norming","","","{""curiosity"":4,""confidence"":5}","[0,1]","../img/tt/1260tt.jpg","",""
"4022.000000000233","","","recognition","survey-text","422","1274558","0.0-6.0-3.59","2546821","co37903","norming","","","{""guess"":""knaagdier""}","","../img/tt/1260tt.jpg","",""
"null","../img/gs/1260gs.jpg","null","reveal","image-keyboard-response","423","1276565","0.0-6.0-4.59","2546821","co37903","norming","","","","","","",""
"null","../img/tt/1260tt.jpg","null","mooney2","image-keyboard-response","424","1278571","0.0-6.0-5.59","2546821","co37903","norming","","","","","","",""
"1304.5250000001397","","","post_reveal_questions","survey-likert","425","1279878","0.0-6.0-6.59","2546821","co37903","norming","","","{""aha"":3}","[0]","../img/tt/1260tt.jpg","",""
"null","<div style=""font-size:60px;""> </div>","null","fixation","html-keyboard-response","426","1280089","0.0-6.0-0.60","2546821","co37903","norming","","","","","","",""
"null","../img/tt/052tt.jpg","null","mooney1","image-keyboard-response","427","1283097","0.0-6.0-1.60","2546821","co37903","norming","","","","","","",""
"3337.7999999998137","","","post_mooney1_questions","survey-likert","428","1286438","0.0-6.0-2.60","2546821","co37903","norming","","","{""curiosity"":5,""confidence"":2}","[0,1]","../img/tt/052tt.jpg","",""
"4677.969999999739","","","recognition","survey-text","429","1291118","0.0-6.0-3.60","2546821","co37903","norming","","","{""guess"":""instrurment""}","","../img/tt/052tt.jpg","",""
"null","../img/gs/052gs.jpg","null","reveal","image-keyboard-response","430","1293120","0.0-6.0-4.60","2546821","co37903","norming","","","","","","",""
"null","../img/tt/052tt.jpg","null","mooney2","image-keyboard-response","431","1295122","0.0-6.0-5.60","2546821","co37903","norming","","","","","","",""
"2753.6149999999907","","","post_reveal_questions","survey-likert","432","1297878","0.0-6.0-6.60","2546821","co37903","norming","","","{""aha"":6}","[0]","../img/tt/052tt.jpg","",""
"null","<div style=""font-size:60px;""> </div>","null","fixation","html-keyboard-response","433","1298089","0.0-6.0-0.61","2546821","co37903","norming","","","","","","",""
"null","../img/tt/1362tt.jpg","null","mooney1","image-keyboard-response","434","1301095","0.0-6.0-1.61","2546821","co37903","norming","","","","","","",""
"3172.0200000000186","","","post_mooney1_questions","survey-likert","435","1304270","0.0-6.0-2.61","2546821","co37903","norming","","","{""curiosity"":5,""confidence"":4}","[0,1]","../img/tt/1362tt.jpg","",""
"1437.8049999999348","","","recognition","survey-text","436","1305710","0.0-6.0-3.61","2546821","co37903","norming","","","{""guess"":""act""}","","../img/tt/1362tt.jpg","",""
"null","../img/gs/1362gs.jpg","null","reveal","image-keyboard-response","437","1307712","0.0-6.0-4.61","2546821","co37903","norming","","","","","","",""
"null","../img/tt/1362tt.jpg","null","mooney2","image-keyboard-response","438","1309715","0.0-6.0-5.61","2546821","co37903","norming","","","","","","",""
"2912.3700000001118","","","post_reveal_questions","survey-likert","439","1312630","0.0-6.0-6.61","2546821","co37903","norming","","","{""aha"":6}","[0]","../img/tt/1362tt.jpg","",""
"null","<div style=""font-size:60px;""> </div>","null","fixation","html-keyboard-response","440","1312831","0.0-6.0-0.62","2546821","co37903","norming","","","","","","",""
"null","../img/tt/007tt.jpg","null","mooney1","image-keyboard-response","441","1315841","0.0-6.0-1.62","2546821","co37903","norming","","","","","","",""
"4345.879999999655","","","post_mooney1_questions","survey-likert","442","1320190","0.0-6.0-2.62","2546821","co37903","norming","","","{""curiosity"":4,""confidence"":4}","[0,1]","../img/tt/007tt.jpg","",""
"2062.3249999999534","","","recognition","survey-text","443","1322254","0.0-6.0-3.62","2546821","co37903","norming","","","{""guess"":""kikker""}","","../img/tt/007tt.jpg","",""
"null","../img/gs/007gs.jpg","null","reveal","image-keyboard-response","444","1324256","0.0-6.0-4.62","2546821","co37903","norming","","","","","","",""
"null","../img/tt/007tt.jpg","null","mooney2","image-keyboard-response","445","1326261","0.0-6.0-5.62","2546821","co37903","norming","","","","","","",""
"1792.209999999497","","","post_reveal_questions","survey-likert","446","1328064","0.0-6.0-6.62","2546821","co37903","norming","","","{""aha"":2}","[0]","../img/tt/007tt.jpg","",""
"null","<div style=""font-size:60px;""> </div>","null","fixation","html-keyboard-response","447","1328270","0.0-6.0-0.63","2546821","co37903","norming","","","","","","",""
"null","../img/tt/353tt.jpg","null","mooney1","image-keyboard-response","448","1331273","0.0-6.0-1.63","2546821","co37903","norming","","","","","","",""
"2955.195000000065","","","post_mooney1_questions","survey-likert","449","1334232","0.0-6.0-2.63","2546821","co37903","norming","","","{""curiosity"":5,""confidence"":5}","[0,1]","../img/tt/353tt.jpg","",""
"2301.864999999758","","","recognition","survey-text","450","1336536","0.0-6.0-3.63","2546821","co37903","norming","","","{""guess"":""pinguin""}","","../img/tt/353tt.jpg","",""
"null","../img/gs/353gs.jpg","null","reveal","image-keyboard-response","451","1338537","0.0-6.0-4.63","2546821","co37903","norming","","","","","","",""
"null","../img/tt/353tt.jpg","null","mooney2","image-keyboard-response","452","1340538","0.0-6.0-5.63","2546821","co37903","norming","","","","","","",""
"1602.0599999995902","","","post_reveal_questions","survey-likert","453","1342143","0.0-6.0-6.63","2546821","co37903","norming","","","{""aha"":2}","[0]","../img/tt/353tt.jpg","",""
"null","<div style=""font-size:60px;""> </div>","null","fixation","html-keyboard-response","454","1342354","0.0-6.0-0.64","2546821","co37903","norming","","","","","","",""
"null","../img/tt/1366tt.jpg","null","mooney1","image-keyboard-response","455","1345357","0.0-6.0-1.64","2546821","co37903","norming","","","","","","",""
"3713.3000000000466","","","post_mooney1_questions","survey-likert","456","1349072","0.0-6.0-2.64","2546821","co37903","norming","","","{""curiosity"":5,""confidence"":5}","[0,1]","../img/tt/1366tt.jpg","",""
"1381.7599999997765","","","recognition","survey-text","457","1350455","0.0-6.0-3.64","2546821","co37903","norming","","","{""guess"":""noot""}","","../img/tt/1366tt.jpg","",""
"null","../img/gs/1366gs.jpg","null","reveal","image-keyboard-response","458","1352461","0.0-6.0-4.64","2546821","co37903","norming","","","","","","",""
"null","../img/tt/1366tt.jpg","null","mooney2","image-keyboard-response","459","1354464","0.0-6.0-5.64","2546821","co37903","norming","","","","","","",""
"1677.3149999997113","","","post_reveal_questions","survey-likert","460","1356144","0.0-6.0-6.64","2546821","co37903","norming","","","{""aha"":5}","[0]","../img/tt/1366tt.jpg","",""
"null","<div style=""font-size:60px;""> </div>","null","fixation","html-keyboard-response","461","1356351","0.0-6.0-0.65","2546821","co37903","norming","","","","","","",""
"null","../img/tt/440tt.jpg","null","mooney1","image-keyboard-response","462","1359363","0.0-6.0-1.65","2546821","co37903","norming","","","","","","",""
"3251.4500000001863","","","post_mooney1_questions","survey-likert","463","1362616","0.0-6.0-2.65","2546821","co37903","norming","","","{""curiosity"":4,""confidence"":4}","[0,1]","../img/tt/440tt.jpg","",""
"1854.0699999998324","","","recognition","survey-text","464","1364471","0.0-6.0-3.65","2546821","co37903","norming","","","{""guess"":""vogel""}","","../img/tt/440tt.jpg","",""
"null","../img/gs/440gs.jpg","null","reveal","image-keyboard-response","465","1366478","0.0-6.0-4.65","2546821","co37903","norming","","","","","","",""
"null","../img/tt/440tt.jpg","null","mooney2","image-keyboard-response","466","1368481","0.0-6.0-5.65","2546821","co37903","norming","","","","","","",""
"1828.5500000002794","","","post_reveal_questions","survey-likert","467","1370312","0.0-6.0-6.65","2546821","co37903","norming","","","{""aha"":6}","[0]","../img/tt/440tt.jpg","",""
"null","<div style=""font-size:60px;""> </div>","null","fixation","html-keyboard-response","468","1370521","0.0-6.0-0.66","2546821","co37903","norming","","","","","","",""
"null","../img/tt/080tt.jpg","null","mooney1","image-keyboard-response","469","1373524","0.0-6.0-1.66","2546821","co37903","norming","","","","","","",""
"2552.060000000056","","","post_mooney1_questions","survey-likert","470","1376080","0.0-6.0-2.66","2546821","co37903","norming","","","{""curiosity"":4,""confidence"":4}","[0,1]","../img/tt/080tt.jpg","",""
"2038.315000000177","","","recognition","survey-text","471","1378120","0.0-6.0-3.66","2546821","co37903","norming","","","{""guess"":""vogel""}","","../img/tt/080tt.jpg","",""
"null","../img/gs/080gs.jpg","null","reveal","image-keyboard-response","472","1380122","0.0-6.0-4.66","2546821","co37903","norming","","","","","","",""
"null","../img/tt/080tt.jpg","null","mooney2","image-keyboard-response","473","1382125","0.0-6.0-5.66","2546821","co37903","norming","","","","","","",""
"2487.935000000056","","","post_reveal_questions","survey-likert","474","1384615","0.0-6.0-6.66","2546821","co37903","norming","","","{""aha"":6}","[0]","../img/tt/080tt.jpg","",""
"null","<div style=""font-size:60px;""> </div>","null","fixation","html-keyboard-response","475","1384826","0.0-6.0-0.67","2546821","co37903","norming","","","","","","",""
"null","../img/tt/1353tt.jpg","null","mooney1","image-keyboard-response","476","1387835","0.0-6.0-1.67","2546821","co37903","norming","","","","","","",""
"3904.785000000149","","","post_mooney1_questions","survey-likert","477","1391743","0.0-6.0-2.67","2546821","co37903","norming","","","{""curiosity"":5,""confidence"":1}","[0,1]","../img/tt/1353tt.jpg","",""
"2598.2649999996647","","","recognition","survey-text","478","1394343","0.0-6.0-3.67","2546821","co37903","norming","","","{""guess"":""vlinder""}","","../img/tt/1353tt.jpg","",""
"null","../img/gs/1353gs.jpg","null","reveal","image-keyboard-response","479","1396353","0.0-6.0-4.67","2546821","co37903","norming","","","","","","",""
"null","../img/tt/1353tt.jpg","null","mooney2","image-keyboard-response","480","1398357","0.0-6.0-5.67","2546821","co37903","norming","","","","","","",""
"1943.8599999998696","","","post_reveal_questions","survey-likert","481","1400303","0.0-6.0-6.67","2546821","co37903","norming","","","{""aha"":6}","[0]","../img/tt/1353tt.jpg","",""
"null","<div style=""font-size:60px;""> </div>","null","fixation","html-keyboard-response","482","1400507","0.0-6.0-0.68","2546821","co37903","norming","","","","","","",""
"null","../img/tt/599tt.jpg","null","mooney1","image-keyboard-response","483","1403510","0.0-6.0-1.68","2546821","co37903","norming","","","","","","",""
"3069.890000000363","","","post_mooney1_questions","survey-likert","484","1406584","0.0-6.0-2.68","2546821","co37903","norming","","","{""curiosity"":5,""confidence"":5}","[0,1]","../img/tt/599tt.jpg","",""
"1629.7749999999069","","","recognition","survey-text","485","1408215","0.0-6.0-3.68","2546821","co37903","norming","","","{""guess"":""uilen""}","","../img/tt/599tt.jpg","",""
"null","../img/gs/599gs.jpg","null","reveal","image-keyboard-response","486","1410217","0.0-6.0-4.68","2546821","co37903","norming","","","","","","",""
"null","../img/tt/599tt.jpg","null","mooney2","image-keyboard-response","487","1412220","0.0-6.0-5.68","2546821","co37903","norming","","","","","","",""
"1184.1649999995716","","","post_reveal_questions","survey-likert","488","1413407","0.0-6.0-6.68","2546821","co37903","norming","","","{""aha"":3}","[0]","../img/tt/599tt.jpg","",""
"null","<div style=""font-size:60px;""> </div>","null","fixation","html-keyboard-response","489","1413613","0.0-6.0-0.69","2546821","co37903","norming","","","","","","",""
"null","../img/tt/1250tt.jpg","null","mooney1","image-keyboard-response","490","1416623","0.0-6.0-1.69","2546821","co37903","norming","","","","","","",""
"3365.435000000056","","","post_mooney1_questions","survey-likert","491","1419991","0.0-6.0-2.69","2546821","co37903","norming","","","{""curiosity"":5,""confidence"":5}","[0,1]","../img/tt/1250tt.jpg","",""
"1294.375","","","recognition","survey-text","492","1421287","0.0-6.0-3.69","2546821","co37903","norming","","","{""guess"":""beer""}","","../img/tt/1250tt.jpg","",""
"null","../img/gs/1250gs.jpg","null","reveal","image-keyboard-response","493","1423293","0.0-6.0-4.69","2546821","co37903","norming","","","","","","",""
"null","../img/tt/1250tt.jpg","null","mooney2","image-keyboard-response","494","1425304","0.0-6.0-5.69","2546821","co37903","norming","","","","","","",""
"2124.445000000065","","","post_reveal_questions","survey-likert","495","1427432","0.0-6.0-6.69","2546821","co37903","norming","","","{""aha"":4}","[0]","../img/tt/1250tt.jpg","",""
"null","<div style=""font-size:60px;""> </div>","null","fixation","html-keyboard-response","496","1427634","0.0-6.0-0.70","2546821","co37903","norming","","","","","","",""
"null","../img/tt/1211tt.jpg","null","mooney1","image-keyboard-response","497","1430638","0.0-6.0-1.70","2546821","co37903","norming","","","","","","",""
"4013.910000000149","","","post_mooney1_questions","survey-likert","498","1434656","0.0-6.0-2.70","2546821","co37903","norming","","","{""curiosity"":5,""confidence"":1}","[0,1]","../img/tt/1211tt.jpg","",""
"1286.0399999998044","","","recognition","survey-text","499","1435943","0.0-6.0-3.70","2546821","co37903","norming","","","{""guess"":""beer""}","","../img/tt/1211tt.jpg","",""
"null","../img/gs/1211gs.jpg","null","reveal","image-keyboard-response","500","1437948","0.0-6.0-4.70","2546821","co37903","norming","","","","","","",""
"null","../img/tt/1211tt.jpg","null","mooney2","image-keyboard-response","501","1439950","0.0-6.0-5.70","2546821","co37903","norming","","","","","","",""
"2862.3300000000745","","","post_reveal_questions","survey-likert","502","1442815","0.0-6.0-6.70","2546821","co37903","norming","","","{""aha"":5}","[0]","../img/tt/1211tt.jpg","",""
"null","<div style=""font-size:60px;""> </div>","null","fixation","html-keyboard-response","503","1443024","0.0-6.0-0.71","2546821","co37903","norming","","","","","","",""
"null","../img/tt/1096tt.jpg","null","mooney1","image-keyboard-response","504","1446027","0.0-6.0-1.71","2546821","co37903","norming","","","","","","",""
"4079.999999999767","","","post_mooney1_questions","survey-likert","505","1450102","0.0-6.0-2.71","2546821","co37903","norming","","","{""curiosity"":5,""confidence"":4}","[0,1]","../img/tt/1096tt.jpg","",""
"1685.969999999972","","","recognition","survey-text","506","1451790","0.0-6.0-3.71","2546821","co37903","norming","","","{""guess"":""paard""}","","../img/tt/1096tt.jpg","",""
"null","../img/gs/1096gs.jpg","null","reveal","image-keyboard-response","507","1453798","0.0-6.0-4.71","2546821","co37903","norming","","","","","","",""
"null","../img/tt/1096tt.jpg","null","mooney2","image-keyboard-response","508","1455799","0.0-6.0-5.71","2546821","co37903","norming","","","","","","",""
"1941.0349999999162","","","post_reveal_questions","survey-likert","509","1457743","0.0-6.0-6.71","2546821","co37903","norming","","","{""aha"":4}","[0]","../img/tt/1096tt.jpg","",""
"null","<div style=""font-size:60px;""> </div>","null","fixation","html-keyboard-response","510","1457953","0.0-6.0-0.72","2546821","co37903","norming","","","","","","",""
"null","../img/tt/105tt.jpg","null","mooney1","image-keyboard-response","511","1460964","0.0-6.0-1.72","2546821","co37903","norming","","","","","","",""
"4951.199999999953","","","post_mooney1_questions","survey-likert","512","1465919","0.0-6.0-2.72","2546821","co37903","norming","","","{""curiosity"":6,""confidence"":0}","[0,1]","../img/tt/105tt.jpg","",""
"765.9950000001118","","","recognition","survey-text","513","1466686","0.0-6.0-3.72","2546821","co37903","norming","","","{""guess"":""""}","","../img/tt/105tt.jpg","",""
"null","../img/gs/105gs.jpg","null","reveal","image-keyboard-response","514","1468697","0.0-6.0-4.72","2546821","co37903","norming","","","","","","",""
"null","../img/tt/105tt.jpg","null","mooney2","image-keyboard-response","515","1470700","0.0-6.0-5.72","2546821","co37903","norming","","","","","","",""
"3590.909999999916","","","post_reveal_questions","survey-likert","516","1474294","0.0-6.0-6.72","2546821","co37903","norming","","","{""aha"":6}","[0]","../img/tt/105tt.jpg","",""
"null","<div style=""font-size:60px;""> </div>","null","fixation","html-keyboard-response","517","1474499","0.0-6.0-0.73","2546821","co37903","norming","","","","","","",""
"null","../img/tt/270tt.jpg","null","mooney1","image-keyboard-response","518","1477503","0.0-6.0-1.73","2546821","co37903","norming","","","","","","",""
"3749.7700000000186","","","post_mooney1_questions","survey-likert","519","1481255","0.0-6.0-2.73","2546821","co37903","norming","","","{""curiosity"":5,""confidence"":1}","[0,1]","../img/tt/270tt.jpg","",""
"1414.0499999998137","","","recognition","survey-text","520","1482670","0.0-6.0-3.73","2546821","co37903","norming","","","{""guess"":""bos""}","","../img/tt/270tt.jpg","",""
"null","../img/gs/270gs.jpg","null","reveal","image-keyboard-response","521","1484672","0.0-6.0-4.73","2546821","co37903","norming","","","","","","",""
"null","../img/tt/270tt.jpg","null","mooney2","image-keyboard-response","522","1486675","0.0-6.0-5.73","2546821","co37903","norming","","","","","","",""
"1896.3950000002515","","","post_reveal_questions","survey-likert","523","1488575","0.0-6.0-6.73","2546821","co37903","norming","","","{""aha"":3}","[0]","../img/tt/270tt.jpg","",""
"null","<div style=""font-size:60px;""> </div>","null","fixation","html-keyboard-response","524","1488784","0.0-6.0-0.74","2546821","co37903","norming","","","","","","",""
"null","../img/tt/1175tt.jpg","null","mooney1","image-keyboard-response","525","1491787","0.0-6.0-1.74","2546821","co37903","norming","","","","","","",""
"2856.4499999997206","","","post_mooney1_questions","survey-likert","526","1494647","0.0-6.0-2.74","2546821","co37903","norming","","","{""curiosity"":6,""confidence"":0}","[0,1]","../img/tt/1175tt.jpg","",""
"685.5049999998882","","","recognition","survey-text","527","1495334","0.0-6.0-3.74","2546821","co37903","norming","","","{""guess"":""""}","","../img/tt/1175tt.jpg","",""
"null","../img/gs/1175gs.jpg","null","reveal","image-keyboard-response","528","1497343","0.0-6.0-4.74","2546821","co37903","norming","","","","","","",""
"null","../img/tt/1175tt.jpg","null","mooney2","image-keyboard-response","529","1499347","0.0-6.0-5.74","2546821","co37903","norming","","","","","","",""
"2506.6450000000186","","","post_reveal_questions","survey-likert","530","1501854","0.0-6.0-6.74","2546821","co37903","norming","","","{""aha"":4}","[0]","../img/tt/1175tt.jpg","",""
"null","<div style=""font-size:60px;""> </div>","null","fixation","html-keyboard-response","531","1502055","0.0-6.0-0.75","2546821","co37903","norming","","","","","","",""
"null","../img/tt/008tt.jpg","null","mooney1","image-keyboard-response","532","1505059","0.0-6.0-1.75","2546821","co37903","norming","","","","","","",""
"3359.0150000001304","","","post_mooney1_questions","survey-likert","533","1508423","0.0-6.0-2.75","2546821","co37903","norming","","","{""curiosity"":5,""confidence"":3}","[0,1]","../img/tt/008tt.jpg","",""
"2069.774999999907","","","recognition","survey-text","534","1510503","0.0-6.0-3.75","2546821","co37903","norming","","","{""guess"":""viool""}","","../img/tt/008tt.jpg","",""
"null","../img/gs/008gs.jpg","null","reveal","image-keyboard-response","535","1512506","0.0-6.0-4.75","2546821","co37903","norming","","","","","","",""
"null","../img/tt/008tt.jpg","null","mooney2","image-keyboard-response","536","1514508","0.0-6.0-5.75","2546821","co37903","norming","","","","","","",""
"3311.815000000177","","","post_reveal_questions","survey-likert","537","1517823","0.0-6.0-6.75","2546821","co37903","norming","","","{""aha"":4}","[0]","../img/tt/008tt.jpg","",""
"null","<div style=""font-size:60px;""> </div>","null","fixation","html-keyboard-response","538","1518024","0.0-6.0-0.76","2546821","co37903","norming","","","","","","",""
"null","../img/tt/091tt.jpg","null","mooney1","image-keyboard-response","539","1521033","0.0-6.0-1.76","2546821","co37903","norming","","","","","","",""
"4962.989999999991","","","post_mooney1_questions","survey-likert","540","1525999","0.0-6.0-2.76","2546821","co37903","norming","","","{""curiosity"":6,""confidence"":0}","[0,1]","../img/tt/091tt.jpg","",""
"3158.159999999916","","","recognition","survey-text","541","1529159","0.0-6.0-3.76","2546821","co37903","norming","","","{""guess"":""""}","","../img/tt/091tt.jpg","",""
"null","../img/gs/091gs.jpg","null","reveal","image-keyboard-response","542","1531163","0.0-6.0-4.76","2546821","co37903","norming","","","","","","",""
"null","../img/tt/091tt.jpg","null","mooney2","image-keyboard-response","543","1533172","0.0-6.0-5.76","2546821","co37903","norming","","","","","","",""
"2199.3299999998417","","","post_reveal_questions","survey-likert","544","1535374","0.0-6.0-6.76","2546821","co37903","norming","","","{""aha"":4}","[0]","../img/tt/091tt.jpg","",""
"null","<div style=""font-size:60px;""> </div>","null","fixation","html-keyboard-response","545","1535585","0.0-6.0-0.77","2546821","co37903","norming","","","","","","",""
"null","../img/tt/1116tt.jpg","null","mooney1","image-keyboard-response","546","1538588","0.0-6.0-1.77","2546821","co37903","norming","","","","","","",""
"3310.945000000298","","","post_mooney1_questions","survey-likert","547","1541903","0.0-6.0-2.77","2546821","co37903","norming","","","{""curiosity"":5,""confidence"":4}","[0,1]","../img/tt/1116tt.jpg","",""
"2758.0049999996554","","","recognition","survey-text","548","1544663","0.0-6.0-3.77","2546821","co37903","norming","","","{""guess"":""vliegtuig""}","","../img/tt/1116tt.jpg","",""
"null","../img/gs/1116gs.jpg","null","reveal","image-keyboard-response","549","1546665","0.0-6.0-4.77","2546821","co37903","norming","","","","","","",""
"null","../img/tt/1116tt.jpg","null","mooney2","image-keyboard-response","550","1548670","0.0-6.0-5.77","2546821","co37903","norming","","","","","","",""
"2013.9899999997579","","","post_reveal_questions","survey-likert","551","1550687","0.0-6.0-6.77","2546821","co37903","norming","","","{""aha"":1}","[0]","../img/tt/1116tt.jpg","",""
"null","<div style=""font-size:60px;""> </div>","null","fixation","html-keyboard-response","552","1550888","0.0-6.0-0.78","2546821","co37903","norming","","","","","","",""
