"rt","stimulus","key_press","test_part","trial_type","trial_index","time_elapsed","internal_node_id","totalTime","subject","experiment_name","button_pressed","success","responses","question_order","currentStim","old","correct"
"5916.620000000008","Welcome to the experiment. This is an online experiment so please don't close the tab/window until we say goodbye.  Press any key to begin.","32","instructions","html-keyboard-response","0","5931","0.0-0.0","2998860","co37801","norming","","","","","","",""
"37505.74500000002","<div style='word-wrap: break-word; width: 900px'><h3>Please consider this information carefully before deciding whether to participate in this research</h3><ul style='text-align: left; font-size: .8em;'><li><b>Purpose of the research</b>: To examine how people process images.</li><li><b>What you will do in this research</b>:  Stimuli (images) will be presented on the computer and you will be asked different questions about them.</li><li><b>Time required</b>: Participation will take between 45 and 60 minutes to complete.</li><li><b>Risks</b>:  There are no anticipated risks associated with participating in this study. The effects of participating should be comparable to those you would experience from viewing a computer monitor for 30 minutes and using a mouse or keyboard.</li><li><b>Benefits</b>:  This study provides no benefits to you individually except for the credit. The study provides important information about the nature of perception and learning.</li><li><b>Confidentiality</b>:  Your participation in this study will remain confidential. No personally identifiable information will be associated with your data. Your de-identified data may be shared with other researchers and used in future projects.</li><li><b>Participation and withdrawal</b>:  Your participation in this study is completely voluntary and you may refuse to participate or you may choose to withdraw at any time without penalty.</li><li><b>How to contact the researchers</b>: If you have questions or concerns about your participation or payment, or want to request a summary of research findings, please contact Sander Van de Cruys (KU Leuven), at sander.vandecruys@kuleuven.be.</li></ul><p>The nature and purpose of this research have been sufficiently explained and I agree to participate in this study.  I understand that I am free to withdraw at any time without incurring any penalty.</p><p>Please consent by clicking the button below to continue. Otherwise, please exit the study at this time.</p></div>","","instructions","html-button-response","1","43440","0.0-1.0","2998860","co37801","norming","0","","","","","",""
"","","","instructions","fullscreen","2","47289","0.0-2.0","2998860","co37801","norming","","true","","","","",""
"34429.59000000002","","","sona","survey-html-form","3","81719","0.0-3.0","2998860","co37801","norming","","","[{""name"":""sonaid"",""value"":""37801""},{""name"":""debrief"",""value"":""no""},{""name"":""datajoin"",""value"":""yes""}]","","","",""
"82142.20500000003","<div style='word-wrap: break-word; width: 900px'><h3>Instructions</h3><p>This experiment will have 3 parts. In the first part you will see a series of distorted images like the one below on the left. As you can see in the righthand image, the distorted images are derived from actual photographs. In what follows, you will <strong>briefly</strong> be presented with <strong>only</strong> the distorted image.</p> <div style='float: left; margin-right: 20px;'><img src='../img/018tt.jpg' height='250' width='250'></img></div><div style='float: right; margin-left: 20px;'><img src='../img/018gs.jpg' height='250' width='250'></img></div><p>Subsequently you will be asked a few questions about the image: One question on how <strong>curious</strong> you are about the solution and one on how <strong>confident</strong> you are that you know the solution.</p>Next, we ask you to make a guess on what is in the image. Note that it is OK to name just the <strong>basic level category</strong>. For example when you see a parrot in the image, 'parrot' will obviously be a correct answer but also correct is 'bird'. However, 'animal' will <strong>not</strong> be counted as a correct response. For the example above, 'rose' would be correct or 'flower', but not 'plant'. When soccer players are depicted, 'soccer', 'football', 'soccer players' will be correct, but not 'humans', 'outdoors', or 'sports'. You do not need to describe the image in full, just name the main object in it <strong>in one or two words</strong>. All images depict objects from one of the following broad level categories: animals, inanimate objects, plants, sports, vehicles, and food. Recognizing means knowing <strong>more</strong> than these broad labels for a given image. But we always encourage you to <strong>make a guess</strong> if you can. Note that you are allowed to use <strong>Dutch and English</strong> in your answers, whatever comes easiest for you.</p><p>Press any key to continue.</p></div>","32","instructions","html-keyboard-response","4","163866","0.0-4.0","2998860","co37801","norming","","","","","","",""
"18799.125","<div style='word-wrap: break-word; width: 900px'><h3>Instructions</h3> <p>Next, the solution image will be revealed to you and you'll be asked to indicate how strong your <strong>aha-experience</strong> was after seeing the solution. This describes the positive feeling of the 'click' you sometimes experience, when the pieces of the 'puzzle' fall together and you suddenly have 'insight' in the image.</p><img src='aha.jpg' height='188' width='250'></img><p>Note that there are no right or wrong answers. We are interested in what <strong>you</strong> see in the image and how <strong>you</strong> feel about it.</p><p>Press any key to start the experiment.</p></div>","32","instructions","html-keyboard-response","5","182666","0.0-5.0","2998860","co37801","norming","","","","","","",""
"null","<div style=""font-size:60px;""> </div>","null","fixation","html-keyboard-response","6","182869","0.0-6.0-0.0","2998860","co37801","norming","","","","","","",""
"null","../img/tt/1269tt.jpg","null","mooney1","image-keyboard-response","7","185879","0.0-6.0-1.0","2998860","co37801","norming","","","","","","",""
"31761.52000000002","","","post_mooney1_questions","survey-likert","8","217642","0.0-6.0-2.0","2998860","co37801","norming","","","{""curiosity"":6,""confidence"":0}","[0,1]","../img/tt/1269tt.jpg","",""
"4821.315000000031","","","recognition","survey-text","9","222466","0.0-6.0-3.0","2998860","co37801","norming","","","{""guess"":""""}","","../img/tt/1269tt.jpg","",""
"null","../img/gs/1269gs.jpg","null","reveal","image-keyboard-response","10","224469","0.0-6.0-4.0","2998860","co37801","norming","","","","","","",""
"null","../img/tt/1269tt.jpg","null","mooney2","image-keyboard-response","11","226475","0.0-6.0-5.0","2998860","co37801","norming","","","","","","",""
"3448.109999999986","","","post_reveal_questions","survey-likert","12","229924","0.0-6.0-6.0","2998860","co37801","norming","","","{""aha"":6}","[0]","../img/tt/1269tt.jpg","",""
"null","<div style=""font-size:60px;""> </div>","null","fixation","html-keyboard-response","13","230126","0.0-6.0-0.1","2998860","co37801","norming","","","","","","",""
"null","../img/tt/1142tt.jpg","null","mooney1","image-keyboard-response","14","233136","0.0-6.0-1.1","2998860","co37801","norming","","","","","","",""
"7586.199999999953","","","post_mooney1_questions","survey-likert","15","240725","0.0-6.0-2.1","2998860","co37801","norming","","","{""curiosity"":2,""confidence"":4}","[0,1]","../img/tt/1142tt.jpg","",""
"5390.255000000034","","","recognition","survey-text","16","246117","0.0-6.0-3.1","2998860","co37801","norming","","","{""guess"":""basketballer""}","","../img/tt/1142tt.jpg","",""
"null","../img/gs/1142gs.jpg","null","reveal","image-keyboard-response","17","248119","0.0-6.0-4.1","2998860","co37801","norming","","","","","","",""
"null","../img/tt/1142tt.jpg","null","mooney2","image-keyboard-response","18","250122","0.0-6.0-5.1","2998860","co37801","norming","","","","","","",""
"3392.375000000029","","","post_reveal_questions","survey-likert","19","253517","0.0-6.0-6.1","2998860","co37801","norming","","","{""aha"":4}","[0]","../img/tt/1142tt.jpg","",""
"null","<div style=""font-size:60px;""> </div>","null","fixation","html-keyboard-response","20","253718","0.0-6.0-0.2","2998860","co37801","norming","","","","","","",""
"null","../img/tt/1186tt.jpg","null","mooney1","image-keyboard-response","21","256729","0.0-6.0-1.2","2998860","co37801","norming","","","","","","",""
"13145.43499999994","","","post_mooney1_questions","survey-likert","22","269877","0.0-6.0-2.2","2998860","co37801","norming","","","{""curiosity"":5,""confidence"":0}","[0,1]","../img/tt/1186tt.jpg","",""
"17350.234999999986","","","recognition","survey-text","23","287264","0.0-6.0-3.2","2998860","co37801","norming","","","{""guess"":""""}","","../img/tt/1186tt.jpg","",""
"null","../img/gs/1186gs.jpg","null","reveal","image-keyboard-response","24","289272","0.0-6.0-4.2","2998860","co37801","norming","","","","","","",""
"null","../img/tt/1186tt.jpg","null","mooney2","image-keyboard-response","25","291275","0.0-6.0-5.2","2998860","co37801","norming","","","","","","",""
"4814.244999999937","","","post_reveal_questions","survey-likert","26","296104","0.0-6.0-6.2","2998860","co37801","norming","","","{""aha"":4}","[0]","../img/tt/1186tt.jpg","",""
"null","<div style=""font-size:60px;""> </div>","null","fixation","html-keyboard-response","27","296310","0.0-6.0-0.3","2998860","co37801","norming","","","","","","",""
"null","../img/tt/1046tt.jpg","null","mooney1","image-keyboard-response","28","299315","0.0-6.0-1.3","2998860","co37801","norming","","","","","","",""
"7234.8150000000605","","","post_mooney1_questions","survey-likert","29","306552","0.0-6.0-2.3","2998860","co37801","norming","","","{""curiosity"":2,""confidence"":3}","[0,1]","../img/tt/1046tt.jpg","",""
"5293.785000000033","","","recognition","survey-text","30","311848","0.0-6.0-3.3","2998860","co37801","norming","","","{""guess"":""fruitmand""}","","../img/tt/1046tt.jpg","",""
"null","../img/gs/1046gs.jpg","null","reveal","image-keyboard-response","31","313853","0.0-6.0-4.3","2998860","co37801","norming","","","","","","",""
"null","../img/tt/1046tt.jpg","null","mooney2","image-keyboard-response","32","315856","0.0-6.0-5.3","2998860","co37801","norming","","","","","","",""
"2526.874999999942","","","post_reveal_questions","survey-likert","33","318384","0.0-6.0-6.3","2998860","co37801","norming","","","{""aha"":4}","[0]","../img/tt/1046tt.jpg","",""
"null","<div style=""font-size:60px;""> </div>","null","fixation","html-keyboard-response","34","318586","0.0-6.0-0.4","2998860","co37801","norming","","","","","","",""
"null","../img/tt/020tt.jpg","null","mooney1","image-keyboard-response","35","321593","0.0-6.0-1.4","2998860","co37801","norming","","","","","","",""
"7332.770000000019","","","post_mooney1_questions","survey-likert","36","328928","0.0-6.0-2.4","2998860","co37801","norming","","","{""curiosity"":4,""confidence"":4}","[0,1]","../img/tt/020tt.jpg","",""
"3046.140000000014","","","recognition","survey-text","37","331976","0.0-6.0-3.4","2998860","co37801","norming","","","{""guess"":""zanger""}","","../img/tt/020tt.jpg","",""
"null","../img/gs/020gs.jpg","null","reveal","image-keyboard-response","38","333978","0.0-6.0-4.4","2998860","co37801","norming","","","","","","",""
"null","../img/tt/020tt.jpg","null","mooney2","image-keyboard-response","39","335983","0.0-6.0-5.4","2998860","co37801","norming","","","","","","",""
"3638.5349999999744","","","post_reveal_questions","survey-likert","40","339624","0.0-6.0-6.4","2998860","co37801","norming","","","{""aha"":6}","[0]","../img/tt/020tt.jpg","",""
"null","<div style=""font-size:60px;""> </div>","null","fixation","html-keyboard-response","41","339833","0.0-6.0-0.5","2998860","co37801","norming","","","","","","",""
"null","../img/tt/1027tt.jpg","null","mooney1","image-keyboard-response","42","342839","0.0-6.0-1.5","2998860","co37801","norming","","","","","","",""
"6718.284999999974","","","post_mooney1_questions","survey-likert","43","349595","0.0-6.0-2.5","2998860","co37801","norming","","","{""curiosity"":0,""confidence"":6}","[0,1]","../img/tt/1027tt.jpg","",""
"4629.85500000004","","","recognition","survey-text","44","354227","0.0-6.0-3.5","2998860","co37801","norming","","","{""guess"":""een koppel""}","","../img/tt/1027tt.jpg","",""
"null","../img/gs/1027gs.jpg","null","reveal","image-keyboard-response","45","356228","0.0-6.0-4.5","2998860","co37801","norming","","","","","","",""
"null","../img/tt/1027tt.jpg","null","mooney2","image-keyboard-response","46","358238","0.0-6.0-5.5","2998860","co37801","norming","","","","","","",""
"3226.5599999999977","","","post_reveal_questions","survey-likert","47","361467","0.0-6.0-6.5","2998860","co37801","norming","","","{""aha"":6}","[0]","../img/tt/1027tt.jpg","",""
"null","<div style=""font-size:60px;""> </div>","null","fixation","html-keyboard-response","48","361668","0.0-6.0-0.6","2998860","co37801","norming","","","","","","",""
"null","../img/tt/1173tt.jpg","null","mooney1","image-keyboard-response","49","364671","0.0-6.0-1.6","2998860","co37801","norming","","","","","","",""
"4169.609999999986","","","post_mooney1_questions","survey-likert","50","368843","0.0-6.0-2.6","2998860","co37801","norming","","","{""curiosity"":0,""confidence"":5}","[0,1]","../img/tt/1173tt.jpg","",""
"4438.14499999996","","","recognition","survey-text","51","373283","0.0-6.0-3.6","2998860","co37801","norming","","","{""guess"":""hockeyspelers""}","","../img/tt/1173tt.jpg","",""
"null","../img/gs/1173gs.jpg","null","reveal","image-keyboard-response","52","375290","0.0-6.0-4.6","2998860","co37801","norming","","","","","","",""
"null","../img/tt/1173tt.jpg","null","mooney2","image-keyboard-response","53","377291","0.0-6.0-5.6","2998860","co37801","norming","","","","","","",""
"2245.579999999958","","","post_reveal_questions","survey-likert","54","379539","0.0-6.0-6.6","2998860","co37801","norming","","","{""aha"":1}","[0]","../img/tt/1173tt.jpg","",""
"null","<div style=""font-size:60px;""> </div>","null","fixation","html-keyboard-response","55","379740","0.0-6.0-0.7","2998860","co37801","norming","","","","","","",""
"null","../img/tt/044tt.jpg","null","mooney1","image-keyboard-response","56","382745","0.0-6.0-1.7","2998860","co37801","norming","","","","","","",""
"4143.034999999974","","","post_mooney1_questions","survey-likert","57","386891","0.0-6.0-2.7","2998860","co37801","norming","","","{""curiosity"":0,""confidence"":4}","[0,1]","../img/tt/044tt.jpg","",""
"5390.099999999977","","","recognition","survey-text","58","392283","0.0-6.0-3.7","2998860","co37801","norming","","","{""guess"":""computer""}","","../img/tt/044tt.jpg","",""
"null","../img/gs/044gs.jpg","null","reveal","image-keyboard-response","59","394290","0.0-6.0-4.7","2998860","co37801","norming","","","","","","",""
"null","../img/tt/044tt.jpg","null","mooney2","image-keyboard-response","60","396292","0.0-6.0-5.7","2998860","co37801","norming","","","","","","",""
"3220.839999999909","","","post_reveal_questions","survey-likert","61","399515","0.0-6.0-6.7","2998860","co37801","norming","","","{""aha"":6}","[0]","../img/tt/044tt.jpg","",""
"null","<div style=""font-size:60px;""> </div>","null","fixation","html-keyboard-response","62","399716","0.0-6.0-0.8","2998860","co37801","norming","","","","","","",""
"null","../img/tt/406tt.jpg","null","mooney1","image-keyboard-response","63","402725","0.0-6.0-1.8","2998860","co37801","norming","","","","","","",""
"8411.4549999999","","","post_mooney1_questions","survey-likert","64","411188","0.0-6.0-2.8","2998860","co37801","norming","","","{""curiosity"":6,""confidence"":0}","[0,1]","../img/tt/406tt.jpg","",""
"1101.4300000000512","","","recognition","survey-text","65","412291","0.0-6.0-3.8","2998860","co37801","norming","","","{""guess"":""""}","","../img/tt/406tt.jpg","",""
"null","../img/gs/406gs.jpg","null","reveal","image-keyboard-response","66","414300","0.0-6.0-4.8","2998860","co37801","norming","","","","","","",""
"null","../img/tt/406tt.jpg","null","mooney2","image-keyboard-response","67","416303","0.0-6.0-5.8","2998860","co37801","norming","","","","","","",""
"4233.830000000016","","","post_reveal_questions","survey-likert","68","420539","0.0-6.0-6.8","2998860","co37801","norming","","","{""aha"":5}","[0]","../img/tt/406tt.jpg","",""
"null","<div style=""font-size:60px;""> </div>","null","fixation","html-keyboard-response","69","420743","0.0-6.0-0.9","2998860","co37801","norming","","","","","","",""
"null","../img/tt/194tt.jpg","null","mooney1","image-keyboard-response","70","423752","0.0-6.0-1.9","2998860","co37801","norming","","","","","","",""
"4384.3499999999185","","","post_mooney1_questions","survey-likert","71","428139","0.0-6.0-2.9","2998860","co37801","norming","","","{""curiosity"":1,""confidence"":5}","[0,1]","../img/tt/194tt.jpg","",""
"5486.125000000058","","","recognition","survey-text","72","433627","0.0-6.0-3.9","2998860","co37801","norming","","","{""guess"":""cello-speler""}","","../img/tt/194tt.jpg","",""
"null","../img/gs/194gs.jpg","null","reveal","image-keyboard-response","73","435629","0.0-6.0-4.9","2998860","co37801","norming","","","","","","",""
"null","../img/tt/194tt.jpg","null","mooney2","image-keyboard-response","74","437631","0.0-6.0-5.9","2998860","co37801","norming","","","","","","",""
"2379.030000000086","","","post_reveal_questions","survey-likert","75","440011","0.0-6.0-6.9","2998860","co37801","norming","","","{""aha"":4}","[0]","../img/tt/194tt.jpg","",""
"null","<div style=""font-size:60px;""> </div>","null","fixation","html-keyboard-response","76","440213","0.0-6.0-0.10","2998860","co37801","norming","","","","","","",""
"null","../img/tt/559tt.jpg","null","mooney1","image-keyboard-response","77","443218","0.0-6.0-1.10","2998860","co37801","norming","","","","","","",""
"11446.840000000026","","","post_mooney1_questions","survey-likert","78","454667","0.0-6.0-2.10","2998860","co37801","norming","","","{""curiosity"":3,""confidence"":0}","[0,1]","../img/tt/559tt.jpg","",""
"5181.859999999928","","","recognition","survey-text","79","459851","0.0-6.0-3.10","2998860","co37801","norming","","","{""guess"":""boek""}","","../img/tt/559tt.jpg","",""
"null","../img/gs/559gs.jpg","null","reveal","image-keyboard-response","80","461853","0.0-6.0-4.10","2998860","co37801","norming","","","","","","",""
"null","../img/tt/559tt.jpg","null","mooney2","image-keyboard-response","81","463862","0.0-6.0-5.10","2998860","co37801","norming","","","","","","",""
"2715.2200000000303","","","post_reveal_questions","survey-likert","82","466579","0.0-6.0-6.10","2998860","co37801","norming","","","{""aha"":6}","[0]","../img/tt/559tt.jpg","",""
"null","<div style=""font-size:60px;""> </div>","null","fixation","html-keyboard-response","83","466782","0.0-6.0-0.11","2998860","co37801","norming","","","","","","",""
"null","../img/tt/1190tt.jpg","null","mooney1","image-keyboard-response","84","469833","0.0-6.0-1.11","2998860","co37801","norming","","","","","","",""
"5512.129999999946","","","post_mooney1_questions","survey-likert","85","475347","0.0-6.0-2.11","2998860","co37801","norming","","","{""curiosity"":4,""confidence"":3}","[0,1]","../img/tt/1190tt.jpg","",""
"6782.1350000000675","","","recognition","survey-text","86","482131","0.0-6.0-3.11","2998860","co37801","norming","","","{""guess"":""militair""}","","../img/tt/1190tt.jpg","",""
"null","../img/gs/1190gs.jpg","null","reveal","image-keyboard-response","87","484136","0.0-6.0-4.11","2998860","co37801","norming","","","","","","",""
"null","../img/tt/1190tt.jpg","null","mooney2","image-keyboard-response","88","486139","0.0-6.0-5.11","2998860","co37801","norming","","","","","","",""
"2942.1449999999604","","","post_reveal_questions","survey-likert","89","489083","0.0-6.0-6.11","2998860","co37801","norming","","","{""aha"":1}","[0]","../img/tt/1190tt.jpg","",""
"null","<div style=""font-size:60px;""> </div>","null","fixation","html-keyboard-response","90","489293","0.0-6.0-0.12","2998860","co37801","norming","","","","","","",""
"null","../img/tt/584tt.jpg","null","mooney1","image-keyboard-response","91","492300","0.0-6.0-1.12","2998860","co37801","norming","","","","","","",""
"4003.6049999999814","","","post_mooney1_questions","survey-likert","92","496307","0.0-6.0-2.12","2998860","co37801","norming","","","{""curiosity"":1,""confidence"":3}","[0,1]","../img/tt/584tt.jpg","",""
"5990.215000000026","","","recognition","survey-text","93","502299","0.0-6.0-3.12","2998860","co37801","norming","","","{""guess"":""bloem""}","","../img/tt/584tt.jpg","",""
"null","../img/gs/584gs.jpg","null","reveal","image-keyboard-response","94","504309","0.0-6.0-4.12","2998860","co37801","norming","","","","","","",""
"null","../img/tt/584tt.jpg","null","mooney2","image-keyboard-response","95","506319","0.0-6.0-5.12","2998860","co37801","norming","","","","","","",""
"3217.0449999999837","","","post_reveal_questions","survey-likert","96","509539","0.0-6.0-6.12","2998860","co37801","norming","","","{""aha"":6}","[0]","../img/tt/584tt.jpg","",""
"null","<div style=""font-size:60px;""> </div>","null","fixation","html-keyboard-response","97","509743","0.0-6.0-0.13","2998860","co37801","norming","","","","","","",""
"null","../img/tt/357tt.jpg","null","mooney1","image-keyboard-response","98","512751","0.0-6.0-1.13","2998860","co37801","norming","","","","","","",""
"12889.684999999998","","","post_mooney1_questions","survey-likert","99","525643","0.0-6.0-2.13","2998860","co37801","norming","","","{""curiosity"":4,""confidence"":1}","[0,1]","../img/tt/357tt.jpg","",""
"12245.98999999999","","","recognition","survey-text","100","537918","0.0-6.0-3.13","2998860","co37801","norming","","","{""guess"":""""}","","../img/tt/357tt.jpg","",""
"null","../img/gs/357gs.jpg","null","reveal","image-keyboard-response","101","539927","0.0-6.0-4.13","2998860","co37801","norming","","","","","","",""
"null","../img/tt/357tt.jpg","null","mooney2","image-keyboard-response","102","541936","0.0-6.0-5.13","2998860","co37801","norming","","","","","","",""
"2788.180000000051","","","post_reveal_questions","survey-likert","103","544726","0.0-6.0-6.13","2998860","co37801","norming","","","{""aha"":6}","[0]","../img/tt/357tt.jpg","",""
"null","<div style=""font-size:60px;""> </div>","null","fixation","html-keyboard-response","104","544929","0.0-6.0-0.14","2998860","co37801","norming","","","","","","",""
"null","../img/tt/052tt.jpg","null","mooney1","image-keyboard-response","105","547940","0.0-6.0-1.14","2998860","co37801","norming","","","","","","",""
"7343.729999999981","","","post_mooney1_questions","survey-likert","106","555286","0.0-6.0-2.14","2998860","co37801","norming","","","{""curiosity"":5,""confidence"":3}","[0,1]","../img/tt/052tt.jpg","",""
"4654.175000000047","","","recognition","survey-text","107","559942","0.0-6.0-3.14","2998860","co37801","norming","","","{""guess"":""kaasplank""}","","../img/tt/052tt.jpg","",""
"null","../img/gs/052gs.jpg","null","reveal","image-keyboard-response","108","561943","0.0-6.0-4.14","2998860","co37801","norming","","","","","","",""
"null","../img/tt/052tt.jpg","null","mooney2","image-keyboard-response","109","563951","0.0-6.0-5.14","2998860","co37801","norming","","","","","","",""
"3475.715000000084","","","post_reveal_questions","survey-likert","110","567430","0.0-6.0-6.14","2998860","co37801","norming","","","{""aha"":5}","[0]","../img/tt/052tt.jpg","",""
"null","<div style=""font-size:60px;""> </div>","null","fixation","html-keyboard-response","111","567631","0.0-6.0-0.15","2998860","co37801","norming","","","","","","",""
"null","../img/tt/1096tt.jpg","null","mooney1","image-keyboard-response","112","570642","0.0-6.0-1.15","2998860","co37801","norming","","","","","","",""
"5017.6699999999255","","","post_mooney1_questions","survey-likert","113","575662","0.0-6.0-2.15","2998860","co37801","norming","","","{""curiosity"":1,""confidence"":4}","[0,1]","../img/tt/1096tt.jpg","",""
"5054.135000000009","","","recognition","survey-text","114","580718","0.0-6.0-3.15","2998860","co37801","norming","","","{""guess"":""woonkamer""}","","../img/tt/1096tt.jpg","",""
"null","../img/gs/1096gs.jpg","null","reveal","image-keyboard-response","115","582720","0.0-6.0-4.15","2998860","co37801","norming","","","","","","",""
"null","../img/tt/1096tt.jpg","null","mooney2","image-keyboard-response","116","584722","0.0-6.0-5.15","2998860","co37801","norming","","","","","","",""
"1873.8850000000093","","","post_reveal_questions","survey-likert","117","586598","0.0-6.0-6.15","2998860","co37801","norming","","","{""aha"":6}","[0]","../img/tt/1096tt.jpg","",""
"null","<div style=""font-size:60px;""> </div>","null","fixation","html-keyboard-response","118","586799","0.0-6.0-0.16","2998860","co37801","norming","","","","","","",""
"null","../img/tt/1188tt.jpg","null","mooney1","image-keyboard-response","119","589802","0.0-6.0-1.16","2998860","co37801","norming","","","","","","",""
"7257.864999999991","","","post_mooney1_questions","survey-likert","120","597068","0.0-6.0-2.16","2998860","co37801","norming","","","{""curiosity"":2,""confidence"":2}","[0,1]","../img/tt/1188tt.jpg","",""
"16830.244999999995","","","recognition","survey-text","121","613899","0.0-6.0-3.16","2998860","co37801","norming","","","{""guess"":""paardrijder""}","","../img/tt/1188tt.jpg","",""
"null","../img/gs/1188gs.jpg","null","reveal","image-keyboard-response","122","615901","0.0-6.0-4.16","2998860","co37801","norming","","","","","","",""
"null","../img/tt/1188tt.jpg","null","mooney2","image-keyboard-response","123","617903","0.0-6.0-5.16","2998860","co37801","norming","","","","","","",""
"2258.115000000107","","","post_reveal_questions","survey-likert","124","620164","0.0-6.0-6.16","2998860","co37801","norming","","","{""aha"":2}","[0]","../img/tt/1188tt.jpg","",""
"null","<div style=""font-size:60px;""> </div>","null","fixation","html-keyboard-response","125","620373","0.0-6.0-0.17","2998860","co37801","norming","","","","","","",""
"null","../img/tt/084tt.jpg","null","mooney1","image-keyboard-response","126","623376","0.0-6.0-1.17","2998860","co37801","norming","","","","","","",""
"4784.9049999999115","","","post_mooney1_questions","survey-likert","127","628164","0.0-6.0-2.17","2998860","co37801","norming","","","{""curiosity"":6,""confidence"":0}","[0,1]","../img/tt/084tt.jpg","",""
"558.015000000014","","","recognition","survey-text","128","628723","0.0-6.0-3.17","2998860","co37801","norming","","","{""guess"":""""}","","../img/tt/084tt.jpg","",""
"null","../img/gs/084gs.jpg","null","reveal","image-keyboard-response","129","630728","0.0-6.0-4.17","2998860","co37801","norming","","","","","","",""
"null","../img/tt/084tt.jpg","null","mooney2","image-keyboard-response","130","632729","0.0-6.0-5.17","2998860","co37801","norming","","","","","","",""
"1936.4049999999115","","","post_reveal_questions","survey-likert","131","634668","0.0-6.0-6.17","2998860","co37801","norming","","","{""aha"":2}","[0]","../img/tt/084tt.jpg","",""
"null","<div style=""font-size:60px;""> </div>","null","fixation","html-keyboard-response","132","634868","0.0-6.0-0.18","2998860","co37801","norming","","","","","","",""
"null","../img/tt/412tt.jpg","null","mooney1","image-keyboard-response","133","637879","0.0-6.0-1.18","2998860","co37801","norming","","","","","","",""
"3266.1199999999953","","","post_mooney1_questions","survey-likert","134","641148","0.0-6.0-2.18","2998860","co37801","norming","","","{""curiosity"":5,""confidence"":3}","[0,1]","../img/tt/412tt.jpg","",""
"3557.980000000098","","","recognition","survey-text","135","644707","0.0-6.0-3.18","2998860","co37801","norming","","","{""guess"":""fles wijn""}","","../img/tt/412tt.jpg","",""
"null","../img/gs/412gs.jpg","null","reveal","image-keyboard-response","136","646717","0.0-6.0-4.18","2998860","co37801","norming","","","","","","",""
"null","../img/tt/412tt.jpg","null","mooney2","image-keyboard-response","137","648720","0.0-6.0-5.18","2998860","co37801","norming","","","","","","",""
"2009.4149999999208","","","post_reveal_questions","survey-likert","138","650731","0.0-6.0-6.18","2998860","co37801","norming","","","{""aha"":3}","[0]","../img/tt/412tt.jpg","",""
"null","<div style=""font-size:60px;""> </div>","null","fixation","html-keyboard-response","139","650933","0.0-6.0-0.19","2998860","co37801","norming","","","","","","",""
"null","../img/tt/013tt.jpg","null","mooney1","image-keyboard-response","140","653937","0.0-6.0-1.19","2998860","co37801","norming","","","","","","",""
"5792.125000000116","","","post_mooney1_questions","survey-likert","141","659726","0.0-6.0-2.19","2998860","co37801","norming","","","{""curiosity"":6,""confidence"":0}","[0,1]","../img/tt/013tt.jpg","",""
"965.7750000000233","","","recognition","survey-text","142","660694","0.0-6.0-3.19","2998860","co37801","norming","","","{""guess"":""""}","","../img/tt/013tt.jpg","",""
"null","../img/gs/013gs.jpg","null","reveal","image-keyboard-response","143","662699","0.0-6.0-4.19","2998860","co37801","norming","","","","","","",""
"null","../img/tt/013tt.jpg","null","mooney2","image-keyboard-response","144","664701","0.0-6.0-5.19","2998860","co37801","norming","","","","","","",""
"1750.5599999999395","","","post_reveal_questions","survey-likert","145","666454","0.0-6.0-6.19","2998860","co37801","norming","","","{""aha"":6}","[0]","../img/tt/013tt.jpg","",""
"null","<div style=""font-size:60px;""> </div>","null","fixation","html-keyboard-response","146","666656","0.0-6.0-0.20","2998860","co37801","norming","","","","","","",""
"null","../img/tt/438tt.jpg","null","mooney1","image-keyboard-response","147","669665","0.0-6.0-1.20","2998860","co37801","norming","","","","","","",""
"8427.295000000042","","","post_mooney1_questions","survey-likert","148","678094","0.0-6.0-2.20","2998860","co37801","norming","","","{""curiosity"":4,""confidence"":1}","[0,1]","../img/tt/438tt.jpg","",""
"3222.329999999958","","","recognition","survey-text","149","681318","0.0-6.0-3.20","2998860","co37801","norming","","","{""guess"":""juwelen""}","","../img/tt/438tt.jpg","",""
"null","../img/gs/438gs.jpg","null","reveal","image-keyboard-response","150","683320","0.0-6.0-4.20","2998860","co37801","norming","","","","","","",""
"null","../img/tt/438tt.jpg","null","mooney2","image-keyboard-response","151","685323","0.0-6.0-5.20","2998860","co37801","norming","","","","","","",""
"2832.890000000014","","","post_reveal_questions","survey-likert","152","688158","0.0-6.0-6.20","2998860","co37801","norming","","","{""aha"":2}","[0]","../img/tt/438tt.jpg","",""
"null","<div style=""font-size:60px;""> </div>","null","fixation","html-keyboard-response","153","688367","0.0-6.0-0.21","2998860","co37801","norming","","","","","","",""
"null","../img/tt/296tt.jpg","null","mooney1","image-keyboard-response","154","691373","0.0-6.0-1.21","2998860","co37801","norming","","","","","","",""
"6054.420000000042","","","post_mooney1_questions","survey-likert","155","697430","0.0-6.0-2.21","2998860","co37801","norming","","","{""curiosity"":1,""confidence"":3}","[0,1]","../img/tt/296tt.jpg","",""
"2685.994999999879","","","recognition","survey-text","156","700118","0.0-6.0-3.21","2998860","co37801","norming","","","{""guess"":""zetel""}","","../img/tt/296tt.jpg","",""
"null","../img/gs/296gs.jpg","null","reveal","image-keyboard-response","157","702127","0.0-6.0-4.21","2998860","co37801","norming","","","","","","",""
"null","../img/tt/296tt.jpg","null","mooney2","image-keyboard-response","158","704129","0.0-6.0-5.21","2998860","co37801","norming","","","","","","",""
"2323.0100000000093","","","post_reveal_questions","survey-likert","159","706454","0.0-6.0-6.21","2998860","co37801","norming","","","{""aha"":4}","[0]","../img/tt/296tt.jpg","",""
"null","<div style=""font-size:60px;""> </div>","null","fixation","html-keyboard-response","160","706659","0.0-6.0-0.22","2998860","co37801","norming","","","","","","",""
"null","../img/tt/184tt.jpg","null","mooney1","image-keyboard-response","161","709662","0.0-6.0-1.22","2998860","co37801","norming","","","","","","",""
"5869.295000000042","","","post_mooney1_questions","survey-likert","162","715534","0.0-6.0-2.22","2998860","co37801","norming","","","{""curiosity"":6,""confidence"":0}","[0,1]","../img/tt/184tt.jpg","",""
"725.875","","","recognition","survey-text","163","716262","0.0-6.0-3.22","2998860","co37801","norming","","","{""guess"":""""}","","../img/tt/184tt.jpg","",""
"null","../img/gs/184gs.jpg","null","reveal","image-keyboard-response","164","718275","0.0-6.0-4.22","2998860","co37801","norming","","","","","","",""
"null","../img/tt/184tt.jpg","null","mooney2","image-keyboard-response","165","720285","0.0-6.0-5.22","2998860","co37801","norming","","","","","","",""
"2900.149999999907","","","post_reveal_questions","survey-likert","166","723188","0.0-6.0-6.22","2998860","co37801","norming","","","{""aha"":6}","[0]","../img/tt/184tt.jpg","",""
"null","<div style=""font-size:60px;""> </div>","null","fixation","html-keyboard-response","167","723389","0.0-6.0-0.23","2998860","co37801","norming","","","","","","",""
"null","../img/tt/082tt.jpg","null","mooney1","image-keyboard-response","168","726401","0.0-6.0-1.23","2998860","co37801","norming","","","","","","",""
"7208.225000000093","","","post_mooney1_questions","survey-likert","169","733612","0.0-6.0-2.23","2998860","co37801","norming","","","{""curiosity"":3,""confidence"":2}","[0,1]","../img/tt/082tt.jpg","",""
"6894","","","recognition","survey-text","170","740508","0.0-6.0-3.23","2998860","co37801","norming","","","{""guess"":""vogel""}","","../img/tt/082tt.jpg","",""
"null","../img/gs/082gs.jpg","null","reveal","image-keyboard-response","171","742511","0.0-6.0-4.23","2998860","co37801","norming","","","","","","",""
"null","../img/tt/082tt.jpg","null","mooney2","image-keyboard-response","172","744521","0.0-6.0-5.23","2998860","co37801","norming","","","","","","",""
"3800.560000000056","","","post_reveal_questions","survey-likert","173","748324","0.0-6.0-6.23","2998860","co37801","norming","","","{""aha"":6}","[0]","../img/tt/082tt.jpg","",""
"null","<div style=""font-size:60px;""> </div>","null","fixation","html-keyboard-response","174","748533","0.0-6.0-0.24","2998860","co37801","norming","","","","","","",""
"null","../img/tt/1012tt.jpg","null","mooney1","image-keyboard-response","175","751540","0.0-6.0-1.24","2998860","co37801","norming","","","","","","",""
"4157.285000000033","","","post_mooney1_questions","survey-likert","176","755700","0.0-6.0-2.24","2998860","co37801","norming","","","{""curiosity"":1,""confidence"":4}","[0,1]","../img/tt/1012tt.jpg","",""
"2550.079999999958","","","recognition","survey-text","177","758252","0.0-6.0-3.24","2998860","co37801","norming","","","{""guess"":""paard""}","","../img/tt/1012tt.jpg","",""
"null","../img/gs/1012gs.jpg","null","reveal","image-keyboard-response","178","760254","0.0-6.0-4.24","2998860","co37801","norming","","","","","","",""
"null","../img/tt/1012tt.jpg","null","mooney2","image-keyboard-response","179","762257","0.0-6.0-5.24","2998860","co37801","norming","","","","","","",""
"2674.140000000014","","","post_reveal_questions","survey-likert","180","764932","0.0-6.0-6.24","2998860","co37801","norming","","","{""aha"":6}","[0]","../img/tt/1012tt.jpg","",""
"null","<div style=""font-size:60px;""> </div>","null","fixation","html-keyboard-response","181","765133","0.0-6.0-0.25","2998860","co37801","norming","","","","","","",""
"null","../img/tt/1048tt.jpg","null","mooney1","image-keyboard-response","182","768143","0.0-6.0-1.25","2998860","co37801","norming","","","","","","",""
"4322.944999999949","","","post_mooney1_questions","survey-likert","183","772468","0.0-6.0-2.25","2998860","co37801","norming","","","{""curiosity"":2,""confidence"":2}","[0,1]","../img/tt/1048tt.jpg","",""
"2430.125","","","recognition","survey-text","184","774900","0.0-6.0-3.25","2998860","co37801","norming","","","{""guess"":""bergen""}","","../img/tt/1048tt.jpg","",""
"null","../img/gs/1048gs.jpg","null","reveal","image-keyboard-response","185","776902","0.0-6.0-4.25","2998860","co37801","norming","","","","","","",""
"null","../img/tt/1048tt.jpg","null","mooney2","image-keyboard-response","186","778904","0.0-6.0-5.25","2998860","co37801","norming","","","","","","",""
"2883.180000000051","","","post_reveal_questions","survey-likert","187","781788","0.0-6.0-6.25","2998860","co37801","norming","","","{""aha"":4}","[0]","../img/tt/1048tt.jpg","",""
"null","<div style=""font-size:60px;""> </div>","null","fixation","html-keyboard-response","188","781990","0.0-6.0-0.26","2998860","co37801","norming","","","","","","",""
"null","../img/tt/1126tt.jpg","null","mooney1","image-keyboard-response","189","784992","0.0-6.0-1.26","2998860","co37801","norming","","","","","","",""
"3441.7200000000885","","","post_mooney1_questions","survey-likert","190","788436","0.0-6.0-2.26","2998860","co37801","norming","","","{""curiosity"":5,""confidence"":3}","[0,1]","../img/tt/1126tt.jpg","",""
"2590.3099999999395","","","recognition","survey-text","191","791028","0.0-6.0-3.26","2998860","co37801","norming","","","{""guess"":""bergen""}","","../img/tt/1126tt.jpg","",""
"null","../img/gs/1126gs.jpg","null","reveal","image-keyboard-response","192","793029","0.0-6.0-4.26","2998860","co37801","norming","","","","","","",""
"null","../img/tt/1126tt.jpg","null","mooney2","image-keyboard-response","193","795033","0.0-6.0-5.26","2998860","co37801","norming","","","","","","",""
"2968.82500000007","","","post_reveal_questions","survey-likert","194","798004","0.0-6.0-6.26","2998860","co37801","norming","","","{""aha"":5}","[0]","../img/tt/1126tt.jpg","",""
"null","<div style=""font-size:60px;""> </div>","null","fixation","html-keyboard-response","195","798205","0.0-6.0-0.27","2998860","co37801","norming","","","","","","",""
"null","../img/tt/1024tt.jpg","null","mooney1","image-keyboard-response","196","801210","0.0-6.0-1.27","2998860","co37801","norming","","","","","","",""
"7783.650000000023","","","post_mooney1_questions","survey-likert","197","808996","0.0-6.0-2.27","2998860","co37801","norming","","","{""curiosity"":6,""confidence"":0}","[0,1]","../img/tt/1024tt.jpg","",""
"613.7750000000233","","","recognition","survey-text","198","809612","0.0-6.0-3.27","2998860","co37801","norming","","","{""guess"":""""}","","../img/tt/1024tt.jpg","",""
"null","../img/gs/1024gs.jpg","null","reveal","image-keyboard-response","199","811620","0.0-6.0-4.27","2998860","co37801","norming","","","","","","",""
"null","../img/tt/1024tt.jpg","null","mooney2","image-keyboard-response","200","813622","0.0-6.0-5.27","2998860","co37801","norming","","","","","","",""
"3709.0250000000233","","","post_reveal_questions","survey-likert","201","817332","0.0-6.0-6.27","2998860","co37801","norming","","","{""aha"":5}","[0]","../img/tt/1024tt.jpg","",""
"null","<div style=""font-size:60px;""> </div>","null","fixation","html-keyboard-response","202","817533","0.0-6.0-0.28","2998860","co37801","norming","","","","","","",""
"null","../img/tt/031tt.jpg","null","mooney1","image-keyboard-response","203","820538","0.0-6.0-1.28","2998860","co37801","norming","","","","","","",""
"9529.130000000005","","","post_mooney1_questions","survey-likert","204","830068","0.0-6.0-2.28","2998860","co37801","norming","","","{""curiosity"":6,""confidence"":1}","[0,1]","../img/tt/031tt.jpg","",""
"3606.1350000000093","","","recognition","survey-text","205","833676","0.0-6.0-3.28","2998860","co37801","norming","","","{""guess"":""paintballer""}","","../img/tt/031tt.jpg","",""
"null","../img/gs/031gs.jpg","null","reveal","image-keyboard-response","206","835678","0.0-6.0-4.28","2998860","co37801","norming","","","","","","",""
"null","../img/tt/031tt.jpg","null","mooney2","image-keyboard-response","207","837680","0.0-6.0-5.28","2998860","co37801","norming","","","","","","",""
"2627.515000000014","","","post_reveal_questions","survey-likert","208","840300","0.0-6.0-6.28","2998860","co37801","norming","","","{""aha"":6}","[0]","../img/tt/031tt.jpg","",""
"null","<div style=""font-size:60px;""> </div>","null","fixation","html-keyboard-response","209","840502","0.0-6.0-0.29","2998860","co37801","norming","","","","","","",""
"null","../img/tt/1006tt.jpg","null","mooney1","image-keyboard-response","210","843504","0.0-6.0-1.29","2998860","co37801","norming","","","","","","",""
"5162.819999999949","","","post_mooney1_questions","survey-likert","211","848668","0.0-6.0-2.29","2998860","co37801","norming","","","{""curiosity"":3,""confidence"":0}","[0,1]","../img/tt/1006tt.jpg","",""
"4518.005000000005","","","recognition","survey-text","212","853188","0.0-6.0-3.29","2998860","co37801","norming","","","{""guess"":""bergen""}","","../img/tt/1006tt.jpg","",""
"null","../img/gs/1006gs.jpg","null","reveal","image-keyboard-response","213","855190","0.0-6.0-4.29","2998860","co37801","norming","","","","","","",""
"null","../img/tt/1006tt.jpg","null","mooney2","image-keyboard-response","214","857191","0.0-6.0-5.29","2998860","co37801","norming","","","","","","",""
"4195.625","","","post_reveal_questions","survey-likert","215","861388","0.0-6.0-6.29","2998860","co37801","norming","","","{""aha"":5}","[0]","../img/tt/1006tt.jpg","",""
"null","<div style=""font-size:60px;""> </div>","null","fixation","html-keyboard-response","216","861590","0.0-6.0-0.30","2998860","co37801","norming","","","","","","",""
"null","../img/tt/1307tt.jpg","null","mooney1","image-keyboard-response","217","864591","0.0-6.0-1.30","2998860","co37801","norming","","","","","","",""
"6764.120000000112","","","post_mooney1_questions","survey-likert","218","871356","0.0-6.0-2.30","2998860","co37801","norming","","","{""curiosity"":4,""confidence"":2}","[0,1]","../img/tt/1307tt.jpg","",""
"6229.750000000116","","","recognition","survey-text","219","877588","0.0-6.0-3.30","2998860","co37801","norming","","","{""guess"":""sinaasappelperser""}","","../img/tt/1307tt.jpg","",""
"null","../img/gs/1307gs.jpg","null","reveal","image-keyboard-response","220","879597","0.0-6.0-4.30","2998860","co37801","norming","","","","","","",""
"null","../img/tt/1307tt.jpg","null","mooney2","image-keyboard-response","221","881603","0.0-6.0-5.30","2998860","co37801","norming","","","","","","",""
"3544.0650000000605","","","post_reveal_questions","survey-likert","222","885148","0.0-6.0-6.30","2998860","co37801","norming","","","{""aha"":4}","[0]","../img/tt/1307tt.jpg","",""
"null","<div style=""font-size:60px;""> </div>","null","fixation","html-keyboard-response","223","885349","0.0-6.0-0.31","2998860","co37801","norming","","","","","","",""
"null","../img/tt/522tt.jpg","null","mooney1","image-keyboard-response","224","888350","0.0-6.0-1.31","2998860","co37801","norming","","","","","","",""
"4571.899999999907","","","post_mooney1_questions","survey-likert","225","892924","0.0-6.0-2.31","2998860","co37801","norming","","","{""curiosity"":6,""confidence"":0}","[0,1]","../img/tt/522tt.jpg","",""
"685.8950000000186","","","recognition","survey-text","226","893611","0.0-6.0-3.31","2998860","co37801","norming","","","{""guess"":""""}","","../img/tt/522tt.jpg","",""
"null","../img/gs/522gs.jpg","null","reveal","image-keyboard-response","227","895622","0.0-6.0-4.31","2998860","co37801","norming","","","","","","",""
"null","../img/tt/522tt.jpg","null","mooney2","image-keyboard-response","228","897625","0.0-6.0-5.31","2998860","co37801","norming","","","","","","",""
"2545.829999999958","","","post_reveal_questions","survey-likert","229","900180","0.0-6.0-6.31","2998860","co37801","norming","","","{""aha"":6}","[0]","../img/tt/522tt.jpg","",""
"null","<div style=""font-size:60px;""> </div>","null","fixation","html-keyboard-response","230","900382","0.0-6.0-0.32","2998860","co37801","norming","","","","","","",""
"null","../img/tt/549tt.jpg","null","mooney1","image-keyboard-response","231","903384","0.0-6.0-1.32","2998860","co37801","norming","","","","","","",""
"4258.555000000051","","","post_mooney1_questions","survey-likert","232","907644","0.0-6.0-2.32","2998860","co37801","norming","","","{""curiosity"":6,""confidence"":1}","[0,1]","../img/tt/549tt.jpg","",""
"3613.6149999999907","","","recognition","survey-text","233","911259","0.0-6.0-3.32","2998860","co37801","norming","","","{""guess"":""circustent""}","","../img/tt/549tt.jpg","",""
"null","../img/gs/549gs.jpg","null","reveal","image-keyboard-response","234","913262","0.0-6.0-4.32","2998860","co37801","norming","","","","","","",""
"null","../img/tt/549tt.jpg","null","mooney2","image-keyboard-response","235","915271","0.0-6.0-5.32","2998860","co37801","norming","","","","","","",""
"2067.430000000051","","","post_reveal_questions","survey-likert","236","917340","0.0-6.0-6.32","2998860","co37801","norming","","","{""aha"":0}","[0]","../img/tt/549tt.jpg","",""
"null","<div style=""font-size:60px;""> </div>","null","fixation","html-keyboard-response","237","917541","0.0-6.0-0.33","2998860","co37801","norming","","","","","","",""
"null","../img/tt/1053tt.jpg","null","mooney1","image-keyboard-response","238","920543","0.0-6.0-1.33","2998860","co37801","norming","","","","","","",""
"4164.0449999999255","","","post_mooney1_questions","survey-likert","239","924708","0.0-6.0-2.33","2998860","co37801","norming","","","{""curiosity"":6,""confidence"":4}","[0,1]","../img/tt/1053tt.jpg","",""
"5261.864999999991","","","recognition","survey-text","240","929972","0.0-6.0-3.33","2998860","co37801","norming","","","{""guess"":""tijger""}","","../img/tt/1053tt.jpg","",""
"null","../img/gs/1053gs.jpg","null","reveal","image-keyboard-response","241","931980","0.0-6.0-4.33","2998860","co37801","norming","","","","","","",""
"null","../img/tt/1053tt.jpg","null","mooney2","image-keyboard-response","242","933983","0.0-6.0-5.33","2998860","co37801","norming","","","","","","",""
"3244.130000000121","","","post_reveal_questions","survey-likert","243","937228","0.0-6.0-6.33","2998860","co37801","norming","","","{""aha"":4}","[0]","../img/tt/1053tt.jpg","",""
"null","<div style=""font-size:60px;""> </div>","null","fixation","html-keyboard-response","244","937429","0.0-6.0-0.34","2998860","co37801","norming","","","","","","",""
"null","../img/tt/1116tt.jpg","null","mooney1","image-keyboard-response","245","940435","0.0-6.0-1.34","2998860","co37801","norming","","","","","","",""
"4167.5299999999115","","","post_mooney1_questions","survey-likert","246","944604","0.0-6.0-2.34","2998860","co37801","norming","","","{""curiosity"":2,""confidence"":2}","[0,1]","../img/tt/1116tt.jpg","",""
"3669.7149999999674","","","recognition","survey-text","247","948276","0.0-6.0-3.34","2998860","co37801","norming","","","{""guess"":""loopgraven""}","","../img/tt/1116tt.jpg","",""
"null","../img/gs/1116gs.jpg","null","reveal","image-keyboard-response","248","950277","0.0-6.0-4.34","2998860","co37801","norming","","","","","","",""
"null","../img/tt/1116tt.jpg","null","mooney2","image-keyboard-response","249","952280","0.0-6.0-5.34","2998860","co37801","norming","","","","","","",""
"2491.195000000065","","","post_reveal_questions","survey-likert","250","954772","0.0-6.0-6.34","2998860","co37801","norming","","","{""aha"":2}","[0]","../img/tt/1116tt.jpg","",""
"null","<div style=""font-size:60px;""> </div>","null","fixation","html-keyboard-response","251","954973","0.0-6.0-0.35","2998860","co37801","norming","","","","","","",""
"null","../img/tt/1125tt.jpg","null","mooney1","image-keyboard-response","252","957980","0.0-6.0-1.35","2998860","co37801","norming","","","","","","",""
"4759.82500000007","","","post_mooney1_questions","survey-likert","253","962741","0.0-6.0-2.35","2998860","co37801","norming","","","{""curiosity"":1,""confidence"":6}","[0,1]","../img/tt/1125tt.jpg","",""
"3420.75","","","recognition","survey-text","254","966164","0.0-6.0-3.35","2998860","co37801","norming","","","{""guess"":""pianospeler""}","","../img/tt/1125tt.jpg","",""
"null","../img/gs/1125gs.jpg","null","reveal","image-keyboard-response","255","968165","0.0-6.0-4.35","2998860","co37801","norming","","","","","","",""
"null","../img/tt/1125tt.jpg","null","mooney2","image-keyboard-response","256","970169","0.0-6.0-5.35","2998860","co37801","norming","","","","","","",""
"5202.410000000149","","","post_reveal_questions","survey-likert","257","975372","0.0-6.0-6.35","2998860","co37801","norming","","","{""aha"":2}","[0]","../img/tt/1125tt.jpg","",""
"null","<div style=""font-size:60px;""> </div>","null","fixation","html-keyboard-response","258","975581","0.0-6.0-0.36","2998860","co37801","norming","","","","","","",""
"null","../img/tt/380tt.jpg","null","mooney1","image-keyboard-response","259","978585","0.0-6.0-1.36","2998860","co37801","norming","","","","","","",""
"5370.135000000126","","","post_mooney1_questions","survey-likert","260","983956","0.0-6.0-2.36","2998860","co37801","norming","","","{""curiosity"":4,""confidence"":2}","[0,1]","../img/tt/380tt.jpg","",""
"2741.8600000001024","","","recognition","survey-text","261","986700","0.0-6.0-3.36","2998860","co37801","norming","","","{""guess"":""muis""}","","../img/tt/380tt.jpg","",""
"null","../img/gs/380gs.jpg","null","reveal","image-keyboard-response","262","988701","0.0-6.0-4.36","2998860","co37801","norming","","","","","","",""
"null","../img/tt/380tt.jpg","null","mooney2","image-keyboard-response","263","990711","0.0-6.0-5.36","2998860","co37801","norming","","","","","","",""
"1492.2099999998463","","","post_reveal_questions","survey-likert","264","992204","0.0-6.0-6.36","2998860","co37801","norming","","","{""aha"":3}","[0]","../img/tt/380tt.jpg","",""
"null","<div style=""font-size:60px;""> </div>","null","fixation","html-keyboard-response","265","992407","0.0-6.0-0.37","2998860","co37801","norming","","","","","","",""
"null","../img/tt/1127tt.jpg","null","mooney1","image-keyboard-response","266","995413","0.0-6.0-1.37","2998860","co37801","norming","","","","","","",""
"8278.494999999995","","","post_mooney1_questions","survey-likert","267","1003693","0.0-6.0-2.37","2998860","co37801","norming","","","{""curiosity"":3,""confidence"":0}","[0,1]","../img/tt/1127tt.jpg","",""
"1197.7349999998696","","","recognition","survey-text","268","1004892","0.0-6.0-3.37","2998860","co37801","norming","","","{""guess"":""""}","","../img/tt/1127tt.jpg","",""
"null","../img/gs/1127gs.jpg","null","reveal","image-keyboard-response","269","1006894","0.0-6.0-4.37","2998860","co37801","norming","","","","","","",""
"null","../img/tt/1127tt.jpg","null","mooney2","image-keyboard-response","270","1008895","0.0-6.0-5.37","2998860","co37801","norming","","","","","","",""
"5201.049999999814","","","post_reveal_questions","survey-likert","271","1014100","0.0-6.0-6.37","2998860","co37801","norming","","","{""aha"":4}","[0]","../img/tt/1127tt.jpg","",""
"null","<div style=""font-size:60px;""> </div>","null","fixation","html-keyboard-response","272","1014302","0.0-6.0-0.38","2998860","co37801","norming","","","","","","",""
"null","../img/tt/1232tt.jpg","null","mooney1","image-keyboard-response","273","1017304","0.0-6.0-1.38","2998860","co37801","norming","","","","","","",""
"3954.2799999999115","","","post_mooney1_questions","survey-likert","274","1021261","0.0-6.0-2.38","2998860","co37801","norming","","","{""curiosity"":4,""confidence"":6}","[0,1]","../img/tt/1232tt.jpg","",""
"2526.179999999935","","","recognition","survey-text","275","1023789","0.0-6.0-3.38","2998860","co37801","norming","","","{""guess"":""pauw""}","","../img/tt/1232tt.jpg","",""
"null","../img/gs/1232gs.jpg","null","reveal","image-keyboard-response","276","1025791","0.0-6.0-4.38","2998860","co37801","norming","","","","","","",""
"null","../img/tt/1232tt.jpg","null","mooney2","image-keyboard-response","277","1027793","0.0-6.0-5.38","2998860","co37801","norming","","","","","","",""
"2419.445000000065","","","post_reveal_questions","survey-likert","278","1030213","0.0-6.0-6.38","2998860","co37801","norming","","","{""aha"":4}","[0]","../img/tt/1232tt.jpg","",""
"null","<div style=""font-size:60px;""> </div>","null","fixation","html-keyboard-response","279","1030414","0.0-6.0-0.39","2998860","co37801","norming","","","","","","",""
"null","../img/tt/1196tt.jpg","null","mooney1","image-keyboard-response","280","1033418","0.0-6.0-1.39","2998860","co37801","norming","","","","","","",""
"5704.764999999898","","","post_mooney1_questions","survey-likert","281","1039125","0.0-6.0-2.39","2998860","co37801","norming","","","{""curiosity"":6,""confidence"":2}","[0,1]","../img/tt/1196tt.jpg","",""
"3933.8000000000466","","","recognition","survey-text","282","1043061","0.0-6.0-3.39","2998860","co37801","norming","","","{""guess"":""cheerleaders""}","","../img/tt/1196tt.jpg","",""
"null","../img/gs/1196gs.jpg","null","reveal","image-keyboard-response","283","1045068","0.0-6.0-4.39","2998860","co37801","norming","","","","","","",""
"null","../img/tt/1196tt.jpg","null","mooney2","image-keyboard-response","284","1047076","0.0-6.0-5.39","2998860","co37801","norming","","","","","","",""
"3655.7449999999953","","","post_reveal_questions","survey-likert","285","1050733","0.0-6.0-6.39","2998860","co37801","norming","","","{""aha"":4}","[0]","../img/tt/1196tt.jpg","",""
"null","<div style=""font-size:60px;""> </div>","null","fixation","html-keyboard-response","286","1050934","0.0-6.0-0.40","2998860","co37801","norming","","","","","","",""
"null","../img/tt/1002tt.jpg","null","mooney1","image-keyboard-response","287","1053943","0.0-6.0-1.40","2998860","co37801","norming","","","","","","",""
"4723.76500000013","","","post_mooney1_questions","survey-likert","288","1058670","0.0-6.0-2.40","2998860","co37801","norming","","","{""curiosity"":0,""confidence"":0}","[0,1]","../img/tt/1002tt.jpg","",""
"1006.184999999823","","","recognition","survey-text","289","1059678","0.0-6.0-3.40","2998860","co37801","norming","","","{""guess"":""""}","","../img/tt/1002tt.jpg","",""
"null","../img/gs/1002gs.jpg","null","reveal","image-keyboard-response","290","1061681","0.0-6.0-4.40","2998860","co37801","norming","","","","","","",""
"null","../img/tt/1002tt.jpg","null","mooney2","image-keyboard-response","291","1063683","0.0-6.0-5.40","2998860","co37801","norming","","","","","","",""
"3064.0550000001676","","","post_reveal_questions","survey-likert","292","1066749","0.0-6.0-6.40","2998860","co37801","norming","","","{""aha"":5}","[0]","../img/tt/1002tt.jpg","",""
"null","<div style=""font-size:60px;""> </div>","null","fixation","html-keyboard-response","293","1066959","0.0-6.0-0.41","2998860","co37801","norming","","","","","","",""
"null","../img/tt/091tt.jpg","null","mooney1","image-keyboard-response","294","1069966","0.0-6.0-1.41","2998860","co37801","norming","","","","","","",""
"9981.415000000037","","","post_mooney1_questions","survey-likert","295","1079949","0.0-6.0-2.41","2998860","co37801","norming","","","{""curiosity"":4,""confidence"":0}","[0,1]","../img/tt/091tt.jpg","",""
"7726.204999999842","","","recognition","survey-text","296","1087678","0.0-6.0-3.41","2998860","co37801","norming","","","{""guess"":""beer""}","","../img/tt/091tt.jpg","",""
"null","../img/gs/091gs.jpg","null","reveal","image-keyboard-response","297","1089685","0.0-6.0-4.41","2998860","co37801","norming","","","","","","",""
"null","../img/tt/091tt.jpg","null","mooney2","image-keyboard-response","298","1091687","0.0-6.0-5.41","2998860","co37801","norming","","","","","","",""
"3246.010000000242","","","post_reveal_questions","survey-likert","299","1094934","0.0-6.0-6.41","2998860","co37801","norming","","","{""aha"":2}","[0]","../img/tt/091tt.jpg","",""
"null","<div style=""font-size:60px;""> </div>","null","fixation","html-keyboard-response","300","1095138","0.0-6.0-0.42","2998860","co37801","norming","","","","","","",""
"null","../img/tt/001tt.jpg","null","mooney1","image-keyboard-response","301","1098141","0.0-6.0-1.42","2998860","co37801","norming","","","","","","",""
"6896.054999999935","","","post_mooney1_questions","survey-likert","302","1105038","0.0-6.0-2.42","2998860","co37801","norming","","","{""curiosity"":6,""confidence"":0}","[0,1]","../img/tt/001tt.jpg","",""
"4829.860000000102","","","recognition","survey-text","303","1109870","0.0-6.0-3.42","2998860","co37801","norming","","","{""guess"":""pauw""}","","../img/tt/001tt.jpg","",""
"null","../img/gs/001gs.jpg","null","reveal","image-keyboard-response","304","1111875","0.0-6.0-4.42","2998860","co37801","norming","","","","","","",""
"null","../img/tt/001tt.jpg","null","mooney2","image-keyboard-response","305","1113883","0.0-6.0-5.42","2998860","co37801","norming","","","","","","",""
"3375.500000000233","","","post_reveal_questions","survey-likert","306","1117262","0.0-6.0-6.42","2998860","co37801","norming","","","{""aha"":1}","[0]","../img/tt/001tt.jpg","",""
"null","<div style=""font-size:60px;""> </div>","null","fixation","html-keyboard-response","307","1117466","0.0-6.0-0.43","2998860","co37801","norming","","","","","","",""
"null","../img/tt/1070tt.jpg","null","mooney1","image-keyboard-response","308","1120470","0.0-6.0-1.43","2998860","co37801","norming","","","","","","",""
"4821.494999999879","","","post_mooney1_questions","survey-likert","309","1125294","0.0-6.0-2.43","2998860","co37801","norming","","","{""curiosity"":4,""confidence"":2}","[0,1]","../img/tt/1070tt.jpg","",""
"5573.799999999814","","","recognition","survey-text","310","1130870","0.0-6.0-3.43","2998860","co37801","norming","","","{""guess"":""broodje ""}","","../img/tt/1070tt.jpg","",""
"null","../img/gs/1070gs.jpg","null","reveal","image-keyboard-response","311","1132879","0.0-6.0-4.43","2998860","co37801","norming","","","","","","",""
"null","../img/tt/1070tt.jpg","null","mooney2","image-keyboard-response","312","1134884","0.0-6.0-5.43","2998860","co37801","norming","","","","","","",""
"2934.5200000000186","","","post_reveal_questions","survey-likert","313","1137822","0.0-6.0-6.43","2998860","co37801","norming","","","{""aha"":4}","[0]","../img/tt/1070tt.jpg","",""
"null","<div style=""font-size:60px;""> </div>","null","fixation","html-keyboard-response","314","1138024","0.0-6.0-0.44","2998860","co37801","norming","","","","","","",""
"null","../img/tt/1156tt.jpg","null","mooney1","image-keyboard-response","315","1141027","0.0-6.0-1.44","2998860","co37801","norming","","","","","","",""
"4367.989999999991","","","post_mooney1_questions","survey-likert","316","1145398","0.0-6.0-2.44","2998860","co37801","norming","","","{""curiosity"":2,""confidence"":4}","[0,1]","../img/tt/1156tt.jpg","",""
"2869.8549999999814","","","recognition","survey-text","317","1148270","0.0-6.0-3.44","2998860","co37801","norming","","","{""guess"":""zwemmer""}","","../img/tt/1156tt.jpg","",""
"null","../img/gs/1156gs.jpg","null","reveal","image-keyboard-response","318","1150271","0.0-6.0-4.44","2998860","co37801","norming","","","","","","",""
"null","../img/tt/1156tt.jpg","null","mooney2","image-keyboard-response","319","1152274","0.0-6.0-5.44","2998860","co37801","norming","","","","","","",""
"1961.1450000000186","","","post_reveal_questions","survey-likert","320","1154238","0.0-6.0-6.44","2998860","co37801","norming","","","{""aha"":5}","[0]","../img/tt/1156tt.jpg","",""
"null","<div style=""font-size:60px;""> </div>","null","fixation","html-keyboard-response","321","1154439","0.0-6.0-0.45","2998860","co37801","norming","","","","","","",""
"null","../img/tt/1033tt.jpg","null","mooney1","image-keyboard-response","322","1157446","0.0-6.0-1.45","2998860","co37801","norming","","","","","","",""
"5205.570000000065","","","post_mooney1_questions","survey-likert","323","1162654","0.0-6.0-2.45","2998860","co37801","norming","","","{""curiosity"":2,""confidence"":5}","[0,1]","../img/tt/1033tt.jpg","",""
"4502.020000000019","","","recognition","survey-text","324","1167158","0.0-6.0-3.45","2998860","co37801","norming","","","{""guess"":""schieter""}","","../img/tt/1033tt.jpg","",""
"null","../img/gs/1033gs.jpg","null","reveal","image-keyboard-response","325","1169159","0.0-6.0-4.45","2998860","co37801","norming","","","","","","",""
"null","../img/tt/1033tt.jpg","null","mooney2","image-keyboard-response","326","1171167","0.0-6.0-5.45","2998860","co37801","norming","","","","","","",""
"1956.6049999999814","","","post_reveal_questions","survey-likert","327","1173126","0.0-6.0-6.45","2998860","co37801","norming","","","{""aha"":6}","[0]","../img/tt/1033tt.jpg","",""
"null","<div style=""font-size:60px;""> </div>","null","fixation","html-keyboard-response","328","1173329","0.0-6.0-0.46","2998860","co37801","norming","","","","","","",""
"null","../img/tt/1080tt.jpg","null","mooney1","image-keyboard-response","329","1176332","0.0-6.0-1.46","2998860","co37801","norming","","","","","","",""
"5550.565000000177","","","post_mooney1_questions","survey-likert","330","1181886","0.0-6.0-2.46","2998860","co37801","norming","","","{""curiosity"":6,""confidence"":1}","[0,1]","../img/tt/1080tt.jpg","",""
"3174.0300000002608","","","recognition","survey-text","331","1185062","0.0-6.0-3.46","2998860","co37801","norming","","","{""guess"":""huis""}","","../img/tt/1080tt.jpg","",""
"null","../img/gs/1080gs.jpg","null","reveal","image-keyboard-response","332","1187064","0.0-6.0-4.46","2998860","co37801","norming","","","","","","",""
"null","../img/tt/1080tt.jpg","null","mooney2","image-keyboard-response","333","1189067","0.0-6.0-5.46","2998860","co37801","norming","","","","","","",""
"2552.6700000001583","","","post_reveal_questions","survey-likert","334","1191622","0.0-6.0-6.46","2998860","co37801","norming","","","{""aha"":6}","[0]","../img/tt/1080tt.jpg","",""
"null","<div style=""font-size:60px;""> </div>","null","fixation","html-keyboard-response","335","1191823","0.0-6.0-0.47","2998860","co37801","norming","","","","","","",""
"null","../img/tt/300tt.jpg","null","mooney1","image-keyboard-response","336","1194827","0.0-6.0-1.47","2998860","co37801","norming","","","","","","",""
"5199.059999999823","","","post_mooney1_questions","survey-likert","337","1200030","0.0-6.0-2.47","2998860","co37801","norming","","","{""curiosity"":6,""confidence"":1}","[0,1]","../img/tt/300tt.jpg","",""
"4389.754999999888","","","recognition","survey-text","338","1204422","0.0-6.0-3.47","2998860","co37801","norming","","","{""guess"":""toneelspeler""}","","../img/tt/300tt.jpg","",""
"null","../img/gs/300gs.jpg","null","reveal","image-keyboard-response","339","1206432","0.0-6.0-4.47","2998860","co37801","norming","","","","","","",""
"null","../img/tt/300tt.jpg","null","mooney2","image-keyboard-response","340","1208434","0.0-6.0-5.47","2998860","co37801","norming","","","","","","",""
"2997.310000000056","","","post_reveal_questions","survey-likert","341","1211434","0.0-6.0-6.47","2998860","co37801","norming","","","{""aha"":4}","[0]","../img/tt/300tt.jpg","",""
"null","<div style=""font-size:60px;""> </div>","null","fixation","html-keyboard-response","342","1211635","0.0-6.0-0.48","2998860","co37801","norming","","","","","","",""
"null","../img/tt/019tt.jpg","null","mooney1","image-keyboard-response","343","1214638","0.0-6.0-1.48","2998860","co37801","norming","","","","","","",""
"5304.495000000112","","","post_mooney1_questions","survey-likert","344","1219946","0.0-6.0-2.48","2998860","co37801","norming","","","{""curiosity"":6,""confidence"":0}","[0,1]","../img/tt/019tt.jpg","",""
"3029.9500000001863","","","recognition","survey-text","345","1222978","0.0-6.0-3.48","2998860","co37801","norming","","","{""guess"":""tank""}","","../img/tt/019tt.jpg","",""
"null","../img/gs/019gs.jpg","null","reveal","image-keyboard-response","346","1224979","0.0-6.0-4.48","2998860","co37801","norming","","","","","","",""
"null","../img/tt/019tt.jpg","null","mooney2","image-keyboard-response","347","1226981","0.0-6.0-5.48","2998860","co37801","norming","","","","","","",""
"1651.5600000000559","","","post_reveal_questions","survey-likert","348","1228634","0.0-6.0-6.48","2998860","co37801","norming","","","{""aha"":6}","[0]","../img/tt/019tt.jpg","",""
"null","<div style=""font-size:60px;""> </div>","null","fixation","html-keyboard-response","349","1228835","0.0-6.0-0.49","2998860","co37801","norming","","","","","","",""
"null","../img/tt/1309tt.jpg","null","mooney1","image-keyboard-response","350","1231847","0.0-6.0-1.49","2998860","co37801","norming","","","","","","",""
"5054.670000000158","","","post_mooney1_questions","survey-likert","351","1236906","0.0-6.0-2.49","2998860","co37801","norming","","","{""curiosity"":3,""confidence"":0}","[0,1]","../img/tt/1309tt.jpg","",""
"4037.9900000002235","","","recognition","survey-text","352","1240946","0.0-6.0-3.49","2998860","co37801","norming","","","{""guess"":""bos""}","","../img/tt/1309tt.jpg","",""
"null","../img/gs/1309gs.jpg","null","reveal","image-keyboard-response","353","1242948","0.0-6.0-4.49","2998860","co37801","norming","","","","","","",""
"null","../img/tt/1309tt.jpg","null","mooney2","image-keyboard-response","354","1244959","0.0-6.0-5.49","2998860","co37801","norming","","","","","","",""
"3456.439999999944","","","post_reveal_questions","survey-likert","355","1248418","0.0-6.0-6.49","2998860","co37801","norming","","","{""aha"":4}","[0]","../img/tt/1309tt.jpg","",""
"null","<div style=""font-size:60px;""> </div>","null","fixation","html-keyboard-response","356","1248624","0.0-6.0-0.50","2998860","co37801","norming","","","","","","",""
"null","../img/tt/076tt.jpg","null","mooney1","image-keyboard-response","357","1251633","0.0-6.0-1.50","2998860","co37801","norming","","","","","","",""
"4317.895000000019","","","post_mooney1_questions","survey-likert","358","1255954","0.0-6.0-2.50","2998860","co37801","norming","","","{""curiosity"":5,""confidence"":0}","[0,1]","../img/tt/076tt.jpg","",""
"781.9550000000745","","","recognition","survey-text","359","1256738","0.0-6.0-3.50","2998860","co37801","norming","","","{""guess"":""""}","","../img/tt/076tt.jpg","",""
"null","../img/gs/076gs.jpg","null","reveal","image-keyboard-response","360","1258742","0.0-6.0-4.50","2998860","co37801","norming","","","","","","",""
"null","../img/tt/076tt.jpg","null","mooney2","image-keyboard-response","361","1260749","0.0-6.0-5.50","2998860","co37801","norming","","","","","","",""
"1474.0200000000186","","","post_reveal_questions","survey-likert","362","1262226","0.0-6.0-6.50","2998860","co37801","norming","","","{""aha"":5}","[0]","../img/tt/076tt.jpg","",""
"null","<div style=""font-size:60px;""> </div>","null","fixation","html-keyboard-response","363","1262427","0.0-6.0-0.51","2998860","co37801","norming","","","","","","",""
"null","../img/tt/418tt.jpg","null","mooney1","image-keyboard-response","364","1265437","0.0-6.0-1.51","2998860","co37801","norming","","","","","","",""
"4738.239999999758","","","post_mooney1_questions","survey-likert","365","1270178","0.0-6.0-2.51","2998860","co37801","norming","","","{""curiosity"":4,""confidence"":5}","[0,1]","../img/tt/418tt.jpg","",""
"2621.7999999998137","","","recognition","survey-text","366","1272801","0.0-6.0-3.51","2998860","co37801","norming","","","{""guess"":""appels""}","","../img/tt/418tt.jpg","",""
"null","../img/gs/418gs.jpg","null","reveal","image-keyboard-response","367","1274806","0.0-6.0-4.51","2998860","co37801","norming","","","","","","",""
"null","../img/tt/418tt.jpg","null","mooney2","image-keyboard-response","368","1276812","0.0-6.0-5.51","2998860","co37801","norming","","","","","","",""
"2370.815000000177","","","post_reveal_questions","survey-likert","369","1279185","0.0-6.0-6.51","2998860","co37801","norming","","","{""aha"":5}","[0]","../img/tt/418tt.jpg","",""
"null","<div style=""font-size:60px;""> </div>","null","fixation","html-keyboard-response","370","1279386","0.0-6.0-0.52","2998860","co37801","norming","","","","","","",""
"null","../img/tt/1128tt.jpg","null","mooney1","image-keyboard-response","371","1282393","0.0-6.0-1.52","2998860","co37801","norming","","","","","","",""
"6532.954999999842","","","post_mooney1_questions","survey-likert","372","1288929","0.0-6.0-2.52","2998860","co37801","norming","","","{""curiosity"":6,""confidence"":4}","[0,1]","../img/tt/1128tt.jpg","",""
"17822.210000000196","","","recognition","survey-text","373","1306753","0.0-6.0-3.52","2998860","co37801","norming","","","{""guess"":""voetbalster""}","","../img/tt/1128tt.jpg","",""
"null","../img/gs/1128gs.jpg","null","reveal","image-keyboard-response","374","1308760","0.0-6.0-4.52","2998860","co37801","norming","","","","","","",""
"null","../img/tt/1128tt.jpg","null","mooney2","image-keyboard-response","375","1310762","0.0-6.0-5.52","2998860","co37801","norming","","","","","","",""
"4332.850000000093","","","post_reveal_questions","survey-likert","376","1315098","0.0-6.0-6.52","2998860","co37801","norming","","","{""aha"":2}","[0]","../img/tt/1128tt.jpg","",""
"null","<div style=""font-size:60px;""> </div>","null","fixation","html-keyboard-response","377","1315299","0.0-6.0-0.53","2998860","co37801","norming","","","","","","",""
"null","../img/tt/1086tt.jpg","null","mooney1","image-keyboard-response","378","1318303","0.0-6.0-1.53","2998860","co37801","norming","","","","","","",""
"4366.879999999655","","","post_mooney1_questions","survey-likert","379","1322674","0.0-6.0-2.53","2998860","co37801","norming","","","{""curiosity"":6,""confidence"":1}","[0,1]","../img/tt/1086tt.jpg","",""
"2118.0649999997113","","","recognition","survey-text","380","1324793","0.0-6.0-3.53","2998860","co37801","norming","","","{""guess"":""wolf""}","","../img/tt/1086tt.jpg","",""
"null","../img/gs/1086gs.jpg","null","reveal","image-keyboard-response","381","1326798","0.0-6.0-4.53","2998860","co37801","norming","","","","","","",""
"null","../img/tt/1086tt.jpg","null","mooney2","image-keyboard-response","382","1328803","0.0-6.0-5.53","2998860","co37801","norming","","","","","","",""
"1933.559999999823","","","post_reveal_questions","survey-likert","383","1330739","0.0-6.0-6.53","2998860","co37801","norming","","","{""aha"":3}","[0]","../img/tt/1086tt.jpg","",""
"null","<div style=""font-size:60px;""> </div>","null","fixation","html-keyboard-response","384","1330942","0.0-6.0-0.54","2998860","co37801","norming","","","","","","",""
"null","../img/tt/1043tt.jpg","null","mooney1","image-keyboard-response","385","1333949","0.0-6.0-1.54","2998860","co37801","norming","","","","","","",""
"3812.755000000354","","","post_mooney1_questions","survey-likert","386","1337763","0.0-6.0-2.54","2998860","co37801","norming","","","{""curiosity"":3,""confidence"":4}","[0,1]","../img/tt/1043tt.jpg","",""
"2637.005000000121","","","recognition","survey-text","387","1340402","0.0-6.0-3.54","2998860","co37801","norming","","","{""guess"":""banaan""}","","../img/tt/1043tt.jpg","",""
"null","../img/gs/1043gs.jpg","null","reveal","image-keyboard-response","388","1342408","0.0-6.0-4.54","2998860","co37801","norming","","","","","","",""
"null","../img/tt/1043tt.jpg","null","mooney2","image-keyboard-response","389","1344416","0.0-6.0-5.54","2998860","co37801","norming","","","","","","",""
"2656.255000000121","","","post_reveal_questions","survey-likert","390","1347075","0.0-6.0-6.54","2998860","co37801","norming","","","{""aha"":0}","[0]","../img/tt/1043tt.jpg","",""
"null","<div style=""font-size:60px;""> </div>","null","fixation","html-keyboard-response","391","1347281","0.0-6.0-0.55","2998860","co37801","norming","","","","","","",""
"null","../img/tt/1236tt.jpg","null","mooney1","image-keyboard-response","392","1350288","0.0-6.0-1.55","2998860","co37801","norming","","","","","","",""
"3839.1049999999814","","","post_mooney1_questions","survey-likert","393","1354131","0.0-6.0-2.55","2998860","co37801","norming","","","{""curiosity"":6,""confidence"":0}","[0,1]","../img/tt/1236tt.jpg","",""
"462.29000000003725","","","recognition","survey-text","394","1354595","0.0-6.0-3.55","2998860","co37801","norming","","","{""guess"":""""}","","../img/tt/1236tt.jpg","",""
"null","../img/gs/1236gs.jpg","null","reveal","image-keyboard-response","395","1356597","0.0-6.0-4.55","2998860","co37801","norming","","","","","","",""
"null","../img/tt/1236tt.jpg","null","mooney2","image-keyboard-response","396","1358607","0.0-6.0-5.55","2998860","co37801","norming","","","","","","",""
"2681.0800000000745","","","post_reveal_questions","survey-likert","397","1361291","0.0-6.0-6.55","2998860","co37801","norming","","","{""aha"":4}","[0]","../img/tt/1236tt.jpg","",""
"null","<div style=""font-size:60px;""> </div>","null","fixation","html-keyboard-response","398","1361492","0.0-6.0-0.56","2998860","co37801","norming","","","","","","",""
"null","../img/tt/1097tt.jpg","null","mooney1","image-keyboard-response","399","1364497","0.0-6.0-1.56","2998860","co37801","norming","","","","","","",""
"3574.880000000121","","","post_mooney1_questions","survey-likert","400","1368075","0.0-6.0-2.56","2998860","co37801","norming","","","{""curiosity"":6,""confidence"":3}","[0,1]","../img/tt/1097tt.jpg","",""
"3526.310000000056","","","recognition","survey-text","401","1371603","0.0-6.0-3.56","2998860","co37801","norming","","","{""guess"":""schaatsers""}","","../img/tt/1097tt.jpg","",""
"null","../img/gs/1097gs.jpg","null","reveal","image-keyboard-response","402","1373605","0.0-6.0-4.56","2998860","co37801","norming","","","","","","",""
"null","../img/tt/1097tt.jpg","null","mooney2","image-keyboard-response","403","1375607","0.0-6.0-5.56","2998860","co37801","norming","","","","","","",""
"2313.3000000000466","","","post_reveal_questions","survey-likert","404","1377923","0.0-6.0-6.56","2998860","co37801","norming","","","{""aha"":4}","[0]","../img/tt/1097tt.jpg","",""
"null","<div style=""font-size:60px;""> </div>","null","fixation","html-keyboard-response","405","1378124","0.0-6.0-0.57","2998860","co37801","norming","","","","","","",""
"null","../img/tt/270tt.jpg","null","mooney1","image-keyboard-response","406","1381126","0.0-6.0-1.57","2998860","co37801","norming","","","","","","",""
"6202.014999999898","","","post_mooney1_questions","survey-likert","407","1387331","0.0-6.0-2.57","2998860","co37801","norming","","","{""curiosity"":5,""confidence"":1}","[0,1]","../img/tt/270tt.jpg","",""
"6142.0099999997765","","","recognition","survey-text","408","1393468","0.0-6.0-3.57","2998860","co37801","norming","","","{""guess"":""boswandeling""}","","../img/tt/270tt.jpg","",""
"null","../img/gs/270gs.jpg","null","reveal","image-keyboard-response","409","1395476","0.0-6.0-4.57","2998860","co37801","norming","","","","","","",""
"null","../img/tt/270tt.jpg","null","mooney2","image-keyboard-response","410","1397485","0.0-6.0-5.57","2998860","co37801","norming","","","","","","",""
"8051.929999999935","","","post_reveal_questions","survey-likert","411","1405540","0.0-6.0-6.57","2998860","co37801","norming","","","{""aha"":0}","[0]","../img/tt/270tt.jpg","",""
"null","<div style=""font-size:60px;""> </div>","null","fixation","html-keyboard-response","412","1405750","0.0-6.0-0.58","2998860","co37801","norming","","","","","","",""
"null","../img/tt/567tt.jpg","null","mooney1","image-keyboard-response","413","1408754","0.0-6.0-1.58","2998860","co37801","norming","","","","","","",""
"7558.255000000121","","","post_mooney1_questions","survey-likert","414","1416316","0.0-6.0-2.58","2998860","co37801","norming","","","{""curiosity"":6,""confidence"":0}","[0,1]","../img/tt/567tt.jpg","",""
"1173.8100000000559","","","recognition","survey-text","415","1417492","0.0-6.0-3.58","2998860","co37801","norming","","","{""guess"":""""}","","../img/tt/567tt.jpg","",""
"null","../img/gs/567gs.jpg","null","reveal","image-keyboard-response","416","1419498","0.0-6.0-4.58","2998860","co37801","norming","","","","","","",""
"null","../img/tt/567tt.jpg","null","mooney2","image-keyboard-response","417","1421499","0.0-6.0-5.58","2998860","co37801","norming","","","","","","",""
"2429.980000000214","","","post_reveal_questions","survey-likert","418","1423932","0.0-6.0-6.58","2998860","co37801","norming","","","{""aha"":6}","[0]","../img/tt/567tt.jpg","",""
"null","<div style=""font-size:60px;""> </div>","null","fixation","html-keyboard-response","419","1424133","0.0-6.0-0.59","2998860","co37801","norming","","","","","","",""
"null","../img/tt/1143tt.jpg","null","mooney1","image-keyboard-response","420","1427134","0.0-6.0-1.59","2998860","co37801","norming","","","","","","",""
"3729.659999999916","","","post_mooney1_questions","survey-likert","421","1430868","0.0-6.0-2.59","2998860","co37801","norming","","","{""curiosity"":1,""confidence"":6}","[0,1]","../img/tt/1143tt.jpg","",""
"6318.089999999851","","","recognition","survey-text","422","1437188","0.0-6.0-3.59","2998860","co37801","norming","","","{""guess"":""fitness""}","","../img/tt/1143tt.jpg","",""
"null","../img/gs/1143gs.jpg","null","reveal","image-keyboard-response","423","1439189","0.0-6.0-4.59","2998860","co37801","norming","","","","","","",""
"null","../img/tt/1143tt.jpg","null","mooney2","image-keyboard-response","424","1441197","0.0-6.0-5.59","2998860","co37801","norming","","","","","","",""
"2692.070000000065","","","post_reveal_questions","survey-likert","425","1443892","0.0-6.0-6.59","2998860","co37801","norming","","","{""aha"":6}","[0]","../img/tt/1143tt.jpg","",""
"null","<div style=""font-size:60px;""> </div>","null","fixation","html-keyboard-response","426","1444093","0.0-6.0-0.60","2998860","co37801","norming","","","","","","",""
"null","../img/tt/1243tt.jpg","null","mooney1","image-keyboard-response","427","1447097","0.0-6.0-1.60","2998860","co37801","norming","","","","","","",""
"3856.2399999999907","","","post_mooney1_questions","survey-likert","428","1450958","0.0-6.0-2.60","2998860","co37801","norming","","","{""curiosity"":0,""confidence"":6}","[0,1]","../img/tt/1243tt.jpg","",""
"2534.1049999997485","","","recognition","survey-text","429","1453494","0.0-6.0-3.60","2998860","co37801","norming","","","{""guess"":""herder""}","","../img/tt/1243tt.jpg","",""
"null","../img/gs/1243gs.jpg","null","reveal","image-keyboard-response","430","1455503","0.0-6.0-4.60","2998860","co37801","norming","","","","","","",""
"null","../img/tt/1243tt.jpg","null","mooney2","image-keyboard-response","431","1457505","0.0-6.0-5.60","2998860","co37801","norming","","","","","","",""
"2418.144999999786","","","post_reveal_questions","survey-likert","432","1459926","0.0-6.0-6.60","2998860","co37801","norming","","","{""aha"":1}","[0]","../img/tt/1243tt.jpg","",""
"null","<div style=""font-size:60px;""> </div>","null","fixation","html-keyboard-response","433","1460128","0.0-6.0-0.61","2998860","co37801","norming","","","","","","",""
"null","../img/tt/456tt.jpg","null","mooney1","image-keyboard-response","434","1463132","0.0-6.0-1.61","2998860","co37801","norming","","","","","","",""
"5933.929999999935","","","post_mooney1_questions","survey-likert","435","1469070","0.0-6.0-2.61","2998860","co37801","norming","","","{""curiosity"":6,""confidence"":1}","[0,1]","../img/tt/456tt.jpg","",""
"2957.969999999972","","","recognition","survey-text","436","1472030","0.0-6.0-3.61","2998860","co37801","norming","","","{""guess"":""snuit""}","","../img/tt/456tt.jpg","",""
"null","../img/gs/456gs.jpg","null","reveal","image-keyboard-response","437","1474033","0.0-6.0-4.61","2998860","co37801","norming","","","","","","",""
"null","../img/tt/456tt.jpg","null","mooney2","image-keyboard-response","438","1476040","0.0-6.0-5.61","2998860","co37801","norming","","","","","","",""
"2268.784999999916","","","post_reveal_questions","survey-likert","439","1478310","0.0-6.0-6.61","2998860","co37801","norming","","","{""aha"":0}","[0]","../img/tt/456tt.jpg","",""
"null","<div style=""font-size:60px;""> </div>","null","fixation","html-keyboard-response","440","1478512","0.0-6.0-0.62","2998860","co37801","norming","","","","","","",""
"null","../img/tt/1255tt.jpg","null","mooney1","image-keyboard-response","441","1481520","0.0-6.0-1.62","2998860","co37801","norming","","","","","","",""
"4042.6999999999534","","","post_mooney1_questions","survey-likert","442","1485566","0.0-6.0-2.62","2998860","co37801","norming","","","{""curiosity"":6,""confidence"":0}","[0,1]","../img/tt/1255tt.jpg","",""
"1126.3149999999441","","","recognition","survey-text","443","1486694","0.0-6.0-3.62","2998860","co37801","norming","","","{""guess"":""""}","","../img/tt/1255tt.jpg","",""
"null","../img/gs/1255gs.jpg","null","reveal","image-keyboard-response","444","1488697","0.0-6.0-4.62","2998860","co37801","norming","","","","","","",""
"null","../img/tt/1255tt.jpg","null","mooney2","image-keyboard-response","445","1490705","0.0-6.0-5.62","2998860","co37801","norming","","","","","","",""
"2066.2349999998696","","","post_reveal_questions","survey-likert","446","1492774","0.0-6.0-6.62","2998860","co37801","norming","","","{""aha"":5}","[0]","../img/tt/1255tt.jpg","",""
"null","<div style=""font-size:60px;""> </div>","null","fixation","html-keyboard-response","447","1492975","0.0-6.0-0.63","2998860","co37801","norming","","","","","","",""
"null","../img/tt/1235tt.jpg","null","mooney1","image-keyboard-response","448","1495978","0.0-6.0-1.63","2998860","co37801","norming","","","","","","",""
"5064.944999999832","","","post_mooney1_questions","survey-likert","449","1501046","0.0-6.0-2.63","2998860","co37801","norming","","","{""curiosity"":4,""confidence"":3}","[0,1]","../img/tt/1235tt.jpg","",""
"9670.125000000233","","","recognition","survey-text","450","1510723","0.0-6.0-3.63","2998860","co37801","norming","","","{""guess"":""konijn""}","","../img/tt/1235tt.jpg","",""
"null","../img/gs/1235gs.jpg","null","reveal","image-keyboard-response","451","1512725","0.0-6.0-4.63","2998860","co37801","norming","","","","","","",""
"null","../img/tt/1235tt.jpg","null","mooney2","image-keyboard-response","452","1514735","0.0-6.0-5.63","2998860","co37801","norming","","","","","","",""
"2490.4799999999814","","","post_reveal_questions","survey-likert","453","1517227","0.0-6.0-6.63","2998860","co37801","norming","","","{""aha"":4}","[0]","../img/tt/1235tt.jpg","",""
"null","<div style=""font-size:60px;""> </div>","null","fixation","html-keyboard-response","454","1517428","0.0-6.0-0.64","2998860","co37801","norming","","","","","","",""
"null","../img/tt/008tt.jpg","null","mooney1","image-keyboard-response","455","1520433","0.0-6.0-1.64","2998860","co37801","norming","","","","","","",""
"4775.070000000065","","","post_mooney1_questions","survey-likert","456","1525211","0.0-6.0-2.64","2998860","co37801","norming","","","{""curiosity"":4,""confidence"":5}","[0,1]","../img/tt/008tt.jpg","",""
"2237.9899999999907","","","recognition","survey-text","457","1527451","0.0-6.0-3.64","2998860","co37801","norming","","","{""guess"":""tent""}","","../img/tt/008tt.jpg","",""
"null","../img/gs/008gs.jpg","null","reveal","image-keyboard-response","458","1529459","0.0-6.0-4.64","2998860","co37801","norming","","","","","","",""
"null","../img/tt/008tt.jpg","null","mooney2","image-keyboard-response","459","1531463","0.0-6.0-5.64","2998860","co37801","norming","","","","","","",""
"1505.3299999998417","","","post_reveal_questions","survey-likert","460","1532971","0.0-6.0-6.64","2998860","co37801","norming","","","{""aha"":2}","[0]","../img/tt/008tt.jpg","",""
"null","<div style=""font-size:60px;""> </div>","null","fixation","html-keyboard-response","461","1533172","0.0-6.0-0.65","2998860","co37801","norming","","","","","","",""
"null","../img/tt/094tt.jpg","null","mooney1","image-keyboard-response","462","1536179","0.0-6.0-1.65","2998860","co37801","norming","","","","","","",""
"4318.894999999786","","","post_mooney1_questions","survey-likert","463","1540499","0.0-6.0-2.65","2998860","co37801","norming","","","{""curiosity"":6,""confidence"":2}","[0,1]","../img/tt/094tt.jpg","",""
"2501.8499999998603","","","recognition","survey-text","464","1543003","0.0-6.0-3.65","2998860","co37801","norming","","","{""guess"":""koe""}","","../img/tt/094tt.jpg","",""
"null","../img/gs/094gs.jpg","null","reveal","image-keyboard-response","465","1545004","0.0-6.0-4.65","2998860","co37801","norming","","","","","","",""
"null","../img/tt/094tt.jpg","null","mooney2","image-keyboard-response","466","1547016","0.0-6.0-5.65","2998860","co37801","norming","","","","","","",""
"2728.4950000001118","","","post_reveal_questions","survey-likert","467","1549747","0.0-6.0-6.65","2998860","co37801","norming","","","{""aha"":3}","[0]","../img/tt/094tt.jpg","",""
"null","<div style=""font-size:60px;""> </div>","null","fixation","html-keyboard-response","468","1549949","0.0-6.0-0.66","2998860","co37801","norming","","","","","","",""
"null","../img/tt/416tt.jpg","null","mooney1","image-keyboard-response","469","1552957","0.0-6.0-1.66","2998860","co37801","norming","","","","","","",""
"4834.565000000177","","","post_mooney1_questions","survey-likert","470","1557795","0.0-6.0-2.66","2998860","co37801","norming","","","{""curiosity"":4,""confidence"":3}","[0,1]","../img/tt/416tt.jpg","",""
"2237.66500000027","","","recognition","survey-text","471","1560035","0.0-6.0-3.66","2998860","co37801","norming","","","{""guess"":""bos""}","","../img/tt/416tt.jpg","",""
"null","../img/gs/416gs.jpg","null","reveal","image-keyboard-response","472","1562046","0.0-6.0-4.66","2998860","co37801","norming","","","","","","",""
"null","../img/tt/416tt.jpg","null","mooney2","image-keyboard-response","473","1564050","0.0-6.0-5.66","2998860","co37801","norming","","","","","","",""
"4976.564999999944","","","post_reveal_questions","survey-likert","474","1569027","0.0-6.0-6.66","2998860","co37801","norming","","","{""aha"":5}","[0]","../img/tt/416tt.jpg","",""
"null","<div style=""font-size:60px;""> </div>","null","fixation","html-keyboard-response","475","1569234","0.0-6.0-0.67","2998860","co37801","norming","","","","","","",""
"null","../img/tt/507tt.jpg","null","mooney1","image-keyboard-response","476","1572245","0.0-6.0-1.67","2998860","co37801","norming","","","","","","",""
"11314.800000000047","","","post_mooney1_questions","survey-likert","477","1583563","0.0-6.0-2.67","2998860","co37801","norming","","","{""curiosity"":4,""confidence"":0}","[0,1]","../img/tt/507tt.jpg","",""
"14294.064999999944","","","recognition","survey-text","478","1597859","0.0-6.0-3.67","2998860","co37801","norming","","","{""guess"":""loper""}","","../img/tt/507tt.jpg","",""
"null","../img/gs/507gs.jpg","null","reveal","image-keyboard-response","479","1599868","0.0-6.0-4.67","2998860","co37801","norming","","","","","","",""
"null","../img/tt/507tt.jpg","null","mooney2","image-keyboard-response","480","1601870","0.0-6.0-5.67","2998860","co37801","norming","","","","","","",""
"3570.2199999997392","","","post_reveal_questions","survey-likert","481","1605443","0.0-6.0-6.67","2998860","co37801","norming","","","{""aha"":0}","[0]","../img/tt/507tt.jpg","",""
"null","<div style=""font-size:60px;""> </div>","null","fixation","html-keyboard-response","482","1605645","0.0-6.0-0.68","2998860","co37801","norming","","","","","","",""
"null","../img/tt/1123tt.jpg","null","mooney1","image-keyboard-response","483","1608656","0.0-6.0-1.68","2998860","co37801","norming","","","","","","",""
"4015.8299999998417","","","post_mooney1_questions","survey-likert","484","1612675","0.0-6.0-2.68","2998860","co37801","norming","","","{""curiosity"":0,""confidence"":6}","[0,1]","../img/tt/1123tt.jpg","",""
"4382.020000000019","","","recognition","survey-text","485","1617059","0.0-6.0-3.68","2998860","co37801","norming","","","{""guess"":""basketballer""}","","../img/tt/1123tt.jpg","",""
"null","../img/gs/1123gs.jpg","null","reveal","image-keyboard-response","486","1619065","0.0-6.0-4.68","2998860","co37801","norming","","","","","","",""
"null","../img/tt/1123tt.jpg","null","mooney2","image-keyboard-response","487","1621067","0.0-6.0-5.68","2998860","co37801","norming","","","","","","",""
"2205.3850000000093","","","post_reveal_questions","survey-likert","488","1623275","0.0-6.0-6.68","2998860","co37801","norming","","","{""aha"":4}","[0]","../img/tt/1123tt.jpg","",""
"null","<div style=""font-size:60px;""> </div>","null","fixation","html-keyboard-response","489","1623477","0.0-6.0-0.69","2998860","co37801","norming","","","","","","",""
"null","../img/tt/222tt.jpg","null","mooney1","image-keyboard-response","490","1626483","0.0-6.0-1.69","2998860","co37801","norming","","","","","","",""
"3500.155000000028","","","post_mooney1_questions","survey-likert","491","1629987","0.0-6.0-2.69","2998860","co37801","norming","","","{""curiosity"":5,""confidence"":4}","[0,1]","../img/tt/222tt.jpg","",""
"3998.094999999972","","","recognition","survey-text","492","1633986","0.0-6.0-3.69","2998860","co37801","norming","","","{""guess"":""theeset""}","","../img/tt/222tt.jpg","",""
"null","../img/gs/222gs.jpg","null","reveal","image-keyboard-response","493","1635989","0.0-6.0-4.69","2998860","co37801","norming","","","","","","",""
"null","../img/tt/222tt.jpg","null","mooney2","image-keyboard-response","494","1638000","0.0-6.0-5.69","2998860","co37801","norming","","","","","","",""
"1536.4799999999814","","","post_reveal_questions","survey-likert","495","1639539","0.0-6.0-6.69","2998860","co37801","norming","","","{""aha"":0}","[0]","../img/tt/222tt.jpg","",""
"null","<div style=""font-size:60px;""> </div>","null","fixation","html-keyboard-response","496","1639744","0.0-6.0-0.70","2998860","co37801","norming","","","","","","",""
"null","../img/tt/111tt.jpg","null","mooney1","image-keyboard-response","497","1642749","0.0-6.0-1.70","2998860","co37801","norming","","","","","","",""
"5594.975000000326","","","post_mooney1_questions","survey-likert","498","1648347","0.0-6.0-2.70","2998860","co37801","norming","","","{""curiosity"":6,""confidence"":1}","[0,1]","../img/tt/111tt.jpg","",""
"4181.924999999814","","","recognition","survey-text","499","1652531","0.0-6.0-3.70","2998860","co37801","norming","","","{""guess"":""druiven""}","","../img/tt/111tt.jpg","",""
"null","../img/gs/111gs.jpg","null","reveal","image-keyboard-response","500","1654532","0.0-6.0-4.70","2998860","co37801","norming","","","","","","",""
"null","../img/tt/111tt.jpg","null","mooney2","image-keyboard-response","501","1656535","0.0-6.0-5.70","2998860","co37801","norming","","","","","","",""
"1848.5200000000186","","","post_reveal_questions","survey-likert","502","1658387","0.0-6.0-6.70","2998860","co37801","norming","","","{""aha"":5}","[0]","../img/tt/111tt.jpg","",""
"null","<div style=""font-size:60px;""> </div>","null","fixation","html-keyboard-response","503","1658588","0.0-6.0-0.71","2998860","co37801","norming","","","","","","",""
"null","../img/tt/378tt.jpg","null","mooney1","image-keyboard-response","504","1661591","0.0-6.0-1.71","2998860","co37801","norming","","","","","","",""
"4760.024999999907","","","post_mooney1_questions","survey-likert","505","1666355","0.0-6.0-2.71","2998860","co37801","norming","","","{""curiosity"":5,""confidence"":3}","[0,1]","../img/tt/378tt.jpg","",""
"2806.054999999935","","","recognition","survey-text","506","1669163","0.0-6.0-3.71","2998860","co37801","norming","","","{""guess"":""vrouw""}","","../img/tt/378tt.jpg","",""
"null","../img/gs/378gs.jpg","null","reveal","image-keyboard-response","507","1671172","0.0-6.0-4.71","2998860","co37801","norming","","","","","","",""
"null","../img/tt/378tt.jpg","null","mooney2","image-keyboard-response","508","1673182","0.0-6.0-5.71","2998860","co37801","norming","","","","","","",""
"2913.5800000000745","","","post_reveal_questions","survey-likert","509","1676098","0.0-6.0-6.71","2998860","co37801","norming","","","{""aha"":4}","[0]","../img/tt/378tt.jpg","",""
"null","<div style=""font-size:60px;""> </div>","null","fixation","html-keyboard-response","510","1676301","0.0-6.0-0.72","2998860","co37801","norming","","","","","","",""
"null","../img/tt/081tt.jpg","null","mooney1","image-keyboard-response","511","1679309","0.0-6.0-1.72","2998860","co37801","norming","","","","","","",""
"17162.319999999832","","","post_mooney1_questions","survey-likert","512","1696475","0.0-6.0-2.72","2998860","co37801","norming","","","{""curiosity"":6,""confidence"":1}","[0,1]","../img/tt/081tt.jpg","",""
"11653.880000000121","","","recognition","survey-text","513","1708130","0.0-6.0-3.72","2998860","co37801","norming","","","{""guess"":""vos""}","","../img/tt/081tt.jpg","",""
"null","../img/gs/081gs.jpg","null","reveal","image-keyboard-response","514","1710137","0.0-6.0-4.72","2998860","co37801","norming","","","","","","",""
"null","../img/tt/081tt.jpg","null","mooney2","image-keyboard-response","515","1712145","0.0-6.0-5.72","2998860","co37801","norming","","","","","","",""
"3744.445000000065","","","post_reveal_questions","survey-likert","516","1715891","0.0-6.0-6.72","2998860","co37801","norming","","","{""aha"":2}","[0]","../img/tt/081tt.jpg","",""
"null","<div style=""font-size:60px;""> </div>","null","fixation","html-keyboard-response","517","1716092","0.0-6.0-0.73","2998860","co37801","norming","","","","","","",""
"null","../img/tt/319tt.jpg","null","mooney1","image-keyboard-response","518","1719095","0.0-6.0-1.73","2998860","co37801","norming","","","","","","",""
"5264.040000000037","","","post_mooney1_questions","survey-likert","519","1724363","0.0-6.0-2.73","2998860","co37801","norming","","","{""curiosity"":6,""confidence"":0}","[0,1]","../img/tt/319tt.jpg","",""
"1150.0849999999627","","","recognition","survey-text","520","1725514","0.0-6.0-3.73","2998860","co37801","norming","","","{""guess"":""""}","","../img/tt/319tt.jpg","",""
"null","../img/gs/319gs.jpg","null","reveal","image-keyboard-response","521","1727519","0.0-6.0-4.73","2998860","co37801","norming","","","","","","",""
"null","../img/tt/319tt.jpg","null","mooney2","image-keyboard-response","522","1729521","0.0-6.0-5.73","2998860","co37801","norming","","","","","","",""
"2996.195000000065","","","post_reveal_questions","survey-likert","523","1732523","0.0-6.0-6.73","2998860","co37801","norming","","","{""aha"":5}","[0]","../img/tt/319tt.jpg","",""
"null","<div style=""font-size:60px;""> </div>","null","fixation","html-keyboard-response","524","1732730","0.0-6.0-0.74","2998860","co37801","norming","","","","","","",""
"null","../img/tt/1217tt.jpg","null","mooney1","image-keyboard-response","525","1735739","0.0-6.0-1.74","2998860","co37801","norming","","","","","","",""
"4252.534999999916","","","post_mooney1_questions","survey-likert","526","1739996","0.0-6.0-2.74","2998860","co37801","norming","","","{""curiosity"":4,""confidence"":4}","[0,1]","../img/tt/1217tt.jpg","",""
"4220.374999999767","","","recognition","survey-text","527","1744218","0.0-6.0-3.74","2998860","co37801","norming","","","{""guess"":""voetballers""}","","../img/tt/1217tt.jpg","",""
"null","../img/gs/1217gs.jpg","null","reveal","image-keyboard-response","528","1746223","0.0-6.0-4.74","2998860","co37801","norming","","","","","","",""
"null","../img/tt/1217tt.jpg","null","mooney2","image-keyboard-response","529","1748225","0.0-6.0-5.74","2998860","co37801","norming","","","","","","",""
"1950.094999999972","","","post_reveal_questions","survey-likert","530","1750178","0.0-6.0-6.74","2998860","co37801","norming","","","{""aha"":6}","[0]","../img/tt/1217tt.jpg","",""
"null","<div style=""font-size:60px;""> </div>","null","fixation","html-keyboard-response","531","1750386","0.0-6.0-0.75","2998860","co37801","norming","","","","","","",""
"null","../img/tt/534tt.jpg","null","mooney1","image-keyboard-response","532","1753392","0.0-6.0-1.75","2998860","co37801","norming","","","","","","",""
"5023.479999999981","","","post_mooney1_questions","survey-likert","533","1758415","0.0-6.0-2.75","2998860","co37801","norming","","","{""curiosity"":4,""confidence"":2}","[0,1]","../img/tt/534tt.jpg","",""
"3277.904999999795","","","recognition","survey-text","534","1761695","0.0-6.0-3.75","2998860","co37801","norming","","","{""guess"":""vetplanten""}","","../img/tt/534tt.jpg","",""
"null","../img/gs/534gs.jpg","null","reveal","image-keyboard-response","535","1763696","0.0-6.0-4.75","2998860","co37801","norming","","","","","","",""
"null","../img/tt/534tt.jpg","null","mooney2","image-keyboard-response","536","1765698","0.0-6.0-5.75","2998860","co37801","norming","","","","","","",""
"3129.625","","","post_reveal_questions","survey-likert","537","1768830","0.0-6.0-6.75","2998860","co37801","norming","","","{""aha"":6}","[0]","../img/tt/534tt.jpg","",""
"null","<div style=""font-size:60px;""> </div>","null","fixation","html-keyboard-response","538","1769032","0.0-6.0-0.76","2998860","co37801","norming","","","","","","",""
"null","../img/tt/599tt.jpg","null","mooney1","image-keyboard-response","539","1772036","0.0-6.0-1.76","2998860","co37801","norming","","","","","","",""
"3846.619999999646","","","post_mooney1_questions","survey-likert","540","1775887","0.0-6.0-2.76","2998860","co37801","norming","","","{""curiosity"":6,""confidence"":3}","[0,1]","../img/tt/599tt.jpg","",""
"4269.945000000065","","","recognition","survey-text","541","1780158","0.0-6.0-3.76","2998860","co37801","norming","","","{""guess"":""aardbeien""}","","../img/tt/599tt.jpg","",""
"null","../img/gs/599gs.jpg","null","reveal","image-keyboard-response","542","1782163","0.0-6.0-4.76","2998860","co37801","norming","","","","","","",""
"null","../img/tt/599tt.jpg","null","mooney2","image-keyboard-response","543","1784174","0.0-6.0-5.76","2998860","co37801","norming","","","","","","",""
"2599.810000000056","","","post_reveal_questions","survey-likert","544","1786775","0.0-6.0-6.76","2998860","co37801","norming","","","{""aha"":5}","[0]","../img/tt/599tt.jpg","",""
"null","<div style=""font-size:60px;""> </div>","null","fixation","html-keyboard-response","545","1786982","0.0-6.0-0.77","2998860","co37801","norming","","","","","","",""
"null","../img/tt/126tt.jpg","null","mooney1","image-keyboard-response","546","1789994","0.0-6.0-1.77","2998860","co37801","norming","","","","","","",""
"5944.925000000047","","","post_mooney1_questions","survey-likert","547","1795943","0.0-6.0-2.77","2998860","co37801","norming","","","{""curiosity"":6,""confidence"":0}","[0,1]","../img/tt/126tt.jpg","",""
"461.80999999982305","","","recognition","survey-text","548","1796406","0.0-6.0-3.77","2998860","co37801","norming","","","{""guess"":""""}","","../img/tt/126tt.jpg","",""
"null","../img/gs/126gs.jpg","null","reveal","image-keyboard-response","549","1798409","0.0-6.0-4.77","2998860","co37801","norming","","","","","","",""
"null","../img/tt/126tt.jpg","null","mooney2","image-keyboard-response","550","1800411","0.0-6.0-5.77","2998860","co37801","norming","","","","","","",""
"2024.880000000121","","","post_reveal_questions","survey-likert","551","1802439","0.0-6.0-6.77","2998860","co37801","norming","","","{""aha"":1}","[0]","../img/tt/126tt.jpg","",""
"null","<div style=""font-size:60px;""> </div>","null","fixation","html-keyboard-response","552","1802641","0.0-6.0-0.78","2998860","co37801","norming","","","","","","",""
