"rt","stimulus","key_press","test_part","trial_type","trial_index","time_elapsed","internal_node_id","totalTime","subject","experiment_name","button_pressed","success","responses","question_order","currentStim","old","correct"
"5226.705000000038","Welcome to the experiment. This is an online experiment so please don't close the tab/window until we say goodbye.  Press any key to begin.","75","instructions","html-keyboard-response","0","5240","0.0-0.0","2175204","co37987","norming","","","","","","",""
"24606.925000000047","<div style='word-wrap: break-word; width: 900px'><h3>Please consider this information carefully before deciding whether to participate in this research</h3><ul style='text-align: left; font-size: .8em;'><li><b>Purpose of the research</b>: To examine how people process images.</li><li><b>What you will do in this research</b>:  Stimuli (images) will be presented on the computer and you will be asked different questions about them.</li><li><b>Time required</b>: Participation will take between 45 and 60 minutes to complete.</li><li><b>Risks</b>:  There are no anticipated risks associated with participating in this study. The effects of participating should be comparable to those you would experience from viewing a computer monitor for 30 minutes and using a mouse or keyboard.</li><li><b>Benefits</b>:  This study provides no benefits to you individually except for the credit. The study provides important information about the nature of perception and learning.</li><li><b>Confidentiality</b>:  Your participation in this study will remain confidential. No personally identifiable information will be associated with your data. Your de-identified data may be shared with other researchers and used in future projects.</li><li><b>Participation and withdrawal</b>:  Your participation in this study is completely voluntary and you may refuse to participate or you may choose to withdraw at any time without penalty.</li><li><b>How to contact the researchers</b>: If you have questions or concerns about your participation or payment, or want to request a summary of research findings, please contact Sander Van de Cruys (KU Leuven), at sander.vandecruys@kuleuven.be.</li></ul><p>The nature and purpose of this research have been sufficiently explained and I agree to participate in this study.  I understand that I am free to withdraw at any time without incurring any penalty.</p><p>Please consent by clicking the button below to continue. Otherwise, please exit the study at this time.</p></div>","","instructions","html-button-response","1","29848","0.0-1.0","2175204","co37987","norming","0","","","","","",""
"","","","instructions","fullscreen","2","34633","0.0-2.0","2175204","co37987","norming","","true","","","","",""
"26396.18999999993","","","sona","survey-html-form","3","61034","0.0-3.0","2175204","co37987","norming","","","[{""name"":""sonaid"",""value"":""37987""},{""name"":""debrief"",""value"":""yes""},{""name"":""datajoin"",""value"":""yes""}]","","","",""
"53615.389999999934","<div style='word-wrap: break-word; width: 900px'><h3>Instructions</h3><p>This experiment will have 3 parts. In the first part you will see a series of distorted images like the one below on the left. As you can see in the righthand image, the distorted images are derived from actual photographs. In what follows, you will <strong>briefly</strong> be presented with <strong>only</strong> the distorted image.</p> <div style='float: left; margin-right: 20px;'><img src='../img/018tt.jpg' height='250' width='250'></img></div><div style='float: right; margin-left: 20px;'><img src='../img/018gs.jpg' height='250' width='250'></img></div><p>Subsequently you will be asked a few questions about the image: One question on how <strong>curious</strong> you are about the solution and one on how <strong>confident</strong> you are that you know the solution.</p>Next, we ask you to make a guess on what is in the image. Note that it is OK to name just the <strong>basic level category</strong>. For example when you see a parrot in the image, 'parrot' will obviously be a correct answer but also correct is 'bird'. However, 'animal' will <strong>not</strong> be counted as a correct response. For the example above, 'rose' would be correct or 'flower', but not 'plant'. When soccer players are depicted, 'soccer', 'football', 'soccer players' will be correct, but not 'humans', 'outdoors', or 'sports'. You do not need to describe the image in full, just name the main object in it <strong>in one or two words</strong>. All images depict objects from one of the following broad level categories: animals, inanimate objects, plants, sports, vehicles, and food. Recognizing means knowing <strong>more</strong> than these broad labels for a given image. But we always encourage you to <strong>make a guess</strong> if you can. Note that you are allowed to use <strong>Dutch and English</strong> in your answers, whatever comes easiest for you.</p><p>Press any key to continue.</p></div>","73","instructions","html-keyboard-response","4","114651","0.0-4.0","2175204","co37987","norming","","","","","","",""
"23485.22000000003","<div style='word-wrap: break-word; width: 900px'><h3>Instructions</h3> <p>Next, the solution image will be revealed to you and you'll be asked to indicate how strong your <strong>aha-experience</strong> was after seeing the solution. This describes the positive feeling of the 'click' you sometimes experience, when the pieces of the 'puzzle' fall together and you suddenly have 'insight' in the image.</p><img src='aha.jpg' height='188' width='250'></img><p>Note that there are no right or wrong answers. We are interested in what <strong>you</strong> see in the image and how <strong>you</strong> feel about it.</p><p>Press any key to start the experiment.</p></div>","73","instructions","html-keyboard-response","5","138145","0.0-5.0","2175204","co37987","norming","","","","","","",""
"null","<div style=""font-size:60px;""> </div>","null","fixation","html-keyboard-response","6","138347","0.0-6.0-0.0","2175204","co37987","norming","","","","","","",""
"null","../img/tt/1362tt.jpg","null","mooney1","image-keyboard-response","7","141355","0.0-6.0-1.0","2175204","co37987","norming","","","","","","",""
"6394.940000000148","","","post_mooney1_questions","survey-likert","8","147754","0.0-6.0-2.0","2175204","co37987","norming","","","{""curiosity"":5,""confidence"":1}","[0,1]","../img/tt/1362tt.jpg","",""
"7845.839999999938","","","recognition","survey-text","9","155602","0.0-6.0-3.0","2175204","co37987","norming","","","{""guess"":""instrument""}","","../img/tt/1362tt.jpg","",""
"null","../img/gs/1362gs.jpg","null","reveal","image-keyboard-response","10","157609","0.0-6.0-4.0","2175204","co37987","norming","","","","","","",""
"null","../img/tt/1362tt.jpg","null","mooney2","image-keyboard-response","11","159613","0.0-6.0-5.0","2175204","co37987","norming","","","","","","",""
"3921.924999999872","","","post_reveal_questions","survey-likert","12","163537","0.0-6.0-6.0","2175204","co37987","norming","","","{""aha"":5}","[0]","../img/tt/1362tt.jpg","",""
"null","<div style=""font-size:60px;""> </div>","null","fixation","html-keyboard-response","13","163739","0.0-6.0-0.1","2175204","co37987","norming","","","","","","",""
"null","../img/tt/598tt.jpg","null","mooney1","image-keyboard-response","14","166741","0.0-6.0-1.1","2175204","co37987","norming","","","","","","",""
"4649.855000000098","","","post_mooney1_questions","survey-likert","15","171394","0.0-6.0-2.1","2175204","co37987","norming","","","{""curiosity"":5,""confidence"":2}","[0,1]","../img/tt/598tt.jpg","",""
"3317.9800000000396","","","recognition","survey-text","16","174713","0.0-6.0-3.1","2175204","co37987","norming","","","{""guess"":""kledij""}","","../img/tt/598tt.jpg","",""
"null","../img/gs/598gs.jpg","null","reveal","image-keyboard-response","17","176724","0.0-6.0-4.1","2175204","co37987","norming","","","","","","",""
"null","../img/tt/598tt.jpg","null","mooney2","image-keyboard-response","18","178733","0.0-6.0-5.1","2175204","co37987","norming","","","","","","",""
"3962.3349999999336","","","post_reveal_questions","survey-likert","19","182697","0.0-6.0-6.1","2175204","co37987","norming","","","{""aha"":5}","[0]","../img/tt/598tt.jpg","",""
"null","<div style=""font-size:60px;""> </div>","null","fixation","html-keyboard-response","20","182903","0.0-6.0-0.2","2175204","co37987","norming","","","","","","",""
"null","../img/tt/079tt.jpg","null","mooney1","image-keyboard-response","21","185910","0.0-6.0-1.2","2175204","co37987","norming","","","","","","",""
"4153.379999999976","","","post_mooney1_questions","survey-likert","22","190065","0.0-6.0-2.2","2175204","co37987","norming","","","{""curiosity"":4,""confidence"":3}","[0,1]","../img/tt/079tt.jpg","",""
"6606.129999999888","","","recognition","survey-text","23","196673","0.0-6.0-3.2","2175204","co37987","norming","","","{""guess"":""dier""}","","../img/tt/079tt.jpg","",""
"null","../img/gs/079gs.jpg","null","reveal","image-keyboard-response","24","198680","0.0-6.0-4.2","2175204","co37987","norming","","","","","","",""
"null","../img/tt/079tt.jpg","null","mooney2","image-keyboard-response","25","200682","0.0-6.0-5.2","2175204","co37987","norming","","","","","","",""
"2101.619999999908","","","post_reveal_questions","survey-likert","26","202797","0.0-6.0-6.2","2175204","co37987","norming","","","{""aha"":1}","[0]","../img/tt/079tt.jpg","",""
"null","<div style=""font-size:60px;""> </div>","null","fixation","html-keyboard-response","27","202999","0.0-6.0-0.3","2175204","co37987","norming","","","","","","",""
"null","../img/tt/405tt.jpg","null","mooney1","image-keyboard-response","28","206009","0.0-6.0-1.3","2175204","co37987","norming","","","","","","",""
"3522.2699999999313","","","post_mooney1_questions","survey-likert","29","209533","0.0-6.0-2.3","2175204","co37987","norming","","","{""curiosity"":5,""confidence"":2}","[0,1]","../img/tt/405tt.jpg","",""
"3101.865000000078","","","recognition","survey-text","30","212637","0.0-6.0-3.3","2175204","co37987","norming","","","{""guess"":""hond""}","","../img/tt/405tt.jpg","",""
"null","../img/gs/405gs.jpg","null","reveal","image-keyboard-response","31","214639","0.0-6.0-4.3","2175204","co37987","norming","","","","","","",""
"null","../img/tt/405tt.jpg","null","mooney2","image-keyboard-response","32","216647","0.0-6.0-5.3","2175204","co37987","norming","","","","","","",""
"1691.6699999999255","","","post_reveal_questions","survey-likert","33","218341","0.0-6.0-6.3","2175204","co37987","norming","","","{""aha"":4}","[0]","../img/tt/405tt.jpg","",""
"null","<div style=""font-size:60px;""> </div>","null","fixation","html-keyboard-response","34","218544","0.0-6.0-0.4","2175204","co37987","norming","","","","","","",""
"null","../img/tt/1247tt.jpg","null","mooney1","image-keyboard-response","35","221547","0.0-6.0-1.4","2175204","co37987","norming","","","","","","",""
"4295.495000000054","","","post_mooney1_questions","survey-likert","36","225845","0.0-6.0-2.4","2175204","co37987","norming","","","{""curiosity"":4,""confidence"":2}","[0,1]","../img/tt/1247tt.jpg","",""
"2886.2200000000885","","","recognition","survey-text","37","228733","0.0-6.0-3.4","2175204","co37987","norming","","","{""guess"":""hond""}","","../img/tt/1247tt.jpg","",""
"null","../img/gs/1247gs.jpg","null","reveal","image-keyboard-response","38","230735","0.0-6.0-4.4","2175204","co37987","norming","","","","","","",""
"null","../img/tt/1247tt.jpg","null","mooney2","image-keyboard-response","39","232746","0.0-6.0-5.4","2175204","co37987","norming","","","","","","",""
"1969.1149999998743","","","post_reveal_questions","survey-likert","40","234717","0.0-6.0-6.4","2175204","co37987","norming","","","{""aha"":4}","[0]","../img/tt/1247tt.jpg","",""
"null","<div style=""font-size:60px;""> </div>","null","fixation","html-keyboard-response","41","234920","0.0-6.0-0.5","2175204","co37987","norming","","","","","","",""
"null","../img/tt/140tt.jpg","null","mooney1","image-keyboard-response","42","237922","0.0-6.0-1.5","2175204","co37987","norming","","","","","","",""
"5737.145000000048","","","post_mooney1_questions","survey-likert","43","243661","0.0-6.0-2.5","2175204","co37987","norming","","","{""curiosity"":4,""confidence"":1}","[0,1]","../img/tt/140tt.jpg","",""
"2518.4249999999884","","","recognition","survey-text","44","246181","0.0-6.0-3.5","2175204","co37987","norming","","","{""guess"":""slak""}","","../img/tt/140tt.jpg","",""
"null","../img/gs/140gs.jpg","null","reveal","image-keyboard-response","45","248183","0.0-6.0-4.5","2175204","co37987","norming","","","","","","",""
"null","../img/tt/140tt.jpg","null","mooney2","image-keyboard-response","46","250188","0.0-6.0-5.5","2175204","co37987","norming","","","","","","",""
"2646.500000000058","","","post_reveal_questions","survey-likert","47","252837","0.0-6.0-6.5","2175204","co37987","norming","","","{""aha"":5}","[0]","../img/tt/140tt.jpg","",""
"null","<div style=""font-size:60px;""> </div>","null","fixation","html-keyboard-response","48","253039","0.0-6.0-0.6","2175204","co37987","norming","","","","","","",""
"null","../img/tt/1227tt.jpg","null","mooney1","image-keyboard-response","49","256045","0.0-6.0-1.6","2175204","co37987","norming","","","","","","",""
"4021.8150000000605","","","post_mooney1_questions","survey-likert","50","260072","0.0-6.0-2.6","2175204","co37987","norming","","","{""curiosity"":5,""confidence"":0}","[0,1]","../img/tt/1227tt.jpg","",""
"3174.1949999998033","","","recognition","survey-text","51","263248","0.0-6.0-3.6","2175204","co37987","norming","","","{""guess"":""""}","","../img/tt/1227tt.jpg","",""
"null","../img/gs/1227gs.jpg","null","reveal","image-keyboard-response","52","265254","0.0-6.0-4.6","2175204","co37987","norming","","","","","","",""
"null","../img/tt/1227tt.jpg","null","mooney2","image-keyboard-response","53","267259","0.0-6.0-5.6","2175204","co37987","norming","","","","","","",""
"2049.835000000021","","","post_reveal_questions","survey-likert","54","269311","0.0-6.0-6.6","2175204","co37987","norming","","","{""aha"":6}","[0]","../img/tt/1227tt.jpg","",""
"null","<div style=""font-size:60px;""> </div>","null","fixation","html-keyboard-response","55","269513","0.0-6.0-0.7","2175204","co37987","norming","","","","","","",""
"null","../img/tt/1066tt.jpg","null","mooney1","image-keyboard-response","56","272515","0.0-6.0-1.7","2175204","co37987","norming","","","","","","",""
"3987.710000000079","","","post_mooney1_questions","survey-likert","57","276504","0.0-6.0-2.7","2175204","co37987","norming","","","{""curiosity"":3,""confidence"":5}","[0,1]","../img/tt/1066tt.jpg","",""
"2582.2299999999814","","","recognition","survey-text","58","279087","0.0-6.0-3.7","2175204","co37987","norming","","","{""guess"":""bus""}","","../img/tt/1066tt.jpg","",""
"null","../img/gs/1066gs.jpg","null","reveal","image-keyboard-response","59","281089","0.0-6.0-4.7","2175204","co37987","norming","","","","","","",""
"null","../img/tt/1066tt.jpg","null","mooney2","image-keyboard-response","60","283095","0.0-6.0-5.7","2175204","co37987","norming","","","","","","",""
"1511.4499999999534","","","post_reveal_questions","survey-likert","61","284608","0.0-6.0-6.7","2175204","co37987","norming","","","{""aha"":0}","[0]","../img/tt/1066tt.jpg","",""
"null","<div style=""font-size:60px;""> </div>","null","fixation","html-keyboard-response","62","284810","0.0-6.0-0.8","2175204","co37987","norming","","","","","","",""
"null","../img/tt/1353tt.jpg","null","mooney1","image-keyboard-response","63","287818","0.0-6.0-1.8","2175204","co37987","norming","","","","","","",""
"4372.880000000121","","","post_mooney1_questions","survey-likert","64","292192","0.0-6.0-2.8","2175204","co37987","norming","","","{""curiosity"":5,""confidence"":1}","[0,1]","../img/tt/1353tt.jpg","",""
"557.7649999997811","","","recognition","survey-text","65","292751","0.0-6.0-3.8","2175204","co37987","norming","","","{""guess"":""""}","","../img/tt/1353tt.jpg","",""
"null","../img/gs/1353gs.jpg","null","reveal","image-keyboard-response","66","294753","0.0-6.0-4.8","2175204","co37987","norming","","","","","","",""
"null","../img/tt/1353tt.jpg","null","mooney2","image-keyboard-response","67","296754","0.0-6.0-5.8","2175204","co37987","norming","","","","","","",""
"1651.1299999999464","","","post_reveal_questions","survey-likert","68","298408","0.0-6.0-6.8","2175204","co37987","norming","","","{""aha"":5}","[0]","../img/tt/1353tt.jpg","",""
"null","<div style=""font-size:60px;""> </div>","null","fixation","html-keyboard-response","69","298610","0.0-6.0-0.9","2175204","co37987","norming","","","","","","",""
"null","../img/tt/1191tt.jpg","null","mooney1","image-keyboard-response","70","301612","0.0-6.0-1.9","2175204","co37987","norming","","","","","","",""
"3200.9050000001444","","","post_mooney1_questions","survey-likert","71","304816","0.0-6.0-2.9","2175204","co37987","norming","","","{""curiosity"":5,""confidence"":2}","[0,1]","../img/tt/1191tt.jpg","",""
"2326.245000000228","","","recognition","survey-text","72","307143","0.0-6.0-3.9","2175204","co37987","norming","","","{""guess"":""paard""}","","../img/tt/1191tt.jpg","",""
"null","../img/gs/1191gs.jpg","null","reveal","image-keyboard-response","73","309145","0.0-6.0-4.9","2175204","co37987","norming","","","","","","",""
"null","../img/tt/1191tt.jpg","null","mooney2","image-keyboard-response","74","311148","0.0-6.0-5.9","2175204","co37987","norming","","","","","","",""
"5761.979999999981","","","post_reveal_questions","survey-likert","75","316912","0.0-6.0-6.9","2175204","co37987","norming","","","{""aha"":5}","[0]","../img/tt/1191tt.jpg","",""
"null","<div style=""font-size:60px;""> </div>","null","fixation","html-keyboard-response","76","317122","0.0-6.0-0.10","2175204","co37987","norming","","","","","","",""
"null","../img/tt/118tt.jpg","null","mooney1","image-keyboard-response","77","320128","0.0-6.0-1.10","2175204","co37987","norming","","","","","","",""
"4886.385000000009","","","post_mooney1_questions","survey-likert","78","325017","0.0-6.0-2.10","2175204","co37987","norming","","","{""curiosity"":5,""confidence"":4}","[0,1]","../img/tt/118tt.jpg","",""
"2286.180000000051","","","recognition","survey-text","79","327305","0.0-6.0-3.10","2175204","co37987","norming","","","{""guess"":""trap""}","","../img/tt/118tt.jpg","",""
"null","../img/gs/118gs.jpg","null","reveal","image-keyboard-response","80","329307","0.0-6.0-4.10","2175204","co37987","norming","","","","","","",""
"null","../img/tt/118tt.jpg","null","mooney2","image-keyboard-response","81","331309","0.0-6.0-5.10","2175204","co37987","norming","","","","","","",""
"2689.75","","","post_reveal_questions","survey-likert","82","334001","0.0-6.0-6.10","2175204","co37987","norming","","","{""aha"":3}","[0]","../img/tt/118tt.jpg","",""
"null","<div style=""font-size:60px;""> </div>","null","fixation","html-keyboard-response","83","334202","0.0-6.0-0.11","2175204","co37987","norming","","","","","","",""
"null","../img/tt/567tt.jpg","null","mooney1","image-keyboard-response","84","337211","0.0-6.0-1.11","2175204","co37987","norming","","","","","","",""
"8091.744999999937","","","post_mooney1_questions","survey-likert","85","345305","0.0-6.0-2.11","2175204","co37987","norming","","","{""curiosity"":5,""confidence"":0}","[0,1]","../img/tt/567tt.jpg","",""
"581.9699999999721","","","recognition","survey-text","86","345889","0.0-6.0-3.11","2175204","co37987","norming","","","{""guess"":""""}","","../img/tt/567tt.jpg","",""
"null","../img/gs/567gs.jpg","null","reveal","image-keyboard-response","87","347897","0.0-6.0-4.11","2175204","co37987","norming","","","","","","",""
"null","../img/tt/567tt.jpg","null","mooney2","image-keyboard-response","88","349902","0.0-6.0-5.11","2175204","co37987","norming","","","","","","",""
"2800.844999999972","","","post_reveal_questions","survey-likert","89","352705","0.0-6.0-6.11","2175204","co37987","norming","","","{""aha"":5}","[0]","../img/tt/567tt.jpg","",""
"null","<div style=""font-size:60px;""> </div>","null","fixation","html-keyboard-response","90","352912","0.0-6.0-0.12","2175204","co37987","norming","","","","","","",""
"null","../img/tt/1217tt.jpg","null","mooney1","image-keyboard-response","91","355919","0.0-6.0-1.12","2175204","co37987","norming","","","","","","",""
"7511.379999999946","","","post_mooney1_questions","survey-likert","92","363433","0.0-6.0-2.12","2175204","co37987","norming","","","{""curiosity"":4,""confidence"":1}","[0,1]","../img/tt/1217tt.jpg","",""
"2686.3649999999907","","","recognition","survey-text","93","366121","0.0-6.0-3.12","2175204","co37987","norming","","","{""guess"":""stier""}","","../img/tt/1217tt.jpg","",""
"null","../img/gs/1217gs.jpg","null","reveal","image-keyboard-response","94","368122","0.0-6.0-4.12","2175204","co37987","norming","","","","","","",""
"null","../img/tt/1217tt.jpg","null","mooney2","image-keyboard-response","95","370127","0.0-6.0-5.12","2175204","co37987","norming","","","","","","",""
"1608.5100000000093","","","post_reveal_questions","survey-likert","96","371737","0.0-6.0-6.12","2175204","co37987","norming","","","{""aha"":4}","[0]","../img/tt/1217tt.jpg","",""
"null","<div style=""font-size:60px;""> </div>","null","fixation","html-keyboard-response","97","371941","0.0-6.0-0.13","2175204","co37987","norming","","","","","","",""
"null","../img/tt/353tt.jpg","null","mooney1","image-keyboard-response","98","374950","0.0-6.0-1.13","2175204","co37987","norming","","","","","","",""
"3882.810000000056","","","post_mooney1_questions","survey-likert","99","378833","0.0-6.0-2.13","2175204","co37987","norming","","","{""curiosity"":4,""confidence"":3}","[0,1]","../img/tt/353tt.jpg","",""
"2781.7999999999884","","","recognition","survey-text","100","381609","0.0-6.0-3.13","2175204","co37987","norming","","","{""guess"":""pinguin""}","","../img/tt/353tt.jpg","",""
"null","../img/gs/353gs.jpg","null","reveal","image-keyboard-response","101","383612","0.0-6.0-4.13","2175204","co37987","norming","","","","","","",""
"null","../img/tt/353tt.jpg","null","mooney2","image-keyboard-response","102","385616","0.0-6.0-5.13","2175204","co37987","norming","","","","","","",""
"1878.7749999999069","","","post_reveal_questions","survey-likert","103","387497","0.0-6.0-6.13","2175204","co37987","norming","","","{""aha"":2}","[0]","../img/tt/353tt.jpg","",""
"null","<div style=""font-size:60px;""> </div>","null","fixation","html-keyboard-response","104","387699","0.0-6.0-0.14","2175204","co37987","norming","","","","","","",""
"null","../img/tt/108tt.jpg","null","mooney1","image-keyboard-response","105","390703","0.0-6.0-1.14","2175204","co37987","norming","","","","","","",""
"4208.409999999974","","","post_mooney1_questions","survey-likert","106","394913","0.0-6.0-2.14","2175204","co37987","norming","","","{""curiosity"":5,""confidence"":1}","[0,1]","../img/tt/108tt.jpg","",""
"2549.9849999998696","","","recognition","survey-text","107","397465","0.0-6.0-3.14","2175204","co37987","norming","","","{""guess"":""vis""}","","../img/tt/108tt.jpg","",""
"null","../img/gs/108gs.jpg","null","reveal","image-keyboard-response","108","399471","0.0-6.0-4.14","2175204","co37987","norming","","","","","","",""
"null","../img/tt/108tt.jpg","null","mooney2","image-keyboard-response","109","401473","0.0-6.0-5.14","2175204","co37987","norming","","","","","","",""
"1524.9400000000023","","","post_reveal_questions","survey-likert","110","403001","0.0-6.0-6.14","2175204","co37987","norming","","","{""aha"":4}","[0]","../img/tt/108tt.jpg","",""
"null","<div style=""font-size:60px;""> </div>","null","fixation","html-keyboard-response","111","403202","0.0-6.0-0.15","2175204","co37987","norming","","","","","","",""
"null","../img/tt/053tt.jpg","null","mooney1","image-keyboard-response","112","406213","0.0-6.0-1.15","2175204","co37987","norming","","","","","","",""
"4290.854999999981","","","post_mooney1_questions","survey-likert","113","410505","0.0-6.0-2.15","2175204","co37987","norming","","","{""curiosity"":5,""confidence"":1}","[0,1]","../img/tt/053tt.jpg","",""
"2206.2750000000233","","","recognition","survey-text","114","412713","0.0-6.0-3.15","2175204","co37987","norming","","","{""guess"":""koe""}","","../img/tt/053tt.jpg","",""
"null","../img/gs/053gs.jpg","null","reveal","image-keyboard-response","115","414714","0.0-6.0-4.15","2175204","co37987","norming","","","","","","",""
"null","../img/tt/053tt.jpg","null","mooney2","image-keyboard-response","116","416716","0.0-6.0-5.15","2175204","co37987","norming","","","","","","",""
"2235.280000000086","","","post_reveal_questions","survey-likert","117","418953","0.0-6.0-6.15","2175204","co37987","norming","","","{""aha"":5}","[0]","../img/tt/053tt.jpg","",""
"null","<div style=""font-size:60px;""> </div>","null","fixation","html-keyboard-response","118","419162","0.0-6.0-0.16","2175204","co37987","norming","","","","","","",""
"null","../img/tt/1186tt.jpg","null","mooney1","image-keyboard-response","119","422171","0.0-6.0-1.16","2175204","co37987","norming","","","","","","",""
"4035.8400000000256","","","post_mooney1_questions","survey-likert","120","426210","0.0-6.0-2.16","2175204","co37987","norming","","","{""curiosity"":5,""confidence"":2}","[0,1]","../img/tt/1186tt.jpg","",""
"3077.8700000000536","","","recognition","survey-text","121","429289","0.0-6.0-3.16","2175204","co37987","norming","","","{""guess"":""skaten""}","","../img/tt/1186tt.jpg","",""
"null","../img/gs/1186gs.jpg","null","reveal","image-keyboard-response","122","431298","0.0-6.0-4.16","2175204","co37987","norming","","","","","","",""
"null","../img/tt/1186tt.jpg","null","mooney2","image-keyboard-response","123","433306","0.0-6.0-5.16","2175204","co37987","norming","","","","","","",""
"2461.365000000107","","","post_reveal_questions","survey-likert","124","435770","0.0-6.0-6.16","2175204","co37987","norming","","","{""aha"":1}","[0]","../img/tt/1186tt.jpg","",""
"null","<div style=""font-size:60px;""> </div>","null","fixation","html-keyboard-response","125","435971","0.0-6.0-0.17","2175204","co37987","norming","","","","","","",""
"null","../img/tt/306tt.jpg","null","mooney1","image-keyboard-response","126","438974","0.0-6.0-1.17","2175204","co37987","norming","","","","","","",""
"4370.849999999977","","","post_mooney1_questions","survey-likert","127","443353","0.0-6.0-2.17","2175204","co37987","norming","","","{""curiosity"":3,""confidence"":1}","[0,1]","../img/tt/306tt.jpg","",""
"4414.074999999953","","","recognition","survey-text","128","447769","0.0-6.0-3.17","2175204","co37987","norming","","","{""guess"":""skateboard""}","","../img/tt/306tt.jpg","",""
"null","../img/gs/306gs.jpg","null","reveal","image-keyboard-response","129","449771","0.0-6.0-4.17","2175204","co37987","norming","","","","","","",""
"null","../img/tt/306tt.jpg","null","mooney2","image-keyboard-response","130","451773","0.0-6.0-5.17","2175204","co37987","norming","","","","","","",""
"3282.5849999999627","","","post_reveal_questions","survey-likert","131","455057","0.0-6.0-6.17","2175204","co37987","norming","","","{""aha"":5}","[0]","../img/tt/306tt.jpg","",""
"null","<div style=""font-size:60px;""> </div>","null","fixation","html-keyboard-response","132","455259","0.0-6.0-0.18","2175204","co37987","norming","","","","","","",""
"null","../img/tt/1366tt.jpg","null","mooney1","image-keyboard-response","133","458262","0.0-6.0-1.18","2175204","co37987","norming","","","","","","",""
"2913.3250000000116","","","post_mooney1_questions","survey-likert","134","461178","0.0-6.0-2.18","2175204","co37987","norming","","","{""curiosity"":4,""confidence"":1}","[0,1]","../img/tt/1366tt.jpg","",""
"2621.9549999998417","","","recognition","survey-text","135","463801","0.0-6.0-3.18","2175204","co37987","norming","","","{""guess"":""boot""}","","../img/tt/1366tt.jpg","",""
"null","../img/gs/1366gs.jpg","null","reveal","image-keyboard-response","136","465802","0.0-6.0-4.18","2175204","co37987","norming","","","","","","",""
"null","../img/tt/1366tt.jpg","null","mooney2","image-keyboard-response","137","467803","0.0-6.0-5.18","2175204","co37987","norming","","","","","","",""
"2076.295000000042","","","post_reveal_questions","survey-likert","138","469881","0.0-6.0-6.18","2175204","co37987","norming","","","{""aha"":4}","[0]","../img/tt/1366tt.jpg","",""
"null","<div style=""font-size:60px;""> </div>","null","fixation","html-keyboard-response","139","470082","0.0-6.0-0.19","2175204","co37987","norming","","","","","","",""
"null","../img/tt/013tt.jpg","null","mooney1","image-keyboard-response","140","473092","0.0-6.0-1.19","2175204","co37987","norming","","","","","","",""
"2491.8099999999977","","","post_mooney1_questions","survey-likert","141","475585","0.0-6.0-2.19","2175204","co37987","norming","","","{""curiosity"":5,""confidence"":0}","[0,1]","../img/tt/013tt.jpg","",""
"509.9700000000885","","","recognition","survey-text","142","476097","0.0-6.0-3.19","2175204","co37987","norming","","","{""guess"":""""}","","../img/tt/013tt.jpg","",""
"null","../img/gs/013gs.jpg","null","reveal","image-keyboard-response","143","478098","0.0-6.0-4.19","2175204","co37987","norming","","","","","","",""
"null","../img/tt/013tt.jpg","null","mooney2","image-keyboard-response","144","480104","0.0-6.0-5.19","2175204","co37987","norming","","","","","","",""
"1935.3049999999348","","","post_reveal_questions","survey-likert","145","482041","0.0-6.0-6.19","2175204","co37987","norming","","","{""aha"":5}","[0]","../img/tt/013tt.jpg","",""
"null","<div style=""font-size:60px;""> </div>","null","fixation","html-keyboard-response","146","482242","0.0-6.0-0.20","2175204","co37987","norming","","","","","","",""
"null","../img/tt/085tt.jpg","null","mooney1","image-keyboard-response","147","485253","0.0-6.0-1.20","2175204","co37987","norming","","","","","","",""
"3034.029999999795","","","post_mooney1_questions","survey-likert","148","488289","0.0-6.0-2.20","2175204","co37987","norming","","","{""curiosity"":4,""confidence"":1}","[0,1]","../img/tt/085tt.jpg","",""
"3118.259999999951","","","recognition","survey-text","149","491409","0.0-6.0-3.20","2175204","co37987","norming","","","{""guess"":""vlinder""}","","../img/tt/085tt.jpg","",""
"null","../img/gs/085gs.jpg","null","reveal","image-keyboard-response","150","493412","0.0-6.0-4.20","2175204","co37987","norming","","","","","","",""
"null","../img/tt/085tt.jpg","null","mooney2","image-keyboard-response","151","495414","0.0-6.0-5.20","2175204","co37987","norming","","","","","","",""
"1273.0300000000861","","","post_reveal_questions","survey-likert","152","496689","0.0-6.0-6.20","2175204","co37987","norming","","","{""aha"":4}","[0]","../img/tt/085tt.jpg","",""
"null","<div style=""font-size:60px;""> </div>","null","fixation","html-keyboard-response","153","496896","0.0-6.0-0.21","2175204","co37987","norming","","","","","","",""
"null","../img/tt/031tt.jpg","null","mooney1","image-keyboard-response","154","499899","0.0-6.0-1.21","2175204","co37987","norming","","","","","","",""
"5380.249999999942","","","post_mooney1_questions","survey-likert","155","505279","0.0-6.0-2.21","2175204","co37987","norming","","","{""curiosity"":3,""confidence"":0}","[0,1]","../img/tt/031tt.jpg","",""
"558.0399999998626","","","recognition","survey-text","156","505839","0.0-6.0-3.21","2175204","co37987","norming","","","{""guess"":""""}","","../img/tt/031tt.jpg","",""
"null","../img/gs/031gs.jpg","null","reveal","image-keyboard-response","157","507844","0.0-6.0-4.21","2175204","co37987","norming","","","","","","",""
"null","../img/tt/031tt.jpg","null","mooney2","image-keyboard-response","158","509851","0.0-6.0-5.21","2175204","co37987","norming","","","","","","",""
"3002.0499999998137","","","post_reveal_questions","survey-likert","159","512855","0.0-6.0-6.21","2175204","co37987","norming","","","{""aha"":5}","[0]","../img/tt/031tt.jpg","",""
"null","<div style=""font-size:60px;""> </div>","null","fixation","html-keyboard-response","160","513057","0.0-6.0-0.22","2175204","co37987","norming","","","","","","",""
"null","../img/tt/010tt.jpg","null","mooney1","image-keyboard-response","161","516058","0.0-6.0-1.22","2175204","co37987","norming","","","","","","",""
"4202.395000000077","","","post_mooney1_questions","survey-likert","162","520263","0.0-6.0-2.22","2175204","co37987","norming","","","{""curiosity"":4,""confidence"":2}","[0,1]","../img/tt/010tt.jpg","",""
"2989.949999999895","","","recognition","survey-text","163","523255","0.0-6.0-3.22","2175204","co37987","norming","","","{""guess"":""vis""}","","../img/tt/010tt.jpg","",""
"null","../img/gs/010gs.jpg","null","reveal","image-keyboard-response","164","525257","0.0-6.0-4.22","2175204","co37987","norming","","","","","","",""
"null","../img/tt/010tt.jpg","null","mooney2","image-keyboard-response","165","527260","0.0-6.0-5.22","2175204","co37987","norming","","","","","","",""
"1936.9799999999814","","","post_reveal_questions","survey-likert","166","529199","0.0-6.0-6.22","2175204","co37987","norming","","","{""aha"":3}","[0]","../img/tt/010tt.jpg","",""
"null","<div style=""font-size:60px;""> </div>","null","fixation","html-keyboard-response","167","529401","0.0-6.0-0.23","2175204","co37987","norming","","","","","","",""
"null","../img/tt/084tt.jpg","null","mooney1","image-keyboard-response","168","532409","0.0-6.0-1.23","2175204","co37987","norming","","","","","","",""
"2405.1599999997998","","","post_mooney1_questions","survey-likert","169","534815","0.0-6.0-2.23","2175204","co37987","norming","","","{""curiosity"":4,""confidence"":3}","[0,1]","../img/tt/084tt.jpg","",""
"3054.284999999916","","","recognition","survey-text","170","537871","0.0-6.0-3.23","2175204","co37987","norming","","","{""guess"":""vogel""}","","../img/tt/084tt.jpg","",""
"null","../img/gs/084gs.jpg","null","reveal","image-keyboard-response","171","539876","0.0-6.0-4.23","2175204","co37987","norming","","","","","","",""
"null","../img/tt/084tt.jpg","null","mooney2","image-keyboard-response","172","541881","0.0-6.0-5.23","2175204","co37987","norming","","","","","","",""
"1979.220000000205","","","post_reveal_questions","survey-likert","173","543863","0.0-6.0-6.23","2175204","co37987","norming","","","{""aha"":2}","[0]","../img/tt/084tt.jpg","",""
"null","<div style=""font-size:60px;""> </div>","null","fixation","html-keyboard-response","174","544065","0.0-6.0-0.24","2175204","co37987","norming","","","","","","",""
"null","../img/tt/1033tt.jpg","null","mooney1","image-keyboard-response","175","547066","0.0-6.0-1.24","2175204","co37987","norming","","","","","","",""
"2723.770000000135","","","post_mooney1_questions","survey-likert","176","549791","0.0-6.0-2.24","2175204","co37987","norming","","","{""curiosity"":4,""confidence"":1}","[0,1]","../img/tt/1033tt.jpg","",""
"2902.1900000000605","","","recognition","survey-text","177","552695","0.0-6.0-3.24","2175204","co37987","norming","","","{""guess"":""schroevendraaier""}","","../img/tt/1033tt.jpg","",""
"null","../img/gs/1033gs.jpg","null","reveal","image-keyboard-response","178","554702","0.0-6.0-4.24","2175204","co37987","norming","","","","","","",""
"null","../img/tt/1033tt.jpg","null","mooney2","image-keyboard-response","179","556704","0.0-6.0-5.24","2175204","co37987","norming","","","","","","",""
"1972.3499999999767","","","post_reveal_questions","survey-likert","180","558679","0.0-6.0-6.24","2175204","co37987","norming","","","{""aha"":3}","[0]","../img/tt/1033tt.jpg","",""
"null","<div style=""font-size:60px;""> </div>","null","fixation","html-keyboard-response","181","558880","0.0-6.0-0.25","2175204","co37987","norming","","","","","","",""
"null","../img/tt/1255tt.jpg","null","mooney1","image-keyboard-response","182","561887","0.0-6.0-1.25","2175204","co37987","norming","","","","","","",""
"3615.4349999999395","","","post_mooney1_questions","survey-likert","183","565505","0.0-6.0-2.25","2175204","co37987","norming","","","{""curiosity"":3,""confidence"":0}","[0,1]","../img/tt/1255tt.jpg","",""
"582.1749999999302","","","recognition","survey-text","184","566089","0.0-6.0-3.25","2175204","co37987","norming","","","{""guess"":""""}","","../img/tt/1255tt.jpg","",""
"null","../img/gs/1255gs.jpg","null","reveal","image-keyboard-response","185","568090","0.0-6.0-4.25","2175204","co37987","norming","","","","","","",""
"null","../img/tt/1255tt.jpg","null","mooney2","image-keyboard-response","186","570098","0.0-6.0-5.25","2175204","co37987","norming","","","","","","",""
"3284.4100000000326","","","post_reveal_questions","survey-likert","187","573385","0.0-6.0-6.25","2175204","co37987","norming","","","{""aha"":5}","[0]","../img/tt/1255tt.jpg","",""
"null","<div style=""font-size:60px;""> </div>","null","fixation","html-keyboard-response","188","573586","0.0-6.0-0.26","2175204","co37987","norming","","","","","","",""
"null","../img/tt/1235tt.jpg","null","mooney1","image-keyboard-response","189","576592","0.0-6.0-1.26","2175204","co37987","norming","","","","","","",""
"3038.824999999837","","","post_mooney1_questions","survey-likert","190","579633","0.0-6.0-2.26","2175204","co37987","norming","","","{""curiosity"":4,""confidence"":1}","[0,1]","../img/tt/1235tt.jpg","",""
"2037.9450000000652","","","recognition","survey-text","191","581673","0.0-6.0-3.26","2175204","co37987","norming","","","{""guess"":""kip""}","","../img/tt/1235tt.jpg","",""
"null","../img/gs/1235gs.jpg","null","reveal","image-keyboard-response","192","583674","0.0-6.0-4.26","2175204","co37987","norming","","","","","","",""
"null","../img/tt/1235tt.jpg","null","mooney2","image-keyboard-response","193","585681","0.0-6.0-5.26","2175204","co37987","norming","","","","","","",""
"1709.4899999998743","","","post_reveal_questions","survey-likert","194","587393","0.0-6.0-6.26","2175204","co37987","norming","","","{""aha"":3}","[0]","../img/tt/1235tt.jpg","",""
"null","<div style=""font-size:60px;""> </div>","null","fixation","html-keyboard-response","195","587595","0.0-6.0-0.27","2175204","co37987","norming","","","","","","",""
"null","../img/tt/468tt.jpg","null","mooney1","image-keyboard-response","196","590604","0.0-6.0-1.27","2175204","co37987","norming","","","","","","",""
"3274.32500000007","","","post_mooney1_questions","survey-likert","197","593881","0.0-6.0-2.27","2175204","co37987","norming","","","{""curiosity"":4,""confidence"":1}","[0,1]","../img/tt/468tt.jpg","",""
"2541.895000000135","","","recognition","survey-text","198","596425","0.0-6.0-3.27","2175204","co37987","norming","","","{""guess"":""instrument""}","","../img/tt/468tt.jpg","",""
"null","../img/gs/468gs.jpg","null","reveal","image-keyboard-response","199","598433","0.0-6.0-4.27","2175204","co37987","norming","","","","","","",""
"null","../img/tt/468tt.jpg","null","mooney2","image-keyboard-response","200","600434","0.0-6.0-5.27","2175204","co37987","norming","","","","","","",""
"2302.7099999999627","","","post_reveal_questions","survey-likert","201","602737","0.0-6.0-6.27","2175204","co37987","norming","","","{""aha"":1}","[0]","../img/tt/468tt.jpg","",""
"null","<div style=""font-size:60px;""> </div>","null","fixation","html-keyboard-response","202","602944","0.0-6.0-0.28","2175204","co37987","norming","","","","","","",""
"null","../img/tt/1239tt.jpg","null","mooney1","image-keyboard-response","203","605954","0.0-6.0-1.28","2175204","co37987","norming","","","","","","",""
"3100.180000000051","","","post_mooney1_questions","survey-likert","204","609057","0.0-6.0-2.28","2175204","co37987","norming","","","{""curiosity"":4,""confidence"":1}","[0,1]","../img/tt/1239tt.jpg","",""
"1638.3350000000792","","","recognition","survey-text","205","610697","0.0-6.0-3.28","2175204","co37987","norming","","","{""guess"":""hond""}","","../img/tt/1239tt.jpg","",""
"null","../img/gs/1239gs.jpg","null","reveal","image-keyboard-response","206","612702","0.0-6.0-4.28","2175204","co37987","norming","","","","","","",""
"null","../img/tt/1239tt.jpg","null","mooney2","image-keyboard-response","207","614704","0.0-6.0-5.28","2175204","co37987","norming","","","","","","",""
"1950.7699999999022","","","post_reveal_questions","survey-likert","208","616657","0.0-6.0-6.28","2175204","co37987","norming","","","{""aha"":1}","[0]","../img/tt/1239tt.jpg","",""
"null","<div style=""font-size:60px;""> </div>","null","fixation","html-keyboard-response","209","616858","0.0-6.0-0.29","2175204","co37987","norming","","","","","","",""
"null","../img/tt/378tt.jpg","null","mooney1","image-keyboard-response","210","619865","0.0-6.0-1.29","2175204","co37987","norming","","","","","","",""
"4845.180000000051","","","post_mooney1_questions","survey-likert","211","624714","0.0-6.0-2.29","2175204","co37987","norming","","","{""curiosity"":4,""confidence"":0}","[0,1]","../img/tt/378tt.jpg","",""
"501.89500000013504","","","recognition","survey-text","212","625217","0.0-6.0-3.29","2175204","co37987","norming","","","{""guess"":""""}","","../img/tt/378tt.jpg","",""
"null","../img/gs/378gs.jpg","null","reveal","image-keyboard-response","213","627221","0.0-6.0-4.29","2175204","co37987","norming","","","","","","",""
"null","../img/tt/378tt.jpg","null","mooney2","image-keyboard-response","214","629229","0.0-6.0-5.29","2175204","co37987","norming","","","","","","",""
"2258.57500000007","","","post_reveal_questions","survey-likert","215","631489","0.0-6.0-6.29","2175204","co37987","norming","","","{""aha"":4}","[0]","../img/tt/378tt.jpg","",""
"null","<div style=""font-size:60px;""> </div>","null","fixation","html-keyboard-response","216","631697","0.0-6.0-0.30","2175204","co37987","norming","","","","","","",""
"null","../img/tt/1061tt.jpg","null","mooney1","image-keyboard-response","217","634701","0.0-6.0-1.30","2175204","co37987","norming","","","","","","",""
"5729.305000000051","","","post_mooney1_questions","survey-likert","218","640433","0.0-6.0-2.30","2175204","co37987","norming","","","{""curiosity"":4,""confidence"":1}","[0,1]","../img/tt/1061tt.jpg","",""
"2790.1149999999907","","","recognition","survey-text","219","643225","0.0-6.0-3.30","2175204","co37987","norming","","","{""guess"":""schieten""}","","../img/tt/1061tt.jpg","",""
"null","../img/gs/1061gs.jpg","null","reveal","image-keyboard-response","220","645236","0.0-6.0-4.30","2175204","co37987","norming","","","","","","",""
"null","../img/tt/1061tt.jpg","null","mooney2","image-keyboard-response","221","647238","0.0-6.0-5.30","2175204","co37987","norming","","","","","","",""
"2569.3249999999534","","","post_reveal_questions","survey-likert","222","649809","0.0-6.0-6.30","2175204","co37987","norming","","","{""aha"":5}","[0]","../img/tt/1061tt.jpg","",""
"null","<div style=""font-size:60px;""> </div>","null","fixation","html-keyboard-response","223","650011","0.0-6.0-0.31","2175204","co37987","norming","","","","","","",""
"null","../img/tt/126tt.jpg","null","mooney1","image-keyboard-response","224","653023","0.0-6.0-1.31","2175204","co37987","norming","","","","","","",""
"2929.329999999958","","","post_mooney1_questions","survey-likert","225","655954","0.0-6.0-2.31","2175204","co37987","norming","","","{""curiosity"":4,""confidence"":2}","[0,1]","../img/tt/126tt.jpg","",""
"2662.064999999944","","","recognition","survey-text","226","658617","0.0-6.0-3.31","2175204","co37987","norming","","","{""guess"":""koe""}","","../img/tt/126tt.jpg","",""
"null","../img/gs/126gs.jpg","null","reveal","image-keyboard-response","227","660618","0.0-6.0-4.31","2175204","co37987","norming","","","","","","",""
"null","../img/tt/126tt.jpg","null","mooney2","image-keyboard-response","228","662620","0.0-6.0-5.31","2175204","co37987","norming","","","","","","",""
"1803.0599999999395","","","post_reveal_questions","survey-likert","229","664425","0.0-6.0-6.31","2175204","co37987","norming","","","{""aha"":3}","[0]","../img/tt/126tt.jpg","",""
"null","<div style=""font-size:60px;""> </div>","null","fixation","html-keyboard-response","230","664627","0.0-6.0-0.32","2175204","co37987","norming","","","","","","",""
"null","../img/tt/121tt.jpg","null","mooney1","image-keyboard-response","231","667629","0.0-6.0-1.32","2175204","co37987","norming","","","","","","",""
"7345.570000000182","","","post_mooney1_questions","survey-likert","232","674977","0.0-6.0-2.32","2175204","co37987","norming","","","{""curiosity"":4,""confidence"":1}","[0,1]","../img/tt/121tt.jpg","",""
"2286.2299999999814","","","recognition","survey-text","233","677265","0.0-6.0-3.32","2175204","co37987","norming","","","{""guess"":""orka""}","","../img/tt/121tt.jpg","",""
"null","../img/gs/121gs.jpg","null","reveal","image-keyboard-response","234","679267","0.0-6.0-4.32","2175204","co37987","norming","","","","","","",""
"null","../img/tt/121tt.jpg","null","mooney2","image-keyboard-response","235","681272","0.0-6.0-5.32","2175204","co37987","norming","","","","","","",""
"2351.0150000001304","","","post_reveal_questions","survey-likert","236","683625","0.0-6.0-6.32","2175204","co37987","norming","","","{""aha"":5}","[0]","../img/tt/121tt.jpg","",""
"null","<div style=""font-size:60px;""> </div>","null","fixation","html-keyboard-response","237","683827","0.0-6.0-0.33","2175204","co37987","norming","","","","","","",""
"null","../img/tt/1122tt.jpg","null","mooney1","image-keyboard-response","238","686839","0.0-6.0-1.33","2175204","co37987","norming","","","","","","",""
"2863.515000000014","","","post_mooney1_questions","survey-likert","239","689705","0.0-6.0-2.33","2175204","co37987","norming","","","{""curiosity"":5,""confidence"":2}","[0,1]","../img/tt/1122tt.jpg","",""
"3022.170000000042","","","recognition","survey-text","240","692729","0.0-6.0-3.33","2175204","co37987","norming","","","{""guess"":""boot""}","","../img/tt/1122tt.jpg","",""
"null","../img/gs/1122gs.jpg","null","reveal","image-keyboard-response","241","694731","0.0-6.0-4.33","2175204","co37987","norming","","","","","","",""
"null","../img/tt/1122tt.jpg","null","mooney2","image-keyboard-response","242","696737","0.0-6.0-5.33","2175204","co37987","norming","","","","","","",""
"2830.085000000079","","","post_reveal_questions","survey-likert","243","699569","0.0-6.0-6.33","2175204","co37987","norming","","","{""aha"":4}","[0]","../img/tt/1122tt.jpg","",""
"null","<div style=""font-size:60px;""> </div>","null","fixation","html-keyboard-response","244","699770","0.0-6.0-0.34","2175204","co37987","norming","","","","","","",""
"null","../img/tt/315tt.jpg","null","mooney1","image-keyboard-response","245","702773","0.0-6.0-1.34","2175204","co37987","norming","","","","","","",""
"2313.4799999997485","","","post_mooney1_questions","survey-likert","246","705090","0.0-6.0-2.34","2175204","co37987","norming","","","{""curiosity"":4,""confidence"":1}","[0,1]","../img/tt/315tt.jpg","",""
"2357.929999999935","","","recognition","survey-text","247","707449","0.0-6.0-3.34","2175204","co37987","norming","","","{""guess"":""vogel""}","","../img/tt/315tt.jpg","",""
"null","../img/gs/315gs.jpg","null","reveal","image-keyboard-response","248","709454","0.0-6.0-4.34","2175204","co37987","norming","","","","","","",""
"null","../img/tt/315tt.jpg","null","mooney2","image-keyboard-response","249","711464","0.0-6.0-5.34","2175204","co37987","norming","","","","","","",""
"2718.3150000000605","","","post_reveal_questions","survey-likert","250","714185","0.0-6.0-6.34","2175204","co37987","norming","","","{""aha"":5}","[0]","../img/tt/315tt.jpg","",""
"null","<div style=""font-size:60px;""> </div>","null","fixation","html-keyboard-response","251","714387","0.0-6.0-0.35","2175204","co37987","norming","","","","","","",""
"null","../img/tt/1261tt.jpg","null","mooney1","image-keyboard-response","252","717389","0.0-6.0-1.35","2175204","co37987","norming","","","","","","",""
"3633.240000000107","","","post_mooney1_questions","survey-likert","253","721025","0.0-6.0-2.35","2175204","co37987","norming","","","{""curiosity"":5,""confidence"":2}","[0,1]","../img/tt/1261tt.jpg","",""
"2054.3200000001816","","","recognition","survey-text","254","723081","0.0-6.0-3.35","2175204","co37987","norming","","","{""guess"":""knaagdier""}","","../img/tt/1261tt.jpg","",""
"null","../img/gs/1261gs.jpg","null","reveal","image-keyboard-response","255","725082","0.0-6.0-4.35","2175204","co37987","norming","","","","","","",""
"null","../img/tt/1261tt.jpg","null","mooney2","image-keyboard-response","256","727090","0.0-6.0-5.35","2175204","co37987","norming","","","","","","",""
"1581.7000000001863","","","post_reveal_questions","survey-likert","257","728673","0.0-6.0-6.35","2175204","co37987","norming","","","{""aha"":2}","[0]","../img/tt/1261tt.jpg","",""
"null","<div style=""font-size:60px;""> </div>","null","fixation","html-keyboard-response","258","728875","0.0-6.0-0.36","2175204","co37987","norming","","","","","","",""
"null","../img/tt/1283tt.jpg","null","mooney1","image-keyboard-response","259","731884","0.0-6.0-1.36","2175204","co37987","norming","","","","","","",""
"3844.659999999916","","","post_mooney1_questions","survey-likert","260","735729","0.0-6.0-2.36","2175204","co37987","norming","","","{""curiosity"":5,""confidence"":2}","[0,1]","../img/tt/1283tt.jpg","",""
"2566.229999999865","","","recognition","survey-text","261","738297","0.0-6.0-3.36","2175204","co37987","norming","","","{""guess"":""katachtig dier""}","","../img/tt/1283tt.jpg","",""
"null","../img/gs/1283gs.jpg","null","reveal","image-keyboard-response","262","740299","0.0-6.0-4.36","2175204","co37987","norming","","","","","","",""
"null","../img/tt/1283tt.jpg","null","mooney2","image-keyboard-response","263","742301","0.0-6.0-5.36","2175204","co37987","norming","","","","","","",""
"2018.3999999999069","","","post_reveal_questions","survey-likert","264","744321","0.0-6.0-6.36","2175204","co37987","norming","","","{""aha"":3}","[0]","../img/tt/1283tt.jpg","",""
"null","<div style=""font-size:60px;""> </div>","null","fixation","html-keyboard-response","265","744522","0.0-6.0-0.37","2175204","co37987","norming","","","","","","",""
"null","../img/tt/094tt.jpg","null","mooney1","image-keyboard-response","266","747527","0.0-6.0-1.37","2175204","co37987","norming","","","","","","",""
"3032.0599999999395","","","post_mooney1_questions","survey-likert","267","750561","0.0-6.0-2.37","2175204","co37987","norming","","","{""curiosity"":5,""confidence"":2}","[0,1]","../img/tt/094tt.jpg","",""
"1878.0100000001257","","","recognition","survey-text","268","752441","0.0-6.0-3.37","2175204","co37987","norming","","","{""guess"":""stier""}","","../img/tt/094tt.jpg","",""
"null","../img/gs/094gs.jpg","null","reveal","image-keyboard-response","269","754442","0.0-6.0-4.37","2175204","co37987","norming","","","","","","",""
"null","../img/tt/094tt.jpg","null","mooney2","image-keyboard-response","270","756448","0.0-6.0-5.37","2175204","co37987","norming","","","","","","",""
"2717.1699999999255","","","post_reveal_questions","survey-likert","271","759169","0.0-6.0-6.37","2175204","co37987","norming","","","{""aha"":3}","[0]","../img/tt/094tt.jpg","",""
"null","<div style=""font-size:60px;""> </div>","null","fixation","html-keyboard-response","272","759371","0.0-6.0-0.38","2175204","co37987","norming","","","","","","",""
"null","../img/tt/307tt.jpg","null","mooney1","image-keyboard-response","273","762374","0.0-6.0-1.38","2175204","co37987","norming","","","","","","",""
"3728.0400000000373","","","post_mooney1_questions","survey-likert","274","766105","0.0-6.0-2.38","2175204","co37987","norming","","","{""curiosity"":4,""confidence"":1}","[0,1]","../img/tt/307tt.jpg","",""
"2254.185000000056","","","recognition","survey-text","275","768361","0.0-6.0-3.38","2175204","co37987","norming","","","{""guess"":""schoen""}","","../img/tt/307tt.jpg","",""
"null","../img/gs/307gs.jpg","null","reveal","image-keyboard-response","276","770363","0.0-6.0-4.38","2175204","co37987","norming","","","","","","",""
"null","../img/tt/307tt.jpg","null","mooney2","image-keyboard-response","277","772365","0.0-6.0-5.38","2175204","co37987","norming","","","","","","",""
"2873.710000000079","","","post_reveal_questions","survey-likert","278","775241","0.0-6.0-6.38","2175204","co37987","norming","","","{""aha"":5}","[0]","../img/tt/307tt.jpg","",""
"null","<div style=""font-size:60px;""> </div>","null","fixation","html-keyboard-response","279","775443","0.0-6.0-0.39","2175204","co37987","norming","","","","","","",""
"null","../img/tt/105tt.jpg","null","mooney1","image-keyboard-response","280","778446","0.0-6.0-1.39","2175204","co37987","norming","","","","","","",""
"2256.5500000000466","","","post_mooney1_questions","survey-likert","281","780705","0.0-6.0-2.39","2175204","co37987","norming","","","{""curiosity"":4,""confidence"":2}","[0,1]","../img/tt/105tt.jpg","",""
"2598.185000000056","","","recognition","survey-text","282","783305","0.0-6.0-3.39","2175204","co37987","norming","","","{""guess"":""vlinder""}","","../img/tt/105tt.jpg","",""
"null","../img/gs/105gs.jpg","null","reveal","image-keyboard-response","283","785307","0.0-6.0-4.39","2175204","co37987","norming","","","","","","",""
"null","../img/tt/105tt.jpg","null","mooney2","image-keyboard-response","284","787309","0.0-6.0-5.39","2175204","co37987","norming","","","","","","",""
"1970.1749999999302","","","post_reveal_questions","survey-likert","285","789281","0.0-6.0-6.39","2175204","co37987","norming","","","{""aha"":2}","[0]","../img/tt/105tt.jpg","",""
"null","<div style=""font-size:60px;""> </div>","null","fixation","html-keyboard-response","286","789483","0.0-6.0-0.40","2175204","co37987","norming","","","","","","",""
"null","../img/tt/007tt.jpg","null","mooney1","image-keyboard-response","287","792487","0.0-6.0-1.40","2175204","co37987","norming","","","","","","",""
"3127.144999999902","","","post_mooney1_questions","survey-likert","288","795617","0.0-6.0-2.40","2175204","co37987","norming","","","{""curiosity"":4,""confidence"":1}","[0,1]","../img/tt/007tt.jpg","",""
"2182.1450000000186","","","recognition","survey-text","289","797801","0.0-6.0-3.40","2175204","co37987","norming","","","{""guess"":""zeepaardje""}","","../img/tt/007tt.jpg","",""
"null","../img/gs/007gs.jpg","null","reveal","image-keyboard-response","290","799809","0.0-6.0-4.40","2175204","co37987","norming","","","","","","",""
"null","../img/tt/007tt.jpg","null","mooney2","image-keyboard-response","291","801811","0.0-6.0-5.40","2175204","co37987","norming","","","","","","",""
"1539.8350000000792","","","post_reveal_questions","survey-likert","292","803353","0.0-6.0-6.40","2175204","co37987","norming","","","{""aha"":3}","[0]","../img/tt/007tt.jpg","",""
"null","<div style=""font-size:60px;""> </div>","null","fixation","html-keyboard-response","293","803555","0.0-6.0-0.41","2175204","co37987","norming","","","","","","",""
"null","../img/tt/189tt.jpg","null","mooney1","image-keyboard-response","294","806561","0.0-6.0-1.41","2175204","co37987","norming","","","","","","",""
"3678.3000000000466","","","post_mooney1_questions","survey-likert","295","810241","0.0-6.0-2.41","2175204","co37987","norming","","","{""curiosity"":5,""confidence"":1}","[0,1]","../img/tt/189tt.jpg","",""
"4758.105000000098","","","recognition","survey-text","296","815001","0.0-6.0-3.41","2175204","co37987","norming","","","{""guess"":""breakdancen""}","","../img/tt/189tt.jpg","",""
"null","../img/gs/189gs.jpg","null","reveal","image-keyboard-response","297","817004","0.0-6.0-4.41","2175204","co37987","norming","","","","","","",""
"null","../img/tt/189tt.jpg","null","mooney2","image-keyboard-response","298","819005","0.0-6.0-5.41","2175204","co37987","norming","","","","","","",""
"1883.3349999999627","","","post_reveal_questions","survey-likert","299","820889","0.0-6.0-6.41","2175204","co37987","norming","","","{""aha"":4}","[0]","../img/tt/189tt.jpg","",""
"null","<div style=""font-size:60px;""> </div>","null","fixation","html-keyboard-response","300","821090","0.0-6.0-0.42","2175204","co37987","norming","","","","","","",""
"null","../img/tt/1159tt.jpg","null","mooney1","image-keyboard-response","301","824093","0.0-6.0-1.42","2175204","co37987","norming","","","","","","",""
"2433.4550000000745","","","post_mooney1_questions","survey-likert","302","826530","0.0-6.0-2.42","2175204","co37987","norming","","","{""curiosity"":4,""confidence"":6}","[0,1]","../img/tt/1159tt.jpg","",""
"2038.1999999999534","","","recognition","survey-text","303","828569","0.0-6.0-3.42","2175204","co37987","norming","","","{""guess"":""skaten""}","","../img/tt/1159tt.jpg","",""
"null","../img/gs/1159gs.jpg","null","reveal","image-keyboard-response","304","830571","0.0-6.0-4.42","2175204","co37987","norming","","","","","","",""
"null","../img/tt/1159tt.jpg","null","mooney2","image-keyboard-response","305","832582","0.0-6.0-5.42","2175204","co37987","norming","","","","","","",""
"2414.4150000000373","","","post_reveal_questions","survey-likert","306","835001","0.0-6.0-6.42","2175204","co37987","norming","","","{""aha"":1}","[0]","../img/tt/1159tt.jpg","",""
"null","<div style=""font-size:60px;""> </div>","null","fixation","html-keyboard-response","307","835203","0.0-6.0-0.43","2175204","co37987","norming","","","","","","",""
"null","../img/tt/1142tt.jpg","null","mooney1","image-keyboard-response","308","838213","0.0-6.0-1.43","2175204","co37987","norming","","","","","","",""
"3641.4349999999395","","","post_mooney1_questions","survey-likert","309","841857","0.0-6.0-2.43","2175204","co37987","norming","","","{""curiosity"":2,""confidence"":6}","[0,1]","../img/tt/1142tt.jpg","",""
"2726.5300000001444","","","recognition","survey-text","310","844585","0.0-6.0-3.43","2175204","co37987","norming","","","{""guess"":""hoogspringen""}","","../img/tt/1142tt.jpg","",""
"null","../img/gs/1142gs.jpg","null","reveal","image-keyboard-response","311","846593","0.0-6.0-4.43","2175204","co37987","norming","","","","","","",""
"null","../img/tt/1142tt.jpg","null","mooney2","image-keyboard-response","312","848604","0.0-6.0-5.43","2175204","co37987","norming","","","","","","",""
"2497.570000000065","","","post_reveal_questions","survey-likert","313","851105","0.0-6.0-6.43","2175204","co37987","norming","","","{""aha"":5}","[0]","../img/tt/1142tt.jpg","",""
"null","<div style=""font-size:60px;""> </div>","null","fixation","html-keyboard-response","314","851307","0.0-6.0-0.44","2175204","co37987","norming","","","","","","",""
"null","../img/tt/1046tt.jpg","null","mooney1","image-keyboard-response","315","854312","0.0-6.0-1.44","2175204","co37987","norming","","","","","","",""
"3053.854999999865","","","post_mooney1_questions","survey-likert","316","857369","0.0-6.0-2.44","2175204","co37987","norming","","","{""curiosity"":6,""confidence"":0}","[0,1]","../img/tt/1046tt.jpg","",""
"478.03000000002794","","","recognition","survey-text","317","857849","0.0-6.0-3.44","2175204","co37987","norming","","","{""guess"":""""}","","../img/tt/1046tt.jpg","",""
"null","../img/gs/1046gs.jpg","null","reveal","image-keyboard-response","318","859850","0.0-6.0-4.44","2175204","co37987","norming","","","","","","",""
"null","../img/tt/1046tt.jpg","null","mooney2","image-keyboard-response","319","861858","0.0-6.0-5.44","2175204","co37987","norming","","","","","","",""
"2956.5799999998417","","","post_reveal_questions","survey-likert","320","864817","0.0-6.0-6.44","2175204","co37987","norming","","","{""aha"":5}","[0]","../img/tt/1046tt.jpg","",""
"null","<div style=""font-size:60px;""> </div>","null","fixation","html-keyboard-response","321","865020","0.0-6.0-0.45","2175204","co37987","norming","","","","","","",""
"null","../img/tt/1072tt.jpg","null","mooney1","image-keyboard-response","322","868027","0.0-6.0-1.45","2175204","co37987","norming","","","","","","",""
"3275.574999999837","","","post_mooney1_questions","survey-likert","323","871305","0.0-6.0-2.45","2175204","co37987","norming","","","{""curiosity"":5,""confidence"":0}","[0,1]","../img/tt/1072tt.jpg","",""
"590.1050000000978","","","recognition","survey-text","324","871897","0.0-6.0-3.45","2175204","co37987","norming","","","{""guess"":""""}","","../img/tt/1072tt.jpg","",""
"null","../img/gs/1072gs.jpg","null","reveal","image-keyboard-response","325","873902","0.0-6.0-4.45","2175204","co37987","norming","","","","","","",""
"null","../img/tt/1072tt.jpg","null","mooney2","image-keyboard-response","326","875910","0.0-6.0-5.45","2175204","co37987","norming","","","","","","",""
"2104.935000000056","","","post_reveal_questions","survey-likert","327","878017","0.0-6.0-6.45","2175204","co37987","norming","","","{""aha"":6}","[0]","../img/tt/1072tt.jpg","",""
"null","<div style=""font-size:60px;""> </div>","null","fixation","html-keyboard-response","328","878218","0.0-6.0-0.46","2175204","co37987","norming","","","","","","",""
"null","../img/tt/1070tt.jpg","null","mooney1","image-keyboard-response","329","881228","0.0-6.0-1.46","2175204","co37987","norming","","","","","","",""
"2587.105000000098","","","post_mooney1_questions","survey-likert","330","883817","0.0-6.0-2.46","2175204","co37987","norming","","","{""curiosity"":5,""confidence"":1}","[0,1]","../img/tt/1070tt.jpg","",""
"2285.9749999999767","","","recognition","survey-text","331","886105","0.0-6.0-3.46","2175204","co37987","norming","","","{""guess"":""lasagne""}","","../img/tt/1070tt.jpg","",""
"null","../img/gs/1070gs.jpg","null","reveal","image-keyboard-response","332","888108","0.0-6.0-4.46","2175204","co37987","norming","","","","","","",""
"null","../img/tt/1070tt.jpg","null","mooney2","image-keyboard-response","333","890118","0.0-6.0-5.46","2175204","co37987","norming","","","","","","",""
"1480.410000000149","","","post_reveal_questions","survey-likert","334","891601","0.0-6.0-6.46","2175204","co37987","norming","","","{""aha"":5}","[0]","../img/tt/1070tt.jpg","",""
"null","<div style=""font-size:60px;""> </div>","null","fixation","html-keyboard-response","335","891802","0.0-6.0-0.47","2175204","co37987","norming","","","","","","",""
"null","../img/tt/1087tt.jpg","null","mooney1","image-keyboard-response","336","894807","0.0-6.0-1.47","2175204","co37987","norming","","","","","","",""
"3159.1849999999395","","","post_mooney1_questions","survey-likert","337","897969","0.0-6.0-2.47","2175204","co37987","norming","","","{""curiosity"":5,""confidence"":1}","[0,1]","../img/tt/1087tt.jpg","",""
"3397.7299999999814","","","recognition","survey-text","338","901369","0.0-6.0-3.47","2175204","co37987","norming","","","{""guess"":""stier""}","","../img/tt/1087tt.jpg","",""
"null","../img/gs/1087gs.jpg","null","reveal","image-keyboard-response","339","903378","0.0-6.0-4.47","2175204","co37987","norming","","","","","","",""
"null","../img/tt/1087tt.jpg","null","mooney2","image-keyboard-response","340","905380","0.0-6.0-5.47","2175204","co37987","norming","","","","","","",""
"1954.3850000000093","","","post_reveal_questions","survey-likert","341","907337","0.0-6.0-6.47","2175204","co37987","norming","","","{""aha"":4}","[0]","../img/tt/1087tt.jpg","",""
"null","<div style=""font-size:60px;""> </div>","null","fixation","html-keyboard-response","342","907538","0.0-6.0-0.48","2175204","co37987","norming","","","","","","",""
"null","../img/tt/522tt.jpg","null","mooney1","image-keyboard-response","343","910543","0.0-6.0-1.48","2175204","co37987","norming","","","","","","",""
"2639.7200000000885","","","post_mooney1_questions","survey-likert","344","913185","0.0-6.0-2.48","2175204","co37987","norming","","","{""curiosity"":5,""confidence"":0}","[0,1]","../img/tt/522tt.jpg","",""
"854.1199999999953","","","recognition","survey-text","345","914041","0.0-6.0-3.48","2175204","co37987","norming","","","{""guess"":""""}","","../img/tt/522tt.jpg","",""
"null","../img/gs/522gs.jpg","null","reveal","image-keyboard-response","346","916043","0.0-6.0-4.48","2175204","co37987","norming","","","","","","",""
"null","../img/tt/522tt.jpg","null","mooney2","image-keyboard-response","347","918048","0.0-6.0-5.48","2175204","co37987","norming","","","","","","",""
"2096.004999999772","","","post_reveal_questions","survey-likert","348","920145","0.0-6.0-6.48","2175204","co37987","norming","","","{""aha"":5}","[0]","../img/tt/522tt.jpg","",""
"null","<div style=""font-size:60px;""> </div>","null","fixation","html-keyboard-response","349","920346","0.0-6.0-0.49","2175204","co37987","norming","","","","","","",""
"null","../img/tt/055tt.jpg","null","mooney1","image-keyboard-response","350","923352","0.0-6.0-1.49","2175204","co37987","norming","","","","","","",""
"3439.324999999837","","","post_mooney1_questions","survey-likert","351","926793","0.0-6.0-2.49","2175204","co37987","norming","","","{""curiosity"":2,""confidence"":0}","[0,1]","../img/tt/055tt.jpg","",""
"485.9749999999767","","","recognition","survey-text","352","927281","0.0-6.0-3.49","2175204","co37987","norming","","","{""guess"":""""}","","../img/tt/055tt.jpg","",""
"null","../img/gs/055gs.jpg","null","reveal","image-keyboard-response","353","929289","0.0-6.0-4.49","2175204","co37987","norming","","","","","","",""
"null","../img/tt/055tt.jpg","null","mooney2","image-keyboard-response","354","931295","0.0-6.0-5.49","2175204","co37987","norming","","","","","","",""
"3561.6499999997905","","","post_reveal_questions","survey-likert","355","934857","0.0-6.0-6.49","2175204","co37987","norming","","","{""aha"":4}","[0]","../img/tt/055tt.jpg","",""
"null","<div style=""font-size:60px;""> </div>","null","fixation","html-keyboard-response","356","935060","0.0-6.0-0.50","2175204","co37987","norming","","","","","","",""
"null","../img/tt/580tt.jpg","null","mooney1","image-keyboard-response","357","938061","0.0-6.0-1.50","2175204","co37987","norming","","","","","","",""
"3579.5349999997998","","","post_mooney1_questions","survey-likert","358","941641","0.0-6.0-2.50","2175204","co37987","norming","","","{""curiosity"":5,""confidence"":1}","[0,1]","../img/tt/580tt.jpg","",""
"2637.6049999999814","","","recognition","survey-text","359","944281","0.0-6.0-3.50","2175204","co37987","norming","","","{""guess"":""slang""}","","../img/tt/580tt.jpg","",""
"null","../img/gs/580gs.jpg","null","reveal","image-keyboard-response","360","946282","0.0-6.0-4.50","2175204","co37987","norming","","","","","","",""
"null","../img/tt/580tt.jpg","null","mooney2","image-keyboard-response","361","948289","0.0-6.0-5.50","2175204","co37987","norming","","","","","","",""
"2871.244999999879","","","post_reveal_questions","survey-likert","362","951161","0.0-6.0-6.50","2175204","co37987","norming","","","{""aha"":4}","[0]","../img/tt/580tt.jpg","",""
"null","<div style=""font-size:60px;""> </div>","null","fixation","html-keyboard-response","363","951364","0.0-6.0-0.51","2175204","co37987","norming","","","","","","",""
"null","../img/tt/1188tt.jpg","null","mooney1","image-keyboard-response","364","954367","0.0-6.0-1.51","2175204","co37987","norming","","","","","","",""
"2920.5849999998463","","","post_mooney1_questions","survey-likert","365","957289","0.0-6.0-2.51","2175204","co37987","norming","","","{""curiosity"":5,""confidence"":0}","[0,1]","../img/tt/1188tt.jpg","",""
"485.9299999998184","","","recognition","survey-text","366","957777","0.0-6.0-3.51","2175204","co37987","norming","","","{""guess"":""""}","","../img/tt/1188tt.jpg","",""
"null","../img/gs/1188gs.jpg","null","reveal","image-keyboard-response","367","959781","0.0-6.0-4.51","2175204","co37987","norming","","","","","","",""
"null","../img/tt/1188tt.jpg","null","mooney2","image-keyboard-response","368","961792","0.0-6.0-5.51","2175204","co37987","norming","","","","","","",""
"2246.5050000000047","","","post_reveal_questions","survey-likert","369","964041","0.0-6.0-6.51","2175204","co37987","norming","","","{""aha"":4}","[0]","../img/tt/1188tt.jpg","",""
"null","<div style=""font-size:60px;""> </div>","null","fixation","html-keyboard-response","370","964243","0.0-6.0-0.52","2175204","co37987","norming","","","","","","",""
"null","../img/tt/1148tt.jpg","null","mooney1","image-keyboard-response","371","967252","0.0-6.0-1.52","2175204","co37987","norming","","","","","","",""
"3955.070000000065","","","post_mooney1_questions","survey-likert","372","971210","0.0-6.0-2.52","2175204","co37987","norming","","","{""curiosity"":4,""confidence"":1}","[0,1]","../img/tt/1148tt.jpg","",""
"2126.114999999525","","","recognition","survey-text","373","973337","0.0-6.0-3.52","2175204","co37987","norming","","","{""guess"":""watersport""}","","../img/tt/1148tt.jpg","",""
"null","../img/gs/1148gs.jpg","null","reveal","image-keyboard-response","374","975345","0.0-6.0-4.52","2175204","co37987","norming","","","","","","",""
"null","../img/tt/1148tt.jpg","null","mooney2","image-keyboard-response","375","977346","0.0-6.0-5.52","2175204","co37987","norming","","","","","","",""
"1804.579999999958","","","post_reveal_questions","survey-likert","376","979153","0.0-6.0-6.52","2175204","co37987","norming","","","{""aha"":2}","[0]","../img/tt/1148tt.jpg","",""
"null","<div style=""font-size:60px;""> </div>","null","fixation","html-keyboard-response","377","979355","0.0-6.0-0.53","2175204","co37987","norming","","","","","","",""
"null","../img/tt/1199tt.jpg","null","mooney1","image-keyboard-response","378","982365","0.0-6.0-1.53","2175204","co37987","norming","","","","","","",""
"6010.095000000205","","","post_mooney1_questions","survey-likert","379","988378","0.0-6.0-2.53","2175204","co37987","norming","","","{""curiosity"":4,""confidence"":1}","[0,1]","../img/tt/1199tt.jpg","",""
"7037.914999999921","","","recognition","survey-text","380","995416","0.0-6.0-3.53","2175204","co37987","norming","","","{""guess"":""relaxen ligbed""}","","../img/tt/1199tt.jpg","",""
"null","../img/gs/1199gs.jpg","null","reveal","image-keyboard-response","381","997418","0.0-6.0-4.53","2175204","co37987","norming","","","","","","",""
"null","../img/tt/1199tt.jpg","null","mooney2","image-keyboard-response","382","999426","0.0-6.0-5.53","2175204","co37987","norming","","","","","","",""
"2675.765000000014","","","post_reveal_questions","survey-likert","383","1002104","0.0-6.0-6.53","2175204","co37987","norming","","","{""aha"":4}","[0]","../img/tt/1199tt.jpg","",""
"null","<div style=""font-size:60px;""> </div>","null","fixation","html-keyboard-response","384","1002311","0.0-6.0-0.54","2175204","co37987","norming","","","","","","",""
"null","../img/tt/096tt.jpg","null","mooney1","image-keyboard-response","385","1005313","0.0-6.0-1.54","2175204","co37987","norming","","","","","","",""
"2947.6800000001676","","","post_mooney1_questions","survey-likert","386","1008264","0.0-6.0-2.54","2175204","co37987","norming","","","{""curiosity"":5,""confidence"":2}","[0,1]","../img/tt/096tt.jpg","",""
"2221.8949999996694","","","recognition","survey-text","387","1010488","0.0-6.0-3.54","2175204","co37987","norming","","","{""guess"":""piano""}","","../img/tt/096tt.jpg","",""
"null","../img/gs/096gs.jpg","null","reveal","image-keyboard-response","388","1012495","0.0-6.0-4.54","2175204","co37987","norming","","","","","","",""
"null","../img/tt/096tt.jpg","null","mooney2","image-keyboard-response","389","1014498","0.0-6.0-5.54","2175204","co37987","norming","","","","","","",""
"2459.5550000004005","","","post_reveal_questions","survey-likert","390","1016959","0.0-6.0-6.54","2175204","co37987","norming","","","{""aha"":1}","[0]","../img/tt/096tt.jpg","",""
"null","<div style=""font-size:60px;""> </div>","null","fixation","html-keyboard-response","391","1017160","0.0-6.0-0.55","2175204","co37987","norming","","","","","","",""
"null","../img/tt/1151tt.jpg","null","mooney1","image-keyboard-response","392","1020168","0.0-6.0-1.55","2175204","co37987","norming","","","","","","",""
"2244.384999999893","","","post_mooney1_questions","survey-likert","393","1022416","0.0-6.0-2.55","2175204","co37987","norming","","","{""curiosity"":5,""confidence"":1}","[0,1]","../img/tt/1151tt.jpg","",""
"3254.269999999902","","","recognition","survey-text","394","1025672","0.0-6.0-3.55","2175204","co37987","norming","","","{""guess"":""schoen""}","","../img/tt/1151tt.jpg","",""
"null","../img/gs/1151gs.jpg","null","reveal","image-keyboard-response","395","1027683","0.0-6.0-4.55","2175204","co37987","norming","","","","","","",""
"null","../img/tt/1151tt.jpg","null","mooney2","image-keyboard-response","396","1029686","0.0-6.0-5.55","2175204","co37987","norming","","","","","","",""
"1623.6400000002468","","","post_reveal_questions","survey-likert","397","1031312","0.0-6.0-6.55","2175204","co37987","norming","","","{""aha"":4}","[0]","../img/tt/1151tt.jpg","",""
"null","<div style=""font-size:60px;""> </div>","null","fixation","html-keyboard-response","398","1031513","0.0-6.0-0.56","2175204","co37987","norming","","","","","","",""
"null","../img/tt/1173tt.jpg","null","mooney1","image-keyboard-response","399","1034517","0.0-6.0-1.56","2175204","co37987","norming","","","","","","",""
"2895.634999999893","","","post_mooney1_questions","survey-likert","400","1037416","0.0-6.0-2.56","2175204","co37987","norming","","","{""curiosity"":5,""confidence"":1}","[0,1]","../img/tt/1173tt.jpg","",""
"2542.390000000014","","","recognition","survey-text","401","1039960","0.0-6.0-3.56","2175204","co37987","norming","","","{""guess"":""lopen""}","","../img/tt/1173tt.jpg","",""
"null","../img/gs/1173gs.jpg","null","reveal","image-keyboard-response","402","1041961","0.0-6.0-4.56","2175204","co37987","norming","","","","","","",""
"null","../img/tt/1173tt.jpg","null","mooney2","image-keyboard-response","403","1043965","0.0-6.0-5.56","2175204","co37987","norming","","","","","","",""
"1936.505000000121","","","post_reveal_questions","survey-likert","404","1045904","0.0-6.0-6.56","2175204","co37987","norming","","","{""aha"":4}","[0]","../img/tt/1173tt.jpg","",""
"null","<div style=""font-size:60px;""> </div>","null","fixation","html-keyboard-response","405","1046111","0.0-6.0-0.57","2175204","co37987","norming","","","","","","",""
"null","../img/tt/1237tt.jpg","null","mooney1","image-keyboard-response","406","1049115","0.0-6.0-1.57","2175204","co37987","norming","","","","","","",""
"3610.9000000001397","","","post_mooney1_questions","survey-likert","407","1052728","0.0-6.0-2.57","2175204","co37987","norming","","","{""curiosity"":4,""confidence"":1}","[0,1]","../img/tt/1237tt.jpg","",""
"2062.0849999999627","","","recognition","survey-text","408","1054792","0.0-6.0-3.57","2175204","co37987","norming","","","{""guess"":""zwemmen""}","","../img/tt/1237tt.jpg","",""
"null","../img/gs/1237gs.jpg","null","reveal","image-keyboard-response","409","1056794","0.0-6.0-4.57","2175204","co37987","norming","","","","","","",""
"null","../img/tt/1237tt.jpg","null","mooney2","image-keyboard-response","410","1058797","0.0-6.0-5.57","2175204","co37987","norming","","","","","","",""
"1888.3200000000652","","","post_reveal_questions","survey-likert","411","1060688","0.0-6.0-6.57","2175204","co37987","norming","","","{""aha"":4}","[0]","../img/tt/1237tt.jpg","",""
"null","<div style=""font-size:60px;""> </div>","null","fixation","html-keyboard-response","412","1060890","0.0-6.0-0.58","2175204","co37987","norming","","","","","","",""
"null","../img/tt/416tt.jpg","null","mooney1","image-keyboard-response","413","1063898","0.0-6.0-1.58","2175204","co37987","norming","","","","","","",""
"1771.1350000000093","","","post_mooney1_questions","survey-likert","414","1065672","0.0-6.0-2.58","2175204","co37987","norming","","","{""curiosity"":5,""confidence"":6}","[0,1]","../img/tt/416tt.jpg","",""
"2350.0999999996275","","","recognition","survey-text","415","1068024","0.0-6.0-3.58","2175204","co37987","norming","","","{""guess"":""struisvogel""}","","../img/tt/416tt.jpg","",""
"null","../img/gs/416gs.jpg","null","reveal","image-keyboard-response","416","1070033","0.0-6.0-4.58","2175204","co37987","norming","","","","","","",""
"null","../img/tt/416tt.jpg","null","mooney2","image-keyboard-response","417","1072036","0.0-6.0-5.58","2175204","co37987","norming","","","","","","",""
"1953.7750000001397","","","post_reveal_questions","survey-likert","418","1073992","0.0-6.0-6.58","2175204","co37987","norming","","","{""aha"":1}","[0]","../img/tt/416tt.jpg","",""
"null","<div style=""font-size:60px;""> </div>","null","fixation","html-keyboard-response","419","1074194","0.0-6.0-0.59","2175204","co37987","norming","","","","","","",""
"null","../img/tt/380tt.jpg","null","mooney1","image-keyboard-response","420","1077198","0.0-6.0-1.59","2175204","co37987","norming","","","","","","",""
"2255.355000000214","","","post_mooney1_questions","survey-likert","421","1079456","0.0-6.0-2.59","2175204","co37987","norming","","","{""curiosity"":5,""confidence"":1}","[0,1]","../img/tt/380tt.jpg","",""
"1686.1100000001024","","","recognition","survey-text","422","1081144","0.0-6.0-3.59","2175204","co37987","norming","","","{""guess"":""dansen""}","","../img/tt/380tt.jpg","",""
"null","../img/gs/380gs.jpg","null","reveal","image-keyboard-response","423","1083146","0.0-6.0-4.59","2175204","co37987","norming","","","","","","",""
"null","../img/tt/380tt.jpg","null","mooney2","image-keyboard-response","424","1085148","0.0-6.0-5.59","2175204","co37987","norming","","","","","","",""
"5761.5699999995995","","","post_reveal_questions","survey-likert","425","1090912","0.0-6.0-6.59","2175204","co37987","norming","","","{""aha"":5}","[0]","../img/tt/380tt.jpg","",""
"null","<div style=""font-size:60px;""> </div>","null","fixation","html-keyboard-response","426","1091122","0.0-6.0-0.60","2175204","co37987","norming","","","","","","",""
"null","../img/tt/064tt.jpg","null","mooney1","image-keyboard-response","427","1094132","0.0-6.0-1.60","2175204","co37987","norming","","","","","","",""
"3528.7450000001118","","","post_mooney1_questions","survey-likert","428","1097664","0.0-6.0-2.60","2175204","co37987","norming","","","{""curiosity"":5,""confidence"":1}","[0,1]","../img/tt/064tt.jpg","",""
"2406.2649999996647","","","recognition","survey-text","429","1100072","0.0-6.0-3.60","2175204","co37987","norming","","","{""guess"":""zeeschildpad""}","","../img/tt/064tt.jpg","",""
"null","../img/gs/064gs.jpg","null","reveal","image-keyboard-response","430","1102081","0.0-6.0-4.60","2175204","co37987","norming","","","","","","",""
"null","../img/tt/064tt.jpg","null","mooney2","image-keyboard-response","431","1104084","0.0-6.0-5.60","2175204","co37987","norming","","","","","","",""
"2074.1350000000093","","","post_reveal_questions","survey-likert","432","1106160","0.0-6.0-6.60","2175204","co37987","norming","","","{""aha"":3}","[0]","../img/tt/064tt.jpg","",""
"null","<div style=""font-size:60px;""> </div>","null","fixation","html-keyboard-response","433","1106362","0.0-6.0-0.61","2175204","co37987","norming","","","","","","",""
"null","../img/tt/1269tt.jpg","null","mooney1","image-keyboard-response","434","1109364","0.0-6.0-1.61","2175204","co37987","norming","","","","","","",""
"5217.075000000186","","","post_mooney1_questions","survey-likert","435","1114591","0.0-6.0-2.61","2175204","co37987","norming","","","{""curiosity"":5,""confidence"":2}","[0,1]","../img/tt/1269tt.jpg","",""
"1949.4350000000559","","","recognition","survey-text","436","1116543","0.0-6.0-3.61","2175204","co37987","norming","","","{""guess"":""vosje""}","","../img/tt/1269tt.jpg","",""
"null","../img/gs/1269gs.jpg","null","reveal","image-keyboard-response","437","1118549","0.0-6.0-4.61","2175204","co37987","norming","","","","","","",""
"null","../img/tt/1269tt.jpg","null","mooney2","image-keyboard-response","438","1120552","0.0-6.0-5.61","2175204","co37987","norming","","","","","","",""
"1852.0099999995437","","","post_reveal_questions","survey-likert","439","1122407","0.0-6.0-6.61","2175204","co37987","norming","","","{""aha"":4}","[0]","../img/tt/1269tt.jpg","",""
"null","<div style=""font-size:60px;""> </div>","null","fixation","html-keyboard-response","440","1122608","0.0-6.0-0.62","2175204","co37987","norming","","","","","","",""
"null","../img/tt/1044tt.jpg","null","mooney1","image-keyboard-response","441","1125611","0.0-6.0-1.62","2175204","co37987","norming","","","","","","",""
"2552.875000000233","","","post_mooney1_questions","survey-likert","442","1128167","0.0-6.0-2.62","2175204","co37987","norming","","","{""curiosity"":5,""confidence"":0}","[0,1]","../img/tt/1044tt.jpg","",""
"702.0600000000559","","","recognition","survey-text","443","1128871","0.0-6.0-3.62","2175204","co37987","norming","","","{""guess"":""""}","","../img/tt/1044tt.jpg","",""
"null","../img/gs/1044gs.jpg","null","reveal","image-keyboard-response","444","1130879","0.0-6.0-4.62","2175204","co37987","norming","","","","","","",""
"null","../img/tt/1044tt.jpg","null","mooney2","image-keyboard-response","445","1132883","0.0-6.0-5.62","2175204","co37987","norming","","","","","","",""
"2177.7000000001863","","","post_reveal_questions","survey-likert","446","1135063","0.0-6.0-6.62","2175204","co37987","norming","","","{""aha"":5}","[0]","../img/tt/1044tt.jpg","",""
"null","<div style=""font-size:60px;""> </div>","null","fixation","html-keyboard-response","447","1135265","0.0-6.0-0.63","2175204","co37987","norming","","","","","","",""
"null","../img/tt/001tt.jpg","null","mooney1","image-keyboard-response","448","1138270","0.0-6.0-1.63","2175204","co37987","norming","","","","","","",""
"3230.3149999997113","","","post_mooney1_questions","survey-likert","449","1141503","0.0-6.0-2.63","2175204","co37987","norming","","","{""curiosity"":5,""confidence"":0}","[0,1]","../img/tt/001tt.jpg","",""
"469.87499999976717","","","recognition","survey-text","450","1141975","0.0-6.0-3.63","2175204","co37987","norming","","","{""guess"":""""}","","../img/tt/001tt.jpg","",""
"null","../img/gs/001gs.jpg","null","reveal","image-keyboard-response","451","1143984","0.0-6.0-4.63","2175204","co37987","norming","","","","","","",""
"null","../img/tt/001tt.jpg","null","mooney2","image-keyboard-response","452","1145987","0.0-6.0-5.63","2175204","co37987","norming","","","","","","",""
"2088.7199999997392","","","post_reveal_questions","survey-likert","453","1148079","0.0-6.0-6.63","2175204","co37987","norming","","","{""aha"":3}","[0]","../img/tt/001tt.jpg","",""
"null","<div style=""font-size:60px;""> </div>","null","fixation","html-keyboard-response","454","1148282","0.0-6.0-0.64","2175204","co37987","norming","","","","","","",""
"null","../img/tt/329tt.jpg","null","mooney1","image-keyboard-response","455","1151294","0.0-6.0-1.64","2175204","co37987","norming","","","","","","",""
"2582.0149999998976","","","post_mooney1_questions","survey-likert","456","1153879","0.0-6.0-2.64","2175204","co37987","norming","","","{""curiosity"":1,""confidence"":0}","[0,1]","../img/tt/329tt.jpg","",""
"773.7099999999627","","","recognition","survey-text","457","1154655","0.0-6.0-3.64","2175204","co37987","norming","","","{""guess"":""""}","","../img/tt/329tt.jpg","",""
"null","../img/gs/329gs.jpg","null","reveal","image-keyboard-response","458","1156661","0.0-6.0-4.64","2175204","co37987","norming","","","","","","",""
"null","../img/tt/329tt.jpg","null","mooney2","image-keyboard-response","459","1158664","0.0-6.0-5.64","2175204","co37987","norming","","","","","","",""
"2428.5749999999534","","","post_reveal_questions","survey-likert","460","1161095","0.0-6.0-6.64","2175204","co37987","norming","","","{""aha"":6}","[0]","../img/tt/329tt.jpg","",""
"null","<div style=""font-size:60px;""> </div>","null","fixation","html-keyboard-response","461","1161297","0.0-6.0-0.65","2175204","co37987","norming","","","","","","",""
"null","../img/tt/1307tt.jpg","null","mooney1","image-keyboard-response","462","1164299","0.0-6.0-1.65","2175204","co37987","norming","","","","","","",""
"2592.4899999999907","","","post_mooney1_questions","survey-likert","463","1166895","0.0-6.0-2.65","2175204","co37987","norming","","","{""curiosity"":5,""confidence"":1}","[0,1]","../img/tt/1307tt.jpg","",""
"2846.1699999999255","","","recognition","survey-text","464","1169743","0.0-6.0-3.65","2175204","co37987","norming","","","{""guess"":""wiel""}","","../img/tt/1307tt.jpg","",""
"null","../img/gs/1307gs.jpg","null","reveal","image-keyboard-response","465","1171753","0.0-6.0-4.65","2175204","co37987","norming","","","","","","",""
"null","../img/tt/1307tt.jpg","null","mooney2","image-keyboard-response","466","1173761","0.0-6.0-5.65","2175204","co37987","norming","","","","","","",""
"2518.0150000001304","","","post_reveal_questions","survey-likert","467","1176282","0.0-6.0-6.65","2175204","co37987","norming","","","{""aha"":0}","[0]","../img/tt/1307tt.jpg","",""
"null","<div style=""font-size:60px;""> </div>","null","fixation","html-keyboard-response","468","1176489","0.0-6.0-0.66","2175204","co37987","norming","","","","","","",""
"null","../img/tt/1118tt.jpg","null","mooney1","image-keyboard-response","469","1179496","0.0-6.0-1.66","2175204","co37987","norming","","","","","","",""
"3287.255000000121","","","post_mooney1_questions","survey-likert","470","1182787","0.0-6.0-2.66","2175204","co37987","norming","","","{""curiosity"":5,""confidence"":0}","[0,1]","../img/tt/1118tt.jpg","",""
"773.9250000000466","","","recognition","survey-text","471","1183562","0.0-6.0-3.66","2175204","co37987","norming","","","{""guess"":""""}","","../img/tt/1118tt.jpg","",""
"null","../img/gs/1118gs.jpg","null","reveal","image-keyboard-response","472","1185571","0.0-6.0-4.66","2175204","co37987","norming","","","","","","",""
"null","../img/tt/1118tt.jpg","null","mooney2","image-keyboard-response","473","1187574","0.0-6.0-5.66","2175204","co37987","norming","","","","","","",""
"1265.6999999997206","","","post_reveal_questions","survey-likert","474","1188842","0.0-6.0-6.66","2175204","co37987","norming","","","{""aha"":5}","[0]","../img/tt/1118tt.jpg","",""
"null","<div style=""font-size:60px;""> </div>","null","fixation","html-keyboard-response","475","1189044","0.0-6.0-0.67","2175204","co37987","norming","","","","","","",""
"null","../img/tt/497tt.jpg","null","mooney1","image-keyboard-response","476","1192046","0.0-6.0-1.67","2175204","co37987","norming","","","","","","",""
"2257.114999999758","","","post_mooney1_questions","survey-likert","477","1194307","0.0-6.0-2.67","2175204","co37987","norming","","","{""curiosity"":5,""confidence"":1}","[0,1]","../img/tt/497tt.jpg","",""
"2030.0200000002515","","","recognition","survey-text","478","1196338","0.0-6.0-3.67","2175204","co37987","norming","","","{""guess"":""banaan""}","","../img/tt/497tt.jpg","",""
"null","../img/gs/497gs.jpg","null","reveal","image-keyboard-response","479","1198343","0.0-6.0-4.67","2175204","co37987","norming","","","","","","",""
"null","../img/tt/497tt.jpg","null","mooney2","image-keyboard-response","480","1200346","0.0-6.0-5.67","2175204","co37987","norming","","","","","","",""
"2429.4499999994878","","","post_reveal_questions","survey-likert","481","1202778","0.0-6.0-6.67","2175204","co37987","norming","","","{""aha"":4}","[0]","../img/tt/497tt.jpg","",""
"null","<div style=""font-size:60px;""> </div>","null","fixation","html-keyboard-response","482","1202985","0.0-6.0-0.68","2175204","co37987","norming","","","","","","",""
"null","../img/tt/1196tt.jpg","null","mooney1","image-keyboard-response","483","1205989","0.0-6.0-1.68","2175204","co37987","norming","","","","","","",""
"3817.505000000121","","","post_mooney1_questions","survey-likert","484","1209810","0.0-6.0-2.68","2175204","co37987","norming","","","{""curiosity"":5,""confidence"":1}","[0,1]","../img/tt/1196tt.jpg","",""
"3406.0999999998603","","","recognition","survey-text","485","1213218","0.0-6.0-3.68","2175204","co37987","norming","","","{""guess"":""bootje varen""}","","../img/tt/1196tt.jpg","",""
"null","../img/gs/1196gs.jpg","null","reveal","image-keyboard-response","486","1215220","0.0-6.0-4.68","2175204","co37987","norming","","","","","","",""
"null","../img/tt/1196tt.jpg","null","mooney2","image-keyboard-response","487","1217228","0.0-6.0-5.68","2175204","co37987","norming","","","","","","",""
"2651.684999999823","","","post_reveal_questions","survey-likert","488","1219882","0.0-6.0-6.68","2175204","co37987","norming","","","{""aha"":5}","[0]","../img/tt/1196tt.jpg","",""
"null","<div style=""font-size:60px;""> </div>","null","fixation","html-keyboard-response","489","1220084","0.0-6.0-0.69","2175204","co37987","norming","","","","","","",""
"null","../img/tt/163tt.jpg","null","mooney1","image-keyboard-response","490","1223086","0.0-6.0-1.69","2175204","co37987","norming","","","","","","",""
"2698.8499999998603","","","post_mooney1_questions","survey-likert","491","1225786","0.0-6.0-2.69","2175204","co37987","norming","","","{""curiosity"":5,""confidence"":1}","[0,1]","../img/tt/163tt.jpg","",""
"2054.2450000003446","","","recognition","survey-text","492","1227842","0.0-6.0-3.69","2175204","co37987","norming","","","{""guess"":""vechtsport""}","","../img/tt/163tt.jpg","",""
"null","../img/gs/163gs.jpg","null","reveal","image-keyboard-response","493","1229844","0.0-6.0-4.69","2175204","co37987","norming","","","","","","",""
"null","../img/tt/163tt.jpg","null","mooney2","image-keyboard-response","494","1231848","0.0-6.0-5.69","2175204","co37987","norming","","","","","","",""
"1394.3300000000745","","","post_reveal_questions","survey-likert","495","1233246","0.0-6.0-6.69","2175204","co37987","norming","","","{""aha"":5}","[0]","../img/tt/163tt.jpg","",""
"null","<div style=""font-size:60px;""> </div>","null","fixation","html-keyboard-response","496","1233447","0.0-6.0-0.70","2175204","co37987","norming","","","","","","",""
"null","../img/tt/524tt.jpg","null","mooney1","image-keyboard-response","497","1236451","0.0-6.0-1.70","2175204","co37987","norming","","","","","","",""
"2254.899999999907","","","post_mooney1_questions","survey-likert","498","1238710","0.0-6.0-2.70","2175204","co37987","norming","","","{""curiosity"":5,""confidence"":2}","[0,1]","../img/tt/524tt.jpg","",""
"2126.1150000002235","","","recognition","survey-text","499","1240837","0.0-6.0-3.70","2175204","co37987","norming","","","{""guess"":""olifant""}","","../img/tt/524tt.jpg","",""
"null","../img/gs/524gs.jpg","null","reveal","image-keyboard-response","500","1242840","0.0-6.0-4.70","2175204","co37987","norming","","","","","","",""
"null","../img/tt/524tt.jpg","null","mooney2","image-keyboard-response","501","1244851","0.0-6.0-5.70","2175204","co37987","norming","","","","","","",""
"1975.880000000121","","","post_reveal_questions","survey-likert","502","1246829","0.0-6.0-6.70","2175204","co37987","norming","","","{""aha"":2}","[0]","../img/tt/524tt.jpg","",""
"null","<div style=""font-size:60px;""> </div>","null","fixation","html-keyboard-response","503","1247031","0.0-6.0-0.71","2175204","co37987","norming","","","","","","",""
"null","../img/tt/273tt.jpg","null","mooney1","image-keyboard-response","504","1250034","0.0-6.0-1.71","2175204","co37987","norming","","","","","","",""
"2760.7450000001118","","","post_mooney1_questions","survey-likert","505","1252798","0.0-6.0-2.71","2175204","co37987","norming","","","{""curiosity"":5,""confidence"":0}","[0,1]","../img/tt/273tt.jpg","",""
"798.0799999998417","","","recognition","survey-text","506","1253597","0.0-6.0-3.71","2175204","co37987","norming","","","{""guess"":""""}","","../img/tt/273tt.jpg","",""
"null","../img/gs/273gs.jpg","null","reveal","image-keyboard-response","507","1255603","0.0-6.0-4.71","2175204","co37987","norming","","","","","","",""
"null","../img/tt/273tt.jpg","null","mooney2","image-keyboard-response","508","1257606","0.0-6.0-5.71","2175204","co37987","norming","","","","","","",""
"2421.2050000000745","","","post_reveal_questions","survey-likert","509","1260030","0.0-6.0-6.71","2175204","co37987","norming","","","{""aha"":5}","[0]","../img/tt/273tt.jpg","",""
"null","<div style=""font-size:60px;""> </div>","null","fixation","html-keyboard-response","510","1260231","0.0-6.0-0.72","2175204","co37987","norming","","","","","","",""
"null","../img/tt/1268tt.jpg","null","mooney1","image-keyboard-response","511","1263233","0.0-6.0-1.72","2175204","co37987","norming","","","","","","",""
"2161.1399999996647","","","post_mooney1_questions","survey-likert","512","1265398","0.0-6.0-2.72","2175204","co37987","norming","","","{""curiosity"":1,""confidence"":0}","[0,1]","../img/tt/1268tt.jpg","",""
"478.1400000003632","","","recognition","survey-text","513","1265877","0.0-6.0-3.72","2175204","co37987","norming","","","{""guess"":""""}","","../img/tt/1268tt.jpg","",""
"null","../img/gs/1268gs.jpg","null","reveal","image-keyboard-response","514","1267885","0.0-6.0-4.72","2175204","co37987","norming","","","","","","",""
"null","../img/tt/1268tt.jpg","null","mooney2","image-keyboard-response","515","1269888","0.0-6.0-5.72","2175204","co37987","norming","","","","","","",""
"2426.320000000065","","","post_reveal_questions","survey-likert","516","1272317","0.0-6.0-6.72","2175204","co37987","norming","","","{""aha"":3}","[0]","../img/tt/1268tt.jpg","",""
"null","<div style=""font-size:60px;""> </div>","null","fixation","html-keyboard-response","517","1272518","0.0-6.0-0.73","2175204","co37987","norming","","","","","","",""
"null","../img/tt/515tt.jpg","null","mooney1","image-keyboard-response","518","1275520","0.0-6.0-1.73","2175204","co37987","norming","","","","","","",""
"2113.8650000002235","","","post_mooney1_questions","survey-likert","519","1277638","0.0-6.0-2.73","2175204","co37987","norming","","","{""curiosity"":5,""confidence"":2}","[0,1]","../img/tt/515tt.jpg","",""
"1902.049999999581","","","recognition","survey-text","520","1279541","0.0-6.0-3.73","2175204","co37987","norming","","","{""guess"":""vogel""}","","../img/tt/515tt.jpg","",""
"null","../img/gs/515gs.jpg","null","reveal","image-keyboard-response","521","1281543","0.0-6.0-4.73","2175204","co37987","norming","","","","","","",""
"null","../img/tt/515tt.jpg","null","mooney2","image-keyboard-response","522","1283545","0.0-6.0-5.73","2175204","co37987","norming","","","","","","",""
"4193.549999999814","","","post_reveal_questions","survey-likert","523","1287741","0.0-6.0-6.73","2175204","co37987","norming","","","{""aha"":1}","[0]","../img/tt/515tt.jpg","",""
"null","<div style=""font-size:60px;""> </div>","null","fixation","html-keyboard-response","524","1287949","0.0-6.0-0.74","2175204","co37987","norming","","","","","","",""
"null","../img/tt/1089tt.jpg","null","mooney1","image-keyboard-response","525","1290960","0.0-6.0-1.74","2175204","co37987","norming","","","","","","",""
"2545.910000000149","","","post_mooney1_questions","survey-likert","526","1293507","0.0-6.0-2.74","2175204","co37987","norming","","","{""curiosity"":5,""confidence"":2}","[0,1]","../img/tt/1089tt.jpg","",""
"3422.2299999995157","","","recognition","survey-text","527","1296930","0.0-6.0-3.74","2175204","co37987","norming","","","{""guess"":""olifant""}","","../img/tt/1089tt.jpg","",""
"null","../img/gs/1089gs.jpg","null","reveal","image-keyboard-response","528","1298933","0.0-6.0-4.74","2175204","co37987","norming","","","","","","",""
"null","../img/tt/1089tt.jpg","null","mooney2","image-keyboard-response","529","1300936","0.0-6.0-5.74","2175204","co37987","norming","","","","","","",""
"2367.780000000028","","","post_reveal_questions","survey-likert","530","1303306","0.0-6.0-6.74","2175204","co37987","norming","","","{""aha"":1}","[0]","../img/tt/1089tt.jpg","",""
"null","<div style=""font-size:60px;""> </div>","null","fixation","html-keyboard-response","531","1303507","0.0-6.0-0.75","2175204","co37987","norming","","","","","","",""
"null","../img/tt/1171tt.jpg","null","mooney1","image-keyboard-response","532","1306510","0.0-6.0-1.75","2175204","co37987","norming","","","","","","",""
"7929.059999999823","","","post_mooney1_questions","survey-likert","533","1314443","0.0-6.0-2.75","2175204","co37987","norming","","","{""curiosity"":5,""confidence"":1}","[0,1]","../img/tt/1171tt.jpg","",""
"2822.0749999994878","","","recognition","survey-text","534","1317266","0.0-6.0-3.75","2175204","co37987","norming","","","{""guess"":""gymnastiek""}","","../img/tt/1171tt.jpg","",""
"null","../img/gs/1171gs.jpg","null","reveal","image-keyboard-response","535","1319276","0.0-6.0-4.75","2175204","co37987","norming","","","","","","",""
"null","../img/tt/1171tt.jpg","null","mooney2","image-keyboard-response","536","1321278","0.0-6.0-5.75","2175204","co37987","norming","","","","","","",""
"1545.8649999999907","","","post_reveal_questions","survey-likert","537","1322826","0.0-6.0-6.75","2175204","co37987","norming","","","{""aha"":6}","[0]","../img/tt/1171tt.jpg","",""
"null","<div style=""font-size:60px;""> </div>","null","fixation","html-keyboard-response","538","1323029","0.0-6.0-0.76","2175204","co37987","norming","","","","","","",""
"null","../img/tt/1260tt.jpg","null","mooney1","image-keyboard-response","539","1326037","0.0-6.0-1.76","2175204","co37987","norming","","","","","","",""
"2394.5499999998137","","","post_mooney1_questions","survey-likert","540","1328435","0.0-6.0-2.76","2175204","co37987","norming","","","{""curiosity"":5,""confidence"":1}","[0,1]","../img/tt/1260tt.jpg","",""
"1838.2900000000373","","","recognition","survey-text","541","1330274","0.0-6.0-3.76","2175204","co37987","norming","","","{""guess"":""libel""}","","../img/tt/1260tt.jpg","",""
"null","../img/gs/1260gs.jpg","null","reveal","image-keyboard-response","542","1332284","0.0-6.0-4.76","2175204","co37987","norming","","","","","","",""
"null","../img/tt/1260tt.jpg","null","mooney2","image-keyboard-response","543","1334286","0.0-6.0-5.76","2175204","co37987","norming","","","","","","",""
"1193.9750000000931","","","post_reveal_questions","survey-likert","544","1335482","0.0-6.0-6.76","2175204","co37987","norming","","","{""aha"":3}","[0]","../img/tt/1260tt.jpg","",""
"null","<div style=""font-size:60px;""> </div>","null","fixation","html-keyboard-response","545","1335688","0.0-6.0-0.77","2175204","co37987","norming","","","","","","",""
"null","../img/tt/1091tt.jpg","null","mooney1","image-keyboard-response","546","1338696","0.0-6.0-1.77","2175204","co37987","norming","","","","","","",""
"3279.4749999998603","","","post_mooney1_questions","survey-likert","547","1341979","0.0-6.0-2.77","2175204","co37987","norming","","","{""curiosity"":5,""confidence"":1}","[0,1]","../img/tt/1091tt.jpg","",""
"2054.124999999767","","","recognition","survey-text","548","1344034","0.0-6.0-3.77","2175204","co37987","norming","","","{""guess"":""groot dier""}","","../img/tt/1091tt.jpg","",""
"null","../img/gs/1091gs.jpg","null","reveal","image-keyboard-response","549","1346038","0.0-6.0-4.77","2175204","co37987","norming","","","","","","",""
"null","../img/tt/1091tt.jpg","null","mooney2","image-keyboard-response","550","1348047","0.0-6.0-5.77","2175204","co37987","norming","","","","","","",""
"1160.2849999999162","","","post_reveal_questions","survey-likert","551","1349210","0.0-6.0-6.77","2175204","co37987","norming","","","{""aha"":5}","[0]","../img/tt/1091tt.jpg","",""
"null","<div style=""font-size:60px;""> </div>","null","fixation","html-keyboard-response","552","1349412","0.0-6.0-0.78","2175204","co37987","norming","","","","","","",""
