"rt","stimulus","key_press","test_part","trial_type","trial_index","time_elapsed","internal_node_id","totalTime","subject","experiment_name","button_pressed","success","responses","question_order","currentStim","old","correct"
"8237.795000000006","Welcome to the experiment. This is an online experiment so please don't close the tab/window until we say goodbye.  Press any key to begin.","32","instructions","html-keyboard-response","0","8257","0.0-0.0","2787847","co37606","norming","","","","","","",""
"27568.74499999958","<div style='word-wrap: break-word; width: 900px'><h3>Please consider this information carefully before deciding whether to participate in this research</h3><ul style='text-align: left; font-size: .8em;'><li><b>Purpose of the research</b>: To examine how people process images.</li><li><b>What you will do in this research</b>:  Stimuli (images) will be presented on the computer and you will be asked different questions about them.</li><li><b>Time required</b>: Participation will take between 45 and 60 minutes to complete.</li><li><b>Risks</b>:  There are no anticipated risks associated with participating in this study. The effects of participating should be comparable to those you would experience from viewing a computer monitor for 30 minutes and using a mouse or keyboard.</li><li><b>Benefits</b>:  This study provides no benefits to you individually except for the credit. The study provides important information about the nature of perception and learning.</li><li><b>Confidentiality</b>:  Your participation in this study will remain confidential. No personally identifiable information will be associated with your data. Your de-identified data may be shared with other researchers and used in future projects.</li><li><b>Participation and withdrawal</b>:  Your participation in this study is completely voluntary and you may refuse to participate or you may choose to withdraw at any time without penalty.</li><li><b>How to contact the researchers</b>: If you have questions or concerns about your participation or payment, or want to request a summary of research findings, please contact Sander Van de Cruys (KU Leuven), at sander.vandecruys@kuleuven.be.</li></ul><p>The nature and purpose of this research have been sufficiently explained and I agree to participate in this study.  I understand that I am free to withdraw at any time without incurring any penalty.</p><p>Please consent by clicking the button below to continue. Otherwise, please exit the study at this time.</p></div>","","instructions","html-button-response","1","35838","0.0-1.0","2787847","co37606","norming","0","","","","","",""
"","","","instructions","fullscreen","2","45120","0.0-2.0","2787847","co37606","norming","","true","","","","",""
"24922.445000000145","","","sona","survey-html-form","3","70046","0.0-3.0","2787847","co37606","norming","","","[{""name"":""sonaid"",""value"":""37606""},{""name"":""debrief"",""value"":""no""},{""name"":""datajoin"",""value"":""yes""}]","","","",""
"71062.90499999977","<div style='word-wrap: break-word; width: 900px'><h3>Instructions</h3><p>This experiment will have 3 parts. In the first part you will see a series of distorted images like the one below on the left. As you can see in the righthand image, the distorted images are derived from actual photographs. In what follows, you will <strong>briefly</strong> be presented with <strong>only</strong> the distorted image.</p> <div style='float: left; margin-right: 20px;'><img src='../img/018tt.jpg' height='250' width='250'></img></div><div style='float: right; margin-left: 20px;'><img src='../img/018gs.jpg' height='250' width='250'></img></div><p>Subsequently you will be asked a few questions about the image: One question on how <strong>curious</strong> you are about the solution and one on how <strong>confident</strong> you are that you know the solution.</p>Next, we ask you to make a guess on what is in the image. Note that it is OK to name just the <strong>basic level category</strong>. For example when you see a parrot in the image, 'parrot' will obviously be a correct answer but also correct is 'bird'. However, 'animal' will <strong>not</strong> be counted as a correct response. For the example above, 'rose' would be correct or 'flower', but not 'plant'. When soccer players are depicted, 'soccer', 'football', 'soccer players' will be correct, but not 'humans', 'outdoors', or 'sports'. You do not need to describe the image in full, just name the main object in it <strong>in one or two words</strong>. All images depict objects from one of the following broad level categories: animals, inanimate objects, plants, sports, vehicles, and food. Recognizing means knowing <strong>more</strong> than these broad labels for a given image. But we always encourage you to <strong>make a guess</strong> if you can. Note that you are allowed to use <strong>Dutch and English</strong> in your answers, whatever comes easiest for you.</p><p>Press any key to continue.</p></div>","32","instructions","html-keyboard-response","4","141105","0.0-4.0","2787847","co37606","norming","","","","","","",""
"27311.789999999746","<div style='word-wrap: break-word; width: 900px'><h3>Instructions</h3> <p>Next, the solution image will be revealed to you and you'll be asked to indicate how strong your <strong>aha-experience</strong> was after seeing the solution. This describes the positive feeling of the 'click' you sometimes experience, when the pieces of the 'puzzle' fall together and you suddenly have 'insight' in the image.</p><img src='aha.jpg' height='188' width='250'></img><p>Note that there are no right or wrong answers. We are interested in what <strong>you</strong> see in the image and how <strong>you</strong> feel about it.</p><p>Press any key to start the experiment.</p></div>","32","instructions","html-keyboard-response","5","168418","0.0-5.0","2787847","co37606","norming","","","","","","",""
"null","<div style=""font-size:60px;""> </div>","null","fixation","html-keyboard-response","6","168622","0.0-6.0-0.0","2787847","co37606","norming","","","","","","",""
"null","../img/tt/440tt.jpg","null","mooney1","image-keyboard-response","7","171629","0.0-6.0-1.0","2787847","co37606","norming","","","","","","",""
"23895.89500000057","","","post_mooney1_questions","survey-likert","8","195528","0.0-6.0-2.0","2787847","co37606","norming","","","{""curiosity"":6,""confidence"":0}","[0,1]","../img/tt/440tt.jpg","",""
"6405.444999999425","","","recognition","survey-text","9","201937","0.0-6.0-3.0","2787847","co37606","norming","","","{""guess"":""""}","","../img/tt/440tt.jpg","",""
"null","../img/gs/440gs.jpg","null","reveal","image-keyboard-response","10","203939","0.0-6.0-4.0","2787847","co37606","norming","","","","","","",""
"null","../img/tt/440tt.jpg","null","mooney2","image-keyboard-response","11","205941","0.0-6.0-5.0","2787847","co37606","norming","","","","","","",""
"4938.290000000066","","","post_reveal_questions","survey-likert","12","210881","0.0-6.0-6.0","2787847","co37606","norming","","","{""aha"":0}","[0]","../img/tt/440tt.jpg","",""
"null","<div style=""font-size:60px;""> </div>","null","fixation","html-keyboard-response","13","211092","0.0-6.0-0.1","2787847","co37606","norming","","","","","","",""
"null","../img/tt/184tt.jpg","null","mooney1","image-keyboard-response","14","214095","0.0-6.0-1.1","2787847","co37606","norming","","","","","","",""
"8080.139999999112","","","post_mooney1_questions","survey-likert","15","222177","0.0-6.0-2.1","2787847","co37606","norming","","","{""curiosity"":4,""confidence"":4}","[0,1]","../img/tt/184tt.jpg","",""
"5542.030000000523","","","recognition","survey-text","16","227721","0.0-6.0-3.1","2787847","co37606","norming","","","{""guess"":""kip""}","","../img/tt/184tt.jpg","",""
"null","../img/gs/184gs.jpg","null","reveal","image-keyboard-response","17","229724","0.0-6.0-4.1","2787847","co37606","norming","","","","","","",""
"null","../img/tt/184tt.jpg","null","mooney2","image-keyboard-response","18","231730","0.0-6.0-5.1","2787847","co37606","norming","","","","","","",""
"6043.615000000515","","","post_reveal_questions","survey-likert","19","237777","0.0-6.0-6.1","2787847","co37606","norming","","","{""aha"":0}","[0]","../img/tt/184tt.jpg","",""
"null","<div style=""font-size:60px;""> </div>","null","fixation","html-keyboard-response","20","237986","0.0-6.0-0.2","2787847","co37606","norming","","","","","","",""
"null","../img/tt/1125tt.jpg","null","mooney1","image-keyboard-response","21","240998","0.0-6.0-1.2","2787847","co37606","norming","","","","","","",""
"6471.8499999999185","","","post_mooney1_questions","survey-likert","22","247473","0.0-6.0-2.2","2787847","co37606","norming","","","{""curiosity"":1,""confidence"":6}","[0,1]","../img/tt/1125tt.jpg","",""
"4078.0249999997905","","","recognition","survey-text","23","251553","0.0-6.0-3.2","2787847","co37606","norming","","","{""guess"":""tent""}","","../img/tt/1125tt.jpg","",""
"null","../img/gs/1125gs.jpg","null","reveal","image-keyboard-response","24","253560","0.0-6.0-4.2","2787847","co37606","norming","","","","","","",""
"null","../img/tt/1125tt.jpg","null","mooney2","image-keyboard-response","25","255562","0.0-6.0-5.2","2787847","co37606","norming","","","","","","",""
"5628.835000000428","","","post_reveal_questions","survey-likert","26","261193","0.0-6.0-6.2","2787847","co37606","norming","","","{""aha"":0}","[0]","../img/tt/1125tt.jpg","",""
"null","<div style=""font-size:60px;""> </div>","null","fixation","html-keyboard-response","27","261397","0.0-6.0-0.3","2787847","co37606","norming","","","","","","",""
"null","../img/tt/1004tt.jpg","null","mooney1","image-keyboard-response","28","264408","0.0-6.0-1.3","2787847","co37606","norming","","","","","","",""
"9027.509999999893","","","post_mooney1_questions","survey-likert","29","273439","0.0-6.0-2.3","2787847","co37606","norming","","","{""curiosity"":4,""confidence"":2}","[0,1]","../img/tt/1004tt.jpg","",""
"3526.1149999996414","","","recognition","survey-text","30","276966","0.0-6.0-3.3","2787847","co37606","norming","","","{""guess"":""bos""}","","../img/tt/1004tt.jpg","",""
"null","../img/gs/1004gs.jpg","null","reveal","image-keyboard-response","31","278976","0.0-6.0-4.3","2787847","co37606","norming","","","","","","",""
"null","../img/tt/1004tt.jpg","null","mooney2","image-keyboard-response","32","280984","0.0-6.0-5.3","2787847","co37606","norming","","","","","","",""
"4516.415000000037","","","post_reveal_questions","survey-likert","33","285502","0.0-6.0-6.3","2787847","co37606","norming","","","{""aha"":3}","[0]","../img/tt/1004tt.jpg","",""
"null","<div style=""font-size:60px;""> </div>","null","fixation","html-keyboard-response","34","285708","0.0-6.0-0.4","2787847","co37606","norming","","","","","","",""
"null","../img/tt/590tt.jpg","null","mooney1","image-keyboard-response","35","288711","0.0-6.0-1.4","2787847","co37606","norming","","","","","","",""
"7661.180000000051","","","post_mooney1_questions","survey-likert","36","296375","0.0-6.0-2.4","2787847","co37606","norming","","","{""curiosity"":1,""confidence"":6}","[0,1]","../img/tt/590tt.jpg","",""
"5206.110000000102","","","recognition","survey-text","37","301582","0.0-6.0-3.4","2787847","co37606","norming","","","{""guess"":""pianospeler""}","","../img/tt/590tt.jpg","",""
"null","../img/gs/590gs.jpg","null","reveal","image-keyboard-response","38","303584","0.0-6.0-4.4","2787847","co37606","norming","","","","","","",""
"null","../img/tt/590tt.jpg","null","mooney2","image-keyboard-response","39","305590","0.0-6.0-5.4","2787847","co37606","norming","","","","","","",""
"8254.295000000624","","","post_reveal_questions","survey-likert","40","313847","0.0-6.0-6.4","2787847","co37606","norming","","","{""aha"":3}","[0]","../img/tt/590tt.jpg","",""
"null","<div style=""font-size:60px;""> </div>","null","fixation","html-keyboard-response","41","314049","0.0-6.0-0.5","2787847","co37606","norming","","","","","","",""
"null","../img/tt/1234tt.jpg","null","mooney1","image-keyboard-response","42","317060","0.0-6.0-1.5","2787847","co37606","norming","","","","","","",""
"6504.07500000071","","","post_mooney1_questions","survey-likert","43","323567","0.0-6.0-2.5","2787847","co37606","norming","","","{""curiosity"":3,""confidence"":4}","[0,1]","../img/tt/1234tt.jpg","",""
"11709.939999999711","","","recognition","survey-text","44","335274","0.0-6.0-3.5","2787847","co37606","norming","","","{""guess"":""persoon op rots""}","","../img/tt/1234tt.jpg","",""
"null","../img/gs/1234gs.jpg","null","reveal","image-keyboard-response","45","337277","0.0-6.0-4.5","2787847","co37606","norming","","","","","","",""
"null","../img/tt/1234tt.jpg","null","mooney2","image-keyboard-response","46","339289","0.0-6.0-5.5","2787847","co37606","norming","","","","","","",""
"1919.34999999922","","","post_reveal_questions","survey-likert","47","341210","0.0-6.0-6.5","2787847","co37606","norming","","","{""aha"":4}","[0]","../img/tt/1234tt.jpg","",""
"null","<div style=""font-size:60px;""> </div>","null","fixation","html-keyboard-response","48","341413","0.0-6.0-0.6","2787847","co37606","norming","","","","","","",""
"null","../img/tt/1232tt.jpg","null","mooney1","image-keyboard-response","49","344417","0.0-6.0-1.6","2787847","co37606","norming","","","","","","",""
"3982.4850000004517","","","post_mooney1_questions","survey-likert","50","348402","0.0-6.0-2.6","2787847","co37606","norming","","","{""curiosity"":4,""confidence"":2}","[0,1]","../img/tt/1232tt.jpg","",""
"6957.979999999225","","","recognition","survey-text","51","355362","0.0-6.0-3.6","2787847","co37606","norming","","","{""guess"":""planeten en sterren""}","","../img/tt/1232tt.jpg","",""
"null","../img/gs/1232gs.jpg","null","reveal","image-keyboard-response","52","357368","0.0-6.0-4.6","2787847","co37606","norming","","","","","","",""
"null","../img/tt/1232tt.jpg","null","mooney2","image-keyboard-response","53","359378","0.0-6.0-5.6","2787847","co37606","norming","","","","","","",""
"3550.079999999958","","","post_reveal_questions","survey-likert","54","362930","0.0-6.0-6.6","2787847","co37606","norming","","","{""aha"":4}","[0]","../img/tt/1232tt.jpg","",""
"null","<div style=""font-size:60px;""> </div>","null","fixation","html-keyboard-response","55","363140","0.0-6.0-0.7","2787847","co37606","norming","","","","","","",""
"null","../img/tt/189tt.jpg","null","mooney1","image-keyboard-response","56","366150","0.0-6.0-1.7","2787847","co37606","norming","","","","","","",""
"5401.41500000027","","","post_mooney1_questions","survey-likert","57","371554","0.0-6.0-2.7","2787847","co37606","norming","","","{""curiosity"":4,""confidence"":5}","[0,1]","../img/tt/189tt.jpg","",""
"5262.00500000047","","","recognition","survey-text","58","376818","0.0-6.0-3.7","2787847","co37606","norming","","","{""guess"":""vogel""}","","../img/tt/189tt.jpg","",""
"null","../img/gs/189gs.jpg","null","reveal","image-keyboard-response","59","378824","0.0-6.0-4.7","2787847","co37606","norming","","","","","","",""
"null","../img/tt/189tt.jpg","null","mooney2","image-keyboard-response","60","380826","0.0-6.0-5.7","2787847","co37606","norming","","","","","","",""
"3141.6699999999837","","","post_reveal_questions","survey-likert","61","383970","0.0-6.0-6.7","2787847","co37606","norming","","","{""aha"":5}","[0]","../img/tt/189tt.jpg","",""
"null","<div style=""font-size:60px;""> </div>","null","fixation","html-keyboard-response","62","384175","0.0-6.0-0.8","2787847","co37606","norming","","","","","","",""
"null","../img/tt/1053tt.jpg","null","mooney1","image-keyboard-response","63","387186","0.0-6.0-1.8","2787847","co37606","norming","","","","","","",""
"7613.444999999949","","","post_mooney1_questions","survey-likert","64","394802","0.0-6.0-2.8","2787847","co37606","norming","","","{""curiosity"":4,""confidence"":4}","[0,1]","../img/tt/1053tt.jpg","",""
"3262.555000000226","","","recognition","survey-text","65","398067","0.0-6.0-3.8","2787847","co37606","norming","","","{""guess"":""olifant""}","","../img/tt/1053tt.jpg","",""
"null","../img/gs/1053gs.jpg","null","reveal","image-keyboard-response","66","400068","0.0-6.0-4.8","2787847","co37606","norming","","","","","","",""
"null","../img/tt/1053tt.jpg","null","mooney2","image-keyboard-response","67","402079","0.0-6.0-5.8","2787847","co37606","norming","","","","","","",""
"3057.5399999998044","","","post_reveal_questions","survey-likert","68","405138","0.0-6.0-6.8","2787847","co37606","norming","","","{""aha"":2}","[0]","../img/tt/1053tt.jpg","",""
"null","<div style=""font-size:60px;""> </div>","null","fixation","html-keyboard-response","69","405341","0.0-6.0-0.9","2787847","co37606","norming","","","","","","",""
"null","../img/tt/052tt.jpg","null","mooney1","image-keyboard-response","70","408350","0.0-6.0-1.9","2787847","co37606","norming","","","","","","",""
"4291.4249999994645","","","post_mooney1_questions","survey-likert","71","412643","0.0-6.0-2.9","2787847","co37606","norming","","","{""curiosity"":2,""confidence"":5}","[0,1]","../img/tt/052tt.jpg","",""
"3006.0849999999627","","","recognition","survey-text","72","415650","0.0-6.0-3.9","2787847","co37606","norming","","","{""guess"":""koffer""}","","../img/tt/052tt.jpg","",""
"null","../img/gs/052gs.jpg","null","reveal","image-keyboard-response","73","417652","0.0-6.0-4.9","2787847","co37606","norming","","","","","","",""
"null","../img/tt/052tt.jpg","null","mooney2","image-keyboard-response","74","419655","0.0-6.0-5.9","2787847","co37606","norming","","","","","","",""
"2424.769999999611","","","post_reveal_questions","survey-likert","75","422082","0.0-6.0-6.9","2787847","co37606","norming","","","{""aha"":5}","[0]","../img/tt/052tt.jpg","",""
"null","<div style=""font-size:60px;""> </div>","null","fixation","html-keyboard-response","76","422287","0.0-6.0-0.10","2787847","co37606","norming","","","","","","",""
"null","../img/tt/1033tt.jpg","null","mooney1","image-keyboard-response","77","425293","0.0-6.0-1.10","2787847","co37606","norming","","","","","","",""
"4698.309999999765","","","post_mooney1_questions","survey-likert","78","429995","0.0-6.0-2.10","2787847","co37606","norming","","","{""curiosity"":2,""confidence"":6}","[0,1]","../img/tt/1033tt.jpg","",""
"5517.020000000193","","","recognition","survey-text","79","435514","0.0-6.0-3.10","2787847","co37606","norming","","","{""guess"":""roeiers""}","","../img/tt/1033tt.jpg","",""
"null","../img/gs/1033gs.jpg","null","reveal","image-keyboard-response","80","437517","0.0-6.0-4.10","2787847","co37606","norming","","","","","","",""
"null","../img/tt/1033tt.jpg","null","mooney2","image-keyboard-response","81","439520","0.0-6.0-5.10","2787847","co37606","norming","","","","","","",""
"2944.3150000006426","","","post_reveal_questions","survey-likert","82","442466","0.0-6.0-6.10","2787847","co37606","norming","","","{""aha"":4}","[0]","../img/tt/1033tt.jpg","",""
"null","<div style=""font-size:60px;""> </div>","null","fixation","html-keyboard-response","83","442671","0.0-6.0-0.11","2787847","co37606","norming","","","","","","",""
"null","../img/tt/1142tt.jpg","null","mooney1","image-keyboard-response","84","445679","0.0-6.0-1.11","2787847","co37606","norming","","","","","","",""
"6521.375000000233","","","post_mooney1_questions","survey-likert","85","452201","0.0-6.0-2.11","2787847","co37606","norming","","","{""curiosity"":0,""confidence"":6}","[0,1]","../img/tt/1142tt.jpg","",""
"9254.069999999949","","","recognition","survey-text","86","461456","0.0-6.0-3.11","2787847","co37606","norming","","","{""guess"":""basketbalspeelster""}","","../img/tt/1142tt.jpg","",""
"null","../img/gs/1142gs.jpg","null","reveal","image-keyboard-response","87","463458","0.0-6.0-4.11","2787847","co37606","norming","","","","","","",""
"null","../img/tt/1142tt.jpg","null","mooney2","image-keyboard-response","88","465460","0.0-6.0-5.11","2787847","co37606","norming","","","","","","",""
"4106.459999999963","","","post_reveal_questions","survey-likert","89","469568","0.0-6.0-6.11","2787847","co37606","norming","","","{""aha"":5}","[0]","../img/tt/1142tt.jpg","",""
"null","<div style=""font-size:60px;""> </div>","null","fixation","html-keyboard-response","90","469774","0.0-6.0-0.12","2787847","co37606","norming","","","","","","",""
"null","../img/tt/1279tt.jpg","null","mooney1","image-keyboard-response","91","472776","0.0-6.0-1.12","2787847","co37606","norming","","","","","","",""
"4549.175000000105","","","post_mooney1_questions","survey-likert","92","477328","0.0-6.0-2.12","2787847","co37606","norming","","","{""curiosity"":4,""confidence"":0}","[0,1]","../img/tt/1279tt.jpg","",""
"6798.064999999944","","","recognition","survey-text","93","484128","0.0-6.0-3.12","2787847","co37606","norming","","","{""guess"":""""}","","../img/tt/1279tt.jpg","",""
"null","../img/gs/1279gs.jpg","null","reveal","image-keyboard-response","94","486130","0.0-6.0-4.12","2787847","co37606","norming","","","","","","",""
"null","../img/tt/1279tt.jpg","null","mooney2","image-keyboard-response","95","488133","0.0-6.0-5.12","2787847","co37606","norming","","","","","","",""
"3552.5499999994063","","","post_reveal_questions","survey-likert","96","491688","0.0-6.0-6.12","2787847","co37606","norming","","","{""aha"":6}","[0]","../img/tt/1279tt.jpg","",""
"null","<div style=""font-size:60px;""> </div>","null","fixation","html-keyboard-response","97","491890","0.0-6.0-0.13","2787847","co37606","norming","","","","","","",""
"null","../img/tt/046tt.jpg","null","mooney1","image-keyboard-response","98","494899","0.0-6.0-1.13","2787847","co37606","norming","","","","","","",""
"4650.3300000003655","","","post_mooney1_questions","survey-likert","99","499552","0.0-6.0-2.13","2787847","co37606","norming","","","{""curiosity"":0,""confidence"":6}","[0,1]","../img/tt/046tt.jpg","",""
"3118.289999999455","","","recognition","survey-text","100","502672","0.0-6.0-3.13","2787847","co37606","norming","","","{""guess"":""hond""}","","../img/tt/046tt.jpg","",""
"null","../img/gs/046gs.jpg","null","reveal","image-keyboard-response","101","504679","0.0-6.0-4.13","2787847","co37606","norming","","","","","","",""
"null","../img/tt/046tt.jpg","null","mooney2","image-keyboard-response","102","506684","0.0-6.0-5.13","2787847","co37606","norming","","","","","","",""
"2970.4599999995553","","","post_reveal_questions","survey-likert","103","509656","0.0-6.0-6.13","2787847","co37606","norming","","","{""aha"":0}","[0]","../img/tt/046tt.jpg","",""
"null","<div style=""font-size:60px;""> </div>","null","fixation","html-keyboard-response","104","509859","0.0-6.0-0.14","2787847","co37606","norming","","","","","","",""
"null","../img/tt/031tt.jpg","null","mooney1","image-keyboard-response","105","512870","0.0-6.0-1.14","2787847","co37606","norming","","","","","","",""
"5552.8850000000675","","","post_mooney1_questions","survey-likert","106","518424","0.0-6.0-2.14","2787847","co37606","norming","","","{""curiosity"":3,""confidence"":2}","[0,1]","../img/tt/031tt.jpg","",""
"4070.085000000254","","","recognition","survey-text","107","522496","0.0-6.0-3.14","2787847","co37606","norming","","","{""guess"":""poes""}","","../img/tt/031tt.jpg","",""
"null","../img/gs/031gs.jpg","null","reveal","image-keyboard-response","108","524497","0.0-6.0-4.14","2787847","co37606","norming","","","","","","",""
"null","../img/tt/031tt.jpg","null","mooney2","image-keyboard-response","109","526503","0.0-6.0-5.14","2787847","co37606","norming","","","","","","",""
"3654.7350000001024","","","post_reveal_questions","survey-likert","110","530160","0.0-6.0-6.14","2787847","co37606","norming","","","{""aha"":3}","[0]","../img/tt/031tt.jpg","",""
"null","<div style=""font-size:60px;""> </div>","null","fixation","html-keyboard-response","111","530362","0.0-6.0-0.15","2787847","co37606","norming","","","","","","",""
"null","../img/tt/1044tt.jpg","null","mooney1","image-keyboard-response","112","533370","0.0-6.0-1.15","2787847","co37606","norming","","","","","","",""
"5371.094999999506","","","post_mooney1_questions","survey-likert","113","538744","0.0-6.0-2.15","2787847","co37606","norming","","","{""curiosity"":5,""confidence"":0}","[0,1]","../img/tt/1044tt.jpg","",""
"2622.2600000001257","","","recognition","survey-text","114","541368","0.0-6.0-3.15","2787847","co37606","norming","","","{""guess"":""giraf""}","","../img/tt/1044tt.jpg","",""
"null","../img/gs/1044gs.jpg","null","reveal","image-keyboard-response","115","543372","0.0-6.0-4.15","2787847","co37606","norming","","","","","","",""
"null","../img/tt/1044tt.jpg","null","mooney2","image-keyboard-response","116","545382","0.0-6.0-5.15","2787847","co37606","norming","","","","","","",""
"2991.054999999469","","","post_reveal_questions","survey-likert","117","548376","0.0-6.0-6.15","2787847","co37606","norming","","","{""aha"":6}","[0]","../img/tt/1044tt.jpg","",""
"null","<div style=""font-size:60px;""> </div>","null","fixation","html-keyboard-response","118","548585","0.0-6.0-0.16","2787847","co37606","norming","","","","","","",""
"null","../img/tt/1363tt.jpg","null","mooney1","image-keyboard-response","119","551593","0.0-6.0-1.16","2787847","co37606","norming","","","","","","",""
"5756.1900000000605","","","post_mooney1_questions","survey-likert","120","557352","0.0-6.0-2.16","2787847","co37606","norming","","","{""curiosity"":0,""confidence"":6}","[0,1]","../img/tt/1363tt.jpg","",""
"8446.004999999772","","","recognition","survey-text","121","565800","0.0-6.0-3.16","2787847","co37606","norming","","","{""guess"":""sauspotje""}","","../img/tt/1363tt.jpg","",""
"null","../img/gs/1363gs.jpg","null","reveal","image-keyboard-response","122","567801","0.0-6.0-4.16","2787847","co37606","norming","","","","","","",""
"null","../img/tt/1363tt.jpg","null","mooney2","image-keyboard-response","123","569803","0.0-6.0-5.16","2787847","co37606","norming","","","","","","",""
"2954.7349999992875","","","post_reveal_questions","survey-likert","124","572760","0.0-6.0-6.16","2787847","co37606","norming","","","{""aha"":0}","[0]","../img/tt/1363tt.jpg","",""
"null","<div style=""font-size:60px;""> </div>","null","fixation","html-keyboard-response","125","572964","0.0-6.0-0.17","2787847","co37606","norming","","","","","","",""
"null","../img/tt/1101tt.jpg","null","mooney1","image-keyboard-response","126","575977","0.0-6.0-1.17","2787847","co37606","norming","","","","","","",""
"7621.80999999959","","","post_mooney1_questions","survey-likert","127","583601","0.0-6.0-2.17","2787847","co37606","norming","","","{""curiosity"":4,""confidence"":5}","[0,1]","../img/tt/1101tt.jpg","",""
"4630.274999999441","","","recognition","survey-text","128","588233","0.0-6.0-3.17","2787847","co37606","norming","","","{""guess"":""loopster""}","","../img/tt/1101tt.jpg","",""
"null","../img/gs/1101gs.jpg","null","reveal","image-keyboard-response","129","590235","0.0-6.0-4.17","2787847","co37606","norming","","","","","","",""
"null","../img/tt/1101tt.jpg","null","mooney2","image-keyboard-response","130","592246","0.0-6.0-5.17","2787847","co37606","norming","","","","","","",""
"4016.5500000002794","","","post_reveal_questions","survey-likert","131","596265","0.0-6.0-6.17","2787847","co37606","norming","","","{""aha"":5}","[0]","../img/tt/1101tt.jpg","",""
"null","<div style=""font-size:60px;""> </div>","null","fixation","html-keyboard-response","132","596473","0.0-6.0-0.18","2787847","co37606","norming","","","","","","",""
"null","../img/tt/1353tt.jpg","null","mooney1","image-keyboard-response","133","599478","0.0-6.0-1.18","2787847","co37606","norming","","","","","","",""
"5672.1150000002235","","","post_mooney1_questions","survey-likert","134","605153","0.0-6.0-2.18","2787847","co37606","norming","","","{""curiosity"":4,""confidence"":0}","[0,1]","../img/tt/1353tt.jpg","",""
"3229.9899999998743","","","recognition","survey-text","135","608385","0.0-6.0-3.18","2787847","co37606","norming","","","{""guess"":""handen""}","","../img/tt/1353tt.jpg","",""
"null","../img/gs/1353gs.jpg","null","reveal","image-keyboard-response","136","610391","0.0-6.0-4.18","2787847","co37606","norming","","","","","","",""
"null","../img/tt/1353tt.jpg","null","mooney2","image-keyboard-response","137","612394","0.0-6.0-5.18","2787847","co37606","norming","","","","","","",""
"3227.9799999997485","","","post_reveal_questions","survey-likert","138","615625","0.0-6.0-6.18","2787847","co37606","norming","","","{""aha"":4}","[0]","../img/tt/1353tt.jpg","",""
"null","<div style=""font-size:60px;""> </div>","null","fixation","html-keyboard-response","139","615833","0.0-6.0-0.19","2787847","co37606","norming","","","","","","",""
"null","../img/tt/1097tt.jpg","null","mooney1","image-keyboard-response","140","618841","0.0-6.0-1.19","2787847","co37606","norming","","","","","","",""
"3877.575000000419","","","post_mooney1_questions","survey-likert","141","622721","0.0-6.0-2.19","2787847","co37606","norming","","","{""curiosity"":0,""confidence"":6}","[0,1]","../img/tt/1097tt.jpg","",""
"16774.285000000382","","","recognition","survey-text","142","639491","0.0-6.0-3.19","2787847","co37606","norming","","","{""guess"":""rechtopstaande surfer""}","","../img/tt/1097tt.jpg","",""
"null","../img/gs/1097gs.jpg","null","reveal","image-keyboard-response","143","641499","0.0-6.0-4.19","2787847","co37606","norming","","","","","","",""
"null","../img/tt/1097tt.jpg","null","mooney2","image-keyboard-response","144","643506","0.0-6.0-5.19","2787847","co37606","norming","","","","","","",""
"1934.570000000298","","","post_reveal_questions","survey-likert","145","645443","0.0-6.0-6.19","2787847","co37606","norming","","","{""aha"":0}","[0]","../img/tt/1097tt.jpg","",""
"null","<div style=""font-size:60px;""> </div>","null","fixation","html-keyboard-response","146","645652","0.0-6.0-0.20","2787847","co37606","norming","","","","","","",""
"null","../img/tt/1250tt.jpg","null","mooney1","image-keyboard-response","147","648657","0.0-6.0-1.20","2787847","co37606","norming","","","","","","",""
"5265.115000000107","","","post_mooney1_questions","survey-likert","148","653923","0.0-6.0-2.20","2787847","co37606","norming","","","{""curiosity"":3,""confidence"":2}","[0,1]","../img/tt/1250tt.jpg","",""
"2382.1300000000047","","","recognition","survey-text","149","656307","0.0-6.0-3.20","2787847","co37606","norming","","","{""guess"":""beer""}","","../img/tt/1250tt.jpg","",""
"null","../img/gs/1250gs.jpg","null","reveal","image-keyboard-response","150","658314","0.0-6.0-4.20","2787847","co37606","norming","","","","","","",""
"null","../img/tt/1250tt.jpg","null","mooney2","image-keyboard-response","151","660318","0.0-6.0-5.20","2787847","co37606","norming","","","","","","",""
"1770.929999999702","","","post_reveal_questions","survey-likert","152","662091","0.0-6.0-6.20","2787847","co37606","norming","","","{""aha"":5}","[0]","../img/tt/1250tt.jpg","",""
"null","<div style=""font-size:60px;""> </div>","null","fixation","html-keyboard-response","153","662299","0.0-6.0-0.21","2787847","co37606","norming","","","","","","",""
"null","../img/tt/456tt.jpg","null","mooney1","image-keyboard-response","154","665308","0.0-6.0-1.21","2787847","co37606","norming","","","","","","",""
"7212.594999999972","","","post_mooney1_questions","survey-likert","155","672523","0.0-6.0-2.21","2787847","co37606","norming","","","{""curiosity"":2,""confidence"":5}","[0,1]","../img/tt/456tt.jpg","",""
"4334.209999999963","","","recognition","survey-text","156","676859","0.0-6.0-3.21","2787847","co37606","norming","","","{""guess"":""lama""}","","../img/tt/456tt.jpg","",""
"null","../img/gs/456gs.jpg","null","reveal","image-keyboard-response","157","678861","0.0-6.0-4.21","2787847","co37606","norming","","","","","","",""
"null","../img/tt/456tt.jpg","null","mooney2","image-keyboard-response","158","680870","0.0-6.0-5.21","2787847","co37606","norming","","","","","","",""
"3363.13499999966","","","post_reveal_questions","survey-likert","159","684235","0.0-6.0-6.21","2787847","co37606","norming","","","{""aha"":0}","[0]","../img/tt/456tt.jpg","",""
"null","<div style=""font-size:60px;""> </div>","null","fixation","html-keyboard-response","160","684439","0.0-6.0-0.22","2787847","co37606","norming","","","","","","",""
"null","../img/tt/036tt.jpg","null","mooney1","image-keyboard-response","161","687451","0.0-6.0-1.22","2787847","co37606","norming","","","","","","",""
"4453.45000000007","","","post_mooney1_questions","survey-likert","162","691907","0.0-6.0-2.22","2787847","co37606","norming","","","{""curiosity"":6,""confidence"":0}","[0,1]","../img/tt/036tt.jpg","",""
"1518.24000000034","","","recognition","survey-text","163","693428","0.0-6.0-3.22","2787847","co37606","norming","","","{""guess"":""""}","","../img/tt/036tt.jpg","",""
"null","../img/gs/036gs.jpg","null","reveal","image-keyboard-response","164","695430","0.0-6.0-4.22","2787847","co37606","norming","","","","","","",""
"null","../img/tt/036tt.jpg","null","mooney2","image-keyboard-response","165","697442","0.0-6.0-5.22","2787847","co37606","norming","","","","","","",""
"2976.7499999998836","","","post_reveal_questions","survey-likert","166","700420","0.0-6.0-6.22","2787847","co37606","norming","","","{""aha"":6}","[0]","../img/tt/036tt.jpg","",""
"null","<div style=""font-size:60px;""> </div>","null","fixation","html-keyboard-response","167","700626","0.0-6.0-0.23","2787847","co37606","norming","","","","","","",""
"null","../img/tt/1096tt.jpg","null","mooney1","image-keyboard-response","168","703634","0.0-6.0-1.23","2787847","co37606","norming","","","","","","",""
"5144.084999999963","","","post_mooney1_questions","survey-likert","169","708781","0.0-6.0-2.23","2787847","co37606","norming","","","{""curiosity"":4,""confidence"":2}","[0,1]","../img/tt/1096tt.jpg","",""
"10333.709999999846","","","recognition","survey-text","170","719116","0.0-6.0-3.23","2787847","co37606","norming","","","{""guess"":""man op terras""}","","../img/tt/1096tt.jpg","",""
"null","../img/gs/1096gs.jpg","null","reveal","image-keyboard-response","171","721117","0.0-6.0-4.23","2787847","co37606","norming","","","","","","",""
"null","../img/tt/1096tt.jpg","null","mooney2","image-keyboard-response","172","723122","0.0-6.0-5.23","2787847","co37606","norming","","","","","","",""
"2343.9200000002747","","","post_reveal_questions","survey-likert","173","725468","0.0-6.0-6.23","2787847","co37606","norming","","","{""aha"":5}","[0]","../img/tt/1096tt.jpg","",""
"null","<div style=""font-size:60px;""> </div>","null","fixation","html-keyboard-response","174","725675","0.0-6.0-0.24","2787847","co37606","norming","","","","","","",""
"null","../img/tt/1211tt.jpg","null","mooney1","image-keyboard-response","175","728684","0.0-6.0-1.24","2787847","co37606","norming","","","","","","",""
"5439.755000000354","","","post_mooney1_questions","survey-likert","176","734125","0.0-6.0-2.24","2787847","co37606","norming","","","{""curiosity"":4,""confidence"":1}","[0,1]","../img/tt/1211tt.jpg","",""
"2853.9499999997206","","","recognition","survey-text","177","736980","0.0-6.0-3.24","2787847","co37606","norming","","","{""guess"":""visser""}","","../img/tt/1211tt.jpg","",""
"null","../img/gs/1211gs.jpg","null","reveal","image-keyboard-response","178","738988","0.0-6.0-4.24","2787847","co37606","norming","","","","","","",""
"null","../img/tt/1211tt.jpg","null","mooney2","image-keyboard-response","179","740990","0.0-6.0-5.24","2787847","co37606","norming","","","","","","",""
"2835.674999999348","","","post_reveal_questions","survey-likert","180","743828","0.0-6.0-6.24","2787847","co37606","norming","","","{""aha"":5}","[0]","../img/tt/1211tt.jpg","",""
"null","<div style=""font-size:60px;""> </div>","null","fixation","html-keyboard-response","181","744038","0.0-6.0-0.25","2787847","co37606","norming","","","","","","",""
"null","../img/tt/1269tt.jpg","null","mooney1","image-keyboard-response","182","747043","0.0-6.0-1.25","2787847","co37606","norming","","","","","","",""
"6574.489999999991","","","post_mooney1_questions","survey-likert","183","753622","0.0-6.0-2.25","2787847","co37606","norming","","","{""curiosity"":4,""confidence"":0}","[0,1]","../img/tt/1269tt.jpg","",""
"1021.919999999227","","","recognition","survey-text","184","754646","0.0-6.0-3.25","2787847","co37606","norming","","","{""guess"":""""}","","../img/tt/1269tt.jpg","",""
"null","../img/gs/1269gs.jpg","null","reveal","image-keyboard-response","185","756656","0.0-6.0-4.25","2787847","co37606","norming","","","","","","",""
"null","../img/tt/1269tt.jpg","null","mooney2","image-keyboard-response","186","758659","0.0-6.0-5.25","2787847","co37606","norming","","","","","","",""
"4234.109999999404","","","post_reveal_questions","survey-likert","187","762894","0.0-6.0-6.25","2787847","co37606","norming","","","{""aha"":0}","[0]","../img/tt/1269tt.jpg","",""
"null","<div style=""font-size:60px;""> </div>","null","fixation","html-keyboard-response","188","763097","0.0-6.0-0.26","2787847","co37606","norming","","","","","","",""
"null","../img/tt/126tt.jpg","null","mooney1","image-keyboard-response","189","766103","0.0-6.0-1.26","2787847","co37606","norming","","","","","","",""
"4444.104999999516","","","post_mooney1_questions","survey-likert","190","770550","0.0-6.0-2.26","2787847","co37606","norming","","","{""curiosity"":6,""confidence"":0}","[0,1]","../img/tt/126tt.jpg","",""
"4942.09499999939","","","recognition","survey-text","191","775494","0.0-6.0-3.26","2787847","co37606","norming","","","{""guess"":""golven""}","","../img/tt/126tt.jpg","",""
"null","../img/gs/126gs.jpg","null","reveal","image-keyboard-response","192","777500","0.0-6.0-4.26","2787847","co37606","norming","","","","","","",""
"null","../img/tt/126tt.jpg","null","mooney2","image-keyboard-response","193","779502","0.0-6.0-5.26","2787847","co37606","norming","","","","","","",""
"1525.9999999998836","","","post_reveal_questions","survey-likert","194","781030","0.0-6.0-6.26","2787847","co37606","norming","","","{""aha"":4}","[0]","../img/tt/126tt.jpg","",""
"null","<div style=""font-size:60px;""> </div>","null","fixation","html-keyboard-response","195","781235","0.0-6.0-0.27","2787847","co37606","norming","","","","","","",""
"null","../img/tt/1086tt.jpg","null","mooney1","image-keyboard-response","196","784246","0.0-6.0-1.27","2787847","co37606","norming","","","","","","",""
"6420.82500000007","","","post_mooney1_questions","survey-likert","197","790670","0.0-6.0-2.27","2787847","co37606","norming","","","{""curiosity"":5,""confidence"":5}","[0,1]","../img/tt/1086tt.jpg","",""
"7174.210000000079","","","recognition","survey-text","198","797846","0.0-6.0-3.27","2787847","co37606","norming","","","{""guess"":""slapende mensen""}","","../img/tt/1086tt.jpg","",""
"null","../img/gs/1086gs.jpg","null","reveal","image-keyboard-response","199","799847","0.0-6.0-4.27","2787847","co37606","norming","","","","","","",""
"null","../img/tt/1086tt.jpg","null","mooney2","image-keyboard-response","200","801849","0.0-6.0-5.27","2787847","co37606","norming","","","","","","",""
"2714.855000000098","","","post_reveal_questions","survey-likert","201","804566","0.0-6.0-6.27","2787847","co37606","norming","","","{""aha"":4}","[0]","../img/tt/1086tt.jpg","",""
"null","<div style=""font-size:60px;""> </div>","null","fixation","html-keyboard-response","202","804768","0.0-6.0-0.28","2787847","co37606","norming","","","","","","",""
"null","../img/tt/1262tt.jpg","null","mooney1","image-keyboard-response","203","807774","0.0-6.0-1.28","2787847","co37606","norming","","","","","","",""
"4484.814999999711","","","post_mooney1_questions","survey-likert","204","812262","0.0-6.0-2.28","2787847","co37606","norming","","","{""curiosity"":2,""confidence"":4}","[0,1]","../img/tt/1262tt.jpg","",""
"5214.15500000061","","","recognition","survey-text","205","817477","0.0-6.0-3.28","2787847","co37606","norming","","","{""guess"":""schrijver""}","","../img/tt/1262tt.jpg","",""
"null","../img/gs/1262gs.jpg","null","reveal","image-keyboard-response","206","819482","0.0-6.0-4.28","2787847","co37606","norming","","","","","","",""
"null","../img/tt/1262tt.jpg","null","mooney2","image-keyboard-response","207","821484","0.0-6.0-5.28","2787847","co37606","norming","","","","","","",""
"3046.285000000382","","","post_reveal_questions","survey-likert","208","824533","0.0-6.0-6.28","2787847","co37606","norming","","","{""aha"":3}","[0]","../img/tt/1262tt.jpg","",""
"null","<div style=""font-size:60px;""> </div>","null","fixation","html-keyboard-response","209","824741","0.0-6.0-0.29","2787847","co37606","norming","","","","","","",""
"null","../img/tt/1148tt.jpg","null","mooney1","image-keyboard-response","210","827747","0.0-6.0-1.29","2787847","co37606","norming","","","","","","",""
"5912.320000000414","","","post_mooney1_questions","survey-likert","211","833662","0.0-6.0-2.29","2787847","co37606","norming","","","{""curiosity"":4,""confidence"":5}","[0,1]","../img/tt/1148tt.jpg","",""
"3014.024999999441","","","recognition","survey-text","212","836677","0.0-6.0-3.29","2787847","co37606","norming","","","{""guess"":""hond""}","","../img/tt/1148tt.jpg","",""
"null","../img/gs/1148gs.jpg","null","reveal","image-keyboard-response","213","838680","0.0-6.0-4.29","2787847","co37606","norming","","","","","","",""
"null","../img/tt/1148tt.jpg","null","mooney2","image-keyboard-response","214","840686","0.0-6.0-5.29","2787847","co37606","norming","","","","","","",""
"2222.644999999786","","","post_reveal_questions","survey-likert","215","842909","0.0-6.0-6.29","2787847","co37606","norming","","","{""aha"":5}","[0]","../img/tt/1148tt.jpg","",""
"null","<div style=""font-size:60px;""> </div>","null","fixation","html-keyboard-response","216","843111","0.0-6.0-0.30","2787847","co37606","norming","","","","","","",""
"null","../img/tt/357tt.jpg","null","mooney1","image-keyboard-response","217","846121","0.0-6.0-1.30","2787847","co37606","norming","","","","","","",""
"4129.735000000452","","","post_mooney1_questions","survey-likert","218","850254","0.0-6.0-2.30","2787847","co37606","norming","","","{""curiosity"":6,""confidence"":0}","[0,1]","../img/tt/357tt.jpg","",""
"974.2999999999302","","","recognition","survey-text","219","851229","0.0-6.0-3.30","2787847","co37606","norming","","","{""guess"":""""}","","../img/tt/357tt.jpg","",""
"null","../img/gs/357gs.jpg","null","reveal","image-keyboard-response","220","853240","0.0-6.0-4.30","2787847","co37606","norming","","","","","","",""
"null","../img/tt/357tt.jpg","null","mooney2","image-keyboard-response","221","855249","0.0-6.0-5.30","2787847","co37606","norming","","","","","","",""
"2922.639999999781","","","post_reveal_questions","survey-likert","222","858173","0.0-6.0-6.30","2787847","co37606","norming","","","{""aha"":6}","[0]","../img/tt/357tt.jpg","",""
"null","<div style=""font-size:60px;""> </div>","null","fixation","html-keyboard-response","223","858378","0.0-6.0-0.31","2787847","co37606","norming","","","","","","",""
"null","../img/tt/318tt.jpg","null","mooney1","image-keyboard-response","224","861383","0.0-6.0-1.31","2787847","co37606","norming","","","","","","",""
"4147.679999999935","","","post_mooney1_questions","survey-likert","225","865534","0.0-6.0-2.31","2787847","co37606","norming","","","{""curiosity"":0,""confidence"":6}","[0,1]","../img/tt/318tt.jpg","",""
"14718.120000000461","","","recognition","survey-text","226","880255","0.0-6.0-3.31","2787847","co37606","norming","","","{""guess"":""racer""}","","../img/tt/318tt.jpg","",""
"null","../img/gs/318gs.jpg","null","reveal","image-keyboard-response","227","882264","0.0-6.0-4.31","2787847","co37606","norming","","","","","","",""
"null","../img/tt/318tt.jpg","null","mooney2","image-keyboard-response","228","884266","0.0-6.0-5.31","2787847","co37606","norming","","","","","","",""
"2330.260000000708","","","post_reveal_questions","survey-likert","229","886599","0.0-6.0-6.31","2787847","co37606","norming","","","{""aha"":5}","[0]","../img/tt/318tt.jpg","",""
"null","<div style=""font-size:60px;""> </div>","null","fixation","html-keyboard-response","230","886809","0.0-6.0-0.32","2787847","co37606","norming","","","","","","",""
"null","../img/tt/1171tt.jpg","null","mooney1","image-keyboard-response","231","889821","0.0-6.0-1.32","2787847","co37606","norming","","","","","","",""
"5376.189999999944","","","post_mooney1_questions","survey-likert","232","895199","0.0-6.0-2.32","2787847","co37606","norming","","","{""curiosity"":4,""confidence"":0}","[0,1]","../img/tt/1171tt.jpg","",""
"782.0400000000373","","","recognition","survey-text","233","895983","0.0-6.0-3.32","2787847","co37606","norming","","","{""guess"":""""}","","../img/tt/1171tt.jpg","",""
"null","../img/gs/1171gs.jpg","null","reveal","image-keyboard-response","234","897994","0.0-6.0-4.32","2787847","co37606","norming","","","","","","",""
"null","../img/tt/1171tt.jpg","null","mooney2","image-keyboard-response","235","899996","0.0-6.0-5.32","2787847","co37606","norming","","","","","","",""
"3096.4699999995064","","","post_reveal_questions","survey-likert","236","903095","0.0-6.0-6.32","2787847","co37606","norming","","","{""aha"":5}","[0]","../img/tt/1171tt.jpg","",""
"null","<div style=""font-size:60px;""> </div>","null","fixation","html-keyboard-response","237","903303","0.0-6.0-0.33","2787847","co37606","norming","","","","","","",""
"null","../img/tt/435tt.jpg","null","mooney1","image-keyboard-response","238","906309","0.0-6.0-1.33","2787847","co37606","norming","","","","","","",""
"3336.189999999944","","","post_mooney1_questions","survey-likert","239","909647","0.0-6.0-2.33","2787847","co37606","norming","","","{""curiosity"":0,""confidence"":6}","[0,1]","../img/tt/435tt.jpg","",""
"3870.0149999995483","","","recognition","survey-text","240","913518","0.0-6.0-3.33","2787847","co37606","norming","","","{""guess"":""pooler""}","","../img/tt/435tt.jpg","",""
"null","../img/gs/435gs.jpg","null","reveal","image-keyboard-response","241","915524","0.0-6.0-4.33","2787847","co37606","norming","","","","","","",""
"null","../img/tt/435tt.jpg","null","mooney2","image-keyboard-response","242","917529","0.0-6.0-5.33","2787847","co37606","norming","","","","","","",""
"2692.499999999185","","","post_reveal_questions","survey-likert","243","920223","0.0-6.0-6.33","2787847","co37606","norming","","","{""aha"":0}","[0]","../img/tt/435tt.jpg","",""
"null","<div style=""font-size:60px;""> </div>","null","fixation","html-keyboard-response","244","920429","0.0-6.0-0.34","2787847","co37606","norming","","","","","","",""
"null","../img/tt/515tt.jpg","null","mooney1","image-keyboard-response","245","923438","0.0-6.0-1.34","2787847","co37606","norming","","","","","","",""
"3951.715000000084","","","post_mooney1_questions","survey-likert","246","927391","0.0-6.0-2.34","2787847","co37606","norming","","","{""curiosity"":0,""confidence"":6}","[0,1]","../img/tt/515tt.jpg","",""
"2806.1799999995856","","","recognition","survey-text","247","930199","0.0-6.0-3.34","2787847","co37606","norming","","","{""guess"":""vogel""}","","../img/tt/515tt.jpg","",""
"null","../img/gs/515gs.jpg","null","reveal","image-keyboard-response","248","932203","0.0-6.0-4.34","2787847","co37606","norming","","","","","","",""
"null","../img/tt/515tt.jpg","null","mooney2","image-keyboard-response","249","934214","0.0-6.0-5.34","2787847","co37606","norming","","","","","","",""
"1567.2950000007404","","","post_reveal_questions","survey-likert","250","935784","0.0-6.0-6.34","2787847","co37606","norming","","","{""aha"":0}","[0]","../img/tt/515tt.jpg","",""
"null","<div style=""font-size:60px;""> </div>","null","fixation","html-keyboard-response","251","935988","0.0-6.0-0.35","2787847","co37606","norming","","","","","","",""
"null","../img/tt/1175tt.jpg","null","mooney1","image-keyboard-response","252","938996","0.0-6.0-1.35","2787847","co37606","norming","","","","","","",""
"4937.069999999949","","","post_mooney1_questions","survey-likert","253","943936","0.0-6.0-2.35","2787847","co37606","norming","","","{""curiosity"":6,""confidence"":0}","[0,1]","../img/tt/1175tt.jpg","",""
"1326.175000000163","","","recognition","survey-text","254","945263","0.0-6.0-3.35","2787847","co37606","norming","","","{""guess"":""""}","","../img/tt/1175tt.jpg","",""
"null","../img/gs/1175gs.jpg","null","reveal","image-keyboard-response","255","947265","0.0-6.0-4.35","2787847","co37606","norming","","","","","","",""
"null","../img/tt/1175tt.jpg","null","mooney2","image-keyboard-response","256","949270","0.0-6.0-5.35","2787847","co37606","norming","","","","","","",""
"4759.164999999455","","","post_reveal_questions","survey-likert","257","954031","0.0-6.0-6.35","2787847","co37606","norming","","","{""aha"":5}","[0]","../img/tt/1175tt.jpg","",""
"null","<div style=""font-size:60px;""> </div>","null","fixation","html-keyboard-response","258","954234","0.0-6.0-0.36","2787847","co37606","norming","","","","","","",""
"null","../img/tt/121tt.jpg","null","mooney1","image-keyboard-response","259","957236","0.0-6.0-1.36","2787847","co37606","norming","","","","","","",""
"5128.984999999404","","","post_mooney1_questions","survey-likert","260","962367","0.0-6.0-2.36","2787847","co37606","norming","","","{""curiosity"":0,""confidence"":6}","[0,1]","../img/tt/121tt.jpg","",""
"4038.125","","","recognition","survey-text","261","966407","0.0-6.0-3.36","2787847","co37606","norming","","","{""guess"":""kangoeroe""}","","../img/tt/121tt.jpg","",""
"null","../img/gs/121gs.jpg","null","reveal","image-keyboard-response","262","968416","0.0-6.0-4.36","2787847","co37606","norming","","","","","","",""
"null","../img/tt/121tt.jpg","null","mooney2","image-keyboard-response","263","970426","0.0-6.0-5.36","2787847","co37606","norming","","","","","","",""
"2915.2400000002235","","","post_reveal_questions","survey-likert","264","973343","0.0-6.0-6.36","2787847","co37606","norming","","","{""aha"":0}","[0]","../img/tt/121tt.jpg","",""
"null","<div style=""font-size:60px;""> </div>","null","fixation","html-keyboard-response","265","973545","0.0-6.0-0.37","2787847","co37606","norming","","","","","","",""
"null","../img/tt/1161tt.jpg","null","mooney1","image-keyboard-response","266","976553","0.0-6.0-1.37","2787847","co37606","norming","","","","","","",""
"5229.370000000112","","","post_mooney1_questions","survey-likert","267","981783","0.0-6.0-2.37","2787847","co37606","norming","","","{""curiosity"":0,""confidence"":6}","[0,1]","../img/tt/1161tt.jpg","",""
"3238.4649999995017","","","recognition","survey-text","268","985023","0.0-6.0-3.37","2787847","co37606","norming","","","{""guess"":""rotsen""}","","../img/tt/1161tt.jpg","",""
"null","../img/gs/1161gs.jpg","null","reveal","image-keyboard-response","269","987025","0.0-6.0-4.37","2787847","co37606","norming","","","","","","",""
"null","../img/tt/1161tt.jpg","null","mooney2","image-keyboard-response","270","989035","0.0-6.0-5.37","2787847","co37606","norming","","","","","","",""
"2809.8250000003027","","","post_reveal_questions","survey-likert","271","991847","0.0-6.0-6.37","2787847","co37606","norming","","","{""aha"":6}","[0]","../img/tt/1161tt.jpg","",""
"null","<div style=""font-size:60px;""> </div>","null","fixation","html-keyboard-response","272","992049","0.0-6.0-0.38","2787847","co37606","norming","","","","","","",""
"null","../img/tt/353tt.jpg","null","mooney1","image-keyboard-response","273","995052","0.0-6.0-1.38","2787847","co37606","norming","","","","","","",""
"4449.235000000102","","","post_mooney1_questions","survey-likert","274","999504","0.0-6.0-2.38","2787847","co37606","norming","","","{""curiosity"":3,""confidence"":2}","[0,1]","../img/tt/353tt.jpg","",""
"3886.0100000001257","","","recognition","survey-text","275","1003392","0.0-6.0-3.38","2787847","co37606","norming","","","{""guess"":""paraplu""}","","../img/tt/353tt.jpg","",""
"null","../img/gs/353gs.jpg","null","reveal","image-keyboard-response","276","1005397","0.0-6.0-4.38","2787847","co37606","norming","","","","","","",""
"null","../img/tt/353tt.jpg","null","mooney2","image-keyboard-response","277","1007400","0.0-6.0-5.38","2787847","co37606","norming","","","","","","",""
"2533.6549999993294","","","post_reveal_questions","survey-likert","278","1009936","0.0-6.0-6.38","2787847","co37606","norming","","","{""aha"":6}","[0]","../img/tt/353tt.jpg","",""
"null","<div style=""font-size:60px;""> </div>","null","fixation","html-keyboard-response","279","1010145","0.0-6.0-0.39","2787847","co37606","norming","","","","","","",""
"null","../img/tt/1061tt.jpg","null","mooney1","image-keyboard-response","280","1013156","0.0-6.0-1.39","2787847","co37606","norming","","","","","","",""
"5225.089999999851","","","post_mooney1_questions","survey-likert","281","1018384","0.0-6.0-2.39","2787847","co37606","norming","","","{""curiosity"":6,""confidence"":0}","[0,1]","../img/tt/1061tt.jpg","",""
"1006.6049999995157","","","recognition","survey-text","282","1019392","0.0-6.0-3.39","2787847","co37606","norming","","","{""guess"":""""}","","../img/tt/1061tt.jpg","",""
"null","../img/gs/1061gs.jpg","null","reveal","image-keyboard-response","283","1021403","0.0-6.0-4.39","2787847","co37606","norming","","","","","","",""
"null","../img/tt/1061tt.jpg","null","mooney2","image-keyboard-response","284","1023414","0.0-6.0-5.39","2787847","co37606","norming","","","","","","",""
"2335.915000000503","","","post_reveal_questions","survey-likert","285","1025752","0.0-6.0-6.39","2787847","co37606","norming","","","{""aha"":6}","[0]","../img/tt/1061tt.jpg","",""
"null","<div style=""font-size:60px;""> </div>","null","fixation","html-keyboard-response","286","1025959","0.0-6.0-0.40","2787847","co37606","norming","","","","","","",""
"null","../img/tt/315tt.jpg","null","mooney1","image-keyboard-response","287","1028967","0.0-6.0-1.40","2787847","co37606","norming","","","","","","",""
"3854.175000000396","","","post_mooney1_questions","survey-likert","288","1032824","0.0-6.0-2.40","2787847","co37606","norming","","","{""curiosity"":4,""confidence"":3}","[0,1]","../img/tt/315tt.jpg","",""
"3486.350000000093","","","recognition","survey-text","289","1036312","0.0-6.0-3.40","2787847","co37606","norming","","","{""guess"":""vogel""}","","../img/tt/315tt.jpg","",""
"null","../img/gs/315gs.jpg","null","reveal","image-keyboard-response","290","1038313","0.0-6.0-4.40","2787847","co37606","norming","","","","","","",""
"null","../img/tt/315tt.jpg","null","mooney2","image-keyboard-response","291","1040320","0.0-6.0-5.40","2787847","co37606","norming","","","","","","",""
"2109.940000000177","","","post_reveal_questions","survey-likert","292","1042432","0.0-6.0-6.40","2787847","co37606","norming","","","{""aha"":6}","[0]","../img/tt/315tt.jpg","",""
"null","<div style=""font-size:60px;""> </div>","null","fixation","html-keyboard-response","293","1042641","0.0-6.0-0.41","2787847","co37606","norming","","","","","","",""
"null","../img/tt/008tt.jpg","null","mooney1","image-keyboard-response","294","1045649","0.0-6.0-1.41","2787847","co37606","norming","","","","","","",""
"5212.129999999888","","","post_mooney1_questions","survey-likert","295","1050864","0.0-6.0-2.41","2787847","co37606","norming","","","{""curiosity"":0,""confidence"":6}","[0,1]","../img/tt/008tt.jpg","",""
"4062.1550000004936","","","recognition","survey-text","296","1054928","0.0-6.0-3.41","2787847","co37606","norming","","","{""guess"":""speerwerper""}","","../img/tt/008tt.jpg","",""
"null","../img/gs/008gs.jpg","null","reveal","image-keyboard-response","297","1056930","0.0-6.0-4.41","2787847","co37606","norming","","","","","","",""
"null","../img/tt/008tt.jpg","null","mooney2","image-keyboard-response","298","1058936","0.0-6.0-5.41","2787847","co37606","norming","","","","","","",""
"2087.8199999998324","","","post_reveal_questions","survey-likert","299","1061025","0.0-6.0-6.41","2787847","co37606","norming","","","{""aha"":6}","[0]","../img/tt/008tt.jpg","",""
"null","<div style=""font-size:60px;""> </div>","null","fixation","html-keyboard-response","300","1061229","0.0-6.0-0.42","2787847","co37606","norming","","","","","","",""
"null","../img/tt/063tt.jpg","null","mooney1","image-keyboard-response","301","1064238","0.0-6.0-1.42","2787847","co37606","norming","","","","","","",""
"4440.230000000214","","","post_mooney1_questions","survey-likert","302","1068681","0.0-6.0-2.42","2787847","co37606","norming","","","{""curiosity"":6,""confidence"":0}","[0,1]","../img/tt/063tt.jpg","",""
"685.9500000001863","","","recognition","survey-text","303","1069368","0.0-6.0-3.42","2787847","co37606","norming","","","{""guess"":""""}","","../img/tt/063tt.jpg","",""
"null","../img/gs/063gs.jpg","null","reveal","image-keyboard-response","304","1071373","0.0-6.0-4.42","2787847","co37606","norming","","","","","","",""
"null","../img/tt/063tt.jpg","null","mooney2","image-keyboard-response","305","1073383","0.0-6.0-5.42","2787847","co37606","norming","","","","","","",""
"2519.000000000233","","","post_reveal_questions","survey-likert","306","1075904","0.0-6.0-6.42","2787847","co37606","norming","","","{""aha"":6}","[0]","../img/tt/063tt.jpg","",""
"null","<div style=""font-size:60px;""> </div>","null","fixation","html-keyboard-response","307","1076112","0.0-6.0-0.43","2787847","co37606","norming","","","","","","",""
"null","../img/tt/559tt.jpg","null","mooney1","image-keyboard-response","308","1079122","0.0-6.0-1.43","2787847","co37606","norming","","","","","","",""
"5275.85999999987","","","post_mooney1_questions","survey-likert","309","1084400","0.0-6.0-2.43","2787847","co37606","norming","","","{""curiosity"":6,""confidence"":0}","[0,1]","../img/tt/559tt.jpg","",""
"870.184999999823","","","recognition","survey-text","310","1085272","0.0-6.0-3.43","2787847","co37606","norming","","","{""guess"":""""}","","../img/tt/559tt.jpg","",""
"null","../img/gs/559gs.jpg","null","reveal","image-keyboard-response","311","1087278","0.0-6.0-4.43","2787847","co37606","norming","","","","","","",""
"null","../img/tt/559tt.jpg","null","mooney2","image-keyboard-response","312","1089288","0.0-6.0-5.43","2787847","co37606","norming","","","","","","",""
"2262.480000000447","","","post_reveal_questions","survey-likert","313","1091553","0.0-6.0-6.43","2787847","co37606","norming","","","{""aha"":6}","[0]","../img/tt/559tt.jpg","",""
"null","<div style=""font-size:60px;""> </div>","null","fixation","html-keyboard-response","314","1091760","0.0-6.0-0.44","2787847","co37606","norming","","","","","","",""
"null","../img/tt/1188tt.jpg","null","mooney1","image-keyboard-response","315","1094765","0.0-6.0-1.44","2787847","co37606","norming","","","","","","",""
"4753.059999999823","","","post_mooney1_questions","survey-likert","316","1099520","0.0-6.0-2.44","2787847","co37606","norming","","","{""curiosity"":2,""confidence"":6}","[0,1]","../img/tt/1188tt.jpg","",""
"2814.285000000382","","","recognition","survey-text","317","1102336","0.0-6.0-3.44","2787847","co37606","norming","","","{""guess"":""ober""}","","../img/tt/1188tt.jpg","",""
"null","../img/gs/1188gs.jpg","null","reveal","image-keyboard-response","318","1104342","0.0-6.0-4.44","2787847","co37606","norming","","","","","","",""
"null","../img/tt/1188tt.jpg","null","mooney2","image-keyboard-response","319","1106345","0.0-6.0-5.44","2787847","co37606","norming","","","","","","",""
"2413.2100000006612","","","post_reveal_questions","survey-likert","320","1108760","0.0-6.0-6.44","2787847","co37606","norming","","","{""aha"":5}","[0]","../img/tt/1188tt.jpg","",""
"null","<div style=""font-size:60px;""> </div>","null","fixation","html-keyboard-response","321","1108968","0.0-6.0-0.45","2787847","co37606","norming","","","","","","",""
"null","../img/tt/1190tt.jpg","null","mooney1","image-keyboard-response","322","1111974","0.0-6.0-1.45","2787847","co37606","norming","","","","","","",""
"3903.6149999999907","","","post_mooney1_questions","survey-likert","323","1115880","0.0-6.0-2.45","2787847","co37606","norming","","","{""curiosity"":0,""confidence"":6}","[0,1]","../img/tt/1190tt.jpg","",""
"3742.6849999991246","","","recognition","survey-text","324","1119619","0.0-6.0-3.45","2787847","co37606","norming","","","{""guess"":""wandelaar""}","","../img/tt/1190tt.jpg","",""
"null","../img/gs/1190gs.jpg","null","reveal","image-keyboard-response","325","1121626","0.0-6.0-4.45","2787847","co37606","norming","","","","","","",""
"null","../img/tt/1190tt.jpg","null","mooney2","image-keyboard-response","326","1123632","0.0-6.0-5.45","2787847","co37606","norming","","","","","","",""
"2264.3450000004377","","","post_reveal_questions","survey-likert","327","1125898","0.0-6.0-6.45","2787847","co37606","norming","","","{""aha"":4}","[0]","../img/tt/1190tt.jpg","",""
"null","<div style=""font-size:60px;""> </div>","null","fixation","html-keyboard-response","328","1126100","0.0-6.0-0.46","2787847","co37606","norming","","","","","","",""
"null","../img/tt/1243tt.jpg","null","mooney1","image-keyboard-response","329","1129106","0.0-6.0-1.46","2787847","co37606","norming","","","","","","",""
"5230.590000000084","","","post_mooney1_questions","survey-likert","330","1134339","0.0-6.0-2.46","2787847","co37606","norming","","","{""curiosity"":0,""confidence"":6}","[0,1]","../img/tt/1243tt.jpg","",""
"2934.0699999993667","","","recognition","survey-text","331","1137274","0.0-6.0-3.46","2787847","co37606","norming","","","{""guess"":""leeuw""}","","../img/tt/1243tt.jpg","",""
"null","../img/gs/1243gs.jpg","null","reveal","image-keyboard-response","332","1139285","0.0-6.0-4.46","2787847","co37606","norming","","","","","","",""
"null","../img/tt/1243tt.jpg","null","mooney2","image-keyboard-response","333","1141287","0.0-6.0-5.46","2787847","co37606","norming","","","","","","",""
"2177.195000000065","","","post_reveal_questions","survey-likert","334","1143467","0.0-6.0-6.46","2787847","co37606","norming","","","{""aha"":4}","[0]","../img/tt/1243tt.jpg","",""
"null","<div style=""font-size:60px;""> </div>","null","fixation","html-keyboard-response","335","1143676","0.0-6.0-0.47","2787847","co37606","norming","","","","","","",""
"null","../img/tt/416tt.jpg","null","mooney1","image-keyboard-response","336","1146684","0.0-6.0-1.47","2787847","co37606","norming","","","","","","",""
"3438.2649999996647","","","post_mooney1_questions","survey-likert","337","1150123","0.0-6.0-2.47","2787847","co37606","norming","","","{""curiosity"":0,""confidence"":6}","[0,1]","../img/tt/416tt.jpg","",""
"3189.6650000007357","","","recognition","survey-text","338","1153315","0.0-6.0-3.47","2787847","co37606","norming","","","{""guess"":""koeien""}","","../img/tt/416tt.jpg","",""
"null","../img/gs/416gs.jpg","null","reveal","image-keyboard-response","339","1155321","0.0-6.0-4.47","2787847","co37606","norming","","","","","","",""
"null","../img/tt/416tt.jpg","null","mooney2","image-keyboard-response","340","1157323","0.0-6.0-5.47","2787847","co37606","norming","","","","","","",""
"3565.5550000001676","","","post_reveal_questions","survey-likert","341","1160891","0.0-6.0-6.47","2787847","co37606","norming","","","{""aha"":6}","[0]","../img/tt/416tt.jpg","",""
"null","<div style=""font-size:60px;""> </div>","null","fixation","html-keyboard-response","342","1161092","0.0-6.0-0.48","2787847","co37606","norming","","","","","","",""
"null","../img/tt/1143tt.jpg","null","mooney1","image-keyboard-response","343","1164098","0.0-6.0-1.48","2787847","co37606","norming","","","","","","",""
"4366.149999999674","","","post_mooney1_questions","survey-likert","344","1168467","0.0-6.0-2.48","2787847","co37606","norming","","","{""curiosity"":4,""confidence"":3}","[0,1]","../img/tt/1143tt.jpg","",""
"5078.114999999292","","","recognition","survey-text","345","1173547","0.0-6.0-3.48","2787847","co37606","norming","","","{""guess"":""naaisters""}","","../img/tt/1143tt.jpg","",""
"null","../img/gs/1143gs.jpg","null","reveal","image-keyboard-response","346","1175549","0.0-6.0-4.48","2787847","co37606","norming","","","","","","",""
"null","../img/tt/1143tt.jpg","null","mooney2","image-keyboard-response","347","1177560","0.0-6.0-5.48","2787847","co37606","norming","","","","","","",""
"2367.1400000001304","","","post_reveal_questions","survey-likert","348","1179929","0.0-6.0-6.48","2787847","co37606","norming","","","{""aha"":4}","[0]","../img/tt/1143tt.jpg","",""
"null","<div style=""font-size:60px;""> </div>","null","fixation","html-keyboard-response","349","1180133","0.0-6.0-0.49","2787847","co37606","norming","","","","","","",""
"null","../img/tt/1130tt.jpg","null","mooney1","image-keyboard-response","350","1183136","0.0-6.0-1.49","2787847","co37606","norming","","","","","","",""
"3126.135000000242","","","post_mooney1_questions","survey-likert","351","1186265","0.0-6.0-2.49","2787847","co37606","norming","","","{""curiosity"":0,""confidence"":6}","[0,1]","../img/tt/1130tt.jpg","",""
"5334.084999999497","","","recognition","survey-text","352","1191601","0.0-6.0-3.49","2787847","co37606","norming","","","{""guess"":""courreur""}","","../img/tt/1130tt.jpg","",""
"null","../img/gs/1130gs.jpg","null","reveal","image-keyboard-response","353","1193605","0.0-6.0-4.49","2787847","co37606","norming","","","","","","",""
"null","../img/tt/1130tt.jpg","null","mooney2","image-keyboard-response","354","1195616","0.0-6.0-5.49","2787847","co37606","norming","","","","","","",""
"3102.5649999992456","","","post_reveal_questions","survey-likert","355","1198721","0.0-6.0-6.49","2787847","co37606","norming","","","{""aha"":0}","[0]","../img/tt/1130tt.jpg","",""
"null","<div style=""font-size:60px;""> </div>","null","fixation","html-keyboard-response","356","1198923","0.0-6.0-0.50","2787847","co37606","norming","","","","","","",""
"null","../img/tt/1118tt.jpg","null","mooney1","image-keyboard-response","357","1201931","0.0-6.0-1.50","2787847","co37606","norming","","","","","","",""
"4547.59999999986","","","post_mooney1_questions","survey-likert","358","1206481","0.0-6.0-2.50","2787847","co37606","norming","","","{""curiosity"":6,""confidence"":0}","[0,1]","../img/tt/1118tt.jpg","",""
"861.954999999376","","","recognition","survey-text","359","1207345","0.0-6.0-3.50","2787847","co37606","norming","","","{""guess"":""""}","","../img/tt/1118tt.jpg","",""
"null","../img/gs/1118gs.jpg","null","reveal","image-keyboard-response","360","1209354","0.0-6.0-4.50","2787847","co37606","norming","","","","","","",""
"null","../img/tt/1118tt.jpg","null","mooney2","image-keyboard-response","361","1211365","0.0-6.0-5.50","2787847","co37606","norming","","","","","","",""
"2569.7099999999627","","","post_reveal_questions","survey-likert","362","1213937","0.0-6.0-6.50","2787847","co37606","norming","","","{""aha"":6}","[0]","../img/tt/1118tt.jpg","",""
"null","<div style=""font-size:60px;""> </div>","null","fixation","html-keyboard-response","363","1214147","0.0-6.0-0.51","2787847","co37606","norming","","","","","","",""
"null","../img/tt/1078tt.jpg","null","mooney1","image-keyboard-response","364","1217154","0.0-6.0-1.51","2787847","co37606","norming","","","","","","",""
"4827.954999999609","","","post_mooney1_questions","survey-likert","365","1221985","0.0-6.0-2.51","2787847","co37606","norming","","","{""curiosity"":4,""confidence"":6}","[0,1]","../img/tt/1078tt.jpg","",""
"3446","","","recognition","survey-text","366","1225433","0.0-6.0-3.51","2787847","co37606","norming","","","{""guess"":""duiker""}","","../img/tt/1078tt.jpg","",""
"null","../img/gs/1078gs.jpg","null","reveal","image-keyboard-response","367","1227435","0.0-6.0-4.51","2787847","co37606","norming","","","","","","",""
"null","../img/tt/1078tt.jpg","null","mooney2","image-keyboard-response","368","1229436","0.0-6.0-5.51","2787847","co37606","norming","","","","","","",""
"3099.56500000041","","","post_reveal_questions","survey-likert","369","1232537","0.0-6.0-6.51","2787847","co37606","norming","","","{""aha"":6}","[0]","../img/tt/1078tt.jpg","",""
"null","<div style=""font-size:60px;""> </div>","null","fixation","html-keyboard-response","370","1232743","0.0-6.0-0.52","2787847","co37606","norming","","","","","","",""
"null","../img/tt/1242tt.jpg","null","mooney1","image-keyboard-response","371","1235746","0.0-6.0-1.52","2787847","co37606","norming","","","","","","",""
"4531.860000000102","","","post_mooney1_questions","survey-likert","372","1240280","0.0-6.0-2.52","2787847","co37606","norming","","","{""curiosity"":2,""confidence"":5}","[0,1]","../img/tt/1242tt.jpg","",""
"4374.299999999581","","","recognition","survey-text","373","1244656","0.0-6.0-3.52","2787847","co37606","norming","","","{""guess"":""luiaard""}","","../img/tt/1242tt.jpg","",""
"null","../img/gs/1242gs.jpg","null","reveal","image-keyboard-response","374","1246658","0.0-6.0-4.52","2787847","co37606","norming","","","","","","",""
"null","../img/tt/1242tt.jpg","null","mooney2","image-keyboard-response","375","1248666","0.0-6.0-5.52","2787847","co37606","norming","","","","","","",""
"1901.3899999998976","","","post_reveal_questions","survey-likert","376","1250568","0.0-6.0-6.52","2787847","co37606","norming","","","{""aha"":6}","[0]","../img/tt/1242tt.jpg","",""
"null","<div style=""font-size:60px;""> </div>","null","fixation","html-keyboard-response","377","1250774","0.0-6.0-0.53","2787847","co37606","norming","","","","","","",""
"null","../img/tt/1276tt.jpg","null","mooney1","image-keyboard-response","378","1253782","0.0-6.0-1.53","2787847","co37606","norming","","","","","","",""
"4159.295000000391","","","post_mooney1_questions","survey-likert","379","1257944","0.0-6.0-2.53","2787847","co37606","norming","","","{""curiosity"":3,""confidence"":4}","[0,1]","../img/tt/1276tt.jpg","",""
"1798.014999999432","","","recognition","survey-text","380","1259744","0.0-6.0-3.53","2787847","co37606","norming","","","{""guess"":""koe""}","","../img/tt/1276tt.jpg","",""
"null","../img/gs/1276gs.jpg","null","reveal","image-keyboard-response","381","1261752","0.0-6.0-4.53","2787847","co37606","norming","","","","","","",""
"null","../img/tt/1276tt.jpg","null","mooney2","image-keyboard-response","382","1263754","0.0-6.0-5.53","2787847","co37606","norming","","","","","","",""
"1827.9799999999814","","","post_reveal_questions","survey-likert","383","1265584","0.0-6.0-6.53","2787847","co37606","norming","","","{""aha"":3}","[0]","../img/tt/1276tt.jpg","",""
"null","<div style=""font-size:60px;""> </div>","null","fixation","html-keyboard-response","384","1265792","0.0-6.0-0.54","2787847","co37606","norming","","","","","","",""
"null","../img/tt/1116tt.jpg","null","mooney1","image-keyboard-response","385","1268797","0.0-6.0-1.54","2787847","co37606","norming","","","","","","",""
"4600.610000000335","","","post_mooney1_questions","survey-likert","386","1273400","0.0-6.0-2.54","2787847","co37606","norming","","","{""curiosity"":6,""confidence"":0}","[0,1]","../img/tt/1116tt.jpg","",""
"989.964999999851","","","recognition","survey-text","387","1274392","0.0-6.0-3.54","2787847","co37606","norming","","","{""guess"":""""}","","../img/tt/1116tt.jpg","",""
"null","../img/gs/1116gs.jpg","null","reveal","image-keyboard-response","388","1276398","0.0-6.0-4.54","2787847","co37606","norming","","","","","","",""
"null","../img/tt/1116tt.jpg","null","mooney2","image-keyboard-response","389","1278406","0.0-6.0-5.54","2787847","co37606","norming","","","","","","",""
"3295.8299999998417","","","post_reveal_questions","survey-likert","390","1281704","0.0-6.0-6.54","2787847","co37606","norming","","","{""aha"":0}","[0]","../img/tt/1116tt.jpg","",""
"null","<div style=""font-size:60px;""> </div>","null","fixation","html-keyboard-response","391","1281907","0.0-6.0-0.55","2787847","co37606","norming","","","","","","",""
"null","../img/tt/105tt.jpg","null","mooney1","image-keyboard-response","392","1284911","0.0-6.0-1.55","2787847","co37606","norming","","","","","","",""
"4182.880000000354","","","post_mooney1_questions","survey-likert","393","1289096","0.0-6.0-2.55","2787847","co37606","norming","","","{""curiosity"":6,""confidence"":4}","[0,1]","../img/tt/105tt.jpg","",""
"2925.124999999767","","","recognition","survey-text","394","1292024","0.0-6.0-3.55","2787847","co37606","norming","","","{""guess"":""slang""}","","../img/tt/105tt.jpg","",""
"null","../img/gs/105gs.jpg","null","reveal","image-keyboard-response","395","1294033","0.0-6.0-4.55","2787847","co37606","norming","","","","","","",""
"null","../img/tt/105tt.jpg","null","mooney2","image-keyboard-response","396","1296043","0.0-6.0-5.55","2787847","co37606","norming","","","","","","",""
"2755.0300000002608","","","post_reveal_questions","survey-likert","397","1298798","0.0-6.0-6.55","2787847","co37606","norming","","","{""aha"":6}","[0]","../img/tt/105tt.jpg","",""
"null","<div style=""font-size:60px;""> </div>","null","fixation","html-keyboard-response","398","1298999","0.0-6.0-0.56","2787847","co37606","norming","","","","","","",""
"null","../img/tt/163tt.jpg","null","mooney1","image-keyboard-response","399","1302009","0.0-6.0-1.56","2787847","co37606","norming","","","","","","",""
"4666.359999999171","","","post_mooney1_questions","survey-likert","400","1306678","0.0-6.0-2.56","2787847","co37606","norming","","","{""curiosity"":4,""confidence"":5}","[0,1]","../img/tt/163tt.jpg","",""
"2470.369999999879","","","recognition","survey-text","401","1309150","0.0-6.0-3.56","2787847","co37606","norming","","","{""guess"":""baby""}","","../img/tt/163tt.jpg","",""
"null","../img/gs/163gs.jpg","null","reveal","image-keyboard-response","402","1311151","0.0-6.0-4.56","2787847","co37606","norming","","","","","","",""
"null","../img/tt/163tt.jpg","null","mooney2","image-keyboard-response","403","1313163","0.0-6.0-5.56","2787847","co37606","norming","","","","","","",""
"3440.8899999998976","","","post_reveal_questions","survey-likert","404","1316606","0.0-6.0-6.56","2787847","co37606","norming","","","{""aha"":4}","[0]","../img/tt/163tt.jpg","",""
"null","<div style=""font-size:60px;""> </div>","null","fixation","html-keyboard-response","405","1316808","0.0-6.0-0.57","2787847","co37606","norming","","","","","","",""
"null","../img/tt/1217tt.jpg","null","mooney1","image-keyboard-response","406","1319815","0.0-6.0-1.57","2787847","co37606","norming","","","","","","",""
"4453.110000000335","","","post_mooney1_questions","survey-likert","407","1324270","0.0-6.0-2.57","2787847","co37606","norming","","","{""curiosity"":0,""confidence"":6}","[0,1]","../img/tt/1217tt.jpg","",""
"5134.015000000363","","","recognition","survey-text","408","1329406","0.0-6.0-3.57","2787847","co37606","norming","","","{""guess"":""rugbyspelers""}","","../img/tt/1217tt.jpg","",""
"null","../img/gs/1217gs.jpg","null","reveal","image-keyboard-response","409","1331414","0.0-6.0-4.57","2787847","co37606","norming","","","","","","",""
"null","../img/tt/1217tt.jpg","null","mooney2","image-keyboard-response","410","1333423","0.0-6.0-5.57","2787847","co37606","norming","","","","","","",""
"3308.5600000005215","","","post_reveal_questions","survey-likert","411","1336734","0.0-6.0-6.57","2787847","co37606","norming","","","{""aha"":0}","[0]","../img/tt/1217tt.jpg","",""
"null","<div style=""font-size:60px;""> </div>","null","fixation","html-keyboard-response","412","1336936","0.0-6.0-0.58","2787847","co37606","norming","","","","","","",""
"null","../img/tt/1189tt.jpg","null","mooney1","image-keyboard-response","413","1339940","0.0-6.0-1.58","2787847","co37606","norming","","","","","","",""
"3696.034999999916","","","post_mooney1_questions","survey-likert","414","1343638","0.0-6.0-2.58","2787847","co37606","norming","","","{""curiosity"":0,""confidence"":6}","[0,1]","../img/tt/1189tt.jpg","",""
"3302.1550000002608","","","recognition","survey-text","415","1346942","0.0-6.0-3.58","2787847","co37606","norming","","","{""guess"":""zwemmer""}","","../img/tt/1189tt.jpg","",""
"null","../img/gs/1189gs.jpg","null","reveal","image-keyboard-response","416","1348944","0.0-6.0-4.58","2787847","co37606","norming","","","","","","",""
"null","../img/tt/1189tt.jpg","null","mooney2","image-keyboard-response","417","1350949","0.0-6.0-5.58","2787847","co37606","norming","","","","","","",""
"2847.045000000391","","","post_reveal_questions","survey-likert","418","1353798","0.0-6.0-6.58","2787847","co37606","norming","","","{""aha"":0}","[0]","../img/tt/1189tt.jpg","",""
"null","<div style=""font-size:60px;""> </div>","null","fixation","html-keyboard-response","419","1354002","0.0-6.0-0.59","2787847","co37606","norming","","","","","","",""
"null","../img/tt/032tt.jpg","null","mooney1","image-keyboard-response","420","1357014","0.0-6.0-1.59","2787847","co37606","norming","","","","","","",""
"4157.719999999274","","","post_mooney1_questions","survey-likert","421","1361170","0.0-6.0-2.59","2787847","co37606","norming","","","{""curiosity"":4,""confidence"":4}","[0,1]","../img/tt/032tt.jpg","",""
"2486.1399999998976","","","recognition","survey-text","422","1363658","0.0-6.0-3.59","2787847","co37606","norming","","","{""guess"":""slang""}","","../img/tt/032tt.jpg","",""
"null","../img/gs/032gs.jpg","null","reveal","image-keyboard-response","423","1365660","0.0-6.0-4.59","2787847","co37606","norming","","","","","","",""
"null","../img/tt/032tt.jpg","null","mooney2","image-keyboard-response","424","1367663","0.0-6.0-5.59","2787847","co37606","norming","","","","","","",""
"1480.3999999994412","","","post_reveal_questions","survey-likert","425","1369146","0.0-6.0-6.59","2787847","co37606","norming","","","{""aha"":6}","[0]","../img/tt/032tt.jpg","",""
"null","<div style=""font-size:60px;""> </div>","null","fixation","html-keyboard-response","426","1369352","0.0-6.0-0.60","2787847","co37606","norming","","","","","","",""
"null","../img/tt/1049tt.jpg","null","mooney1","image-keyboard-response","427","1372355","0.0-6.0-1.60","2787847","co37606","norming","","","","","","",""
"3476.4549999998417","","","post_mooney1_questions","survey-likert","428","1375834","0.0-6.0-2.60","2787847","co37606","norming","","","{""curiosity"":6,""confidence"":0}","[0,1]","../img/tt/1049tt.jpg","",""
"933.9299999992363","","","recognition","survey-text","429","1376770","0.0-6.0-3.60","2787847","co37606","norming","","","{""guess"":""""}","","../img/tt/1049tt.jpg","",""
"null","../img/gs/1049gs.jpg","null","reveal","image-keyboard-response","430","1378777","0.0-6.0-4.60","2787847","co37606","norming","","","","","","",""
"null","../img/tt/1049tt.jpg","null","mooney2","image-keyboard-response","431","1380779","0.0-6.0-5.60","2787847","co37606","norming","","","","","","",""
"2260.6500000001397","","","post_reveal_questions","survey-likert","432","1383042","0.0-6.0-6.60","2787847","co37606","norming","","","{""aha"":6}","[0]","../img/tt/1049tt.jpg","",""
"null","<div style=""font-size:60px;""> </div>","null","fixation","html-keyboard-response","433","1383251","0.0-6.0-0.61","2787847","co37606","norming","","","","","","",""
"null","../img/tt/1202tt.jpg","null","mooney1","image-keyboard-response","434","1386256","0.0-6.0-1.61","2787847","co37606","norming","","","","","","",""
"6318.875","","","post_mooney1_questions","survey-likert","435","1392578","0.0-6.0-2.61","2787847","co37606","norming","","","{""curiosity"":0,""confidence"":6}","[0,1]","../img/tt/1202tt.jpg","",""
"3446.6299999994226","","","recognition","survey-text","436","1396026","0.0-6.0-3.61","2787847","co37606","norming","","","{""guess"":""acteurs""}","","../img/tt/1202tt.jpg","",""
"null","../img/gs/1202gs.jpg","null","reveal","image-keyboard-response","437","1398035","0.0-6.0-4.61","2787847","co37606","norming","","","","","","",""
"null","../img/tt/1202tt.jpg","null","mooney2","image-keyboard-response","438","1400039","0.0-6.0-5.61","2787847","co37606","norming","","","","","","",""
"1687.5","","","post_reveal_questions","survey-likert","439","1401730","0.0-6.0-6.61","2787847","co37606","norming","","","{""aha"":5}","[0]","../img/tt/1202tt.jpg","",""
"null","<div style=""font-size:60px;""> </div>","null","fixation","html-keyboard-response","440","1401938","0.0-6.0-0.62","2787847","co37606","norming","","","","","","",""
"null","../img/tt/1048tt.jpg","null","mooney1","image-keyboard-response","441","1404943","0.0-6.0-1.62","2787847","co37606","norming","","","","","","",""
"6392.2249999996275","","","post_mooney1_questions","survey-likert","442","1411338","0.0-6.0-2.62","2787847","co37606","norming","","","{""curiosity"":4,""confidence"":4}","[0,1]","../img/tt/1048tt.jpg","",""
"3653.764999999199","","","recognition","survey-text","443","1414994","0.0-6.0-3.62","2787847","co37606","norming","","","{""guess"":""honden""}","","../img/tt/1048tt.jpg","",""
"null","../img/gs/1048gs.jpg","null","reveal","image-keyboard-response","444","1417001","0.0-6.0-4.62","2787847","co37606","norming","","","","","","",""
"null","../img/tt/1048tt.jpg","null","mooney2","image-keyboard-response","445","1419003","0.0-6.0-5.62","2787847","co37606","norming","","","","","","",""
"2476.910000000149","","","post_reveal_questions","survey-likert","446","1421482","0.0-6.0-6.62","2787847","co37606","norming","","","{""aha"":6}","[0]","../img/tt/1048tt.jpg","",""
"null","<div style=""font-size:60px;""> </div>","null","fixation","html-keyboard-response","447","1421683","0.0-6.0-0.63","2787847","co37606","norming","","","","","","",""
"null","../img/tt/418tt.jpg","null","mooney1","image-keyboard-response","448","1424689","0.0-6.0-1.63","2787847","co37606","norming","","","","","","",""
"3599.8300000003073","","","post_mooney1_questions","survey-likert","449","1428290","0.0-6.0-2.63","2787847","co37606","norming","","","{""curiosity"":0,""confidence"":6}","[0,1]","../img/tt/418tt.jpg","",""
"4038.0049999994226","","","recognition","survey-text","450","1432330","0.0-6.0-3.63","2787847","co37606","norming","","","{""guess"":""schilder""}","","../img/tt/418tt.jpg","",""
"null","../img/gs/418gs.jpg","null","reveal","image-keyboard-response","451","1434334","0.0-6.0-4.63","2787847","co37606","norming","","","","","","",""
"null","../img/tt/418tt.jpg","null","mooney2","image-keyboard-response","452","1436337","0.0-6.0-5.63","2787847","co37606","norming","","","","","","",""
"2646.8199999998324","","","post_reveal_questions","survey-likert","453","1438986","0.0-6.0-6.63","2787847","co37606","norming","","","{""aha"":6}","[0]","../img/tt/418tt.jpg","",""
"null","<div style=""font-size:60px;""> </div>","null","fixation","html-keyboard-response","454","1439192","0.0-6.0-0.64","2787847","co37606","norming","","","","","","",""
"null","../img/tt/091tt.jpg","null","mooney1","image-keyboard-response","455","1442195","0.0-6.0-1.64","2787847","co37606","norming","","","","","","",""
"4596.775000000838","","","post_mooney1_questions","survey-likert","456","1446794","0.0-6.0-2.64","2787847","co37606","norming","","","{""curiosity"":0,""confidence"":6}","[0,1]","../img/tt/091tt.jpg","",""
"3774.0999999996275","","","recognition","survey-text","457","1450570","0.0-6.0-3.64","2787847","co37606","norming","","","{""guess"":""krokodil""}","","../img/tt/091tt.jpg","",""
"null","../img/gs/091gs.jpg","null","reveal","image-keyboard-response","458","1452575","0.0-6.0-4.64","2787847","co37606","norming","","","","","","",""
"null","../img/tt/091tt.jpg","null","mooney2","image-keyboard-response","459","1454586","0.0-6.0-5.64","2787847","co37606","norming","","","","","","",""
"1791.655000000028","","","post_reveal_questions","survey-likert","460","1456378","0.0-6.0-6.64","2787847","co37606","norming","","","{""aha"":0}","[0]","../img/tt/091tt.jpg","",""
"null","<div style=""font-size:60px;""> </div>","null","fixation","html-keyboard-response","461","1456580","0.0-6.0-0.65","2787847","co37606","norming","","","","","","",""
"null","../img/tt/552tt.jpg","null","mooney1","image-keyboard-response","462","1459586","0.0-6.0-1.65","2787847","co37606","norming","","","","","","",""
"3445.5900000003166","","","post_mooney1_questions","survey-likert","463","1463034","0.0-6.0-2.65","2787847","co37606","norming","","","{""curiosity"":0,""confidence"":6}","[0,1]","../img/tt/552tt.jpg","",""
"4421.9199999999255","","","recognition","survey-text","464","1467458","0.0-6.0-3.65","2787847","co37606","norming","","","{""guess"":""pauw""}","","../img/tt/552tt.jpg","",""
"null","../img/gs/552gs.jpg","null","reveal","image-keyboard-response","465","1469460","0.0-6.0-4.65","2787847","co37606","norming","","","","","","",""
"null","../img/tt/552tt.jpg","null","mooney2","image-keyboard-response","466","1471469","0.0-6.0-5.65","2787847","co37606","norming","","","","","","",""
"3570.860000000801","","","post_reveal_questions","survey-likert","467","1475042","0.0-6.0-6.65","2787847","co37606","norming","","","{""aha"":0}","[0]","../img/tt/552tt.jpg","",""
"null","<div style=""font-size:60px;""> </div>","null","fixation","html-keyboard-response","468","1475247","0.0-6.0-0.66","2787847","co37606","norming","","","","","","",""
"null","../img/tt/524tt.jpg","null","mooney1","image-keyboard-response","469","1478250","0.0-6.0-1.66","2787847","co37606","norming","","","","","","",""
"4541.339999999851","","","post_mooney1_questions","survey-likert","470","1482794","0.0-6.0-2.66","2787847","co37606","norming","","","{""curiosity"":0,""confidence"":6}","[0,1]","../img/tt/524tt.jpg","",""
"4078.024999999907","","","recognition","survey-text","471","1486874","0.0-6.0-3.66","2787847","co37606","norming","","","{""guess"":""olifant""}","","../img/tt/524tt.jpg","",""
"null","../img/gs/524gs.jpg","null","reveal","image-keyboard-response","472","1488875","0.0-6.0-4.66","2787847","co37606","norming","","","","","","",""
"null","../img/tt/524tt.jpg","null","mooney2","image-keyboard-response","473","1490880","0.0-6.0-5.66","2787847","co37606","norming","","","","","","",""
"2727.0250000001397","","","post_reveal_questions","survey-likert","474","1493610","0.0-6.0-6.66","2787847","co37606","norming","","","{""aha"":0}","[0]","../img/tt/524tt.jpg","",""
"null","<div style=""font-size:60px;""> </div>","null","fixation","html-keyboard-response","475","1493811","0.0-6.0-0.67","2787847","co37606","norming","","","","","","",""
"null","../img/tt/319tt.jpg","null","mooney1","image-keyboard-response","476","1496816","0.0-6.0-1.67","2787847","co37606","norming","","","","","","",""
"3535.1250000004657","","","post_mooney1_questions","survey-likert","477","1500354","0.0-6.0-2.67","2787847","co37606","norming","","","{""curiosity"":0,""confidence"":6}","[0,1]","../img/tt/319tt.jpg","",""
"2325.9599999990314","","","recognition","survey-text","478","1502682","0.0-6.0-3.67","2787847","co37606","norming","","","{""guess"":""koe""}","","../img/tt/319tt.jpg","",""
"null","../img/gs/319gs.jpg","null","reveal","image-keyboard-response","479","1504683","0.0-6.0-4.67","2787847","co37606","norming","","","","","","",""
"null","../img/tt/319tt.jpg","null","mooney2","image-keyboard-response","480","1506685","0.0-6.0-5.67","2787847","co37606","norming","","","","","","",""
"2595.3800000005867","","","post_reveal_questions","survey-likert","481","1509282","0.0-6.0-6.67","2787847","co37606","norming","","","{""aha"":1}","[0]","../img/tt/319tt.jpg","",""
"null","<div style=""font-size:60px;""> </div>","null","fixation","html-keyboard-response","482","1509485","0.0-6.0-0.68","2787847","co37606","norming","","","","","","",""
"null","../img/tt/329tt.jpg","null","mooney1","image-keyboard-response","483","1512494","0.0-6.0-1.68","2787847","co37606","norming","","","","","","",""
"3632.6399999998976","","","post_mooney1_questions","survey-likert","484","1516130","0.0-6.0-2.68","2787847","co37606","norming","","","{""curiosity"":6,""confidence"":0}","[0,1]","../img/tt/329tt.jpg","",""
"2854.1699999996927","","","recognition","survey-text","485","1518986","0.0-6.0-3.68","2787847","co37606","norming","","","{""guess"":""wasrek""}","","../img/tt/329tt.jpg","",""
"null","../img/gs/329gs.jpg","null","reveal","image-keyboard-response","486","1520987","0.0-6.0-4.68","2787847","co37606","norming","","","","","","",""
"null","../img/tt/329tt.jpg","null","mooney2","image-keyboard-response","487","1522989","0.0-6.0-5.68","2787847","co37606","norming","","","","","","",""
"1778.0599999995902","","","post_reveal_questions","survey-likert","488","1524770","0.0-6.0-6.68","2787847","co37606","norming","","","{""aha"":6}","[0]","../img/tt/329tt.jpg","",""
"null","<div style=""font-size:60px;""> </div>","null","fixation","html-keyboard-response","489","1524974","0.0-6.0-0.69","2787847","co37606","norming","","","","","","",""
"null","../img/tt/1251tt.jpg","null","mooney1","image-keyboard-response","490","1527978","0.0-6.0-1.69","2787847","co37606","norming","","","","","","",""
"4797.110000000335","","","post_mooney1_questions","survey-likert","491","1532778","0.0-6.0-2.69","2787847","co37606","norming","","","{""curiosity"":4,""confidence"":4}","[0,1]","../img/tt/1251tt.jpg","",""
"2525.9699999997392","","","recognition","survey-text","492","1535306","0.0-6.0-3.69","2787847","co37606","norming","","","{""guess"":""paard""}","","../img/tt/1251tt.jpg","",""
"null","../img/gs/1251gs.jpg","null","reveal","image-keyboard-response","493","1537307","0.0-6.0-4.69","2787847","co37606","norming","","","","","","",""
"null","../img/tt/1251tt.jpg","null","mooney2","image-keyboard-response","494","1539310","0.0-6.0-5.69","2787847","co37606","norming","","","","","","",""
"3448.8199999995995","","","post_reveal_questions","survey-likert","495","1542770","0.0-6.0-6.69","2787847","co37606","norming","","","{""aha"":4}","[0]","../img/tt/1251tt.jpg","",""
"null","<div style=""font-size:60px;""> </div>","null","fixation","html-keyboard-response","496","1542973","0.0-6.0-0.70","2787847","co37606","norming","","","","","","",""
"null","../img/tt/084tt.jpg","null","mooney1","image-keyboard-response","497","1545980","0.0-6.0-1.70","2787847","co37606","norming","","","","","","",""
"5292.045000000158","","","post_mooney1_questions","survey-likert","498","1551275","0.0-6.0-2.70","2787847","co37606","norming","","","{""curiosity"":0,""confidence"":6}","[0,1]","../img/tt/084tt.jpg","",""
"2310.1850000002887","","","recognition","survey-text","499","1553587","0.0-6.0-3.70","2787847","co37606","norming","","","{""guess"":""vogel""}","","../img/tt/084tt.jpg","",""
"null","../img/gs/084gs.jpg","null","reveal","image-keyboard-response","500","1555593","0.0-6.0-4.70","2787847","co37606","norming","","","","","","",""
"null","../img/tt/084tt.jpg","null","mooney2","image-keyboard-response","501","1557595","0.0-6.0-5.70","2787847","co37606","norming","","","","","","",""
"2516.7800000007264","","","post_reveal_questions","survey-likert","502","1560114","0.0-6.0-6.70","2787847","co37606","norming","","","{""aha"":0}","[0]","../img/tt/084tt.jpg","",""
"null","<div style=""font-size:60px;""> </div>","null","fixation","html-keyboard-response","503","1560315","0.0-6.0-0.71","2787847","co37606","norming","","","","","","",""
"null","../img/tt/1254tt.jpg","null","mooney1","image-keyboard-response","504","1563323","0.0-6.0-1.71","2787847","co37606","norming","","","","","","",""
"4125.179999999935","","","post_mooney1_questions","survey-likert","505","1567451","0.0-6.0-2.71","2787847","co37606","norming","","","{""curiosity"":6,""confidence"":0}","[0,1]","../img/tt/1254tt.jpg","",""
"877.8449999999721","","","recognition","survey-text","506","1568330","0.0-6.0-3.71","2787847","co37606","norming","","","{""guess"":""""}","","../img/tt/1254tt.jpg","",""
"null","../img/gs/1254gs.jpg","null","reveal","image-keyboard-response","507","1570338","0.0-6.0-4.71","2787847","co37606","norming","","","","","","",""
"null","../img/tt/1254tt.jpg","null","mooney2","image-keyboard-response","508","1572346","0.0-6.0-5.71","2787847","co37606","norming","","","","","","",""
"3469.574999999022","","","post_reveal_questions","survey-likert","509","1575818","0.0-6.0-6.71","2787847","co37606","norming","","","{""aha"":5}","[0]","../img/tt/1254tt.jpg","",""
"null","<div style=""font-size:60px;""> </div>","null","fixation","html-keyboard-response","510","1576022","0.0-6.0-0.72","2787847","co37606","norming","","","","","","",""
"null","../img/tt/270tt.jpg","null","mooney1","image-keyboard-response","511","1579026","0.0-6.0-1.72","2787847","co37606","norming","","","","","","",""
"4309.98499999987","","","post_mooney1_questions","survey-likert","512","1583338","0.0-6.0-2.72","2787847","co37606","norming","","","{""curiosity"":0,""confidence"":6}","[0,1]","../img/tt/270tt.jpg","",""
"6070.154999999329","","","recognition","survey-text","513","1589410","0.0-6.0-3.72","2787847","co37606","norming","","","{""guess"":""bamby""}","","../img/tt/270tt.jpg","",""
"null","../img/gs/270gs.jpg","null","reveal","image-keyboard-response","514","1591420","0.0-6.0-4.72","2787847","co37606","norming","","","","","","",""
"null","../img/tt/270tt.jpg","null","mooney2","image-keyboard-response","515","1593423","0.0-6.0-5.72","2787847","co37606","norming","","","","","","",""
"4816.865000000689","","","post_reveal_questions","survey-likert","516","1598242","0.0-6.0-6.72","2787847","co37606","norming","","","{""aha"":0}","[0]","../img/tt/270tt.jpg","",""
"null","<div style=""font-size:60px;""> </div>","null","fixation","html-keyboard-response","517","1598443","0.0-6.0-0.73","2787847","co37606","norming","","","","","","",""
"null","../img/tt/580tt.jpg","null","mooney1","image-keyboard-response","518","1601456","0.0-6.0-1.73","2787847","co37606","norming","","","","","","",""
"4703.630000000121","","","post_mooney1_questions","survey-likert","519","1606164","0.0-6.0-2.73","2787847","co37606","norming","","","{""curiosity"":6,""confidence"":0}","[0,1]","../img/tt/580tt.jpg","",""
"1269.8849999997765","","","recognition","survey-text","520","1607436","0.0-6.0-3.73","2787847","co37606","norming","","","{""guess"":""""}","","../img/tt/580tt.jpg","",""
"null","../img/gs/580gs.jpg","null","reveal","image-keyboard-response","521","1609437","0.0-6.0-4.73","2787847","co37606","norming","","","","","","",""
"null","../img/tt/580tt.jpg","null","mooney2","image-keyboard-response","522","1611440","0.0-6.0-5.73","2787847","co37606","norming","","","","","","",""
"1633.3549999999814","","","post_reveal_questions","survey-likert","523","1613076","0.0-6.0-6.73","2787847","co37606","norming","","","{""aha"":3}","[0]","../img/tt/580tt.jpg","",""
"null","<div style=""font-size:60px;""> </div>","null","fixation","html-keyboard-response","524","1613284","0.0-6.0-0.74","2787847","co37606","norming","","","","","","",""
"null","../img/tt/1227tt.jpg","null","mooney1","image-keyboard-response","525","1616287","0.0-6.0-1.74","2787847","co37606","norming","","","","","","",""
"4874.350000000093","","","post_mooney1_questions","survey-likert","526","1621164","0.0-6.0-2.74","2787847","co37606","norming","","","{""curiosity"":0,""confidence"":6}","[0,1]","../img/tt/1227tt.jpg","",""
"2229.9350000005215","","","recognition","survey-text","527","1623396","0.0-6.0-3.74","2787847","co37606","norming","","","{""guess"":""kippen""}","","../img/tt/1227tt.jpg","",""
"null","../img/gs/1227gs.jpg","null","reveal","image-keyboard-response","528","1625397","0.0-6.0-4.74","2787847","co37606","norming","","","","","","",""
"null","../img/tt/1227tt.jpg","null","mooney2","image-keyboard-response","529","1627399","0.0-6.0-5.74","2787847","co37606","norming","","","","","","",""
"2986.4900000002235","","","post_reveal_questions","survey-likert","530","1630388","0.0-6.0-6.74","2787847","co37606","norming","","","{""aha"":0}","[0]","../img/tt/1227tt.jpg","",""
"null","<div style=""font-size:60px;""> </div>","null","fixation","html-keyboard-response","531","1630589","0.0-6.0-0.75","2787847","co37606","norming","","","","","","",""
"null","../img/tt/124tt.jpg","null","mooney1","image-keyboard-response","532","1633590","0.0-6.0-1.75","2787847","co37606","norming","","","","","","",""
"2434.875","","","post_mooney1_questions","survey-likert","533","1636028","0.0-6.0-2.75","2787847","co37606","norming","","","{""curiosity"":0,""confidence"":6}","[0,1]","../img/tt/124tt.jpg","",""
"2070.425000000745","","","recognition","survey-text","534","1638100","0.0-6.0-3.75","2787847","co37606","norming","","","{""guess"":""aap""}","","../img/tt/124tt.jpg","",""
"null","../img/gs/124gs.jpg","null","reveal","image-keyboard-response","535","1640106","0.0-6.0-4.75","2787847","co37606","norming","","","","","","",""
"null","../img/tt/124tt.jpg","null","mooney2","image-keyboard-response","536","1642118","0.0-6.0-5.75","2787847","co37606","norming","","","","","","",""
"2115.264999999432","","","post_reveal_questions","survey-likert","537","1644236","0.0-6.0-6.75","2787847","co37606","norming","","","{""aha"":0}","[0]","../img/tt/124tt.jpg","",""
"null","<div style=""font-size:60px;""> </div>","null","fixation","html-keyboard-response","538","1644446","0.0-6.0-0.76","2787847","co37606","norming","","","","","","",""
"null","../img/tt/405tt.jpg","null","mooney1","image-keyboard-response","539","1647456","0.0-6.0-1.76","2787847","co37606","norming","","","","","","",""
"2833.1850000005215","","","post_mooney1_questions","survey-likert","540","1650292","0.0-6.0-2.76","2787847","co37606","norming","","","{""curiosity"":0,""confidence"":6}","[0,1]","../img/tt/405tt.jpg","",""
"2269.890000000363","","","recognition","survey-text","541","1652563","0.0-6.0-3.76","2787847","co37606","norming","","","{""guess"":""koala""}","","../img/tt/405tt.jpg","",""
"null","../img/gs/405gs.jpg","null","reveal","image-keyboard-response","542","1654565","0.0-6.0-4.76","2787847","co37606","norming","","","","","","",""
"null","../img/tt/405tt.jpg","null","mooney2","image-keyboard-response","543","1656569","0.0-6.0-5.76","2787847","co37606","norming","","","","","","",""
"1663.9349999995902","","","post_reveal_questions","survey-likert","544","1658235","0.0-6.0-6.76","2787847","co37606","norming","","","{""aha"":0}","[0]","../img/tt/405tt.jpg","",""
"null","<div style=""font-size:60px;""> </div>","null","fixation","html-keyboard-response","545","1658437","0.0-6.0-0.77","2787847","co37606","norming","","","","","","",""
"null","../img/tt/1107tt.jpg","null","mooney1","image-keyboard-response","546","1661446","0.0-6.0-1.77","2787847","co37606","norming","","","","","","",""
"3098.5300000002608","","","post_mooney1_questions","survey-likert","547","1664542","0.0-6.0-2.77","2787847","co37606","norming","","","{""curiosity"":0,""confidence"":6}","[0,1]","../img/tt/1107tt.jpg","",""
"2125.9950000003446","","","recognition","survey-text","548","1666669","0.0-6.0-3.77","2787847","co37606","norming","","","{""guess"":""baby""}","","../img/tt/1107tt.jpg","",""
"null","../img/gs/1107gs.jpg","null","reveal","image-keyboard-response","549","1668677","0.0-6.0-4.77","2787847","co37606","norming","","","","","","",""
"null","../img/tt/1107tt.jpg","null","mooney2","image-keyboard-response","550","1670678","0.0-6.0-5.77","2787847","co37606","norming","","","","","","",""
"3086.100000000326","","","post_reveal_questions","survey-likert","551","1673765","0.0-6.0-6.77","2787847","co37606","norming","","","{""aha"":5}","[0]","../img/tt/1107tt.jpg","",""
