"rt","stimulus","key_press","test_part","trial_type","trial_index","time_elapsed","internal_node_id","totalTime","subject","experiment_name","button_pressed","success","responses","question_order","currentStim","old","correct"
"9578.19500000005","Welcome to the experiment. This is an online experiment so please don't close the tab/window until we say goodbye.  Press any key to begin.","13","instructions","html-keyboard-response","0","9592","0.0-0.0","2761877","co37990","norming","","","","","","",""
"39862.39000000023","<div style='word-wrap: break-word; width: 900px'><h3>Please consider this information carefully before deciding whether to participate in this research</h3><ul style='text-align: left; font-size: .8em;'><li><b>Purpose of the research</b>: To examine how people process images.</li><li><b>What you will do in this research</b>:  Stimuli (images) will be presented on the computer and you will be asked different questions about them.</li><li><b>Time required</b>: Participation will take between 45 and 60 minutes to complete.</li><li><b>Risks</b>:  There are no anticipated risks associated with participating in this study. The effects of participating should be comparable to those you would experience from viewing a computer monitor for 30 minutes and using a mouse or keyboard.</li><li><b>Benefits</b>:  This study provides no benefits to you individually except for the credit. The study provides important information about the nature of perception and learning.</li><li><b>Confidentiality</b>:  Your participation in this study will remain confidential. No personally identifiable information will be associated with your data. Your de-identified data may be shared with other researchers and used in future projects.</li><li><b>Participation and withdrawal</b>:  Your participation in this study is completely voluntary and you may refuse to participate or you may choose to withdraw at any time without penalty.</li><li><b>How to contact the researchers</b>: If you have questions or concerns about your participation or payment, or want to request a summary of research findings, please contact Sander Van de Cruys (KU Leuven), at sander.vandecruys@kuleuven.be.</li></ul><p>The nature and purpose of this research have been sufficiently explained and I agree to participate in this study.  I understand that I am free to withdraw at any time without incurring any penalty.</p><p>Please consent by clicking the button below to continue. Otherwise, please exit the study at this time.</p></div>","","instructions","html-button-response","1","49459","0.0-1.0","2761877","co37990","norming","0","","","","","",""
"","","","instructions","fullscreen","2","55125","0.0-2.0","2761877","co37990","norming","","true","","","","",""
"29891.66000000114","","","sona","survey-html-form","3","85023","0.0-3.0","2761877","co37990","norming","","","[{""name"":""sonaid"",""value"":""37990""},{""name"":""debrief"",""value"":""yes""},{""name"":""datajoin"",""value"":""yes""}]","","","",""
"64954.67999999893","<div style='word-wrap: break-word; width: 900px'><h3>Instructions</h3><p>This experiment will have 3 parts. In the first part you will see a series of distorted images like the one below on the left. As you can see in the righthand image, the distorted images are derived from actual photographs. In what follows, you will <strong>briefly</strong> be presented with <strong>only</strong> the distorted image.</p> <div style='float: left; margin-right: 20px;'><img src='../img/018tt.jpg' height='250' width='250'></img></div><div style='float: right; margin-left: 20px;'><img src='../img/018gs.jpg' height='250' width='250'></img></div><p>Subsequently you will be asked a few questions about the image: One question on how <strong>curious</strong> you are about the solution and one on how <strong>confident</strong> you are that you know the solution.</p>Next, we ask you to make a guess on what is in the image. Note that it is OK to name just the <strong>basic level category</strong>. For example when you see a parrot in the image, 'parrot' will obviously be a correct answer but also correct is 'bird'. However, 'animal' will <strong>not</strong> be counted as a correct response. For the example above, 'rose' would be correct or 'flower', but not 'plant'. When soccer players are depicted, 'soccer', 'football', 'soccer players' will be correct, but not 'humans', 'outdoors', or 'sports'. You do not need to describe the image in full, just name the main object in it <strong>in one or two words</strong>. All images depict objects from one of the following broad level categories: animals, inanimate objects, plants, sports, vehicles, and food. Recognizing means knowing <strong>more</strong> than these broad labels for a given image. But we always encourage you to <strong>make a guess</strong> if you can. Note that you are allowed to use <strong>Dutch and English</strong> in your answers, whatever comes easiest for you.</p><p>Press any key to continue.</p></div>","13","instructions","html-keyboard-response","4","149982","0.0-4.0","2761877","co37990","norming","","","","","","",""
"25983.475000000908","<div style='word-wrap: break-word; width: 900px'><h3>Instructions</h3> <p>Next, the solution image will be revealed to you and you'll be asked to indicate how strong your <strong>aha-experience</strong> was after seeing the solution. This describes the positive feeling of the 'click' you sometimes experience, when the pieces of the 'puzzle' fall together and you suddenly have 'insight' in the image.</p><img src='aha.jpg' height='188' width='250'></img><p>Note that there are no right or wrong answers. We are interested in what <strong>you</strong> see in the image and how <strong>you</strong> feel about it.</p><p>Press any key to start the experiment.</p></div>","13","instructions","html-keyboard-response","5","175966","0.0-5.0","2761877","co37990","norming","","","","","","",""
"null","<div style=""font-size:60px;""> </div>","null","fixation","html-keyboard-response","6","176174","0.0-6.0-0.0","2761877","co37990","norming","","","","","","",""
"null","../img/tt/1175tt.jpg","null","mooney1","image-keyboard-response","7","179181","0.0-6.0-1.0","2761877","co37990","norming","","","","","","",""
"15549.175000000105","","","post_mooney1_questions","survey-likert","8","194734","0.0-6.0-2.0","2761877","co37990","norming","","","{""curiosity"":4,""confidence"":0}","[0,1]","../img/tt/1175tt.jpg","",""
"2877.9649999996764","","","recognition","survey-text","9","197614","0.0-6.0-3.0","2761877","co37990","norming","","","{""guess"":""""}","","../img/tt/1175tt.jpg","",""
"null","../img/gs/1175gs.jpg","null","reveal","image-keyboard-response","10","199622","0.0-6.0-4.0","2761877","co37990","norming","","","","","","",""
"null","../img/tt/1175tt.jpg","null","mooney2","image-keyboard-response","11","201630","0.0-6.0-5.0","2761877","co37990","norming","","","","","","",""
"3773.2749999995576","","","post_reveal_questions","survey-likert","12","205406","0.0-6.0-6.0","2761877","co37990","norming","","","{""aha"":4}","[0]","../img/tt/1175tt.jpg","",""
"null","<div style=""font-size:60px;""> </div>","null","fixation","html-keyboard-response","13","205608","0.0-6.0-0.1","2761877","co37990","norming","","","","","","",""
"null","../img/tt/1159tt.jpg","null","mooney1","image-keyboard-response","14","208619","0.0-6.0-1.1","2761877","co37990","norming","","","","","","",""
"7794.469999998924","","","post_mooney1_questions","survey-likert","15","216409","0.0-6.0-2.1","2761877","co37990","norming","","","{""curiosity"":2,""confidence"":4}","[0,1]","../img/tt/1159tt.jpg","",""
"9429.944999999832","","","recognition","survey-text","16","225841","0.0-6.0-3.1","2761877","co37990","norming","","","{""guess"":""boot water""}","","../img/tt/1159tt.jpg","",""
"null","../img/gs/1159gs.jpg","null","reveal","image-keyboard-response","17","227847","0.0-6.0-4.1","2761877","co37990","norming","","","","","","",""
"null","../img/tt/1159tt.jpg","null","mooney2","image-keyboard-response","18","229855","0.0-6.0-5.1","2761877","co37990","norming","","","","","","",""
"3808.474999999802","","","post_reveal_questions","survey-likert","19","233665","0.0-6.0-6.1","2761877","co37990","norming","","","{""aha"":3}","[0]","../img/tt/1159tt.jpg","",""
"null","<div style=""font-size:60px;""> </div>","null","fixation","html-keyboard-response","20","233867","0.0-6.0-0.2","2761877","co37990","norming","","","","","","",""
"null","../img/tt/124tt.jpg","null","mooney1","image-keyboard-response","21","236874","0.0-6.0-1.2","2761877","co37990","norming","","","","","","",""
"8779.85500000068","","","post_mooney1_questions","survey-likert","22","245657","0.0-6.0-2.2","2761877","co37990","norming","","","{""curiosity"":0,""confidence"":6}","[0,1]","../img/tt/124tt.jpg","",""
"2782.2250000008207","","","recognition","survey-text","23","248441","0.0-6.0-3.2","2761877","co37990","norming","","","{""guess"":""aap""}","","../img/tt/124tt.jpg","",""
"null","../img/gs/124gs.jpg","null","reveal","image-keyboard-response","24","250448","0.0-6.0-4.2","2761877","co37990","norming","","","","","","",""
"null","../img/tt/124tt.jpg","null","mooney2","image-keyboard-response","25","252460","0.0-6.0-5.2","2761877","co37990","norming","","","","","","",""
"2635.944999999978","","","post_reveal_questions","survey-likert","26","255097","0.0-6.0-6.2","2761877","co37990","norming","","","{""aha"":0}","[0]","../img/tt/124tt.jpg","",""
"null","<div style=""font-size:60px;""> </div>","null","fixation","html-keyboard-response","27","255299","0.0-6.0-0.3","2761877","co37990","norming","","","","","","",""
"null","../img/tt/1202tt.jpg","null","mooney1","image-keyboard-response","28","258305","0.0-6.0-1.3","2761877","co37990","norming","","","","","","",""
"5110.009999998554","","","post_mooney1_questions","survey-likert","29","263417","0.0-6.0-2.3","2761877","co37990","norming","","","{""curiosity"":5,""confidence"":0}","[0,1]","../img/tt/1202tt.jpg","",""
"886.0949999998556","","","recognition","survey-text","30","264305","0.0-6.0-3.3","2761877","co37990","norming","","","{""guess"":""""}","","../img/tt/1202tt.jpg","",""
"null","../img/gs/1202gs.jpg","null","reveal","image-keyboard-response","31","266314","0.0-6.0-4.3","2761877","co37990","norming","","","","","","",""
"null","../img/tt/1202tt.jpg","null","mooney2","image-keyboard-response","32","268315","0.0-6.0-5.3","2761877","co37990","norming","","","","","","",""
"3323.744999999646","","","post_reveal_questions","survey-likert","33","271646","0.0-6.0-6.3","2761877","co37990","norming","","","{""aha"":2}","[0]","../img/tt/1202tt.jpg","",""
"null","<div style=""font-size:60px;""> </div>","null","fixation","html-keyboard-response","34","271847","0.0-6.0-0.4","2761877","co37990","norming","","","","","","",""
"null","../img/tt/1241tt.jpg","null","mooney1","image-keyboard-response","35","274848","0.0-6.0-1.4","2761877","co37990","norming","","","","","","",""
"4763.15500000061","","","post_mooney1_questions","survey-likert","36","279614","0.0-6.0-2.4","2761877","co37990","norming","","","{""curiosity"":4,""confidence"":2}","[0,1]","../img/tt/1241tt.jpg","",""
"6069.819999998785","","","recognition","survey-text","37","285685","0.0-6.0-3.4","2761877","co37990","norming","","","{""guess"":""hond varken""}","","../img/tt/1241tt.jpg","",""
"null","../img/gs/1241gs.jpg","null","reveal","image-keyboard-response","38","287696","0.0-6.0-4.4","2761877","co37990","norming","","","","","","",""
"null","../img/tt/1241tt.jpg","null","mooney2","image-keyboard-response","39","289708","0.0-6.0-5.4","2761877","co37990","norming","","","","","","",""
"5959.919999999343","","","post_reveal_questions","survey-likert","40","295670","0.0-6.0-6.4","2761877","co37990","norming","","","{""aha"":3}","[0]","../img/tt/1241tt.jpg","",""
"null","<div style=""font-size:60px;""> </div>","null","fixation","html-keyboard-response","41","295871","0.0-6.0-0.5","2761877","co37990","norming","","","","","","",""
"null","../img/tt/307tt.jpg","null","mooney1","image-keyboard-response","42","298883","0.0-6.0-1.5","2761877","co37990","norming","","","","","","",""
"26336.320000000356","","","post_mooney1_questions","survey-likert","43","325222","0.0-6.0-2.5","2761877","co37990","norming","","","{""curiosity"":4,""confidence"":1}","[0,1]","../img/tt/307tt.jpg","",""
"1966.030000001425","","","recognition","survey-text","44","327190","0.0-6.0-3.5","2761877","co37990","norming","","","{""guess"":""""}","","../img/tt/307tt.jpg","",""
"null","../img/gs/307gs.jpg","null","reveal","image-keyboard-response","45","329192","0.0-6.0-4.5","2761877","co37990","norming","","","","","","",""
"null","../img/tt/307tt.jpg","null","mooney2","image-keyboard-response","46","331202","0.0-6.0-5.5","2761877","co37990","norming","","","","","","",""
"2193.8549999995157","","","post_reveal_questions","survey-likert","47","333400","0.0-6.0-6.5","2761877","co37990","norming","","","{""aha"":4}","[0]","../img/tt/307tt.jpg","",""
"null","<div style=""font-size:60px;""> </div>","null","fixation","html-keyboard-response","48","333602","0.0-6.0-0.6","2761877","co37990","norming","","","","","","",""
"null","../img/tt/1130tt.jpg","null","mooney1","image-keyboard-response","49","336608","0.0-6.0-1.6","2761877","co37990","norming","","","","","","",""
"5543.95999999909","","","post_mooney1_questions","survey-likert","50","342153","0.0-6.0-2.6","2761877","co37990","norming","","","{""curiosity"":2,""confidence"":5}","[0,1]","../img/tt/1130tt.jpg","",""
"2486.010000000533","","","recognition","survey-text","51","344640","0.0-6.0-3.6","2761877","co37990","norming","","","{""guess"":""fiets""}","","../img/tt/1130tt.jpg","",""
"null","../img/gs/1130gs.jpg","null","reveal","image-keyboard-response","52","346642","0.0-6.0-4.6","2761877","co37990","norming","","","","","","",""
"null","../img/tt/1130tt.jpg","null","mooney2","image-keyboard-response","53","348650","0.0-6.0-5.6","2761877","co37990","norming","","","","","","",""
"3397.734999998589","","","post_reveal_questions","survey-likert","54","352048","0.0-6.0-6.6","2761877","co37990","norming","","","{""aha"":1}","[0]","../img/tt/1130tt.jpg","",""
"null","<div style=""font-size:60px;""> </div>","null","fixation","html-keyboard-response","55","352255","0.0-6.0-0.7","2761877","co37990","norming","","","","","","",""
"null","../img/tt/1072tt.jpg","null","mooney1","image-keyboard-response","56","355266","0.0-6.0-1.7","2761877","co37990","norming","","","","","","",""
"6667.9650000005495","","","post_mooney1_questions","survey-likert","57","361937","0.0-6.0-2.7","2761877","co37990","norming","","","{""curiosity"":5,""confidence"":1}","[0,1]","../img/tt/1072tt.jpg","",""
"2678.190000000526","","","recognition","survey-text","58","364616","0.0-6.0-3.7","2761877","co37990","norming","","","{""guess"":""stal""}","","../img/tt/1072tt.jpg","",""
"null","../img/gs/1072gs.jpg","null","reveal","image-keyboard-response","59","366625","0.0-6.0-4.7","2761877","co37990","norming","","","","","","",""
"null","../img/tt/1072tt.jpg","null","mooney2","image-keyboard-response","60","368630","0.0-6.0-5.7","2761877","co37990","norming","","","","","","",""
"3896.76999999932","","","post_reveal_questions","survey-likert","61","372528","0.0-6.0-6.7","2761877","co37990","norming","","","{""aha"":2}","[0]","../img/tt/1072tt.jpg","",""
"null","<div style=""font-size:60px;""> </div>","null","fixation","html-keyboard-response","62","372731","0.0-6.0-0.8","2761877","co37990","norming","","","","","","",""
"null","../img/tt/135tt.jpg","null","mooney1","image-keyboard-response","63","375735","0.0-6.0-1.8","2761877","co37990","norming","","","","","","",""
"3695.335000000312","","","post_mooney1_questions","survey-likert","64","379432","0.0-6.0-2.8","2761877","co37990","norming","","","{""curiosity"":1,""confidence"":5}","[0,1]","../img/tt/135tt.jpg","",""
"2702.1450000011246","","","recognition","survey-text","65","382136","0.0-6.0-3.8","2761877","co37990","norming","","","{""guess"":""toilet""}","","../img/tt/135tt.jpg","",""
"null","../img/gs/135gs.jpg","null","reveal","image-keyboard-response","66","384138","0.0-6.0-4.8","2761877","co37990","norming","","","","","","",""
"null","../img/tt/135tt.jpg","null","mooney2","image-keyboard-response","67","386143","0.0-6.0-5.8","2761877","co37990","norming","","","","","","",""
"2879.025000000198","","","post_reveal_questions","survey-likert","68","389024","0.0-6.0-6.8","2761877","co37990","norming","","","{""aha"":2}","[0]","../img/tt/135tt.jpg","",""
"null","<div style=""font-size:60px;""> </div>","null","fixation","html-keyboard-response","69","389229","0.0-6.0-0.9","2761877","co37990","norming","","","","","","",""
"null","../img/tt/1097tt.jpg","null","mooney1","image-keyboard-response","70","392235","0.0-6.0-1.9","2761877","co37990","norming","","","","","","",""
"7122.569999999483","","","post_mooney1_questions","survey-likert","71","399360","0.0-6.0-2.9","2761877","co37990","norming","","","{""curiosity"":4,""confidence"":5}","[0,1]","../img/tt/1097tt.jpg","",""
"2758.144999999786","","","recognition","survey-text","72","402119","0.0-6.0-3.9","2761877","co37990","norming","","","{""guess"":""veld""}","","../img/tt/1097tt.jpg","",""
"null","../img/gs/1097gs.jpg","null","reveal","image-keyboard-response","73","404130","0.0-6.0-4.9","2761877","co37990","norming","","","","","","",""
"null","../img/tt/1097tt.jpg","null","mooney2","image-keyboard-response","74","406132","0.0-6.0-5.9","2761877","co37990","norming","","","","","","",""
"4566.010000000475","","","post_reveal_questions","survey-likert","75","410703","0.0-6.0-6.9","2761877","co37990","norming","","","{""aha"":4}","[0]","../img/tt/1097tt.jpg","",""
"null","<div style=""font-size:60px;""> </div>","null","fixation","html-keyboard-response","76","410905","0.0-6.0-0.10","2761877","co37990","norming","","","","","","",""
"null","../img/tt/1307tt.jpg","null","mooney1","image-keyboard-response","77","413909","0.0-6.0-1.10","2761877","co37990","norming","","","","","","",""
"11200.274999999267","","","post_mooney1_questions","survey-likert","78","425112","0.0-6.0-2.10","2761877","co37990","norming","","","{""curiosity"":5,""confidence"":3}","[0,1]","../img/tt/1307tt.jpg","",""
"3213.9700000006706","","","recognition","survey-text","79","428327","0.0-6.0-3.10","2761877","co37990","norming","","","{""guess"":""ballon""}","","../img/tt/1307tt.jpg","",""
"null","../img/gs/1307gs.jpg","null","reveal","image-keyboard-response","80","430335","0.0-6.0-4.10","2761877","co37990","norming","","","","","","",""
"null","../img/tt/1307tt.jpg","null","mooney2","image-keyboard-response","81","432345","0.0-6.0-5.10","2761877","co37990","norming","","","","","","",""
"2308.195000001462","","","post_reveal_questions","survey-likert","82","434655","0.0-6.0-6.10","2761877","co37990","norming","","","{""aha"":5}","[0]","../img/tt/1307tt.jpg","",""
"null","<div style=""font-size:60px;""> </div>","null","fixation","html-keyboard-response","83","434856","0.0-6.0-0.11","2761877","co37990","norming","","","","","","",""
"null","../img/tt/1232tt.jpg","null","mooney1","image-keyboard-response","84","437868","0.0-6.0-1.11","2761877","co37990","norming","","","","","","",""
"14226.945000000298","","","post_mooney1_questions","survey-likert","85","452096","0.0-6.0-2.11","2761877","co37990","norming","","","{""curiosity"":5,""confidence"":1}","[0,1]","../img/tt/1232tt.jpg","",""
"2966.159999999916","","","recognition","survey-text","86","455060","0.0-6.0-3.11","2761877","co37990","norming","","","{""guess"":""zand""}","","../img/tt/1232tt.jpg","",""
"null","../img/gs/1232gs.jpg","null","reveal","image-keyboard-response","87","457069","0.0-6.0-4.11","2761877","co37990","norming","","","","","","",""
"null","../img/tt/1232tt.jpg","null","mooney2","image-keyboard-response","88","459079","0.0-6.0-5.11","2761877","co37990","norming","","","","","","",""
"2091.975000001199","","","post_reveal_questions","survey-likert","89","461172","0.0-6.0-6.11","2761877","co37990","norming","","","{""aha"":5}","[0]","../img/tt/1232tt.jpg","",""
"null","<div style=""font-size:60px;""> </div>","null","fixation","html-keyboard-response","90","461373","0.0-6.0-0.12","2761877","co37990","norming","","","","","","",""
"null","../img/tt/580tt.jpg","null","mooney1","image-keyboard-response","91","464381","0.0-6.0-1.12","2761877","co37990","norming","","","","","","",""
"6268.190000000701","","","post_mooney1_questions","survey-likert","92","470652","0.0-6.0-2.12","2761877","co37990","norming","","","{""curiosity"":5,""confidence"":4}","[0,1]","../img/tt/580tt.jpg","",""
"2950.3999999997322","","","recognition","survey-text","93","473604","0.0-6.0-3.12","2761877","co37990","norming","","","{""guess"":""vogel""}","","../img/tt/580tt.jpg","",""
"null","../img/gs/580gs.jpg","null","reveal","image-keyboard-response","94","475606","0.0-6.0-4.12","2761877","co37990","norming","","","","","","",""
"null","../img/tt/580tt.jpg","null","mooney2","image-keyboard-response","95","477611","0.0-6.0-5.12","2761877","co37990","norming","","","","","","",""
"2598.8400000005495","","","post_reveal_questions","survey-likert","96","480212","0.0-6.0-6.12","2761877","co37990","norming","","","{""aha"":5}","[0]","../img/tt/580tt.jpg","",""
"null","<div style=""font-size:60px;""> </div>","null","fixation","html-keyboard-response","97","480414","0.0-6.0-0.13","2761877","co37990","norming","","","","","","",""
"null","../img/tt/063tt.jpg","null","mooney1","image-keyboard-response","98","483425","0.0-6.0-1.13","2761877","co37990","norming","","","","","","",""
"4408.054999999877","","","post_mooney1_questions","survey-likert","99","487836","0.0-6.0-2.13","2761877","co37990","norming","","","{""curiosity"":2,""confidence"":6}","[0,1]","../img/tt/063tt.jpg","",""
"3454.0999999990454","","","recognition","survey-text","100","491292","0.0-6.0-3.13","2761877","co37990","norming","","","{""guess"":""accordeon""}","","../img/tt/063tt.jpg","",""
"null","../img/gs/063gs.jpg","null","reveal","image-keyboard-response","101","493295","0.0-6.0-4.13","2761877","co37990","norming","","","","","","",""
"null","../img/tt/063tt.jpg","null","mooney2","image-keyboard-response","102","495305","0.0-6.0-5.13","2761877","co37990","norming","","","","","","",""
"3824.474999999453","","","post_reveal_questions","survey-likert","103","499132","0.0-6.0-6.13","2761877","co37990","norming","","","{""aha"":1}","[0]","../img/tt/063tt.jpg","",""
"null","<div style=""font-size:60px;""> </div>","null","fixation","html-keyboard-response","104","499333","0.0-6.0-0.14","2761877","co37990","norming","","","","","","",""
"null","../img/tt/1154tt.jpg","null","mooney1","image-keyboard-response","105","502338","0.0-6.0-1.14","2761877","co37990","norming","","","","","","",""
"3415.4149999995134","","","post_mooney1_questions","survey-likert","106","505756","0.0-6.0-2.14","2761877","co37990","norming","","","{""curiosity"":5,""confidence"":4}","[0,1]","../img/tt/1154tt.jpg","",""
"2270.0199999999604","","","recognition","survey-text","107","508028","0.0-6.0-3.14","2761877","co37990","norming","","","{""guess"":""paard""}","","../img/tt/1154tt.jpg","",""
"null","../img/gs/1154gs.jpg","null","reveal","image-keyboard-response","108","510033","0.0-6.0-4.14","2761877","co37990","norming","","","","","","",""
"null","../img/tt/1154tt.jpg","null","mooney2","image-keyboard-response","109","512035","0.0-6.0-5.14","2761877","co37990","norming","","","","","","",""
"2510.4800000007963","","","post_reveal_questions","survey-likert","110","514544","0.0-6.0-6.14","2761877","co37990","norming","","","{""aha"":4}","[0]","../img/tt/1154tt.jpg","",""
"null","<div style=""font-size:60px;""> </div>","null","fixation","html-keyboard-response","111","514745","0.0-6.0-0.15","2761877","co37990","norming","","","","","","",""
"null","../img/tt/1196tt.jpg","null","mooney1","image-keyboard-response","112","517748","0.0-6.0-1.15","2761877","co37990","norming","","","","","","",""
"4337.550000000163","","","post_mooney1_questions","survey-likert","113","522089","0.0-6.0-2.15","2761877","co37990","norming","","","{""curiosity"":4,""confidence"":5}","[0,1]","../img/tt/1196tt.jpg","",""
"3741.9199999985285","","","recognition","survey-text","114","525832","0.0-6.0-3.15","2761877","co37990","norming","","","{""guess"":""piramide""}","","../img/tt/1196tt.jpg","",""
"null","../img/gs/1196gs.jpg","null","reveal","image-keyboard-response","115","527843","0.0-6.0-4.15","2761877","co37990","norming","","","","","","",""
"null","../img/tt/1196tt.jpg","null","mooney2","image-keyboard-response","116","529850","0.0-6.0-5.15","2761877","co37990","norming","","","","","","",""
"5316.269999999437","","","post_reveal_questions","survey-likert","117","535168","0.0-6.0-6.15","2761877","co37990","norming","","","{""aha"":2}","[0]","../img/tt/1196tt.jpg","",""
"null","<div style=""font-size:60px;""> </div>","null","fixation","html-keyboard-response","118","535370","0.0-6.0-0.16","2761877","co37990","norming","","","","","","",""
"null","../img/tt/1290tt.jpg","null","mooney1","image-keyboard-response","119","538374","0.0-6.0-1.16","2761877","co37990","norming","","","","","","",""
"6359.6500000003725","","","post_mooney1_questions","survey-likert","120","544736","0.0-6.0-2.16","2761877","co37990","norming","","","{""curiosity"":5,""confidence"":4}","[0,1]","../img/tt/1290tt.jpg","",""
"2941.8700000005774","","","recognition","survey-text","121","547680","0.0-6.0-3.16","2761877","co37990","norming","","","{""guess"":""vogel""}","","../img/tt/1290tt.jpg","",""
"null","../img/gs/1290gs.jpg","null","reveal","image-keyboard-response","122","549684","0.0-6.0-4.16","2761877","co37990","norming","","","","","","",""
"null","../img/tt/1290tt.jpg","null","mooney2","image-keyboard-response","123","551694","0.0-6.0-5.16","2761877","co37990","norming","","","","","","",""
"3896.3099999981932","","","post_reveal_questions","survey-likert","124","555592","0.0-6.0-6.16","2761877","co37990","norming","","","{""aha"":1}","[0]","../img/tt/1290tt.jpg","",""
"null","<div style=""font-size:60px;""> </div>","null","fixation","html-keyboard-response","125","555795","0.0-6.0-0.17","2761877","co37990","norming","","","","","","",""
"null","../img/tt/1191tt.jpg","null","mooney1","image-keyboard-response","126","558798","0.0-6.0-1.17","2761877","co37990","norming","","","","","","",""
"6143.505000000005","","","post_mooney1_questions","survey-likert","127","564944","0.0-6.0-2.17","2761877","co37990","norming","","","{""curiosity"":5,""confidence"":2}","[0,1]","../img/tt/1191tt.jpg","",""
"3190.5599999991246","","","recognition","survey-text","128","568137","0.0-6.0-3.17","2761877","co37990","norming","","","{""guess"":""sport""}","","../img/tt/1191tt.jpg","",""
"null","../img/gs/1191gs.jpg","null","reveal","image-keyboard-response","129","570142","0.0-6.0-4.17","2761877","co37990","norming","","","","","","",""
"null","../img/tt/1191tt.jpg","null","mooney2","image-keyboard-response","130","572146","0.0-6.0-5.17","2761877","co37990","norming","","","","","","",""
"2748.445000001113","","","post_reveal_questions","survey-likert","131","574901","0.0-6.0-6.17","2761877","co37990","norming","","","{""aha"":4}","[0]","../img/tt/1191tt.jpg","",""
"null","<div style=""font-size:60px;""> </div>","null","fixation","html-keyboard-response","132","575102","0.0-6.0-0.18","2761877","co37990","norming","","","","","","",""
"null","../img/tt/064tt.jpg","null","mooney1","image-keyboard-response","133","578111","0.0-6.0-1.18","2761877","co37990","norming","","","","","","",""
"4123.235000000917","","","post_mooney1_questions","survey-likert","134","582237","0.0-6.0-2.18","2761877","co37990","norming","","","{""curiosity"":5,""confidence"":4}","[0,1]","../img/tt/064tt.jpg","",""
"2318.0899999989197","","","recognition","survey-text","135","584556","0.0-6.0-3.18","2761877","co37990","norming","","","{""guess"":""bever""}","","../img/tt/064tt.jpg","",""
"null","../img/gs/064gs.jpg","null","reveal","image-keyboard-response","136","586564","0.0-6.0-4.18","2761877","co37990","norming","","","","","","",""
"null","../img/tt/064tt.jpg","null","mooney2","image-keyboard-response","137","588570","0.0-6.0-5.18","2761877","co37990","norming","","","","","","",""
"1937.4499999994878","","","post_reveal_questions","survey-likert","138","590509","0.0-6.0-6.18","2761877","co37990","norming","","","{""aha"":4}","[0]","../img/tt/064tt.jpg","",""
"null","<div style=""font-size:60px;""> </div>","null","fixation","html-keyboard-response","139","590710","0.0-6.0-0.19","2761877","co37990","norming","","","","","","",""
"null","../img/tt/1049tt.jpg","null","mooney1","image-keyboard-response","140","593719","0.0-6.0-1.19","2761877","co37990","norming","","","","","","",""
"4810.8700000011595","","","post_mooney1_questions","survey-likert","141","598533","0.0-6.0-2.19","2761877","co37990","norming","","","{""curiosity"":5,""confidence"":3}","[0,1]","../img/tt/1049tt.jpg","",""
"2445.4949999999953","","","recognition","survey-text","142","600980","0.0-6.0-3.19","2761877","co37990","norming","","","{""guess"":""hond""}","","../img/tt/1049tt.jpg","",""
"null","../img/gs/1049gs.jpg","null","reveal","image-keyboard-response","143","602988","0.0-6.0-4.19","2761877","co37990","norming","","","","","","",""
"null","../img/tt/1049tt.jpg","null","mooney2","image-keyboard-response","144","604992","0.0-6.0-5.19","2761877","co37990","norming","","","","","","",""
"3282.9899999996414","","","post_reveal_questions","survey-likert","145","608277","0.0-6.0-6.19","2761877","co37990","norming","","","{""aha"":6}","[0]","../img/tt/1049tt.jpg","",""
"null","<div style=""font-size:60px;""> </div>","null","fixation","html-keyboard-response","146","608478","0.0-6.0-0.20","2761877","co37990","norming","","","","","","",""
"null","../img/tt/1089tt.jpg","null","mooney1","image-keyboard-response","147","611481","0.0-6.0-1.20","2761877","co37990","norming","","","","","","",""
"3753.6399999989662","","","post_mooney1_questions","survey-likert","148","615237","0.0-6.0-2.20","2761877","co37990","norming","","","{""curiosity"":1,""confidence"":6}","[0,1]","../img/tt/1089tt.jpg","",""
"3614.1050000005635","","","recognition","survey-text","149","618852","0.0-6.0-3.20","2761877","co37990","norming","","","{""guess"":""olifant""}","","../img/tt/1089tt.jpg","",""
"null","../img/gs/1089gs.jpg","null","reveal","image-keyboard-response","150","620856","0.0-6.0-4.20","2761877","co37990","norming","","","","","","",""
"null","../img/tt/1089tt.jpg","null","mooney2","image-keyboard-response","151","622858","0.0-6.0-5.20","2761877","co37990","norming","","","","","","",""
"1936.7650000003632","","","post_reveal_questions","survey-likert","152","624797","0.0-6.0-6.20","2761877","co37990","norming","","","{""aha"":5}","[0]","../img/tt/1089tt.jpg","",""
"null","<div style=""font-size:60px;""> </div>","null","fixation","html-keyboard-response","153","624998","0.0-6.0-0.21","2761877","co37990","norming","","","","","","",""
"null","../img/tt/1070tt.jpg","null","mooney1","image-keyboard-response","154","628005","0.0-6.0-1.21","2761877","co37990","norming","","","","","","",""
"3821.2000000003027","","","post_mooney1_questions","survey-likert","155","631829","0.0-6.0-2.21","2761877","co37990","norming","","","{""curiosity"":5,""confidence"":4}","[0,1]","../img/tt/1070tt.jpg","",""
"4726.024999999907","","","recognition","survey-text","156","636561","0.0-6.0-3.21","2761877","co37990","norming","","","{""guess"":""taart""}","","../img/tt/1070tt.jpg","",""
"null","../img/gs/1070gs.jpg","null","reveal","image-keyboard-response","157","638564","0.0-6.0-4.21","2761877","co37990","norming","","","","","","",""
"null","../img/tt/1070tt.jpg","null","mooney2","image-keyboard-response","158","640568","0.0-6.0-5.21","2761877","co37990","norming","","","","","","",""
"2168.6000000007916","","","post_reveal_questions","survey-likert","159","642738","0.0-6.0-6.21","2761877","co37990","norming","","","{""aha"":5}","[0]","../img/tt/1070tt.jpg","",""
"null","<div style=""font-size:60px;""> </div>","null","fixation","html-keyboard-response","160","642939","0.0-6.0-0.22","2761877","co37990","norming","","","","","","",""
"null","../img/tt/1255tt.jpg","null","mooney1","image-keyboard-response","161","645948","0.0-6.0-1.22","2761877","co37990","norming","","","","","","",""
"4458.704999999027","","","post_mooney1_questions","survey-likert","162","650410","0.0-6.0-2.22","2761877","co37990","norming","","","{""curiosity"":5,""confidence"":1}","[0,1]","../img/tt/1255tt.jpg","",""
"3406.105000000098","","","recognition","survey-text","163","653817","0.0-6.0-3.22","2761877","co37990","norming","","","{""guess"":""vogel""}","","../img/tt/1255tt.jpg","",""
"null","../img/gs/1255gs.jpg","null","reveal","image-keyboard-response","164","655821","0.0-6.0-4.22","2761877","co37990","norming","","","","","","",""
"null","../img/tt/1255tt.jpg","null","mooney2","image-keyboard-response","165","657831","0.0-6.0-5.22","2761877","co37990","norming","","","","","","",""
"2584.5749999989057","","","post_reveal_questions","survey-likert","166","660417","0.0-6.0-6.22","2761877","co37990","norming","","","{""aha"":4}","[0]","../img/tt/1255tt.jpg","",""
"null","<div style=""font-size:60px;""> </div>","null","fixation","html-keyboard-response","167","660620","0.0-6.0-0.23","2761877","co37990","norming","","","","","","",""
"null","../img/tt/279tt.jpg","null","mooney1","image-keyboard-response","168","663621","0.0-6.0-1.23","2761877","co37990","norming","","","","","","",""
"4234.155000000144","","","post_mooney1_questions","survey-likert","169","667858","0.0-6.0-2.23","2761877","co37990","norming","","","{""curiosity"":1,""confidence"":6}","[0,1]","../img/tt/279tt.jpg","",""
"2334.129999999306","","","recognition","survey-text","170","670193","0.0-6.0-3.23","2761877","co37990","norming","","","{""guess"":""koala""}","","../img/tt/279tt.jpg","",""
"null","../img/gs/279gs.jpg","null","reveal","image-keyboard-response","171","672204","0.0-6.0-4.23","2761877","co37990","norming","","","","","","",""
"null","../img/tt/279tt.jpg","null","mooney2","image-keyboard-response","172","674208","0.0-6.0-5.23","2761877","co37990","norming","","","","","","",""
"3143.3199999992503","","","post_reveal_questions","survey-likert","173","677354","0.0-6.0-6.23","2761877","co37990","norming","","","{""aha"":5}","[0]","../img/tt/279tt.jpg","",""
"null","<div style=""font-size:60px;""> </div>","null","fixation","html-keyboard-response","174","677555","0.0-6.0-0.24","2761877","co37990","norming","","","","","","",""
"null","../img/tt/477tt.jpg","null","mooney1","image-keyboard-response","175","680561","0.0-6.0-1.24","2761877","co37990","norming","","","","","","",""
"4543.489999999991","","","post_mooney1_questions","survey-likert","176","685106","0.0-6.0-2.24","2761877","co37990","norming","","","{""curiosity"":5,""confidence"":2}","[0,1]","../img/tt/477tt.jpg","",""
"2038.2499999996508","","","recognition","survey-text","177","687146","0.0-6.0-3.24","2761877","co37990","norming","","","{""guess"":""hond""}","","../img/tt/477tt.jpg","",""
"null","../img/gs/477gs.jpg","null","reveal","image-keyboard-response","178","689153","0.0-6.0-4.24","2761877","co37990","norming","","","","","","",""
"null","../img/tt/477tt.jpg","null","mooney2","image-keyboard-response","179","691155","0.0-6.0-5.24","2761877","co37990","norming","","","","","","",""
"2357.7349999995204","","","post_reveal_questions","survey-likert","180","693514","0.0-6.0-6.24","2761877","co37990","norming","","","{""aha"":4}","[0]","../img/tt/477tt.jpg","",""
"null","<div style=""font-size:60px;""> </div>","null","fixation","html-keyboard-response","181","693715","0.0-6.0-0.25","2761877","co37990","norming","","","","","","",""
"null","../img/tt/1142tt.jpg","null","mooney1","image-keyboard-response","182","696726","0.0-6.0-1.25","2761877","co37990","norming","","","","","","",""
"3361.16500000027","","","post_mooney1_questions","survey-likert","183","700090","0.0-6.0-2.25","2761877","co37990","norming","","","{""curiosity"":5,""confidence"":1}","[0,1]","../img/tt/1142tt.jpg","",""
"2206.234999999637","","","recognition","survey-text","184","702298","0.0-6.0-3.25","2761877","co37990","norming","","","{""guess"":""sport""}","","../img/tt/1142tt.jpg","",""
"null","../img/gs/1142gs.jpg","null","reveal","image-keyboard-response","185","704306","0.0-6.0-4.25","2761877","co37990","norming","","","","","","",""
"null","../img/tt/1142tt.jpg","null","mooney2","image-keyboard-response","186","706316","0.0-6.0-5.25","2761877","co37990","norming","","","","","","",""
"3947.3199999993667","","","post_reveal_questions","survey-likert","187","710266","0.0-6.0-6.25","2761877","co37990","norming","","","{""aha"":4}","[0]","../img/tt/1142tt.jpg","",""
"null","<div style=""font-size:60px;""> </div>","null","fixation","html-keyboard-response","188","710471","0.0-6.0-0.26","2761877","co37990","norming","","","","","","",""
"null","../img/tt/1226tt.jpg","null","mooney1","image-keyboard-response","189","713475","0.0-6.0-1.26","2761877","co37990","norming","","","","","","",""
"4748.600000000908","","","post_mooney1_questions","survey-likert","190","718226","0.0-6.0-2.26","2761877","co37990","norming","","","{""curiosity"":5,""confidence"":6}","[0,1]","../img/tt/1226tt.jpg","",""
"3446.0350000008475","","","recognition","survey-text","191","721674","0.0-6.0-3.26","2761877","co37990","norming","","","{""guess"":""vogel""}","","../img/tt/1226tt.jpg","",""
"null","../img/gs/1226gs.jpg","null","reveal","image-keyboard-response","192","723684","0.0-6.0-4.26","2761877","co37990","norming","","","","","","",""
"null","../img/tt/1226tt.jpg","null","mooney2","image-keyboard-response","193","725691","0.0-6.0-5.26","2761877","co37990","norming","","","","","","",""
"2052.1149999985937","","","post_reveal_questions","survey-likert","194","727746","0.0-6.0-6.26","2761877","co37990","norming","","","{""aha"":5}","[0]","../img/tt/1226tt.jpg","",""
"null","<div style=""font-size:60px;""> </div>","null","fixation","html-keyboard-response","195","727947","0.0-6.0-0.27","2761877","co37990","norming","","","","","","",""
"null","../img/tt/1096tt.jpg","null","mooney1","image-keyboard-response","196","730956","0.0-6.0-1.27","2761877","co37990","norming","","","","","","",""
"3403.1700000013225","","","post_mooney1_questions","survey-likert","197","734362","0.0-6.0-2.27","2761877","co37990","norming","","","{""curiosity"":5,""confidence"":6}","[0,1]","../img/tt/1096tt.jpg","",""
"1910.3800000011688","","","recognition","survey-text","198","736274","0.0-6.0-3.27","2761877","co37990","norming","","","{""guess"":""paard""}","","../img/tt/1096tt.jpg","",""
"null","../img/gs/1096gs.jpg","null","reveal","image-keyboard-response","199","738279","0.0-6.0-4.27","2761877","co37990","norming","","","","","","",""
"null","../img/tt/1096tt.jpg","null","mooney2","image-keyboard-response","200","740282","0.0-6.0-5.27","2761877","co37990","norming","","","","","","",""
"3021.2099999990314","","","post_reveal_questions","survey-likert","201","743306","0.0-6.0-6.27","2761877","co37990","norming","","","{""aha"":5}","[0]","../img/tt/1096tt.jpg","",""
"null","<div style=""font-size:60px;""> </div>","null","fixation","html-keyboard-response","202","743507","0.0-6.0-0.28","2761877","co37990","norming","","","","","","",""
"null","../img/tt/007tt.jpg","null","mooney1","image-keyboard-response","203","746515","0.0-6.0-1.28","2761877","co37990","norming","","","","","","",""
"2788.585000002058","","","post_mooney1_questions","survey-likert","204","749306","0.0-6.0-2.28","2761877","co37990","norming","","","{""curiosity"":5,""confidence"":5}","[0,1]","../img/tt/007tt.jpg","",""
"2662.069999998552","","","recognition","survey-text","205","751970","0.0-6.0-3.28","2761877","co37990","norming","","","{""guess"":""reptiel""}","","../img/tt/007tt.jpg","",""
"null","../img/gs/007gs.jpg","null","reveal","image-keyboard-response","206","753977","0.0-6.0-4.28","2761877","co37990","norming","","","","","","",""
"null","../img/tt/007tt.jpg","null","mooney2","image-keyboard-response","207","755979","0.0-6.0-5.28","2761877","co37990","norming","","","","","","",""
"2900.760000000475","","","post_reveal_questions","survey-likert","208","758875","0.0-6.0-6.28","2761877","co37990","norming","","","{""aha"":5}","[0]","../img/tt/007tt.jpg","",""
"null","<div style=""font-size:60px;""> </div>","null","fixation","html-keyboard-response","209","759076","0.0-6.0-0.29","2761877","co37990","norming","","","","","","",""
"null","../img/tt/1069tt.jpg","null","mooney1","image-keyboard-response","210","762086","0.0-6.0-1.29","2761877","co37990","norming","","","","","","",""
"2993.7099999987986","","","post_mooney1_questions","survey-likert","211","765083","0.0-6.0-2.29","2761877","co37990","norming","","","{""curiosity"":5,""confidence"":6}","[0,1]","../img/tt/1069tt.jpg","",""
"2422.019999998156","","","recognition","survey-text","212","767506","0.0-6.0-3.29","2761877","co37990","norming","","","{""guess"":""geit""}","","../img/tt/1069tt.jpg","",""
"null","../img/gs/1069gs.jpg","null","reveal","image-keyboard-response","213","769514","0.0-6.0-4.29","2761877","co37990","norming","","","","","","",""
"null","../img/tt/1069tt.jpg","null","mooney2","image-keyboard-response","214","771517","0.0-6.0-5.29","2761877","co37990","norming","","","","","","",""
"3707.15999999817","","","post_reveal_questions","survey-likert","215","775227","0.0-6.0-6.29","2761877","co37990","norming","","","{""aha"":5}","[0]","../img/tt/1069tt.jpg","",""
"null","<div style=""font-size:60px;""> </div>","null","fixation","html-keyboard-response","216","775428","0.0-6.0-0.30","2761877","co37990","norming","","","","","","",""
"null","../img/tt/118tt.jpg","null","mooney1","image-keyboard-response","217","778431","0.0-6.0-1.30","2761877","co37990","norming","","","","","","",""
"4057.194999997504","","","post_mooney1_questions","survey-likert","218","782491","0.0-6.0-2.30","2761877","co37990","norming","","","{""curiosity"":5,""confidence"":3}","[0,1]","../img/tt/118tt.jpg","",""
"2358.234999999637","","","recognition","survey-text","219","784851","0.0-6.0-3.30","2761877","co37990","norming","","","{""guess"":""trap""}","","../img/tt/118tt.jpg","",""
"null","../img/gs/118gs.jpg","null","reveal","image-keyboard-response","220","786853","0.0-6.0-4.30","2761877","co37990","norming","","","","","","",""
"null","../img/tt/118tt.jpg","null","mooney2","image-keyboard-response","221","788863","0.0-6.0-5.30","2761877","co37990","norming","","","","","","",""
"4777.734999999637","","","post_reveal_questions","survey-likert","222","793643","0.0-6.0-6.30","2761877","co37990","norming","","","{""aha"":4}","[0]","../img/tt/118tt.jpg","",""
"null","<div style=""font-size:60px;""> </div>","null","fixation","html-keyboard-response","223","793846","0.0-6.0-0.31","2761877","co37990","norming","","","","","","",""
"null","../img/tt/053tt.jpg","null","mooney1","image-keyboard-response","224","796850","0.0-6.0-1.31","2761877","co37990","norming","","","","","","",""
"4142.454999997397","","","post_mooney1_questions","survey-likert","225","800995","0.0-6.0-2.31","2761877","co37990","norming","","","{""curiosity"":4,""confidence"":6}","[0,1]","../img/tt/053tt.jpg","",""
"2422.145000000368","","","recognition","survey-text","226","803419","0.0-6.0-3.31","2761877","co37990","norming","","","{""guess"":""kano""}","","../img/tt/053tt.jpg","",""
"null","../img/gs/053gs.jpg","null","reveal","image-keyboard-response","227","805422","0.0-6.0-4.31","2761877","co37990","norming","","","","","","",""
"null","../img/tt/053tt.jpg","null","mooney2","image-keyboard-response","228","807425","0.0-6.0-5.31","2761877","co37990","norming","","","","","","",""
"4526.734999999404","","","post_reveal_questions","survey-likert","229","811954","0.0-6.0-6.31","2761877","co37990","norming","","","{""aha"":5}","[0]","../img/tt/053tt.jpg","",""
"null","<div style=""font-size:60px;""> </div>","null","fixation","html-keyboard-response","230","812156","0.0-6.0-0.32","2761877","co37990","norming","","","","","","",""
"null","../img/tt/1101tt.jpg","null","mooney1","image-keyboard-response","231","815165","0.0-6.0-1.32","2761877","co37990","norming","","","","","","",""
"3522.9999999973224","","","post_mooney1_questions","survey-likert","232","818696","0.0-6.0-2.32","2761877","co37990","norming","","","{""curiosity"":5,""confidence"":4}","[0,1]","../img/tt/1101tt.jpg","",""
"2886.094999997993","","","recognition","survey-text","233","821583","0.0-6.0-3.32","2761877","co37990","norming","","","{""guess"":""voetbal""}","","../img/tt/1101tt.jpg","",""
"null","../img/gs/1101gs.jpg","null","reveal","image-keyboard-response","234","823585","0.0-6.0-4.32","2761877","co37990","norming","","","","","","",""
"null","../img/tt/1101tt.jpg","null","mooney2","image-keyboard-response","235","825590","0.0-6.0-5.32","2761877","co37990","norming","","","","","","",""
"1591.1249999989523","","","post_reveal_questions","survey-likert","236","827183","0.0-6.0-6.32","2761877","co37990","norming","","","{""aha"":5}","[0]","../img/tt/1101tt.jpg","",""
"null","<div style=""font-size:60px;""> </div>","null","fixation","html-keyboard-response","237","827384","0.0-6.0-0.33","2761877","co37990","norming","","","","","","",""
"null","../img/tt/1148tt.jpg","null","mooney1","image-keyboard-response","238","830397","0.0-6.0-1.33","2761877","co37990","norming","","","","","","",""
"6792.330000000191","","","post_mooney1_questions","survey-likert","239","837192","0.0-6.0-2.33","2761877","co37990","norming","","","{""curiosity"":5,""confidence"":2}","[0,1]","../img/tt/1148tt.jpg","",""
"4590.119999997085","","","recognition","survey-text","240","841783","0.0-6.0-3.33","2761877","co37990","norming","","","{""guess"":""water""}","","../img/tt/1148tt.jpg","",""
"null","../img/gs/1148gs.jpg","null","reveal","image-keyboard-response","241","843790","0.0-6.0-4.33","2761877","co37990","norming","","","","","","",""
"null","../img/tt/1148tt.jpg","null","mooney2","image-keyboard-response","242","845798","0.0-6.0-5.33","2761877","co37990","norming","","","","","","",""
"3366.6049999991665","","","post_reveal_questions","survey-likert","243","849167","0.0-6.0-6.33","2761877","co37990","norming","","","{""aha"":5}","[0]","../img/tt/1148tt.jpg","",""
"null","<div style=""font-size:60px;""> </div>","null","fixation","html-keyboard-response","244","849368","0.0-6.0-0.34","2761877","co37990","norming","","","","","","",""
"null","../img/tt/1046tt.jpg","null","mooney1","image-keyboard-response","245","852379","0.0-6.0-1.34","2761877","co37990","norming","","","","","","",""
"3097.655000001425","","","post_mooney1_questions","survey-likert","246","855480","0.0-6.0-2.34","2761877","co37990","norming","","","{""curiosity"":5,""confidence"":3}","[0,1]","../img/tt/1046tt.jpg","",""
"2406.08000000054","","","recognition","survey-text","247","857887","0.0-6.0-3.34","2761877","co37990","norming","","","{""guess"":""hond""}","","../img/tt/1046tt.jpg","",""
"null","../img/gs/1046gs.jpg","null","reveal","image-keyboard-response","248","859894","0.0-6.0-4.34","2761877","co37990","norming","","","","","","",""
"null","../img/tt/1046tt.jpg","null","mooney2","image-keyboard-response","249","861896","0.0-6.0-5.34","2761877","co37990","norming","","","","","","",""
"1901.4799999968382","","","post_reveal_questions","survey-likert","250","863800","0.0-6.0-6.34","2761877","co37990","norming","","","{""aha"":5}","[0]","../img/tt/1046tt.jpg","",""
"null","<div style=""font-size:60px;""> </div>","null","fixation","html-keyboard-response","251","864001","0.0-6.0-0.35","2761877","co37990","norming","","","","","","",""
"null","../img/tt/1261tt.jpg","null","mooney1","image-keyboard-response","252","867005","0.0-6.0-1.35","2761877","co37990","norming","","","","","","",""
"4416.040000000154","","","post_mooney1_questions","survey-likert","253","871424","0.0-6.0-2.35","2761877","co37990","norming","","","{""curiosity"":5,""confidence"":4}","[0,1]","../img/tt/1261tt.jpg","",""
"2893.954999999609","","","recognition","survey-text","254","874319","0.0-6.0-3.35","2761877","co37990","norming","","","{""guess"":""konijn""}","","../img/tt/1261tt.jpg","",""
"null","../img/gs/1261gs.jpg","null","reveal","image-keyboard-response","255","876322","0.0-6.0-4.35","2761877","co37990","norming","","","","","","",""
"null","../img/tt/1261tt.jpg","null","mooney2","image-keyboard-response","256","878335","0.0-6.0-5.35","2761877","co37990","norming","","","","","","",""
"2226.2149999988033","","","post_reveal_questions","survey-likert","257","880564","0.0-6.0-6.35","2761877","co37990","norming","","","{""aha"":5}","[0]","../img/tt/1261tt.jpg","",""
"null","<div style=""font-size:60px;""> </div>","null","fixation","html-keyboard-response","258","880765","0.0-6.0-0.36","2761877","co37990","norming","","","","","","",""
"null","../img/tt/549tt.jpg","null","mooney1","image-keyboard-response","259","883771","0.0-6.0-1.36","2761877","co37990","norming","","","","","","",""
"12829.549999998533","","","post_mooney1_questions","survey-likert","260","896604","0.0-6.0-2.36","2761877","co37990","norming","","","{""curiosity"":4,""confidence"":0}","[0,1]","../img/tt/549tt.jpg","",""
"566.2300000003306","","","recognition","survey-text","261","897172","0.0-6.0-3.36","2761877","co37990","norming","","","{""guess"":""""}","","../img/tt/549tt.jpg","",""
"null","../img/gs/549gs.jpg","null","reveal","image-keyboard-response","262","899179","0.0-6.0-4.36","2761877","co37990","norming","","","","","","",""
"null","../img/tt/549tt.jpg","null","mooney2","image-keyboard-response","263","901181","0.0-6.0-5.36","2761877","co37990","norming","","","","","","",""
"2004.580000000773","","","post_reveal_questions","survey-likert","264","903188","0.0-6.0-6.36","2761877","co37990","norming","","","{""aha"":5}","[0]","../img/tt/549tt.jpg","",""
"null","<div style=""font-size:60px;""> </div>","null","fixation","html-keyboard-response","265","903390","0.0-6.0-0.37","2761877","co37990","norming","","","","","","",""
"null","../img/tt/416tt.jpg","null","mooney1","image-keyboard-response","266","906399","0.0-6.0-1.37","2761877","co37990","norming","","","","","","",""
"5426.465000000433","","","post_mooney1_questions","survey-likert","267","911828","0.0-6.0-2.37","2761877","co37990","norming","","","{""curiosity"":5,""confidence"":6}","[0,1]","../img/tt/416tt.jpg","",""
"4093.765000001411","","","recognition","survey-text","268","915924","0.0-6.0-3.37","2761877","co37990","norming","","","{""guess"":""struisvogel""}","","../img/tt/416tt.jpg","",""
"null","../img/gs/416gs.jpg","null","reveal","image-keyboard-response","269","917930","0.0-6.0-4.37","2761877","co37990","norming","","","","","","",""
"null","../img/tt/416tt.jpg","null","mooney2","image-keyboard-response","270","919934","0.0-6.0-5.37","2761877","co37990","norming","","","","","","",""
"5228.545000001672","","","post_reveal_questions","survey-likert","271","925163","0.0-6.0-6.37","2761877","co37990","norming","","","{""aha"":4}","[0]","../img/tt/416tt.jpg","",""
"null","<div style=""font-size:60px;""> </div>","null","fixation","html-keyboard-response","272","925365","0.0-6.0-0.38","2761877","co37990","norming","","","","","","",""
"null","../img/tt/1199tt.jpg","null","mooney1","image-keyboard-response","273","928373","0.0-6.0-1.38","2761877","co37990","norming","","","","","","",""
"4645.240000001737","","","post_mooney1_questions","survey-likert","274","933020","0.0-6.0-2.38","2761877","co37990","norming","","","{""curiosity"":5,""confidence"":5}","[0,1]","../img/tt/1199tt.jpg","",""
"3806.1749999978347","","","recognition","survey-text","275","936827","0.0-6.0-3.38","2761877","co37990","norming","","","{""guess"":""turnen""}","","../img/tt/1199tt.jpg","",""
"null","../img/gs/1199gs.jpg","null","reveal","image-keyboard-response","276","938833","0.0-6.0-4.38","2761877","co37990","norming","","","","","","",""
"null","../img/tt/1199tt.jpg","null","mooney2","image-keyboard-response","277","940837","0.0-6.0-5.38","2761877","co37990","norming","","","","","","",""
"3358.6949999990175","","","post_reveal_questions","survey-likert","278","944197","0.0-6.0-6.38","2761877","co37990","norming","","","{""aha"":3}","[0]","../img/tt/1199tt.jpg","",""
"null","<div style=""font-size:60px;""> </div>","null","fixation","html-keyboard-response","279","944398","0.0-6.0-0.39","2761877","co37990","norming","","","","","","",""
"null","../img/tt/405tt.jpg","null","mooney1","image-keyboard-response","280","947400","0.0-6.0-1.39","2761877","co37990","norming","","","","","","",""
"4083.9799999995157","","","post_mooney1_questions","survey-likert","281","951485","0.0-6.0-2.39","2761877","co37990","norming","","","{""curiosity"":3,""confidence"":6}","[0,1]","../img/tt/405tt.jpg","",""
"2141.8499999999767","","","recognition","survey-text","282","953629","0.0-6.0-3.39","2761877","co37990","norming","","","{""guess"":""koala""}","","../img/tt/405tt.jpg","",""
"null","../img/gs/405gs.jpg","null","reveal","image-keyboard-response","283","955630","0.0-6.0-4.39","2761877","co37990","norming","","","","","","",""
"null","../img/tt/405tt.jpg","null","mooney2","image-keyboard-response","284","957632","0.0-6.0-5.39","2761877","co37990","norming","","","","","","",""
"2811.265000000363","","","post_reveal_questions","survey-likert","285","960445","0.0-6.0-6.39","2761877","co37990","norming","","","{""aha"":3}","[0]","../img/tt/405tt.jpg","",""
"null","<div style=""font-size:60px;""> </div>","null","fixation","html-keyboard-response","286","960652","0.0-6.0-0.40","2761877","co37990","norming","","","","","","",""
"null","../img/tt/1362tt.jpg","null","mooney1","image-keyboard-response","287","963657","0.0-6.0-1.40","2761877","co37990","norming","","","","","","",""
"5617.784999998519","","","post_mooney1_questions","survey-likert","288","969277","0.0-6.0-2.40","2761877","co37990","norming","","","{""curiosity"":5,""confidence"":2}","[0,1]","../img/tt/1362tt.jpg","",""
"3726.135000000824","","","recognition","survey-text","289","973005","0.0-6.0-3.40","2761877","co37990","norming","","","{""guess"":""camera""}","","../img/tt/1362tt.jpg","",""
"null","../img/gs/1362gs.jpg","null","reveal","image-keyboard-response","290","975010","0.0-6.0-4.40","2761877","co37990","norming","","","","","","",""
"null","../img/tt/1362tt.jpg","null","mooney2","image-keyboard-response","291","977014","0.0-6.0-5.40","2761877","co37990","norming","","","","","","",""
"3564.7549999994226","","","post_reveal_questions","survey-likert","292","980581","0.0-6.0-6.40","2761877","co37990","norming","","","{""aha"":5}","[0]","../img/tt/1362tt.jpg","",""
"null","<div style=""font-size:60px;""> </div>","null","fixation","html-keyboard-response","293","980782","0.0-6.0-0.41","2761877","co37990","norming","","","","","","",""
"null","../img/tt/1078tt.jpg","null","mooney1","image-keyboard-response","294","983791","0.0-6.0-1.41","2761877","co37990","norming","","","","","","",""
"3235.4149999992223","","","post_mooney1_questions","survey-likert","295","987029","0.0-6.0-2.41","2761877","co37990","norming","","","{""curiosity"":2,""confidence"":6}","[0,1]","../img/tt/1078tt.jpg","",""
"3878.174999997951","","","recognition","survey-text","296","990909","0.0-6.0-3.41","2761877","co37990","norming","","","{""guess"":""skaten""}","","../img/tt/1078tt.jpg","",""
"null","../img/gs/1078gs.jpg","null","reveal","image-keyboard-response","297","992913","0.0-6.0-4.41","2761877","co37990","norming","","","","","","",""
"null","../img/tt/1078tt.jpg","null","mooney2","image-keyboard-response","298","994923","0.0-6.0-5.41","2761877","co37990","norming","","","","","","",""
"2839.404999998864","","","post_reveal_questions","survey-likert","299","997765","0.0-6.0-6.41","2761877","co37990","norming","","","{""aha"":2}","[0]","../img/tt/1078tt.jpg","",""
"null","<div style=""font-size:60px;""> </div>","null","fixation","html-keyboard-response","300","997966","0.0-6.0-0.42","2761877","co37990","norming","","","","","","",""
"null","../img/tt/080tt.jpg","null","mooney1","image-keyboard-response","301","1000976","0.0-6.0-1.42","2761877","co37990","norming","","","","","","",""
"5618.445000000065","","","post_mooney1_questions","survey-likert","302","1006598","0.0-6.0-2.42","2761877","co37990","norming","","","{""curiosity"":5,""confidence"":1}","[0,1]","../img/tt/080tt.jpg","",""
"2302.32000000251","","","recognition","survey-text","303","1008902","0.0-6.0-3.42","2761877","co37990","norming","","","{""guess"":""bos""}","","../img/tt/080tt.jpg","",""
"null","../img/gs/080gs.jpg","null","reveal","image-keyboard-response","304","1010904","0.0-6.0-4.42","2761877","co37990","norming","","","","","","",""
"null","../img/tt/080tt.jpg","null","mooney2","image-keyboard-response","305","1012914","0.0-6.0-5.42","2761877","co37990","norming","","","","","","",""
"3551.1899999983143","","","post_reveal_questions","survey-likert","306","1016470","0.0-6.0-6.42","2761877","co37990","norming","","","{""aha"":6}","[0]","../img/tt/080tt.jpg","",""
"null","<div style=""font-size:60px;""> </div>","null","fixation","html-keyboard-response","307","1016672","0.0-6.0-0.43","2761877","co37990","norming","","","","","","",""
"null","../img/tt/010tt.jpg","null","mooney1","image-keyboard-response","308","1019677","0.0-6.0-1.43","2761877","co37990","norming","","","","","","",""
"5486.319999999949","","","post_mooney1_questions","survey-likert","309","1025166","0.0-6.0-2.43","2761877","co37990","norming","","","{""curiosity"":5,""confidence"":2}","[0,1]","../img/tt/010tt.jpg","",""
"2293.904999998631","","","recognition","survey-text","310","1027462","0.0-6.0-3.43","2761877","co37990","norming","","","{""guess"":""kikker""}","","../img/tt/010tt.jpg","",""
"null","../img/gs/010gs.jpg","null","reveal","image-keyboard-response","311","1029472","0.0-6.0-4.43","2761877","co37990","norming","","","","","","",""
"null","../img/tt/010tt.jpg","null","mooney2","image-keyboard-response","312","1031474","0.0-6.0-5.43","2761877","co37990","norming","","","","","","",""
"1433.7000000013504","","","post_reveal_questions","survey-likert","313","1032910","0.0-6.0-6.43","2761877","co37990","norming","","","{""aha"":6}","[0]","../img/tt/010tt.jpg","",""
"null","<div style=""font-size:60px;""> </div>","null","fixation","html-keyboard-response","314","1033111","0.0-6.0-0.44","2761877","co37990","norming","","","","","","",""
"null","../img/tt/013tt.jpg","null","mooney1","image-keyboard-response","315","1036113","0.0-6.0-1.44","2761877","co37990","norming","","","","","","",""
"4667.509999999311","","","post_mooney1_questions","survey-likert","316","1040782","0.0-6.0-2.44","2761877","co37990","norming","","","{""curiosity"":5,""confidence"":1}","[0,1]","../img/tt/013tt.jpg","",""
"2173.9500000003027","","","recognition","survey-text","317","1042958","0.0-6.0-3.44","2761877","co37990","norming","","","{""guess"":""bever""}","","../img/tt/013tt.jpg","",""
"null","../img/gs/013gs.jpg","null","reveal","image-keyboard-response","318","1044968","0.0-6.0-4.44","2761877","co37990","norming","","","","","","",""
"null","../img/tt/013tt.jpg","null","mooney2","image-keyboard-response","319","1046970","0.0-6.0-5.44","2761877","co37990","norming","","","","","","",""
"2161.3700000015087","","","post_reveal_questions","survey-likert","320","1049134","0.0-6.0-6.44","2761877","co37990","norming","","","{""aha"":5}","[0]","../img/tt/013tt.jpg","",""
"null","<div style=""font-size:60px;""> </div>","null","fixation","html-keyboard-response","321","1049335","0.0-6.0-0.45","2761877","co37990","norming","","","","","","",""
"null","../img/tt/315tt.jpg","null","mooney1","image-keyboard-response","322","1052347","0.0-6.0-1.45","2761877","co37990","norming","","","","","","",""
"3463.9849999984726","","","post_mooney1_questions","survey-likert","323","1055814","0.0-6.0-2.45","2761877","co37990","norming","","","{""curiosity"":5,""confidence"":6}","[0,1]","../img/tt/315tt.jpg","",""
"2214.0099999995437","","","recognition","survey-text","324","1058030","0.0-6.0-3.45","2761877","co37990","norming","","","{""guess"":""kat""}","","../img/tt/315tt.jpg","",""
"null","../img/gs/315gs.jpg","null","reveal","image-keyboard-response","325","1060038","0.0-6.0-4.45","2761877","co37990","norming","","","","","","",""
"null","../img/tt/315tt.jpg","null","mooney2","image-keyboard-response","326","1062042","0.0-6.0-5.45","2761877","co37990","norming","","","","","","",""
"3794.7800000002608","","","post_reveal_questions","survey-likert","327","1065839","0.0-6.0-6.45","2761877","co37990","norming","","","{""aha"":1}","[0]","../img/tt/315tt.jpg","",""
"null","<div style=""font-size:60px;""> </div>","null","fixation","html-keyboard-response","328","1066041","0.0-6.0-0.46","2761877","co37990","norming","","","","","","",""
"null","../img/tt/318tt.jpg","null","mooney1","image-keyboard-response","329","1069044","0.0-6.0-1.46","2761877","co37990","norming","","","","","","",""
"2872.1100000001024","","","post_mooney1_questions","survey-likert","330","1071919","0.0-6.0-2.46","2761877","co37990","norming","","","{""curiosity"":1,""confidence"":6}","[0,1]","../img/tt/318tt.jpg","",""
"2478.029999998398","","","recognition","survey-text","331","1074399","0.0-6.0-3.46","2761877","co37990","norming","","","{""guess"":""auto""}","","../img/tt/318tt.jpg","",""
"null","../img/gs/318gs.jpg","null","reveal","image-keyboard-response","332","1076405","0.0-6.0-4.46","2761877","co37990","norming","","","","","","",""
"null","../img/tt/318tt.jpg","null","mooney2","image-keyboard-response","333","1078407","0.0-6.0-5.46","2761877","co37990","norming","","","","","","",""
"1981.7849999999162","","","post_reveal_questions","survey-likert","334","1080391","0.0-6.0-6.46","2761877","co37990","norming","","","{""aha"":1}","[0]","../img/tt/318tt.jpg","",""
"null","<div style=""font-size:60px;""> </div>","null","fixation","html-keyboard-response","335","1080592","0.0-6.0-0.47","2761877","co37990","norming","","","","","","",""
"null","../img/tt/524tt.jpg","null","mooney1","image-keyboard-response","336","1083600","0.0-6.0-1.47","2761877","co37990","norming","","","","","","",""
"4228.139999999199","","","post_mooney1_questions","survey-likert","337","1087831","0.0-6.0-2.47","2761877","co37990","norming","","","{""curiosity"":5,""confidence"":4}","[0,1]","../img/tt/524tt.jpg","",""
"2677.350000001723","","","recognition","survey-text","338","1090511","0.0-6.0-3.47","2761877","co37990","norming","","","{""guess"":""bizon""}","","../img/tt/524tt.jpg","",""
"null","../img/gs/524gs.jpg","null","reveal","image-keyboard-response","339","1092518","0.0-6.0-4.47","2761877","co37990","norming","","","","","","",""
"null","../img/tt/524tt.jpg","null","mooney2","image-keyboard-response","340","1094522","0.0-6.0-5.47","2761877","co37990","norming","","","","","","",""
"4170.884999999544","","","post_reveal_questions","survey-likert","341","1098695","0.0-6.0-6.47","2761877","co37990","norming","","","{""aha"":5}","[0]","../img/tt/524tt.jpg","",""
"null","<div style=""font-size:60px;""> </div>","null","fixation","html-keyboard-response","342","1098896","0.0-6.0-0.48","2761877","co37990","norming","","","","","","",""
"null","../img/tt/1228tt.jpg","null","mooney1","image-keyboard-response","343","1101905","0.0-6.0-1.48","2761877","co37990","norming","","","","","","",""
"4994.705000001006","","","post_mooney1_questions","survey-likert","344","1106903","0.0-6.0-2.48","2761877","co37990","norming","","","{""curiosity"":4,""confidence"":4}","[0,1]","../img/tt/1228tt.jpg","",""
"4470.120000001742","","","recognition","survey-text","345","1111375","0.0-6.0-3.48","2761877","co37990","norming","","","{""guess"":""zwemmen""}","","../img/tt/1228tt.jpg","",""
"null","../img/gs/1228gs.jpg","null","reveal","image-keyboard-response","346","1113382","0.0-6.0-4.48","2761877","co37990","norming","","","","","","",""
"null","../img/tt/1228tt.jpg","null","mooney2","image-keyboard-response","347","1115386","0.0-6.0-5.48","2761877","co37990","norming","","","","","","",""
"2236.2549999996554","","","post_reveal_questions","survey-likert","348","1117623","0.0-6.0-6.48","2761877","co37990","norming","","","{""aha"":6}","[0]","../img/tt/1228tt.jpg","",""
"null","<div style=""font-size:60px;""> </div>","null","fixation","html-keyboard-response","349","1117824","0.0-6.0-0.49","2761877","co37990","norming","","","","","","",""
"null","../img/tt/055tt.jpg","null","mooney1","image-keyboard-response","350","1120828","0.0-6.0-1.49","2761877","co37990","norming","","","","","","",""
"4696.180000002729","","","post_mooney1_questions","survey-likert","351","1125528","0.0-6.0-2.49","2761877","co37990","norming","","","{""curiosity"":1,""confidence"":6}","[0,1]","../img/tt/055tt.jpg","",""
"4278.11999999918","","","recognition","survey-text","352","1129807","0.0-6.0-3.49","2761877","co37990","norming","","","{""guess"":""zadel paard""}","","../img/tt/055tt.jpg","",""
"null","../img/gs/055gs.jpg","null","reveal","image-keyboard-response","353","1131814","0.0-6.0-4.49","2761877","co37990","norming","","","","","","",""
"null","../img/tt/055tt.jpg","null","mooney2","image-keyboard-response","354","1133822","0.0-6.0-5.49","2761877","co37990","norming","","","","","","",""
"3278.6699999996927","","","post_reveal_questions","survey-likert","355","1137103","0.0-6.0-6.49","2761877","co37990","norming","","","{""aha"":4}","[0]","../img/tt/055tt.jpg","",""
"null","<div style=""font-size:60px;""> </div>","null","fixation","html-keyboard-response","356","1137304","0.0-6.0-0.50","2761877","co37990","norming","","","","","","",""
"null","../img/tt/552tt.jpg","null","mooney1","image-keyboard-response","357","1140308","0.0-6.0-1.50","2761877","co37990","norming","","","","","","",""
"5112.899999999907","","","post_mooney1_questions","survey-likert","358","1145424","0.0-6.0-2.50","2761877","co37990","norming","","","{""curiosity"":4,""confidence"":6}","[0,1]","../img/tt/552tt.jpg","",""
"4133.91499999864","","","recognition","survey-text","359","1149559","0.0-6.0-3.50","2761877","co37990","norming","","","{""guess"":""stinkdier""}","","../img/tt/552tt.jpg","",""
"null","../img/gs/552gs.jpg","null","reveal","image-keyboard-response","360","1151569","0.0-6.0-4.50","2761877","co37990","norming","","","","","","",""
"null","../img/tt/552tt.jpg","null","mooney2","image-keyboard-response","361","1153580","0.0-6.0-5.50","2761877","co37990","norming","","","","","","",""
"9880.839999997988","","","post_reveal_questions","survey-likert","362","1163463","0.0-6.0-6.50","2761877","co37990","norming","","","{""aha"":0}","[0]","../img/tt/552tt.jpg","",""
"null","<div style=""font-size:60px;""> </div>","null","fixation","html-keyboard-response","363","1163665","0.0-6.0-0.51","2761877","co37990","norming","","","","","","",""
"null","../img/tt/1262tt.jpg","null","mooney1","image-keyboard-response","364","1166672","0.0-6.0-1.51","2761877","co37990","norming","","","","","","",""
"3094.755000001751","","","post_mooney1_questions","survey-likert","365","1169768","0.0-6.0-2.51","2761877","co37990","norming","","","{""curiosity"":5,""confidence"":5}","[0,1]","../img/tt/1262tt.jpg","",""
"2918.0750000013504","","","recognition","survey-text","366","1172687","0.0-6.0-3.51","2761877","co37990","norming","","","{""guess"":""parkiet""}","","../img/tt/1262tt.jpg","",""
"null","../img/gs/1262gs.jpg","null","reveal","image-keyboard-response","367","1174694","0.0-6.0-4.51","2761877","co37990","norming","","","","","","",""
"null","../img/tt/1262tt.jpg","null","mooney2","image-keyboard-response","368","1176695","0.0-6.0-5.51","2761877","co37990","norming","","","","","","",""
"2391.1299999998882","","","post_reveal_questions","survey-likert","369","1179087","0.0-6.0-6.51","2761877","co37990","norming","","","{""aha"":5}","[0]","../img/tt/1262tt.jpg","",""
"null","<div style=""font-size:60px;""> </div>","null","fixation","html-keyboard-response","370","1179289","0.0-6.0-0.52","2761877","co37990","norming","","","","","","",""
"null","../img/tt/1044tt.jpg","null","mooney1","image-keyboard-response","371","1182293","0.0-6.0-1.52","2761877","co37990","norming","","","","","","",""
"3105.2100000015926","","","post_mooney1_questions","survey-likert","372","1185401","0.0-6.0-2.52","2761877","co37990","norming","","","{""curiosity"":5,""confidence"":4}","[0,1]","../img/tt/1044tt.jpg","",""
"2701.939999999013","","","recognition","survey-text","373","1188104","0.0-6.0-3.52","2761877","co37990","norming","","","{""guess"":""giraf""}","","../img/tt/1044tt.jpg","",""
"null","../img/gs/1044gs.jpg","null","reveal","image-keyboard-response","374","1190112","0.0-6.0-4.52","2761877","co37990","norming","","","","","","",""
"null","../img/tt/1044tt.jpg","null","mooney2","image-keyboard-response","375","1192122","0.0-6.0-5.52","2761877","co37990","norming","","","","","","",""
"3364.5949999990407","","","post_reveal_questions","survey-likert","376","1195489","0.0-6.0-6.52","2761877","co37990","norming","","","{""aha"":1}","[0]","../img/tt/1044tt.jpg","",""
"null","<div style=""font-size:60px;""> </div>","null","fixation","html-keyboard-response","377","1195691","0.0-6.0-0.53","2761877","co37990","norming","","","","","","",""
"null","../img/tt/1181tt.jpg","null","mooney1","image-keyboard-response","378","1198693","0.0-6.0-1.53","2761877","co37990","norming","","","","","","",""
"4242.80999999959","","","post_mooney1_questions","survey-likert","379","1202937","0.0-6.0-2.53","2761877","co37990","norming","","","{""curiosity"":5,""confidence"":2}","[0,1]","../img/tt/1181tt.jpg","",""
"2694.00499999756","","","recognition","survey-text","380","1205633","0.0-6.0-3.53","2761877","co37990","norming","","","{""guess"":""sport""}","","../img/tt/1181tt.jpg","",""
"null","../img/gs/1181gs.jpg","null","reveal","image-keyboard-response","381","1207638","0.0-6.0-4.53","2761877","co37990","norming","","","","","","",""
"null","../img/tt/1181tt.jpg","null","mooney2","image-keyboard-response","382","1209639","0.0-6.0-5.53","2761877","co37990","norming","","","","","","",""
"2319.4199999996927","","","post_reveal_questions","survey-likert","383","1211961","0.0-6.0-6.53","2761877","co37990","norming","","","{""aha"":5}","[0]","../img/tt/1181tt.jpg","",""
"null","<div style=""font-size:60px;""> </div>","null","fixation","html-keyboard-response","384","1212162","0.0-6.0-0.54","2761877","co37990","norming","","","","","","",""
"null","../img/tt/082tt.jpg","null","mooney1","image-keyboard-response","385","1215166","0.0-6.0-1.54","2761877","co37990","norming","","","","","","",""
"5584.460000001825","","","post_mooney1_questions","survey-likert","386","1220753","0.0-6.0-2.54","2761877","co37990","norming","","","{""curiosity"":4,""confidence"":6}","[0,1]","../img/tt/082tt.jpg","",""
"3166.104999996489","","","recognition","survey-text","387","1223921","0.0-6.0-3.54","2761877","co37990","norming","","","{""guess"":""papegaai""}","","../img/tt/082tt.jpg","",""
"null","../img/gs/082gs.jpg","null","reveal","image-keyboard-response","388","1225924","0.0-6.0-4.54","2761877","co37990","norming","","","","","","",""
"null","../img/tt/082tt.jpg","null","mooney2","image-keyboard-response","389","1227933","0.0-6.0-5.54","2761877","co37990","norming","","","","","","",""
"2641.4000000003725","","","post_reveal_questions","survey-likert","390","1230577","0.0-6.0-6.54","2761877","co37990","norming","","","{""aha"":1}","[0]","../img/tt/082tt.jpg","",""
"null","<div style=""font-size:60px;""> </div>","null","fixation","html-keyboard-response","391","1230778","0.0-6.0-0.55","2761877","co37990","norming","","","","","","",""
"null","../img/tt/1254tt.jpg","null","mooney1","image-keyboard-response","392","1233784","0.0-6.0-1.55","2761877","co37990","norming","","","","","","",""
"8693.390000000363","","","post_mooney1_questions","survey-likert","393","1242481","0.0-6.0-2.55","2761877","co37990","norming","","","{""curiosity"":4,""confidence"":6}","[0,1]","../img/tt/1254tt.jpg","",""
"2678","","","recognition","survey-text","394","1245161","0.0-6.0-3.55","2761877","co37990","norming","","","{""guess"":""konijn""}","","../img/tt/1254tt.jpg","",""
"null","../img/gs/1254gs.jpg","null","reveal","image-keyboard-response","395","1247167","0.0-6.0-4.55","2761877","co37990","norming","","","","","","",""
"null","../img/tt/1254tt.jpg","null","mooney2","image-keyboard-response","396","1249176","0.0-6.0-5.55","2761877","co37990","norming","","","","","","",""
"1614.2450000008103","","","post_reveal_questions","survey-likert","397","1250793","0.0-6.0-6.55","2761877","co37990","norming","","","{""aha"":5}","[0]","../img/tt/1254tt.jpg","",""
"null","<div style=""font-size:60px;""> </div>","null","fixation","html-keyboard-response","398","1250994","0.0-6.0-0.56","2761877","co37990","norming","","","","","","",""
"null","../img/tt/1188tt.jpg","null","mooney1","image-keyboard-response","399","1254006","0.0-6.0-1.56","2761877","co37990","norming","","","","","","",""
"3424.0500000014435","","","post_mooney1_questions","survey-likert","400","1257433","0.0-6.0-2.56","2761877","co37990","norming","","","{""curiosity"":5,""confidence"":5}","[0,1]","../img/tt/1188tt.jpg","",""
"3173.6100000017323","","","recognition","survey-text","401","1260609","0.0-6.0-3.56","2761877","co37990","norming","","","{""guess"":""wielrenner""}","","../img/tt/1188tt.jpg","",""
"null","../img/gs/1188gs.jpg","null","reveal","image-keyboard-response","402","1262615","0.0-6.0-4.56","2761877","co37990","norming","","","","","","",""
"null","../img/tt/1188tt.jpg","null","mooney2","image-keyboard-response","403","1264624","0.0-6.0-5.56","2761877","co37990","norming","","","","","","",""
"1159.9500000011176","","","post_reveal_questions","survey-likert","404","1265785","0.0-6.0-6.56","2761877","co37990","norming","","","{""aha"":5}","[0]","../img/tt/1188tt.jpg","",""
"null","<div style=""font-size:60px;""> </div>","null","fixation","html-keyboard-response","405","1265987","0.0-6.0-0.57","2761877","co37990","norming","","","","","","",""
"null","../img/tt/497tt.jpg","null","mooney1","image-keyboard-response","406","1268990","0.0-6.0-1.57","2761877","co37990","norming","","","","","","",""
"5839.309999999357","","","post_mooney1_questions","survey-likert","407","1274833","0.0-6.0-2.57","2761877","co37990","norming","","","{""curiosity"":2,""confidence"":5}","[0,1]","../img/tt/497tt.jpg","",""
"3958.089999999851","","","recognition","survey-text","408","1278793","0.0-6.0-3.57","2761877","co37990","norming","","","{""guess"":""vuur koken""}","","../img/tt/497tt.jpg","",""
"null","../img/gs/497gs.jpg","null","reveal","image-keyboard-response","409","1280800","0.0-6.0-4.57","2761877","co37990","norming","","","","","","",""
"null","../img/tt/497tt.jpg","null","mooney2","image-keyboard-response","410","1282802","0.0-6.0-5.57","2761877","co37990","norming","","","","","","",""
"1516.1750000005122","","","post_reveal_questions","survey-likert","411","1284321","0.0-6.0-6.57","2761877","co37990","norming","","","{""aha"":4}","[0]","../img/tt/497tt.jpg","",""
"null","<div style=""font-size:60px;""> </div>","null","fixation","html-keyboard-response","412","1284522","0.0-6.0-0.58","2761877","co37990","norming","","","","","","",""
"null","../img/tt/052tt.jpg","null","mooney1","image-keyboard-response","413","1287527","0.0-6.0-1.58","2761877","co37990","norming","","","","","","",""
"3606.5049999996554","","","post_mooney1_questions","survey-likert","414","1291137","0.0-6.0-2.58","2761877","co37990","norming","","","{""curiosity"":5,""confidence"":4}","[0,1]","../img/tt/052tt.jpg","",""
"2182.179999999702","","","recognition","survey-text","415","1293321","0.0-6.0-3.58","2761877","co37990","norming","","","{""guess"":""kaas""}","","../img/tt/052tt.jpg","",""
"null","../img/gs/052gs.jpg","null","reveal","image-keyboard-response","416","1295327","0.0-6.0-4.58","2761877","co37990","norming","","","","","","",""
"null","../img/tt/052tt.jpg","null","mooney2","image-keyboard-response","417","1297329","0.0-6.0-5.58","2761877","co37990","norming","","","","","","",""
"3317.3799999966286","","","post_reveal_questions","survey-likert","418","1300649","0.0-6.0-6.58","2761877","co37990","norming","","","{""aha"":2}","[0]","../img/tt/052tt.jpg","",""
"null","<div style=""font-size:60px;""> </div>","null","fixation","html-keyboard-response","419","1300850","0.0-6.0-0.59","2761877","co37990","norming","","","","","","",""
"null","../img/tt/1027tt.jpg","null","mooney1","image-keyboard-response","420","1303861","0.0-6.0-1.59","2761877","co37990","norming","","","","","","",""
"4714.1349999983795","","","post_mooney1_questions","survey-likert","421","1308579","0.0-6.0-2.59","2761877","co37990","norming","","","{""curiosity"":5,""confidence"":5}","[0,1]","../img/tt/1027tt.jpg","",""
"2301.8899999987334","","","recognition","survey-text","422","1310882","0.0-6.0-3.59","2761877","co37990","norming","","","{""guess"":""koe""}","","../img/tt/1027tt.jpg","",""
"null","../img/gs/1027gs.jpg","null","reveal","image-keyboard-response","423","1312884","0.0-6.0-4.59","2761877","co37990","norming","","","","","","",""
"null","../img/tt/1027tt.jpg","null","mooney2","image-keyboard-response","424","1314890","0.0-6.0-5.59","2761877","co37990","norming","","","","","","",""
"3703.130000001751","","","post_reveal_questions","survey-likert","425","1318594","0.0-6.0-6.59","2761877","co37990","norming","","","{""aha"":4}","[0]","../img/tt/1027tt.jpg","",""
"null","<div style=""font-size:60px;""> </div>","null","fixation","html-keyboard-response","426","1318796","0.0-6.0-0.60","2761877","co37990","norming","","","","","","",""
"null","../img/tt/1002tt.jpg","null","mooney1","image-keyboard-response","427","1321802","0.0-6.0-1.60","2761877","co37990","norming","","","","","","",""
"3125.635000000242","","","post_mooney1_questions","survey-likert","428","1324931","0.0-6.0-2.60","2761877","co37990","norming","","","{""curiosity"":5,""confidence"":2}","[0,1]","../img/tt/1002tt.jpg","",""
"2294.074999997858","","","recognition","survey-text","429","1327226","0.0-6.0-3.60","2761877","co37990","norming","","","{""guess"":""wolf""}","","../img/tt/1002tt.jpg","",""
"null","../img/gs/1002gs.jpg","null","reveal","image-keyboard-response","430","1329235","0.0-6.0-4.60","2761877","co37990","norming","","","","","","",""
"null","../img/tt/1002tt.jpg","null","mooney2","image-keyboard-response","431","1331238","0.0-6.0-5.60","2761877","co37990","norming","","","","","","",""
"1977.2850000008475","","","post_reveal_questions","survey-likert","432","1333218","0.0-6.0-6.60","2761877","co37990","norming","","","{""aha"":2}","[0]","../img/tt/1002tt.jpg","",""
"null","<div style=""font-size:60px;""> </div>","null","fixation","html-keyboard-response","433","1333420","0.0-6.0-0.61","2761877","co37990","norming","","","","","","",""
"null","../img/tt/1080tt.jpg","null","mooney1","image-keyboard-response","434","1336425","0.0-6.0-1.61","2761877","co37990","norming","","","","","","",""
"3534.4399999994785","","","post_mooney1_questions","survey-likert","435","1339962","0.0-6.0-2.61","2761877","co37990","norming","","","{""curiosity"":5,""confidence"":3}","[0,1]","../img/tt/1080tt.jpg","",""
"2709.974999997765","","","recognition","survey-text","436","1342674","0.0-6.0-3.61","2761877","co37990","norming","","","{""guess"":""aap""}","","../img/tt/1080tt.jpg","",""
"null","../img/gs/1080gs.jpg","null","reveal","image-keyboard-response","437","1344684","0.0-6.0-4.61","2761877","co37990","norming","","","","","","",""
"null","../img/tt/1080tt.jpg","null","mooney2","image-keyboard-response","438","1346690","0.0-6.0-5.61","2761877","co37990","norming","","","","","","",""
"2735.069999998901","","","post_reveal_questions","survey-likert","439","1349426","0.0-6.0-6.61","2761877","co37990","norming","","","{""aha"":2}","[0]","../img/tt/1080tt.jpg","",""
"null","<div style=""font-size:60px;""> </div>","null","fixation","html-keyboard-response","440","1349628","0.0-6.0-0.62","2761877","co37990","norming","","","","","","",""
"null","../img/tt/1040tt.jpg","null","mooney1","image-keyboard-response","441","1352636","0.0-6.0-1.62","2761877","co37990","norming","","","","","","",""
"3269.6149999974295","","","post_mooney1_questions","survey-likert","442","1355907","0.0-6.0-2.62","2761877","co37990","norming","","","{""curiosity"":5,""confidence"":0}","[0,1]","../img/tt/1040tt.jpg","",""
"621.9999999993015","","","recognition","survey-text","443","1356530","0.0-6.0-3.62","2761877","co37990","norming","","","{""guess"":""""}","","../img/tt/1040tt.jpg","",""
"null","../img/gs/1040gs.jpg","null","reveal","image-keyboard-response","444","1358537","0.0-6.0-4.62","2761877","co37990","norming","","","","","","",""
"null","../img/tt/1040tt.jpg","null","mooney2","image-keyboard-response","445","1360539","0.0-6.0-5.62","2761877","co37990","norming","","","","","","",""
"4437.050000000512","","","post_reveal_questions","survey-likert","446","1364973","0.0-6.0-6.62","2761877","co37990","norming","","","{""aha"":1}","[0]","../img/tt/1040tt.jpg","",""
"null","<div style=""font-size:60px;""> </div>","null","fixation","html-keyboard-response","447","1365174","0.0-6.0-0.63","2761877","co37990","norming","","","","","","",""
"null","../img/tt/019tt.jpg","null","mooney1","image-keyboard-response","448","1368177","0.0-6.0-1.63","2761877","co37990","norming","","","","","","",""
"7161.165000001434","","","post_mooney1_questions","survey-likert","449","1375341","0.0-6.0-2.63","2761877","co37990","norming","","","{""curiosity"":5,""confidence"":0}","[0,1]","../img/tt/019tt.jpg","",""
"717.9449999968056","","","recognition","survey-text","450","1376061","0.0-6.0-3.63","2761877","co37990","norming","","","{""guess"":""""}","","../img/tt/019tt.jpg","",""
"null","../img/gs/019gs.jpg","null","reveal","image-keyboard-response","451","1378063","0.0-6.0-4.63","2761877","co37990","norming","","","","","","",""
"null","../img/tt/019tt.jpg","null","mooney2","image-keyboard-response","452","1380065","0.0-6.0-5.63","2761877","co37990","norming","","","","","","",""
"2777.4750000026543","","","post_reveal_questions","survey-likert","453","1382845","0.0-6.0-6.63","2761877","co37990","norming","","","{""aha"":3}","[0]","../img/tt/019tt.jpg","",""
"null","<div style=""font-size:60px;""> </div>","null","fixation","html-keyboard-response","454","1383047","0.0-6.0-0.64","2761877","co37990","norming","","","","","","",""
"null","../img/tt/1283tt.jpg","null","mooney1","image-keyboard-response","455","1386054","0.0-6.0-1.64","2761877","co37990","norming","","","","","","",""
"3236.2749999992084","","","post_mooney1_questions","survey-likert","456","1389293","0.0-6.0-2.64","2761877","co37990","norming","","","{""curiosity"":5,""confidence"":4}","[0,1]","../img/tt/1283tt.jpg","",""
"2686.224999997532","","","recognition","survey-text","457","1391981","0.0-6.0-3.64","2761877","co37990","norming","","","{""guess"":""vos""}","","../img/tt/1283tt.jpg","",""
"null","../img/gs/1283gs.jpg","null","reveal","image-keyboard-response","458","1393982","0.0-6.0-4.64","2761877","co37990","norming","","","","","","",""
"null","../img/tt/1283tt.jpg","null","mooney2","image-keyboard-response","459","1395984","0.0-6.0-5.64","2761877","co37990","norming","","","","","","",""
"1506.4400000011083","","","post_reveal_questions","survey-likert","460","1397493","0.0-6.0-6.64","2761877","co37990","norming","","","{""aha"":4}","[0]","../img/tt/1283tt.jpg","",""
"null","<div style=""font-size:60px;""> </div>","null","fixation","html-keyboard-response","461","1397694","0.0-6.0-0.65","2761877","co37990","norming","","","","","","",""
"null","../img/tt/380tt.jpg","null","mooney1","image-keyboard-response","462","1400702","0.0-6.0-1.65","2761877","co37990","norming","","","","","","",""
"3790.5900000005495","","","post_mooney1_questions","survey-likert","463","1404493","0.0-6.0-2.65","2761877","co37990","norming","","","{""curiosity"":5,""confidence"":4}","[0,1]","../img/tt/380tt.jpg","",""
"1997.7799999979325","","","recognition","survey-text","464","1406493","0.0-6.0-3.65","2761877","co37990","norming","","","{""guess"":""aap""}","","../img/tt/380tt.jpg","",""
"null","../img/gs/380gs.jpg","null","reveal","image-keyboard-response","465","1408497","0.0-6.0-4.65","2761877","co37990","norming","","","","","","",""
"null","../img/tt/380tt.jpg","null","mooney2","image-keyboard-response","466","1410503","0.0-6.0-5.65","2761877","co37990","norming","","","","","","",""
"2459.6249999995343","","","post_reveal_questions","survey-likert","467","1412965","0.0-6.0-6.65","2761877","co37990","norming","","","{""aha"":3}","[0]","../img/tt/380tt.jpg","",""
"null","<div style=""font-size:60px;""> </div>","null","fixation","html-keyboard-response","468","1413173","0.0-6.0-0.66","2761877","co37990","norming","","","","","","",""
"null","../img/tt/440tt.jpg","null","mooney1","image-keyboard-response","469","1416180","0.0-6.0-1.66","2761877","co37990","norming","","","","","","",""
"7014.115000001853","","","post_mooney1_questions","survey-likert","470","1423197","0.0-6.0-2.66","2761877","co37990","norming","","","{""curiosity"":5,""confidence"":0}","[0,1]","../img/tt/440tt.jpg","",""
"549.9699999999721","","","recognition","survey-text","471","1423749","0.0-6.0-3.66","2761877","co37990","norming","","","{""guess"":""""}","","../img/tt/440tt.jpg","",""
"null","../img/gs/440gs.jpg","null","reveal","image-keyboard-response","472","1425758","0.0-6.0-4.66","2761877","co37990","norming","","","","","","",""
"null","../img/tt/440tt.jpg","null","mooney2","image-keyboard-response","473","1427768","0.0-6.0-5.66","2761877","co37990","norming","","","","","","",""
"3408.7149999977555","","","post_reveal_questions","survey-likert","474","1431180","0.0-6.0-6.66","2761877","co37990","norming","","","{""aha"":3}","[0]","../img/tt/440tt.jpg","",""
"null","<div style=""font-size:60px;""> </div>","null","fixation","html-keyboard-response","475","1431381","0.0-6.0-0.67","2761877","co37990","norming","","","","","","",""
"null","../img/tt/1211tt.jpg","null","mooney1","image-keyboard-response","476","1434390","0.0-6.0-1.67","2761877","co37990","norming","","","","","","",""
"3835.0400000019","","","post_mooney1_questions","survey-likert","477","1438228","0.0-6.0-2.67","2761877","co37990","norming","","","{""curiosity"":1,""confidence"":6}","[0,1]","../img/tt/1211tt.jpg","",""
"2493.7150000005495","","","recognition","survey-text","478","1440724","0.0-6.0-3.67","2761877","co37990","norming","","","{""guess"":""golf""}","","../img/tt/1211tt.jpg","",""
"null","../img/gs/1211gs.jpg","null","reveal","image-keyboard-response","479","1442726","0.0-6.0-4.67","2761877","co37990","norming","","","","","","",""
"null","../img/tt/1211tt.jpg","null","mooney2","image-keyboard-response","480","1444736","0.0-6.0-5.67","2761877","co37990","norming","","","","","","",""
"3114.7849999980535","","","post_reveal_questions","survey-likert","481","1447852","0.0-6.0-6.67","2761877","co37990","norming","","","{""aha"":5}","[0]","../img/tt/1211tt.jpg","",""
"null","<div style=""font-size:60px;""> </div>","null","fixation","html-keyboard-response","482","1448053","0.0-6.0-0.68","2761877","co37990","norming","","","","","","",""
"null","../img/tt/436tt.jpg","null","mooney1","image-keyboard-response","483","1451057","0.0-6.0-1.68","2761877","co37990","norming","","","","","","",""
"5585.06000000122","","","post_mooney1_questions","survey-likert","484","1456644","0.0-6.0-2.68","2761877","co37990","norming","","","{""curiosity"":5,""confidence"":5}","[0,1]","../img/tt/436tt.jpg","",""
"6189.91000000108","","","recognition","survey-text","485","1462836","0.0-6.0-3.68","2761877","co37990","norming","","","{""guess"":""leguaan""}","","../img/tt/436tt.jpg","",""
"null","../img/gs/436gs.jpg","null","reveal","image-keyboard-response","486","1464838","0.0-6.0-4.68","2761877","co37990","norming","","","","","","",""
"null","../img/tt/436tt.jpg","null","mooney2","image-keyboard-response","487","1466841","0.0-6.0-5.68","2761877","co37990","norming","","","","","","",""
"3160.3800000010524","","","post_reveal_questions","survey-likert","488","1470004","0.0-6.0-6.68","2761877","co37990","norming","","","{""aha"":4}","[0]","../img/tt/436tt.jpg","",""
"null","<div style=""font-size:60px;""> </div>","null","fixation","html-keyboard-response","489","1470205","0.0-6.0-0.69","2761877","co37990","norming","","","","","","",""
"null","../img/tt/599tt.jpg","null","mooney1","image-keyboard-response","490","1473208","0.0-6.0-1.69","2761877","co37990","norming","","","","","","",""
"2808.574999999022","","","post_mooney1_questions","survey-likert","491","1476020","0.0-6.0-2.69","2761877","co37990","norming","","","{""curiosity"":6,""confidence"":6}","[0,1]","../img/tt/599tt.jpg","",""
"2694.0400000021327","","","recognition","survey-text","492","1478716","0.0-6.0-3.69","2761877","co37990","norming","","","{""guess"":""uil""}","","../img/tt/599tt.jpg","",""
"null","../img/gs/599gs.jpg","null","reveal","image-keyboard-response","493","1480720","0.0-6.0-4.69","2761877","co37990","norming","","","","","","",""
"null","../img/tt/599tt.jpg","null","mooney2","image-keyboard-response","494","1482724","0.0-6.0-5.69","2761877","co37990","norming","","","","","","",""
"2318.4199999996927","","","post_reveal_questions","survey-likert","495","1485044","0.0-6.0-6.69","2761877","co37990","norming","","","{""aha"":5}","[0]","../img/tt/599tt.jpg","",""
"null","<div style=""font-size:60px;""> </div>","null","fixation","html-keyboard-response","496","1485246","0.0-6.0-0.70","2761877","co37990","norming","","","","","","",""
"null","../img/tt/1234tt.jpg","null","mooney1","image-keyboard-response","497","1488250","0.0-6.0-1.70","2761877","co37990","norming","","","","","","",""
"3823.164999997942","","","post_mooney1_questions","survey-likert","498","1492076","0.0-6.0-2.70","2761877","co37990","norming","","","{""curiosity"":5,""confidence"":4}","[0,1]","../img/tt/1234tt.jpg","",""
"3093.939999999013","","","recognition","survey-text","499","1495172","0.0-6.0-3.70","2761877","co37990","norming","","","{""guess"":""surfen""}","","../img/tt/1234tt.jpg","",""
"null","../img/gs/1234gs.jpg","null","reveal","image-keyboard-response","500","1497183","0.0-6.0-4.70","2761877","co37990","norming","","","","","","",""
"null","../img/tt/1234tt.jpg","null","mooney2","image-keyboard-response","501","1499192","0.0-6.0-5.70","2761877","co37990","norming","","","","","","",""
"4257.004999999423","","","post_reveal_questions","survey-likert","502","1503452","0.0-6.0-6.70","2761877","co37990","norming","","","{""aha"":1}","[0]","../img/tt/1234tt.jpg","",""
"null","<div style=""font-size:60px;""> </div>","null","fixation","html-keyboard-response","503","1503653","0.0-6.0-0.71","2761877","co37990","norming","","","","","","",""
"null","../img/tt/1127tt.jpg","null","mooney1","image-keyboard-response","504","1506663","0.0-6.0-1.71","2761877","co37990","norming","","","","","","",""
"4947.869999999879","","","post_mooney1_questions","survey-likert","505","1511612","0.0-6.0-2.71","2761877","co37990","norming","","","{""curiosity"":5,""confidence"":1}","[0,1]","../img/tt/1127tt.jpg","",""
"4981.994999998249","","","recognition","survey-text","506","1516596","0.0-6.0-3.71","2761877","co37990","norming","","","{""guess"":""caf""}","","../img/tt/1127tt.jpg","",""
"null","../img/gs/1127gs.jpg","null","reveal","image-keyboard-response","507","1518603","0.0-6.0-4.71","2761877","co37990","norming","","","","","","",""
"null","../img/tt/1127tt.jpg","null","mooney2","image-keyboard-response","508","1520605","0.0-6.0-5.71","2761877","co37990","norming","","","","","","",""
"3876.1300000005867","","","post_reveal_questions","survey-likert","509","1524484","0.0-6.0-6.71","2761877","co37990","norming","","","{""aha"":3}","[0]","../img/tt/1127tt.jpg","",""
"null","<div style=""font-size:60px;""> </div>","null","fixation","html-keyboard-response","510","1524695","0.0-6.0-0.72","2761877","co37990","norming","","","","","","",""
"null","../img/tt/1087tt.jpg","null","mooney1","image-keyboard-response","511","1527700","0.0-6.0-1.72","2761877","co37990","norming","","","","","","",""
"3229.2550000019837","","","post_mooney1_questions","survey-likert","512","1530933","0.0-6.0-2.72","2761877","co37990","norming","","","{""curiosity"":5,""confidence"":4}","[0,1]","../img/tt/1087tt.jpg","",""
"2133.4300000015646","","","recognition","survey-text","513","1533068","0.0-6.0-3.72","2761877","co37990","norming","","","{""guess"":""schaap""}","","../img/tt/1087tt.jpg","",""
"null","../img/gs/1087gs.jpg","null","reveal","image-keyboard-response","514","1535078","0.0-6.0-4.72","2761877","co37990","norming","","","","","","",""
"null","../img/tt/1087tt.jpg","null","mooney2","image-keyboard-response","515","1537081","0.0-6.0-5.72","2761877","co37990","norming","","","","","","",""
"1768.56999999634","","","post_reveal_questions","survey-likert","516","1538852","0.0-6.0-6.72","2761877","co37990","norming","","","{""aha"":4}","[0]","../img/tt/1087tt.jpg","",""
"null","<div style=""font-size:60px;""> </div>","null","fixation","html-keyboard-response","517","1539054","0.0-6.0-0.73","2761877","co37990","norming","","","","","","",""
"null","../img/tt/1309tt.jpg","null","mooney1","image-keyboard-response","518","1542066","0.0-6.0-1.73","2761877","co37990","norming","","","","","","",""
"6911.265000002459","","","post_mooney1_questions","survey-likert","519","1548973","0.0-6.0-2.73","2761877","co37990","norming","","","{""curiosity"":2,""confidence"":5}","[0,1]","../img/tt/1309tt.jpg","",""
"2678.27499999851","","","recognition","survey-text","520","1551653","0.0-6.0-3.73","2761877","co37990","norming","","","{""guess"":""auto""}","","../img/tt/1309tt.jpg","",""
"null","../img/gs/1309gs.jpg","null","reveal","image-keyboard-response","521","1553662","0.0-6.0-4.73","2761877","co37990","norming","","","","","","",""
"null","../img/tt/1309tt.jpg","null","mooney2","image-keyboard-response","522","1555671","0.0-6.0-5.73","2761877","co37990","norming","","","","","","",""
"3203.005000003148","","","post_reveal_questions","survey-likert","523","1558877","0.0-6.0-6.73","2761877","co37990","norming","","","{""aha"":4}","[0]","../img/tt/1309tt.jpg","",""
"null","<div style=""font-size:60px;""> </div>","null","fixation","html-keyboard-response","524","1559079","0.0-6.0-0.74","2761877","co37990","norming","","","","","","",""
"null","../img/tt/507tt.jpg","null","mooney1","image-keyboard-response","525","1562091","0.0-6.0-1.74","2761877","co37990","norming","","","","","","",""
"5511.11999999918","","","post_mooney1_questions","survey-likert","526","1567605","0.0-6.0-2.74","2761877","co37990","norming","","","{""curiosity"":5,""confidence"":3}","[0,1]","../img/tt/507tt.jpg","",""
"2213.974999998696","","","recognition","survey-text","527","1569821","0.0-6.0-3.74","2761877","co37990","norming","","","{""guess"":""dans""}","","../img/tt/507tt.jpg","",""
"null","../img/gs/507gs.jpg","null","reveal","image-keyboard-response","528","1571830","0.0-6.0-4.74","2761877","co37990","norming","","","","","","",""
"null","../img/tt/507tt.jpg","null","mooney2","image-keyboard-response","529","1573841","0.0-6.0-5.74","2761877","co37990","norming","","","","","","",""
"5233.629999998724","","","post_reveal_questions","survey-likert","530","1579077","0.0-6.0-6.74","2761877","co37990","norming","","","{""aha"":4}","[0]","../img/tt/507tt.jpg","",""
"null","<div style=""font-size:60px;""> </div>","null","fixation","html-keyboard-response","531","1579278","0.0-6.0-0.75","2761877","co37990","norming","","","","","","",""
"null","../img/tt/184tt.jpg","null","mooney1","image-keyboard-response","532","1582281","0.0-6.0-1.75","2761877","co37990","norming","","","","","","",""
"3641.6999999999534","","","post_mooney1_questions","survey-likert","533","1585926","0.0-6.0-2.75","2761877","co37990","norming","","","{""curiosity"":5,""confidence"":2}","[0,1]","../img/tt/184tt.jpg","",""
"2581.7349999998696","","","recognition","survey-text","534","1588509","0.0-6.0-3.75","2761877","co37990","norming","","","{""guess"":""luiaard""}","","../img/tt/184tt.jpg","",""
"null","../img/gs/184gs.jpg","null","reveal","image-keyboard-response","535","1590515","0.0-6.0-4.75","2761877","co37990","norming","","","","","","",""
"null","../img/tt/184tt.jpg","null","mooney2","image-keyboard-response","536","1592525","0.0-6.0-5.75","2761877","co37990","norming","","","","","","",""
"5229.6699999971315","","","post_reveal_questions","survey-likert","537","1597757","0.0-6.0-6.75","2761877","co37990","norming","","","{""aha"":2}","[0]","../img/tt/184tt.jpg","",""
"null","<div style=""font-size:60px;""> </div>","null","fixation","html-keyboard-response","538","1597962","0.0-6.0-0.76","2761877","co37990","norming","","","","","","",""
"null","../img/tt/1128tt.jpg","null","mooney1","image-keyboard-response","539","1600965","0.0-6.0-1.76","2761877","co37990","norming","","","","","","",""
"4499.995000001974","","","post_mooney1_questions","survey-likert","540","1605469","0.0-6.0-2.76","2761877","co37990","norming","","","{""curiosity"":5,""confidence"":4}","[0,1]","../img/tt/1128tt.jpg","",""
"2318.009999999078","","","recognition","survey-text","541","1607789","0.0-6.0-3.76","2761877","co37990","norming","","","{""guess"":""panda""}","","../img/tt/1128tt.jpg","",""
"null","../img/gs/1128gs.jpg","null","reveal","image-keyboard-response","542","1609803","0.0-6.0-4.76","2761877","co37990","norming","","","","","","",""
"null","../img/tt/1128tt.jpg","null","mooney2","image-keyboard-response","543","1611806","0.0-6.0-5.76","2761877","co37990","norming","","","","","","",""
"6268.719999999972","","","post_reveal_questions","survey-likert","544","1618078","0.0-6.0-6.76","2761877","co37990","norming","","","{""aha"":3}","[0]","../img/tt/1128tt.jpg","",""
"null","<div style=""font-size:60px;""> </div>","null","fixation","html-keyboard-response","545","1618279","0.0-6.0-0.77","2761877","co37990","norming","","","","","","",""
"null","../img/tt/079tt.jpg","null","mooney1","image-keyboard-response","546","1621284","0.0-6.0-1.77","2761877","co37990","norming","","","","","","",""
"2862.359999999171","","","post_mooney1_questions","survey-likert","547","1624150","0.0-6.0-2.77","2761877","co37990","norming","","","{""curiosity"":1,""confidence"":6}","[0,1]","../img/tt/079tt.jpg","",""
"3166.2599999981467","","","recognition","survey-text","548","1627318","0.0-6.0-3.77","2761877","co37990","norming","","","{""guess"":""beer""}","","../img/tt/079tt.jpg","",""
"null","../img/gs/079gs.jpg","null","reveal","image-keyboard-response","549","1629320","0.0-6.0-4.77","2761877","co37990","norming","","","","","","",""
"null","../img/tt/079tt.jpg","null","mooney2","image-keyboard-response","550","1631328","0.0-6.0-5.77","2761877","co37990","norming","","","","","","",""
"12450.409999997588","","","post_reveal_questions","survey-likert","551","1643782","0.0-6.0-6.77","2761877","co37990","norming","","","{""aha"":4}","[0]","../img/tt/079tt.jpg","",""
"null","<div style=""font-size:60px;""> </div>","null","fixation","html-keyboard-response","552","1643983","0.0-6.0-0.78","2761877","co37990","norming","","","","","","",""
