"rt","stimulus","key_press","test_part","trial_type","trial_index","time_elapsed","internal_node_id","totalTime","subject","experiment_name","button_pressed","success","responses","question_order","currentStim","old","correct"
"6149.364999999307","Welcome to the experiment. This is an online experiment so please don't close the tab/window until we say goodbye.  Press any key to begin.","68","instructions","html-keyboard-response","0","6167","0.0-0.0","2683117","co37624","norming","","","","","","",""
"1673.7599999996746","<div style='word-wrap: break-word; width: 900px'><h3>Please consider this information carefully before deciding whether to participate in this research</h3><ul style='text-align: left; font-size: .8em;'><li><b>Purpose of the research</b>: To examine how people process images.</li><li><b>What you will do in this research</b>:  Stimuli (images) will be presented on the computer and you will be asked different questions about them.</li><li><b>Time required</b>: Participation will take between 45 and 60 minutes to complete.</li><li><b>Risks</b>:  There are no anticipated risks associated with participating in this study. The effects of participating should be comparable to those you would experience from viewing a computer monitor for 30 minutes and using a mouse or keyboard.</li><li><b>Benefits</b>:  This study provides no benefits to you individually except for the credit. The study provides important information about the nature of perception and learning.</li><li><b>Confidentiality</b>:  Your participation in this study will remain confidential. No personally identifiable information will be associated with your data. Your de-identified data may be shared with other researchers and used in future projects.</li><li><b>Participation and withdrawal</b>:  Your participation in this study is completely voluntary and you may refuse to participate or you may choose to withdraw at any time without penalty.</li><li><b>How to contact the researchers</b>: If you have questions or concerns about your participation or payment, or want to request a summary of research findings, please contact Sander Van de Cruys (KU Leuven), at sander.vandecruys@kuleuven.be.</li></ul><p>The nature and purpose of this research have been sufficiently explained and I agree to participate in this study.  I understand that I am free to withdraw at any time without incurring any penalty.</p><p>Please consent by clicking the button below to continue. Otherwise, please exit the study at this time.</p></div>","","instructions","html-button-response","1","7844","0.0-1.0","2683117","co37624","norming","0","","","","","",""
"","","","instructions","fullscreen","2","11478","0.0-2.0","2683117","co37624","norming","","true","","","","",""
"50082.76999999998","","","sona","survey-html-form","3","61565","0.0-3.0","2683117","co37624","norming","","","[{""name"":""sonaid"",""value"":""37624""},{""name"":""debrief"",""value"":""yes""},{""name"":""datajoin"",""value"":""yes""}]","","","",""
"56386.88999999977","<div style='word-wrap: break-word; width: 900px'><h3>Instructions</h3><p>This experiment will have 3 parts. In the first part you will see a series of distorted images like the one below on the left. As you can see in the righthand image, the distorted images are derived from actual photographs. In what follows, you will <strong>briefly</strong> be presented with <strong>only</strong> the distorted image.</p> <div style='float: left; margin-right: 20px;'><img src='../img/018tt.jpg' height='250' width='250'></img></div><div style='float: right; margin-left: 20px;'><img src='../img/018gs.jpg' height='250' width='250'></img></div><p>Subsequently you will be asked a few questions about the image: One question on how <strong>curious</strong> you are about the solution and one on how <strong>confident</strong> you are that you know the solution.</p>Next, we ask you to make a guess on what is in the image. Note that it is OK to name just the <strong>basic level category</strong>. For example when you see a parrot in the image, 'parrot' will obviously be a correct answer but also correct is 'bird'. However, 'animal' will <strong>not</strong> be counted as a correct response. For the example above, 'rose' would be correct or 'flower', but not 'plant'. When soccer players are depicted, 'soccer', 'football', 'soccer players' will be correct, but not 'humans', 'outdoors', or 'sports'. You do not need to describe the image in full, just name the main object in it <strong>in one or two words</strong>. All images depict objects from one of the following broad level categories: animals, inanimate objects, plants, sports, vehicles, and food. Recognizing means knowing <strong>more</strong> than these broad labels for a given image. But we always encourage you to <strong>make a guess</strong> if you can. Note that you are allowed to use <strong>Dutch and English</strong> in your answers, whatever comes easiest for you.</p><p>Press any key to continue.</p></div>","32","instructions","html-keyboard-response","4","117949","0.0-4.0","2683117","co37624","norming","","","","","","",""
"133711.65999999995","<div style='word-wrap: break-word; width: 900px'><h3>Instructions</h3> <p>Next, the solution image will be revealed to you and you'll be asked to indicate how strong your <strong>aha-experience</strong> was after seeing the solution. This describes the positive feeling of the 'click' you sometimes experience, when the pieces of the 'puzzle' fall together and you suddenly have 'insight' in the image.</p><img src='aha.jpg' height='188' width='250'></img><p>Note that there are no right or wrong answers. We are interested in what <strong>you</strong> see in the image and how <strong>you</strong> feel about it.</p><p>Press any key to start the experiment.</p></div>","67","instructions","html-keyboard-response","5","251669","0.0-5.0","2683117","co37624","norming","","","","","","",""
"null","<div style=""font-size:60px;""> </div>","null","fixation","html-keyboard-response","6","251879","0.0-6.0-0.0","2683117","co37624","norming","","","","","","",""
"null","../img/tt/1130tt.jpg","null","mooney1","image-keyboard-response","7","254884","0.0-6.0-1.0","2683117","co37624","norming","","","","","","",""
"8749.025000000052","","","post_mooney1_questions","survey-likert","8","263637","0.0-6.0-2.0","2683117","co37624","norming","","","{""curiosity"":2,""confidence"":1}","[0,1]","../img/tt/1130tt.jpg","",""
"4909.615000000515","","","recognition","survey-text","9","268548","0.0-6.0-3.0","2683117","co37624","norming","","","{""guess"":""""}","","../img/tt/1130tt.jpg","",""
"null","../img/gs/1130gs.jpg","null","reveal","image-keyboard-response","10","270551","0.0-6.0-4.0","2683117","co37624","norming","","","","","","",""
"null","../img/tt/1130tt.jpg","null","mooney2","image-keyboard-response","11","272552","0.0-6.0-5.0","2683117","co37624","norming","","","","","","",""
"5842.169999999867","","","post_reveal_questions","survey-likert","12","278396","0.0-6.0-6.0","2683117","co37624","norming","","","{""aha"":3}","[0]","../img/tt/1130tt.jpg","",""
"null","<div style=""font-size:60px;""> </div>","null","fixation","html-keyboard-response","13","278599","0.0-6.0-0.1","2683117","co37624","norming","","","","","","",""
"null","../img/tt/079tt.jpg","null","mooney1","image-keyboard-response","14","281601","0.0-6.0-1.1","2683117","co37624","norming","","","","","","",""
"9097.275000000081","","","post_mooney1_questions","survey-likert","15","290701","0.0-6.0-2.1","2683117","co37624","norming","","","{""curiosity"":1,""confidence"":5}","[0,1]","../img/tt/079tt.jpg","",""
"2525.7799999999697","","","recognition","survey-text","16","293228","0.0-6.0-3.1","2683117","co37624","norming","","","{""guess"":""bear""}","","../img/tt/079tt.jpg","",""
"null","../img/gs/079gs.jpg","null","reveal","image-keyboard-response","17","295231","0.0-6.0-4.1","2683117","co37624","norming","","","","","","",""
"null","../img/tt/079tt.jpg","null","mooney2","image-keyboard-response","18","297232","0.0-6.0-5.1","2683117","co37624","norming","","","","","","",""
"4787.585000000021","","","post_reveal_questions","survey-likert","19","302020","0.0-6.0-6.1","2683117","co37624","norming","","","{""aha"":0}","[0]","../img/tt/079tt.jpg","",""
"null","<div style=""font-size:60px;""> </div>","null","fixation","html-keyboard-response","20","302221","0.0-6.0-0.2","2683117","co37624","norming","","","","","","",""
"null","../img/tt/1123tt.jpg","null","mooney1","image-keyboard-response","21","305233","0.0-6.0-1.2","2683117","co37624","norming","","","","","","",""
"4170.140000000189","","","post_mooney1_questions","survey-likert","22","309406","0.0-6.0-2.2","2683117","co37624","norming","","","{""curiosity"":4,""confidence"":1}","[0,1]","../img/tt/1123tt.jpg","",""
"694.0899999999674","","","recognition","survey-text","23","310102","0.0-6.0-3.2","2683117","co37624","norming","","","{""guess"":""""}","","../img/tt/1123tt.jpg","",""
"null","../img/gs/1123gs.jpg","null","reveal","image-keyboard-response","24","312103","0.0-6.0-4.2","2683117","co37624","norming","","","","","","",""
"null","../img/tt/1123tt.jpg","null","mooney2","image-keyboard-response","25","314105","0.0-6.0-5.2","2683117","co37624","norming","","","","","","",""
"2548.3400000002584","","","post_reveal_questions","survey-likert","26","316654","0.0-6.0-6.2","2683117","co37624","norming","","","{""aha"":1}","[0]","../img/tt/1123tt.jpg","",""
"null","<div style=""font-size:60px;""> </div>","null","fixation","html-keyboard-response","27","316855","0.0-6.0-0.3","2683117","co37624","norming","","","","","","",""
"null","../img/tt/1175tt.jpg","null","mooney1","image-keyboard-response","28","319862","0.0-6.0-1.3","2683117","co37624","norming","","","","","","",""
"5815.634999999951","","","post_mooney1_questions","survey-likert","29","325678","0.0-6.0-2.3","2683117","co37624","norming","","","{""curiosity"":1,""confidence"":2}","[0,1]","../img/tt/1175tt.jpg","",""
"3037.984999999928","","","recognition","survey-text","30","328718","0.0-6.0-3.3","2683117","co37624","norming","","","{""guess"":""girl""}","","../img/tt/1175tt.jpg","",""
"null","../img/gs/1175gs.jpg","null","reveal","image-keyboard-response","31","330719","0.0-6.0-4.3","2683117","co37624","norming","","","","","","",""
"null","../img/tt/1175tt.jpg","null","mooney2","image-keyboard-response","32","332721","0.0-6.0-5.3","2683117","co37624","norming","","","","","","",""
"2779.324999999546","","","post_reveal_questions","survey-likert","33","335502","0.0-6.0-6.3","2683117","co37624","norming","","","{""aha"":5}","[0]","../img/tt/1175tt.jpg","",""
"null","<div style=""font-size:60px;""> </div>","null","fixation","html-keyboard-response","34","335710","0.0-6.0-0.4","2683117","co37624","norming","","","","","","",""
"null","../img/tt/184tt.jpg","null","mooney1","image-keyboard-response","35","338713","0.0-6.0-1.4","2683117","co37624","norming","","","","","","",""
"5019.229999999865","","","post_mooney1_questions","survey-likert","36","343734","0.0-6.0-2.4","2683117","co37624","norming","","","{""curiosity"":3,""confidence"":0}","[0,1]","../img/tt/184tt.jpg","",""
"838.0500000002794","","","recognition","survey-text","37","344574","0.0-6.0-3.4","2683117","co37624","norming","","","{""guess"":""""}","","../img/tt/184tt.jpg","",""
"null","../img/gs/184gs.jpg","null","reveal","image-keyboard-response","38","346575","0.0-6.0-4.4","2683117","co37624","norming","","","","","","",""
"null","../img/tt/184tt.jpg","null","mooney2","image-keyboard-response","39","348577","0.0-6.0-5.4","2683117","co37624","norming","","","","","","",""
"4499.3800000002375","","","post_reveal_questions","survey-likert","40","353078","0.0-6.0-6.4","2683117","co37624","norming","","","{""aha"":4}","[0]","../img/tt/184tt.jpg","",""
"null","<div style=""font-size:60px;""> </div>","null","fixation","html-keyboard-response","41","353281","0.0-6.0-0.5","2683117","co37624","norming","","","","","","",""
"null","../img/tt/1235tt.jpg","null","mooney1","image-keyboard-response","42","356283","0.0-6.0-1.5","2683117","co37624","norming","","","","","","",""
"4800.150000000023","","","post_mooney1_questions","survey-likert","43","361086","0.0-6.0-2.5","2683117","co37624","norming","","","{""curiosity"":5,""confidence"":1}","[0,1]","../img/tt/1235tt.jpg","",""
"4126.124999999767","","","recognition","survey-text","44","365214","0.0-6.0-3.5","2683117","co37624","norming","","","{""guess"":""""}","","../img/tt/1235tt.jpg","",""
"null","../img/gs/1235gs.jpg","null","reveal","image-keyboard-response","45","367220","0.0-6.0-4.5","2683117","co37624","norming","","","","","","",""
"null","../img/tt/1235tt.jpg","null","mooney2","image-keyboard-response","46","369225","0.0-6.0-5.5","2683117","co37624","norming","","","","","","",""
"2957.505000000354","","","post_reveal_questions","survey-likert","47","372183","0.0-6.0-6.5","2683117","co37624","norming","","","{""aha"":5}","[0]","../img/tt/1235tt.jpg","",""
"null","<div style=""font-size:60px;""> </div>","null","fixation","html-keyboard-response","48","372388","0.0-6.0-0.6","2683117","co37624","norming","","","","","","",""
"null","../img/tt/1127tt.jpg","null","mooney1","image-keyboard-response","49","375399","0.0-6.0-1.6","2683117","co37624","norming","","","","","","",""
"6277.534999999276","","","post_mooney1_questions","survey-likert","50","381679","0.0-6.0-2.6","2683117","co37624","norming","","","{""curiosity"":4,""confidence"":3}","[0,1]","../img/tt/1127tt.jpg","",""
"3133.9699999998556","","","recognition","survey-text","51","384815","0.0-6.0-3.6","2683117","co37624","norming","","","{""guess"":""teacher""}","","../img/tt/1127tt.jpg","",""
"null","../img/gs/1127gs.jpg","null","reveal","image-keyboard-response","52","386817","0.0-6.0-4.6","2683117","co37624","norming","","","","","","",""
"null","../img/tt/1127tt.jpg","null","mooney2","image-keyboard-response","53","388827","0.0-6.0-5.6","2683117","co37624","norming","","","","","","",""
"4810.000000000407","","","post_reveal_questions","survey-likert","54","393639","0.0-6.0-6.6","2683117","co37624","norming","","","{""aha"":2}","[0]","../img/tt/1127tt.jpg","",""
"null","<div style=""font-size:60px;""> </div>","null","fixation","html-keyboard-response","55","393848","0.0-6.0-0.7","2683117","co37624","norming","","","","","","",""
"null","../img/tt/108tt.jpg","null","mooney1","image-keyboard-response","56","396854","0.0-6.0-1.7","2683117","co37624","norming","","","","","","",""
"5560.604999999632","","","post_mooney1_questions","survey-likert","57","402415","0.0-6.0-2.7","2683117","co37624","norming","","","{""curiosity"":2,""confidence"":0}","[0,1]","../img/tt/108tt.jpg","",""
"1653.8249999994296","","","recognition","survey-text","58","404071","0.0-6.0-3.7","2683117","co37624","norming","","","{""guess"":""""}","","../img/tt/108tt.jpg","",""
"null","../img/gs/108gs.jpg","null","reveal","image-keyboard-response","59","406072","0.0-6.0-4.7","2683117","co37624","norming","","","","","","",""
"null","../img/tt/108tt.jpg","null","mooney2","image-keyboard-response","60","408081","0.0-6.0-5.7","2683117","co37624","norming","","","","","","",""
"2684.8049999998766","","","post_reveal_questions","survey-likert","61","410767","0.0-6.0-6.7","2683117","co37624","norming","","","{""aha"":4}","[0]","../img/tt/108tt.jpg","",""
"null","<div style=""font-size:60px;""> </div>","null","fixation","html-keyboard-response","62","410968","0.0-6.0-0.8","2683117","co37624","norming","","","","","","",""
"null","../img/tt/081tt.jpg","null","mooney1","image-keyboard-response","63","413976","0.0-6.0-1.8","2683117","co37624","norming","","","","","","",""
"7054.589999999735","","","post_mooney1_questions","survey-likert","64","421031","0.0-6.0-2.8","2683117","co37624","norming","","","{""curiosity"":2,""confidence"":3}","[0,1]","../img/tt/081tt.jpg","",""
"3117.9350000002305","","","recognition","survey-text","65","424151","0.0-6.0-3.8","2683117","co37624","norming","","","{""guess"":""frog""}","","../img/tt/081tt.jpg","",""
"null","../img/gs/081gs.jpg","null","reveal","image-keyboard-response","66","426153","0.0-6.0-4.8","2683117","co37624","norming","","","","","","",""
"null","../img/tt/081tt.jpg","null","mooney2","image-keyboard-response","67","428164","0.0-6.0-5.8","2683117","co37624","norming","","","","","","",""
"4434.445000000822","","","post_reveal_questions","survey-likert","68","432600","0.0-6.0-6.8","2683117","co37624","norming","","","{""aha"":1}","[0]","../img/tt/081tt.jpg","",""
"null","<div style=""font-size:60px;""> </div>","null","fixation","html-keyboard-response","69","432806","0.0-6.0-0.9","2683117","co37624","norming","","","","","","",""
"null","../img/tt/222tt.jpg","null","mooney1","image-keyboard-response","70","435816","0.0-6.0-1.9","2683117","co37624","norming","","","","","","",""
"7430.190000000002","","","post_mooney1_questions","survey-likert","71","443249","0.0-6.0-2.9","2683117","co37624","norming","","","{""curiosity"":4,""confidence"":3}","[0,1]","../img/tt/222tt.jpg","",""
"2901.9900000002817","","","recognition","survey-text","72","446152","0.0-6.0-3.9","2683117","co37624","norming","","","{""guess"":""piano man""}","","../img/tt/222tt.jpg","",""
"null","../img/gs/222gs.jpg","null","reveal","image-keyboard-response","73","448155","0.0-6.0-4.9","2683117","co37624","norming","","","","","","",""
"null","../img/tt/222tt.jpg","null","mooney2","image-keyboard-response","74","450156","0.0-6.0-5.9","2683117","co37624","norming","","","","","","",""
"5657.599999999511","","","post_reveal_questions","survey-likert","75","455816","0.0-6.0-6.9","2683117","co37624","norming","","","{""aha"":4}","[0]","../img/tt/222tt.jpg","",""
"null","<div style=""font-size:60px;""> </div>","null","fixation","html-keyboard-response","76","456018","0.0-6.0-0.10","2683117","co37624","norming","","","","","","",""
"null","../img/tt/1125tt.jpg","null","mooney1","image-keyboard-response","77","459024","0.0-6.0-1.10","2683117","co37624","norming","","","","","","",""
"3238.510000000184","","","post_mooney1_questions","survey-likert","78","462265","0.0-6.0-2.10","2683117","co37624","norming","","","{""curiosity"":1,""confidence"":2}","[0,1]","../img/tt/1125tt.jpg","",""
"2702.225000000035","","","recognition","survey-text","79","464968","0.0-6.0-3.10","2683117","co37624","norming","","","{""guess"":""piano kid""}","","../img/tt/1125tt.jpg","",""
"null","../img/gs/1125gs.jpg","null","reveal","image-keyboard-response","80","466972","0.0-6.0-4.10","2683117","co37624","norming","","","","","","",""
"null","../img/tt/1125tt.jpg","null","mooney2","image-keyboard-response","81","468974","0.0-6.0-5.10","2683117","co37624","norming","","","","","","",""
"5952.040000000154","","","post_reveal_questions","survey-likert","82","474928","0.0-6.0-6.10","2683117","co37624","norming","","","{""aha"":5}","[0]","../img/tt/1125tt.jpg","",""
"null","<div style=""font-size:60px;""> </div>","null","fixation","html-keyboard-response","83","475130","0.0-6.0-0.11","2683117","co37624","norming","","","","","","",""
"null","../img/tt/1048tt.jpg","null","mooney1","image-keyboard-response","84","478141","0.0-6.0-1.11","2683117","co37624","norming","","","","","","",""
"3048.504999999772","","","post_mooney1_questions","survey-likert","85","481192","0.0-6.0-2.11","2683117","co37624","norming","","","{""curiosity"":1,""confidence"":1}","[0,1]","../img/tt/1048tt.jpg","",""
"1390.0149999999558","","","recognition","survey-text","86","482584","0.0-6.0-3.11","2683117","co37624","norming","","","{""guess"":""""}","","../img/tt/1048tt.jpg","",""
"null","../img/gs/1048gs.jpg","null","reveal","image-keyboard-response","87","484592","0.0-6.0-4.11","2683117","co37624","norming","","","","","","",""
"null","../img/tt/1048tt.jpg","null","mooney2","image-keyboard-response","88","486603","0.0-6.0-5.11","2683117","co37624","norming","","","","","","",""
"2523.1449999992037","","","post_reveal_questions","survey-likert","89","489124","0.0-6.0-6.11","2683117","co37624","norming","","","{""aha"":4}","[0]","../img/tt/1048tt.jpg","",""
"null","<div style=""font-size:60px;""> </div>","null","fixation","html-keyboard-response","90","489326","0.0-6.0-0.12","2683117","co37624","norming","","","","","","",""
"null","../img/tt/1012tt.jpg","null","mooney1","image-keyboard-response","91","492338","0.0-6.0-1.12","2683117","co37624","norming","","","","","","",""
"3848.140000000014","","","post_mooney1_questions","survey-likert","92","496189","0.0-6.0-2.12","2683117","co37624","norming","","","{""curiosity"":1,""confidence"":0}","[0,1]","../img/tt/1012tt.jpg","",""
"670.1350000003004","","","recognition","survey-text","93","496860","0.0-6.0-3.12","2683117","co37624","norming","","","{""guess"":""""}","","../img/tt/1012tt.jpg","",""
"null","../img/gs/1012gs.jpg","null","reveal","image-keyboard-response","94","498866","0.0-6.0-4.12","2683117","co37624","norming","","","","","","",""
"null","../img/tt/1012tt.jpg","null","mooney2","image-keyboard-response","95","500872","0.0-6.0-5.12","2683117","co37624","norming","","","","","","",""
"2322.0000000001164","","","post_reveal_questions","survey-likert","96","503196","0.0-6.0-6.12","2683117","co37624","norming","","","{""aha"":5}","[0]","../img/tt/1012tt.jpg","",""
"null","<div style=""font-size:60px;""> </div>","null","fixation","html-keyboard-response","97","503405","0.0-6.0-0.13","2683117","co37624","norming","","","","","","",""
"null","../img/tt/1242tt.jpg","null","mooney1","image-keyboard-response","98","506407","0.0-6.0-1.13","2683117","co37624","norming","","","","","","",""
"5106.854999999981","","","post_mooney1_questions","survey-likert","99","511516","0.0-6.0-2.13","2683117","co37624","norming","","","{""curiosity"":4,""confidence"":3}","[0,1]","../img/tt/1242tt.jpg","",""
"2182.2099999999045","","","recognition","survey-text","100","513700","0.0-6.0-3.13","2683117","co37624","norming","","","{""guess"":""dog""}","","../img/tt/1242tt.jpg","",""
"null","../img/gs/1242gs.jpg","null","reveal","image-keyboard-response","101","515703","0.0-6.0-4.13","2683117","co37624","norming","","","","","","",""
"null","../img/tt/1242tt.jpg","null","mooney2","image-keyboard-response","102","517706","0.0-6.0-5.13","2683117","co37624","norming","","","","","","",""
"1839.939999999886","","","post_reveal_questions","survey-likert","103","519548","0.0-6.0-6.13","2683117","co37624","norming","","","{""aha"":4}","[0]","../img/tt/1242tt.jpg","",""
"null","<div style=""font-size:60px;""> </div>","null","fixation","html-keyboard-response","104","519757","0.0-6.0-0.14","2683117","co37624","norming","","","","","","",""
"null","../img/tt/1188tt.jpg","null","mooney1","image-keyboard-response","105","522767","0.0-6.0-1.14","2683117","co37624","norming","","","","","","",""
"3595.2649999998976","","","post_mooney1_questions","survey-likert","106","526365","0.0-6.0-2.14","2683117","co37624","norming","","","{""curiosity"":5,""confidence"":1}","[0,1]","../img/tt/1188tt.jpg","",""
"2518.0050000008196","","","recognition","survey-text","107","528884","0.0-6.0-3.14","2683117","co37624","norming","","","{""guess"":""soldier""}","","../img/tt/1188tt.jpg","",""
"null","../img/gs/1188gs.jpg","null","reveal","image-keyboard-response","108","530888","0.0-6.0-4.14","2683117","co37624","norming","","","","","","",""
"null","../img/tt/1188tt.jpg","null","mooney2","image-keyboard-response","109","532896","0.0-6.0-5.14","2683117","co37624","norming","","","","","","",""
"4058.265000000596","","","post_reveal_questions","survey-likert","110","536956","0.0-6.0-6.14","2683117","co37624","norming","","","{""aha"":4}","[0]","../img/tt/1188tt.jpg","",""
"null","<div style=""font-size:60px;""> </div>","null","fixation","html-keyboard-response","111","537158","0.0-6.0-0.15","2683117","co37624","norming","","","","","","",""
"null","../img/tt/1307tt.jpg","null","mooney1","image-keyboard-response","112","540167","0.0-6.0-1.15","2683117","co37624","norming","","","","","","",""
"5626.545000000042","","","post_mooney1_questions","survey-likert","113","545797","0.0-6.0-2.15","2683117","co37624","norming","","","{""curiosity"":4,""confidence"":1}","[0,1]","../img/tt/1307tt.jpg","",""
"3502.1800000004005","","","recognition","survey-text","114","549307","0.0-6.0-3.15","2683117","co37624","norming","","","{""guess"":""pauw""}","","../img/tt/1307tt.jpg","",""
"null","../img/gs/1307gs.jpg","null","reveal","image-keyboard-response","115","551316","0.0-6.0-4.15","2683117","co37624","norming","","","","","","",""
"null","../img/tt/1307tt.jpg","null","mooney2","image-keyboard-response","116","553321","0.0-6.0-5.15","2683117","co37624","norming","","","","","","",""
"2495.475000000559","","","post_reveal_questions","survey-likert","117","555819","0.0-6.0-6.15","2683117","co37624","norming","","","{""aha"":5}","[0]","../img/tt/1307tt.jpg","",""
"null","<div style=""font-size:60px;""> </div>","null","fixation","html-keyboard-response","118","556021","0.0-6.0-0.16","2683117","co37624","norming","","","","","","",""
"null","../img/tt/1239tt.jpg","null","mooney1","image-keyboard-response","119","559027","0.0-6.0-1.16","2683117","co37624","norming","","","","","","",""
"5772.709999999264","","","post_mooney1_questions","survey-likert","120","564803","0.0-6.0-2.16","2683117","co37624","norming","","","{""curiosity"":4,""confidence"":1}","[0,1]","../img/tt/1239tt.jpg","",""
"1158.155000000028","","","recognition","survey-text","121","565963","0.0-6.0-3.16","2683117","co37624","norming","","","{""guess"":""""}","","../img/tt/1239tt.jpg","",""
"null","../img/gs/1239gs.jpg","null","reveal","image-keyboard-response","122","567969","0.0-6.0-4.16","2683117","co37624","norming","","","","","","",""
"null","../img/tt/1239tt.jpg","null","mooney2","image-keyboard-response","123","569977","0.0-6.0-5.16","2683117","co37624","norming","","","","","","",""
"3289.1650000001537","","","post_reveal_questions","survey-likert","124","573267","0.0-6.0-6.16","2683117","co37624","norming","","","{""aha"":5}","[0]","../img/tt/1239tt.jpg","",""
"null","<div style=""font-size:60px;""> </div>","null","fixation","html-keyboard-response","125","573469","0.0-6.0-0.17","2683117","co37624","norming","","","","","","",""
"null","../img/tt/060tt.jpg","null","mooney1","image-keyboard-response","126","576475","0.0-6.0-1.17","2683117","co37624","norming","","","","","","",""
"5045.164999999455","","","post_mooney1_questions","survey-likert","127","581523","0.0-6.0-2.17","2683117","co37624","norming","","","{""curiosity"":4,""confidence"":0}","[0,1]","../img/tt/060tt.jpg","",""
"934.135000000475","","","recognition","survey-text","128","582459","0.0-6.0-3.17","2683117","co37624","norming","","","{""guess"":""""}","","../img/tt/060tt.jpg","",""
"null","../img/gs/060gs.jpg","null","reveal","image-keyboard-response","129","584464","0.0-6.0-4.17","2683117","co37624","norming","","","","","","",""
"null","../img/tt/060tt.jpg","null","mooney2","image-keyboard-response","130","586473","0.0-6.0-5.17","2683117","co37624","norming","","","","","","",""
"3911.729999999865","","","post_reveal_questions","survey-likert","131","590387","0.0-6.0-6.17","2683117","co37624","norming","","","{""aha"":5}","[0]","../img/tt/060tt.jpg","",""
"null","<div style=""font-size:60px;""> </div>","null","fixation","html-keyboard-response","132","590588","0.0-6.0-0.18","2683117","co37624","norming","","","","","","",""
"null","../img/tt/1189tt.jpg","null","mooney1","image-keyboard-response","133","593599","0.0-6.0-1.18","2683117","co37624","norming","","","","","","",""
"3177.265000000247","","","post_mooney1_questions","survey-likert","134","596779","0.0-6.0-2.18","2683117","co37624","norming","","","{""curiosity"":1,""confidence"":1}","[0,1]","../img/tt/1189tt.jpg","",""
"1333.8649999996414","","","recognition","survey-text","135","598114","0.0-6.0-3.18","2683117","co37624","norming","","","{""guess"":""""}","","../img/tt/1189tt.jpg","",""
"null","../img/gs/1189gs.jpg","null","reveal","image-keyboard-response","136","600121","0.0-6.0-4.18","2683117","co37624","norming","","","","","","",""
"null","../img/tt/1189tt.jpg","null","mooney2","image-keyboard-response","137","602127","0.0-6.0-5.18","2683117","co37624","norming","","","","","","",""
"2641.8750000003492","","","post_reveal_questions","survey-likert","138","604771","0.0-6.0-6.18","2683117","co37624","norming","","","{""aha"":3}","[0]","../img/tt/1189tt.jpg","",""
"null","<div style=""font-size:60px;""> </div>","null","fixation","html-keyboard-response","139","604980","0.0-6.0-0.19","2683117","co37624","norming","","","","","","",""
"null","../img/tt/442tt.jpg","null","mooney1","image-keyboard-response","140","607983","0.0-6.0-1.19","2683117","co37624","norming","","","","","","",""
"3699.1099999995204","","","post_mooney1_questions","survey-likert","141","611684","0.0-6.0-2.19","2683117","co37624","norming","","","{""curiosity"":1,""confidence"":1}","[0,1]","../img/tt/442tt.jpg","",""
"998.0999999998603","","","recognition","survey-text","142","612683","0.0-6.0-3.19","2683117","co37624","norming","","","{""guess"":""""}","","../img/tt/442tt.jpg","",""
"null","../img/gs/442gs.jpg","null","reveal","image-keyboard-response","143","614685","0.0-6.0-4.19","2683117","co37624","norming","","","","","","",""
"null","../img/tt/442tt.jpg","null","mooney2","image-keyboard-response","144","616691","0.0-6.0-5.19","2683117","co37624","norming","","","","","","",""
"2447.2500000001164","","","post_reveal_questions","survey-likert","145","619139","0.0-6.0-6.19","2683117","co37624","norming","","","{""aha"":4}","[0]","../img/tt/442tt.jpg","",""
"null","<div style=""font-size:60px;""> </div>","null","fixation","html-keyboard-response","146","619347","0.0-6.0-0.20","2683117","co37624","norming","","","","","","",""
"null","../img/tt/301tt.jpg","null","mooney1","image-keyboard-response","147","622359","0.0-6.0-1.20","2683117","co37624","norming","","","","","","",""
"4123.105000000563","","","post_mooney1_questions","survey-likert","148","626483","0.0-6.0-2.20","2683117","co37624","norming","","","{""curiosity"":4,""confidence"":0}","[0,1]","../img/tt/301tt.jpg","",""
"966.1350000005914","","","recognition","survey-text","149","627451","0.0-6.0-3.20","2683117","co37624","norming","","","{""guess"":""""}","","../img/tt/301tt.jpg","",""
"null","../img/gs/301gs.jpg","null","reveal","image-keyboard-response","150","629459","0.0-6.0-4.20","2683117","co37624","norming","","","","","","",""
"null","../img/tt/301tt.jpg","null","mooney2","image-keyboard-response","151","631463","0.0-6.0-5.20","2683117","co37624","norming","","","","","","",""
"2090.3399999997346","","","post_reveal_questions","survey-likert","152","633555","0.0-6.0-6.20","2683117","co37624","norming","","","{""aha"":4}","[0]","../img/tt/301tt.jpg","",""
"null","<div style=""font-size:60px;""> </div>","null","fixation","html-keyboard-response","153","633756","0.0-6.0-0.21","2683117","co37624","norming","","","","","","",""
"null","../img/tt/094tt.jpg","null","mooney1","image-keyboard-response","154","636758","0.0-6.0-1.21","2683117","co37624","norming","","","","","","",""
"4924.7150000002","","","post_mooney1_questions","survey-likert","155","641684","0.0-6.0-2.21","2683117","co37624","norming","","","{""curiosity"":2,""confidence"":1}","[0,1]","../img/tt/094tt.jpg","",""
"1166.0449999999255","","","recognition","survey-text","156","642851","0.0-6.0-3.21","2683117","co37624","norming","","","{""guess"":""""}","","../img/tt/094tt.jpg","",""
"null","../img/gs/094gs.jpg","null","reveal","image-keyboard-response","157","644855","0.0-6.0-4.21","2683117","co37624","norming","","","","","","",""
"null","../img/tt/094tt.jpg","null","mooney2","image-keyboard-response","158","646858","0.0-6.0-5.21","2683117","co37624","norming","","","","","","",""
"3630.79999999993","","","post_reveal_questions","survey-likert","159","650491","0.0-6.0-6.21","2683117","co37624","norming","","","{""aha"":4}","[0]","../img/tt/094tt.jpg","",""
"null","<div style=""font-size:60px;""> </div>","null","fixation","html-keyboard-response","160","650693","0.0-6.0-0.22","2683117","co37624","norming","","","","","","",""
"null","../img/tt/1196tt.jpg","null","mooney1","image-keyboard-response","161","653699","0.0-6.0-1.22","2683117","co37624","norming","","","","","","",""
"4957.180000000284","","","post_mooney1_questions","survey-likert","162","658659","0.0-6.0-2.22","2683117","co37624","norming","","","{""curiosity"":4,""confidence"":1}","[0,1]","../img/tt/1196tt.jpg","",""
"1429.9849999997532","","","recognition","survey-text","163","660091","0.0-6.0-3.22","2683117","co37624","norming","","","{""guess"":""""}","","../img/tt/1196tt.jpg","",""
"null","../img/gs/1196gs.jpg","null","reveal","image-keyboard-response","164","662092","0.0-6.0-4.22","2683117","co37624","norming","","","","","","",""
"null","../img/tt/1196tt.jpg","null","mooney2","image-keyboard-response","165","664095","0.0-6.0-5.22","2683117","co37624","norming","","","","","","",""
"3651.859999999986","","","post_reveal_questions","survey-likert","166","667747","0.0-6.0-6.22","2683117","co37624","norming","","","{""aha"":4}","[0]","../img/tt/1196tt.jpg","",""
"null","<div style=""font-size:60px;""> </div>","null","fixation","html-keyboard-response","167","667950","0.0-6.0-0.23","2683117","co37624","norming","","","","","","",""
"null","../img/tt/1279tt.jpg","null","mooney1","image-keyboard-response","168","670958","0.0-6.0-1.23","2683117","co37624","norming","","","","","","",""
"5060.520000000019","","","post_mooney1_questions","survey-likert","169","676020","0.0-6.0-2.23","2683117","co37624","norming","","","{""curiosity"":2,""confidence"":0}","[0,1]","../img/tt/1279tt.jpg","",""
"742.320000000298","","","recognition","survey-text","170","676764","0.0-6.0-3.23","2683117","co37624","norming","","","{""guess"":""""}","","../img/tt/1279tt.jpg","",""
"null","../img/gs/1279gs.jpg","null","reveal","image-keyboard-response","171","678772","0.0-6.0-4.23","2683117","co37624","norming","","","","","","",""
"null","../img/tt/1279tt.jpg","null","mooney2","image-keyboard-response","172","680775","0.0-6.0-5.23","2683117","co37624","norming","","","","","","",""
"1617.7900000001537","","","post_reveal_questions","survey-likert","173","682396","0.0-6.0-6.23","2683117","co37624","norming","","","{""aha"":4}","[0]","../img/tt/1279tt.jpg","",""
"null","<div style=""font-size:60px;""> </div>","null","fixation","html-keyboard-response","174","682597","0.0-6.0-0.24","2683117","co37624","norming","","","","","","",""
"null","../img/tt/1250tt.jpg","null","mooney1","image-keyboard-response","175","685600","0.0-6.0-1.24","2683117","co37624","norming","","","","","","",""
"3329.314999999944","","","post_mooney1_questions","survey-likert","176","688932","0.0-6.0-2.24","2683117","co37624","norming","","","{""curiosity"":1,""confidence"":1}","[0,1]","../img/tt/1250tt.jpg","",""
"8614.305000000051","","","recognition","survey-text","177","697548","0.0-6.0-3.24","2683117","co37624","norming","","","{""guess"":""floor""}","","../img/tt/1250tt.jpg","",""
"null","../img/gs/1250gs.jpg","null","reveal","image-keyboard-response","178","699556","0.0-6.0-4.24","2683117","co37624","norming","","","","","","",""
"null","../img/tt/1250tt.jpg","null","mooney2","image-keyboard-response","179","701564","0.0-6.0-5.24","2683117","co37624","norming","","","","","","",""
"4957.214999999502","","","post_reveal_questions","survey-likert","180","706524","0.0-6.0-6.24","2683117","co37624","norming","","","{""aha"":2}","[0]","../img/tt/1250tt.jpg","",""
"null","<div style=""font-size:60px;""> </div>","null","fixation","html-keyboard-response","181","706730","0.0-6.0-0.25","2683117","co37624","norming","","","","","","",""
"null","../img/tt/049tt.jpg","null","mooney1","image-keyboard-response","182","709733","0.0-6.0-1.25","2683117","co37624","norming","","","","","","",""
"3618.9550000008894","","","post_mooney1_questions","survey-likert","183","713356","0.0-6.0-2.25","2683117","co37624","norming","","","{""curiosity"":1,""confidence"":1}","[0,1]","../img/tt/049tt.jpg","",""
"934.0499999998137","","","recognition","survey-text","184","714292","0.0-6.0-3.25","2683117","co37624","norming","","","{""guess"":""""}","","../img/tt/049tt.jpg","",""
"null","../img/gs/049gs.jpg","null","reveal","image-keyboard-response","185","716298","0.0-6.0-4.25","2683117","co37624","norming","","","","","","",""
"null","../img/tt/049tt.jpg","null","mooney2","image-keyboard-response","186","718305","0.0-6.0-5.25","2683117","co37624","norming","","","","","","",""
"1824.8100000000559","","","post_reveal_questions","survey-likert","187","720132","0.0-6.0-6.25","2683117","co37624","norming","","","{""aha"":4}","[0]","../img/tt/049tt.jpg","",""
"null","<div style=""font-size:60px;""> </div>","null","fixation","html-keyboard-response","188","720338","0.0-6.0-0.26","2683117","co37624","norming","","","","","","",""
"null","../img/tt/522tt.jpg","null","mooney1","image-keyboard-response","189","723342","0.0-6.0-1.26","2683117","co37624","norming","","","","","","",""
"5979.495000000461","","","post_mooney1_questions","survey-likert","190","729324","0.0-6.0-2.26","2683117","co37624","norming","","","{""curiosity"":2,""confidence"":0}","[0,1]","../img/tt/522tt.jpg","",""
"814.0750000001863","","","recognition","survey-text","191","730140","0.0-6.0-3.26","2683117","co37624","norming","","","{""guess"":""""}","","../img/tt/522tt.jpg","",""
"null","../img/gs/522gs.jpg","null","reveal","image-keyboard-response","192","732142","0.0-6.0-4.26","2683117","co37624","norming","","","","","","",""
"null","../img/tt/522tt.jpg","null","mooney2","image-keyboard-response","193","734151","0.0-6.0-5.26","2683117","co37624","norming","","","","","","",""
"2842.9550000000745","","","post_reveal_questions","survey-likert","194","736996","0.0-6.0-6.26","2683117","co37624","norming","","","{""aha"":2}","[0]","../img/tt/522tt.jpg","",""
"null","<div style=""font-size:60px;""> </div>","null","fixation","html-keyboard-response","195","737198","0.0-6.0-0.27","2683117","co37624","norming","","","","","","",""
"null","../img/tt/1078tt.jpg","null","mooney1","image-keyboard-response","196","740205","0.0-6.0-1.27","2683117","co37624","norming","","","","","","",""
"5012.995000000112","","","post_mooney1_questions","survey-likert","197","745220","0.0-6.0-2.27","2683117","co37624","norming","","","{""curiosity"":2,""confidence"":5}","[0,1]","../img/tt/1078tt.jpg","",""
"3366.2450000001118","","","recognition","survey-text","198","748588","0.0-6.0-3.27","2683117","co37624","norming","","","{""guess"":""skater""}","","../img/tt/1078tt.jpg","",""
"null","../img/gs/1078gs.jpg","null","reveal","image-keyboard-response","199","750590","0.0-6.0-4.27","2683117","co37624","norming","","","","","","",""
"null","../img/tt/1078tt.jpg","null","mooney2","image-keyboard-response","200","752596","0.0-6.0-5.27","2683117","co37624","norming","","","","","","",""
"3821.9600000001956","","","post_reveal_questions","survey-likert","201","756420","0.0-6.0-6.27","2683117","co37624","norming","","","{""aha"":3}","[0]","../img/tt/1078tt.jpg","",""
"null","<div style=""font-size:60px;""> </div>","null","fixation","html-keyboard-response","202","756621","0.0-6.0-0.28","2683117","co37624","norming","","","","","","",""
"null","../img/tt/1205tt.jpg","null","mooney1","image-keyboard-response","203","759626","0.0-6.0-1.28","2683117","co37624","norming","","","","","","",""
"6455.98000000068","","","post_mooney1_questions","survey-likert","204","766084","0.0-6.0-2.28","2683117","co37624","norming","","","{""curiosity"":4,""confidence"":1}","[0,1]","../img/tt/1205tt.jpg","",""
"2150.2649999993155","","","recognition","survey-text","205","768236","0.0-6.0-3.28","2683117","co37624","norming","","","{""guess"":""church""}","","../img/tt/1205tt.jpg","",""
"null","../img/gs/1205gs.jpg","null","reveal","image-keyboard-response","206","770246","0.0-6.0-4.28","2683117","co37624","norming","","","","","","",""
"null","../img/tt/1205tt.jpg","null","mooney2","image-keyboard-response","207","772247","0.0-6.0-5.28","2683117","co37624","norming","","","","","","",""
"2554.439999999944","","","post_reveal_questions","survey-likert","208","774804","0.0-6.0-6.28","2683117","co37624","norming","","","{""aha"":3}","[0]","../img/tt/1205tt.jpg","",""
"null","<div style=""font-size:60px;""> </div>","null","fixation","html-keyboard-response","209","775010","0.0-6.0-0.29","2683117","co37624","norming","","","","","","",""
"null","../img/tt/1283tt.jpg","null","mooney1","image-keyboard-response","210","778013","0.0-6.0-1.29","2683117","co37624","norming","","","","","","",""
"4430.339999999967","","","post_mooney1_questions","survey-likert","211","782444","0.0-6.0-2.29","2683117","co37624","norming","","","{""curiosity"":1,""confidence"":1}","[0,1]","../img/tt/1283tt.jpg","",""
"1382.0850000001956","","","recognition","survey-text","212","783828","0.0-6.0-3.29","2683117","co37624","norming","","","{""guess"":""""}","","../img/tt/1283tt.jpg","",""
"null","../img/gs/1283gs.jpg","null","reveal","image-keyboard-response","213","785834","0.0-6.0-4.29","2683117","co37624","norming","","","","","","",""
"null","../img/tt/1283tt.jpg","null","mooney2","image-keyboard-response","214","787843","0.0-6.0-5.29","2683117","co37624","norming","","","","","","",""
"3103.089999999618","","","post_reveal_questions","survey-likert","215","790948","0.0-6.0-6.29","2683117","co37624","norming","","","{""aha"":2}","[0]","../img/tt/1283tt.jpg","",""
"null","<div style=""font-size:60px;""> </div>","null","fixation","html-keyboard-response","216","791149","0.0-6.0-0.30","2683117","co37624","norming","","","","","","",""
"null","../img/tt/123tt.jpg","null","mooney1","image-keyboard-response","217","794152","0.0-6.0-1.30","2683117","co37624","norming","","","","","","",""
"4581.210000000312","","","post_mooney1_questions","survey-likert","218","798736","0.0-6.0-2.30","2683117","co37624","norming","","","{""curiosity"":2,""confidence"":4}","[0,1]","../img/tt/123tt.jpg","",""
"2310.165000000852","","","recognition","survey-text","219","801047","0.0-6.0-3.30","2683117","co37624","norming","","","{""guess"":""suitcase""}","","../img/tt/123tt.jpg","",""
"null","../img/gs/123gs.jpg","null","reveal","image-keyboard-response","220","803050","0.0-6.0-4.30","2683117","co37624","norming","","","","","","",""
"null","../img/tt/123tt.jpg","null","mooney2","image-keyboard-response","221","805052","0.0-6.0-5.30","2683117","co37624","norming","","","","","","",""
"3145.1200000001118","","","post_reveal_questions","survey-likert","222","808199","0.0-6.0-6.30","2683117","co37624","norming","","","{""aha"":3}","[0]","../img/tt/123tt.jpg","",""
"null","<div style=""font-size:60px;""> </div>","null","fixation","html-keyboard-response","223","808410","0.0-6.0-0.31","2683117","co37624","norming","","","","","","",""
"null","../img/tt/1006tt.jpg","null","mooney1","image-keyboard-response","224","811423","0.0-6.0-1.31","2683117","co37624","norming","","","","","","",""
"3325.4299999998184","","","post_mooney1_questions","survey-likert","225","814752","0.0-6.0-2.31","2683117","co37624","norming","","","{""curiosity"":2,""confidence"":4}","[0,1]","../img/tt/1006tt.jpg","",""
"1718.1900000005262","","","recognition","survey-text","226","816471","0.0-6.0-3.31","2683117","co37624","norming","","","{""guess"":""sheep""}","","../img/tt/1006tt.jpg","",""
"null","../img/gs/1006gs.jpg","null","reveal","image-keyboard-response","227","818475","0.0-6.0-4.31","2683117","co37624","norming","","","","","","",""
"null","../img/tt/1006tt.jpg","null","mooney2","image-keyboard-response","228","820481","0.0-6.0-5.31","2683117","co37624","norming","","","","","","",""
"5707.6349999997765","","","post_reveal_questions","survey-likert","229","826191","0.0-6.0-6.31","2683117","co37624","norming","","","{""aha"":3}","[0]","../img/tt/1006tt.jpg","",""
"null","<div style=""font-size:60px;""> </div>","null","fixation","html-keyboard-response","230","826393","0.0-6.0-0.32","2683117","co37624","norming","","","","","","",""
"null","../img/tt/1080tt.jpg","null","mooney1","image-keyboard-response","231","829396","0.0-6.0-1.32","2683117","co37624","norming","","","","","","",""
"5887.324999999721","","","post_mooney1_questions","survey-likert","232","835287","0.0-6.0-2.32","2683117","co37624","norming","","","{""curiosity"":2,""confidence"":5}","[0,1]","../img/tt/1080tt.jpg","",""
"1982.1950000005309","","","recognition","survey-text","233","837271","0.0-6.0-3.32","2683117","co37624","norming","","","{""guess"":""sheep""}","","../img/tt/1080tt.jpg","",""
"null","../img/gs/1080gs.jpg","null","reveal","image-keyboard-response","234","839280","0.0-6.0-4.32","2683117","co37624","norming","","","","","","",""
"null","../img/tt/1080tt.jpg","null","mooney2","image-keyboard-response","235","841284","0.0-6.0-5.32","2683117","co37624","norming","","","","","","",""
"2384.694999999716","","","post_reveal_questions","survey-likert","236","843671","0.0-6.0-6.32","2683117","co37624","norming","","","{""aha"":1}","[0]","../img/tt/1080tt.jpg","",""
"null","<div style=""font-size:60px;""> </div>","null","fixation","html-keyboard-response","237","843874","0.0-6.0-0.33","2683117","co37624","norming","","","","","","",""
"null","../img/tt/008tt.jpg","null","mooney1","image-keyboard-response","238","846875","0.0-6.0-1.33","2683117","co37624","norming","","","","","","",""
"4803.784999999218","","","post_mooney1_questions","survey-likert","239","851679","0.0-6.0-2.33","2683117","co37624","norming","","","{""curiosity"":4,""confidence"":0}","[0,1]","../img/tt/008tt.jpg","",""
"645.819999999716","","","recognition","survey-text","240","852327","0.0-6.0-3.33","2683117","co37624","norming","","","{""guess"":""""}","","../img/tt/008tt.jpg","",""
"null","../img/gs/008gs.jpg","null","reveal","image-keyboard-response","241","854335","0.0-6.0-4.33","2683117","co37624","norming","","","","","","",""
"null","../img/tt/008tt.jpg","null","mooney2","image-keyboard-response","242","856336","0.0-6.0-5.33","2683117","co37624","norming","","","","","","",""
"2563.889999999432","","","post_reveal_questions","survey-likert","243","858901","0.0-6.0-6.33","2683117","co37624","norming","","","{""aha"":3}","[0]","../img/tt/008tt.jpg","",""
"null","<div style=""font-size:60px;""> </div>","null","fixation","html-keyboard-response","244","859110","0.0-6.0-0.34","2683117","co37624","norming","","","","","","",""
"null","../img/tt/1061tt.jpg","null","mooney1","image-keyboard-response","245","862115","0.0-6.0-1.34","2683117","co37624","norming","","","","","","",""
"6057.290000000619","","","post_mooney1_questions","survey-likert","246","868173","0.0-6.0-2.34","2683117","co37624","norming","","","{""curiosity"":4,""confidence"":0}","[0,1]","../img/tt/1061tt.jpg","",""
"3805.8750000001164","","","recognition","survey-text","247","871981","0.0-6.0-3.34","2683117","co37624","norming","","","{""guess"":""sailors""}","","../img/tt/1061tt.jpg","",""
"null","../img/gs/1061gs.jpg","null","reveal","image-keyboard-response","248","873982","0.0-6.0-4.34","2683117","co37624","norming","","","","","","",""
"null","../img/tt/1061tt.jpg","null","mooney2","image-keyboard-response","249","875991","0.0-6.0-5.34","2683117","co37624","norming","","","","","","",""
"2308.535000000149","","","post_reveal_questions","survey-likert","250","878301","0.0-6.0-6.34","2683117","co37624","norming","","","{""aha"":3}","[0]","../img/tt/1061tt.jpg","",""
"null","<div style=""font-size:60px;""> </div>","null","fixation","html-keyboard-response","251","878507","0.0-6.0-0.35","2683117","co37624","norming","","","","","","",""
"null","../img/tt/135tt.jpg","null","mooney1","image-keyboard-response","252","881509","0.0-6.0-1.35","2683117","co37624","norming","","","","","","",""
"6239.690000000293","","","post_mooney1_questions","survey-likert","253","887749","0.0-6.0-2.35","2683117","co37624","norming","","","{""curiosity"":1,""confidence"":6}","[0,1]","../img/tt/135tt.jpg","",""
"5125.82500000007","","","recognition","survey-text","254","892877","0.0-6.0-3.35","2683117","co37624","norming","","","{""guess"":""toilet""}","","../img/tt/135tt.jpg","",""
"null","../img/gs/135gs.jpg","null","reveal","image-keyboard-response","255","894883","0.0-6.0-4.35","2683117","co37624","norming","","","","","","",""
"null","../img/tt/135tt.jpg","null","mooney2","image-keyboard-response","256","896890","0.0-6.0-5.35","2683117","co37624","norming","","","","","","",""
"4177.834999999497","","","post_reveal_questions","survey-likert","257","901069","0.0-6.0-6.35","2683117","co37624","norming","","","{""aha"":1}","[0]","../img/tt/135tt.jpg","",""
"null","<div style=""font-size:60px;""> </div>","null","fixation","html-keyboard-response","258","901279","0.0-6.0-0.36","2683117","co37624","norming","","","","","","",""
"null","../img/tt/105tt.jpg","null","mooney1","image-keyboard-response","259","904281","0.0-6.0-1.36","2683117","co37624","norming","","","","","","",""
"3594.734999999753","","","post_mooney1_questions","survey-likert","260","907877","0.0-6.0-2.36","2683117","co37624","norming","","","{""curiosity"":2,""confidence"":5}","[0,1]","../img/tt/105tt.jpg","",""
"2486.0650000000605","","","recognition","survey-text","261","910365","0.0-6.0-3.36","2683117","co37624","norming","","","{""guess"":""paperclips""}","","../img/tt/105tt.jpg","",""
"null","../img/gs/105gs.jpg","null","reveal","image-keyboard-response","262","912367","0.0-6.0-4.36","2683117","co37624","norming","","","","","","",""
"null","../img/tt/105tt.jpg","null","mooney2","image-keyboard-response","263","914369","0.0-6.0-5.36","2683117","co37624","norming","","","","","","",""
"2651.5199999994365","","","post_reveal_questions","survey-likert","264","917021","0.0-6.0-6.36","2683117","co37624","norming","","","{""aha"":3}","[0]","../img/tt/105tt.jpg","",""
"null","<div style=""font-size:60px;""> </div>","null","fixation","html-keyboard-response","265","917227","0.0-6.0-0.37","2683117","co37624","norming","","","","","","",""
"null","../img/tt/1268tt.jpg","null","mooney1","image-keyboard-response","266","920228","0.0-6.0-1.37","2683117","co37624","norming","","","","","","",""
"3768.5149999996647","","","post_mooney1_questions","survey-likert","267","923997","0.0-6.0-2.37","2683117","co37624","norming","","","{""curiosity"":0,""confidence"":0}","[0,1]","../img/tt/1268tt.jpg","",""
"758.3450000000885","","","recognition","survey-text","268","924757","0.0-6.0-3.37","2683117","co37624","norming","","","{""guess"":""""}","","../img/tt/1268tt.jpg","",""
"null","../img/gs/1268gs.jpg","null","reveal","image-keyboard-response","269","926759","0.0-6.0-4.37","2683117","co37624","norming","","","","","","",""
"null","../img/tt/1268tt.jpg","null","mooney2","image-keyboard-response","270","928759","0.0-6.0-5.37","2683117","co37624","norming","","","","","","",""
"3132.810000000056","","","post_reveal_questions","survey-likert","271","931893","0.0-6.0-6.37","2683117","co37624","norming","","","{""aha"":5}","[0]","../img/tt/1268tt.jpg","",""
"null","<div style=""font-size:60px;""> </div>","null","fixation","html-keyboard-response","272","932098","0.0-6.0-0.38","2683117","co37624","norming","","","","","","",""
"null","../img/tt/1243tt.jpg","null","mooney1","image-keyboard-response","273","935100","0.0-6.0-1.38","2683117","co37624","norming","","","","","","",""
"5015.895000000484","","","post_mooney1_questions","survey-likert","274","940117","0.0-6.0-2.38","2683117","co37624","norming","","","{""curiosity"":1,""confidence"":0}","[0,1]","../img/tt/1243tt.jpg","",""
"2197.6450000002515","","","recognition","survey-text","275","942317","0.0-6.0-3.38","2683117","co37624","norming","","","{""guess"":""fence""}","","../img/tt/1243tt.jpg","",""
"null","../img/gs/1243gs.jpg","null","reveal","image-keyboard-response","276","944320","0.0-6.0-4.38","2683117","co37624","norming","","","","","","",""
"null","../img/tt/1243tt.jpg","null","mooney2","image-keyboard-response","277","946323","0.0-6.0-5.38","2683117","co37624","norming","","","","","","",""
"4120.59499999939","","","post_reveal_questions","survey-likert","278","950445","0.0-6.0-6.38","2683117","co37624","norming","","","{""aha"":1}","[0]","../img/tt/1243tt.jpg","",""
"null","<div style=""font-size:60px;""> </div>","null","fixation","html-keyboard-response","279","950648","0.0-6.0-0.39","2683117","co37624","norming","","","","","","",""
"null","../img/tt/1261tt.jpg","null","mooney1","image-keyboard-response","280","953651","0.0-6.0-1.39","2683117","co37624","norming","","","","","","",""
"4361.289999999804","","","post_mooney1_questions","survey-likert","281","958013","0.0-6.0-2.39","2683117","co37624","norming","","","{""curiosity"":4,""confidence"":1}","[0,1]","../img/tt/1261tt.jpg","",""
"3006.0849999999627","","","recognition","survey-text","282","961021","0.0-6.0-3.39","2683117","co37624","norming","","","{""guess"":""animal""}","","../img/tt/1261tt.jpg","",""
"null","../img/gs/1261gs.jpg","null","reveal","image-keyboard-response","283","963022","0.0-6.0-4.39","2683117","co37624","norming","","","","","","",""
"null","../img/tt/1261tt.jpg","null","mooney2","image-keyboard-response","284","965027","0.0-6.0-5.39","2683117","co37624","norming","","","","","","",""
"3368.8950000004843","","","post_reveal_questions","survey-likert","285","968397","0.0-6.0-6.39","2683117","co37624","norming","","","{""aha"":4}","[0]","../img/tt/1261tt.jpg","",""
"null","<div style=""font-size:60px;""> </div>","null","fixation","html-keyboard-response","286","968598","0.0-6.0-0.40","2683117","co37624","norming","","","","","","",""
"null","../img/tt/1142tt.jpg","null","mooney1","image-keyboard-response","287","971608","0.0-6.0-1.40","2683117","co37624","norming","","","","","","",""
"3748.714999999618","","","post_mooney1_questions","survey-likert","288","975350","0.0-6.0-2.40","2683117","co37624","norming","","","{""curiosity"":1,""confidence"":3}","[0,1]","../img/tt/1142tt.jpg","",""
"4205.9150000003865","","","recognition","survey-text","289","979558","0.0-6.0-3.40","2683117","co37624","norming","","","{""guess"":""athlete""}","","../img/tt/1142tt.jpg","",""
"null","../img/gs/1142gs.jpg","null","reveal","image-keyboard-response","290","981560","0.0-6.0-4.40","2683117","co37624","norming","","","","","","",""
"null","../img/tt/1142tt.jpg","null","mooney2","image-keyboard-response","291","983570","0.0-6.0-5.40","2683117","co37624","norming","","","","","","",""
"2682.9250000000466","","","post_reveal_questions","survey-likert","292","986254","0.0-6.0-6.40","2683117","co37624","norming","","","{""aha"":3}","[0]","../img/tt/1142tt.jpg","",""
"null","<div style=""font-size:60px;""> </div>","null","fixation","html-keyboard-response","293","986463","0.0-6.0-0.41","2683117","co37624","norming","","","","","","",""
"null","../img/tt/1362tt.jpg","null","mooney1","image-keyboard-response","294","989470","0.0-6.0-1.41","2683117","co37624","norming","","","","","","",""
"4814.629999999772","","","post_mooney1_questions","survey-likert","295","994286","0.0-6.0-2.41","2683117","co37624","norming","","","{""curiosity"":1,""confidence"":4}","[0,1]","../img/tt/1362tt.jpg","",""
"2310.21999999939","","","recognition","survey-text","296","996598","0.0-6.0-3.41","2683117","co37624","norming","","","{""guess"":""kitchen""}","","../img/tt/1362tt.jpg","",""
"null","../img/gs/1362gs.jpg","null","reveal","image-keyboard-response","297","998601","0.0-6.0-4.41","2683117","co37624","norming","","","","","","",""
"null","../img/tt/1362tt.jpg","null","mooney2","image-keyboard-response","298","1000603","0.0-6.0-5.41","2683117","co37624","norming","","","","","","",""
"4450.494999999995","","","post_reveal_questions","survey-likert","299","1005054","0.0-6.0-6.41","2683117","co37624","norming","","","{""aha"":2}","[0]","../img/tt/1362tt.jpg","",""
"null","<div style=""font-size:60px;""> </div>","null","fixation","html-keyboard-response","300","1005259","0.0-6.0-0.42","2683117","co37624","norming","","","","","","",""
"null","../img/tt/306tt.jpg","null","mooney1","image-keyboard-response","301","1008262","0.0-6.0-1.42","2683117","co37624","norming","","","","","","",""
"4879.790000000037","","","post_mooney1_questions","survey-likert","302","1013143","0.0-6.0-2.42","2683117","co37624","norming","","","{""curiosity"":2,""confidence"":1}","[0,1]","../img/tt/306tt.jpg","",""
"1205.6999999994878","","","recognition","survey-text","303","1014350","0.0-6.0-3.42","2683117","co37624","norming","","","{""guess"":""""}","","../img/tt/306tt.jpg","",""
"null","../img/gs/306gs.jpg","null","reveal","image-keyboard-response","304","1016355","0.0-6.0-4.42","2683117","co37624","norming","","","","","","",""
"null","../img/tt/306tt.jpg","null","mooney2","image-keyboard-response","305","1018362","0.0-6.0-5.42","2683117","co37624","norming","","","","","","",""
"3330.9099999996834","","","post_reveal_questions","survey-likert","306","1021695","0.0-6.0-6.42","2683117","co37624","norming","","","{""aha"":3}","[0]","../img/tt/306tt.jpg","",""
"null","<div style=""font-size:60px;""> </div>","null","fixation","html-keyboard-response","307","1021901","0.0-6.0-0.43","2683117","co37624","norming","","","","","","",""
"null","../img/tt/032tt.jpg","null","mooney1","image-keyboard-response","308","1024903","0.0-6.0-1.43","2683117","co37624","norming","","","","","","",""
"10094.805000000633","","","post_mooney1_questions","survey-likert","309","1035000","0.0-6.0-2.43","2683117","co37624","norming","","","{""curiosity"":1,""confidence"":5}","[0,1]","../img/tt/032tt.jpg","",""
"2557.684999999823","","","recognition","survey-text","310","1037560","0.0-6.0-3.43","2683117","co37624","norming","","","{""guess"":""pig""}","","../img/tt/032tt.jpg","",""
"null","../img/gs/032gs.jpg","null","reveal","image-keyboard-response","311","1039564","0.0-6.0-4.43","2683117","co37624","norming","","","","","","",""
"null","../img/tt/032tt.jpg","null","mooney2","image-keyboard-response","312","1041567","0.0-6.0-5.43","2683117","co37624","norming","","","","","","",""
"4680.444999999949","","","post_reveal_questions","survey-likert","313","1046248","0.0-6.0-6.43","2683117","co37624","norming","","","{""aha"":1}","[0]","../img/tt/032tt.jpg","",""
"null","<div style=""font-size:60px;""> </div>","null","fixation","html-keyboard-response","314","1046459","0.0-6.0-0.44","2683117","co37624","norming","","","","","","",""
"null","../img/tt/497tt.jpg","null","mooney1","image-keyboard-response","315","1049464","0.0-6.0-1.44","2683117","co37624","norming","","","","","","",""
"3479.06500000041","","","post_mooney1_questions","survey-likert","316","1052944","0.0-6.0-2.44","2683117","co37624","norming","","","{""curiosity"":1,""confidence"":1}","[0,1]","../img/tt/497tt.jpg","",""
"2518.385000000242","","","recognition","survey-text","317","1055464","0.0-6.0-3.44","2683117","co37624","norming","","","{""guess"":""violin""}","","../img/tt/497tt.jpg","",""
"null","../img/gs/497gs.jpg","null","reveal","image-keyboard-response","318","1057466","0.0-6.0-4.44","2683117","co37624","norming","","","","","","",""
"null","../img/tt/497tt.jpg","null","mooney2","image-keyboard-response","319","1059468","0.0-6.0-5.44","2683117","co37624","norming","","","","","","",""
"2666.739999999758","","","post_reveal_questions","survey-likert","320","1062136","0.0-6.0-6.44","2683117","co37624","norming","","","{""aha"":1}","[0]","../img/tt/497tt.jpg","",""
"null","<div style=""font-size:60px;""> </div>","null","fixation","html-keyboard-response","321","1062341","0.0-6.0-0.45","2683117","co37624","norming","","","","","","",""
"null","../img/tt/121tt.jpg","null","mooney1","image-keyboard-response","322","1065344","0.0-6.0-1.45","2683117","co37624","norming","","","","","","",""
"13830.714999999851","","","post_mooney1_questions","survey-likert","323","1079176","0.0-6.0-2.45","2683117","co37624","norming","","","{""curiosity"":1,""confidence"":2}","[0,1]","../img/tt/121tt.jpg","",""
"1173.8850000002421","","","recognition","survey-text","324","1080352","0.0-6.0-3.45","2683117","co37624","norming","","","{""guess"":""""}","","../img/tt/121tt.jpg","",""
"null","../img/gs/121gs.jpg","null","reveal","image-keyboard-response","325","1082362","0.0-6.0-4.45","2683117","co37624","norming","","","","","","",""
"null","../img/tt/121tt.jpg","null","mooney2","image-keyboard-response","326","1084368","0.0-6.0-5.45","2683117","co37624","norming","","","","","","",""
"2046.8700000001118","","","post_reveal_questions","survey-likert","327","1086416","0.0-6.0-6.45","2683117","co37624","norming","","","{""aha"":1}","[0]","../img/tt/121tt.jpg","",""
"null","<div style=""font-size:60px;""> </div>","null","fixation","html-keyboard-response","328","1086617","0.0-6.0-0.46","2683117","co37624","norming","","","","","","",""
"null","../img/tt/091tt.jpg","null","mooney1","image-keyboard-response","329","1089620","0.0-6.0-1.46","2683117","co37624","norming","","","","","","",""
"2978.7950000001583","","","post_mooney1_questions","survey-likert","330","1092600","0.0-6.0-2.46","2683117","co37624","norming","","","{""curiosity"":1,""confidence"":1}","[0,1]","../img/tt/091tt.jpg","",""
"2638.2400000002235","","","recognition","survey-text","331","1095240","0.0-6.0-3.46","2683117","co37624","norming","","","{""guess"":""animal""}","","../img/tt/091tt.jpg","",""
"null","../img/gs/091gs.jpg","null","reveal","image-keyboard-response","332","1097244","0.0-6.0-4.46","2683117","co37624","norming","","","","","","",""
"null","../img/tt/091tt.jpg","null","mooney2","image-keyboard-response","333","1099248","0.0-6.0-5.46","2683117","co37624","norming","","","","","","",""
"2287.0750000001863","","","post_reveal_questions","survey-likert","334","1101536","0.0-6.0-6.46","2683117","co37624","norming","","","{""aha"":2}","[0]","../img/tt/091tt.jpg","",""
"null","<div style=""font-size:60px;""> </div>","null","fixation","html-keyboard-response","335","1101744","0.0-6.0-0.47","2683117","co37624","norming","","","","","","",""
"null","../img/tt/080tt.jpg","null","mooney1","image-keyboard-response","336","1104747","0.0-6.0-1.47","2683117","co37624","norming","","","","","","",""
"4380.215000000084","","","post_mooney1_questions","survey-likert","337","1109128","0.0-6.0-2.47","2683117","co37624","norming","","","{""curiosity"":3,""confidence"":1}","[0,1]","../img/tt/080tt.jpg","",""
"2477.8749999995343","","","recognition","survey-text","338","1111608","0.0-6.0-3.47","2683117","co37624","norming","","","{""guess"":""egg""}","","../img/tt/080tt.jpg","",""
"null","../img/gs/080gs.jpg","null","reveal","image-keyboard-response","339","1113609","0.0-6.0-4.47","2683117","co37624","norming","","","","","","",""
"null","../img/tt/080tt.jpg","null","mooney2","image-keyboard-response","340","1115619","0.0-6.0-5.47","2683117","co37624","norming","","","","","","",""
"3107.5400000000373","","","post_reveal_questions","survey-likert","341","1118728","0.0-6.0-6.47","2683117","co37624","norming","","","{""aha"":3}","[0]","../img/tt/080tt.jpg","",""
"null","<div style=""font-size:60px;""> </div>","null","fixation","html-keyboard-response","342","1118937","0.0-6.0-0.48","2683117","co37624","norming","","","","","","",""
"null","../img/tt/1363tt.jpg","null","mooney1","image-keyboard-response","343","1121940","0.0-6.0-1.48","2683117","co37624","norming","","","","","","",""
"3483.0849999999627","","","post_mooney1_questions","survey-likert","344","1125424","0.0-6.0-2.48","2683117","co37624","norming","","","{""curiosity"":2,""confidence"":4}","[0,1]","../img/tt/1363tt.jpg","",""
"1798.130000000121","","","recognition","survey-text","345","1127224","0.0-6.0-3.48","2683117","co37624","norming","","","{""guess"":""cup""}","","../img/tt/1363tt.jpg","",""
"null","../img/gs/1363gs.jpg","null","reveal","image-keyboard-response","346","1129234","0.0-6.0-4.48","2683117","co37624","norming","","","","","","",""
"null","../img/tt/1363tt.jpg","null","mooney2","image-keyboard-response","347","1131243","0.0-6.0-5.48","2683117","co37624","norming","","","","","","",""
"2403.7849999994505","","","post_reveal_questions","survey-likert","348","1133648","0.0-6.0-6.48","2683117","co37624","norming","","","{""aha"":3}","[0]","../img/tt/1363tt.jpg","",""
"null","<div style=""font-size:60px;""> </div>","null","fixation","html-keyboard-response","349","1133858","0.0-6.0-0.49","2683117","co37624","norming","","","","","","",""
"null","../img/tt/1278tt.jpg","null","mooney1","image-keyboard-response","350","1136859","0.0-6.0-1.49","2683117","co37624","norming","","","","","","",""
"3028.2450000003446","","","post_mooney1_questions","survey-likert","351","1139888","0.0-6.0-2.49","2683117","co37624","norming","","","{""curiosity"":1,""confidence"":1}","[0,1]","../img/tt/1278tt.jpg","",""
"2085.820000000065","","","recognition","survey-text","352","1141976","0.0-6.0-3.49","2683117","co37624","norming","","","{""guess"":""dog""}","","../img/tt/1278tt.jpg","",""
"null","../img/gs/1278gs.jpg","null","reveal","image-keyboard-response","353","1143977","0.0-6.0-4.49","2683117","co37624","norming","","","","","","",""
"null","../img/tt/1278tt.jpg","null","mooney2","image-keyboard-response","354","1145978","0.0-6.0-5.49","2683117","co37624","norming","","","","","","",""
"2084.7100000001956","","","post_reveal_questions","survey-likert","355","1148064","0.0-6.0-6.49","2683117","co37624","norming","","","{""aha"":2}","[0]","../img/tt/1278tt.jpg","",""
"null","<div style=""font-size:60px;""> </div>","null","fixation","html-keyboard-response","356","1148271","0.0-6.0-0.50","2683117","co37624","norming","","","","","","",""
"null","../img/tt/1143tt.jpg","null","mooney1","image-keyboard-response","357","1151272","0.0-6.0-1.50","2683117","co37624","norming","","","","","","",""
"4966.840000000084","","","post_mooney1_questions","survey-likert","358","1156243","0.0-6.0-2.50","2683117","co37624","norming","","","{""curiosity"":0,""confidence"":5}","[0,1]","../img/tt/1143tt.jpg","",""
"1717.864999999525","","","recognition","survey-text","359","1157962","0.0-6.0-3.50","2683117","co37624","norming","","","{""guess"":""fitness""}","","../img/tt/1143tt.jpg","",""
"null","../img/gs/1143gs.jpg","null","reveal","image-keyboard-response","360","1159967","0.0-6.0-4.50","2683117","co37624","norming","","","","","","",""
"null","../img/tt/1143tt.jpg","null","mooney2","image-keyboard-response","361","1161973","0.0-6.0-5.50","2683117","co37624","norming","","","","","","",""
"4596.555000000168","","","post_reveal_questions","survey-likert","362","1166570","0.0-6.0-6.50","2683117","co37624","norming","","","{""aha"":1}","[0]","../img/tt/1143tt.jpg","",""
"null","<div style=""font-size:60px;""> </div>","null","fixation","html-keyboard-response","363","1166774","0.0-6.0-0.51","2683117","co37624","norming","","","","","","",""
"null","../img/tt/1211tt.jpg","null","mooney1","image-keyboard-response","364","1169777","0.0-6.0-1.51","2683117","co37624","norming","","","","","","",""
"3656.674999999348","","","post_mooney1_questions","survey-likert","365","1173435","0.0-6.0-2.51","2683117","co37624","norming","","","{""curiosity"":2,""confidence"":6}","[0,1]","../img/tt/1211tt.jpg","",""
"1837.9050000002608","","","recognition","survey-text","366","1175274","0.0-6.0-3.51","2683117","co37624","norming","","","{""guess"":""pool""}","","../img/tt/1211tt.jpg","",""
"null","../img/gs/1211gs.jpg","null","reveal","image-keyboard-response","367","1177284","0.0-6.0-4.51","2683117","co37624","norming","","","","","","",""
"null","../img/tt/1211tt.jpg","null","mooney2","image-keyboard-response","368","1179290","0.0-6.0-5.51","2683117","co37624","norming","","","","","","",""
"2375.089999999618","","","post_reveal_questions","survey-likert","369","1181667","0.0-6.0-6.51","2683117","co37624","norming","","","{""aha"":5}","[0]","../img/tt/1211tt.jpg","",""
"null","<div style=""font-size:60px;""> </div>","null","fixation","html-keyboard-response","370","1181874","0.0-6.0-0.52","2683117","co37624","norming","","","","","","",""
"null","../img/tt/1217tt.jpg","null","mooney1","image-keyboard-response","371","1184878","0.0-6.0-1.52","2683117","co37624","norming","","","","","","",""
"4163.744999999646","","","post_mooney1_questions","survey-likert","372","1189043","0.0-6.0-2.52","2683117","co37624","norming","","","{""curiosity"":1,""confidence"":6}","[0,1]","../img/tt/1217tt.jpg","",""
"5670.189999999711","","","recognition","survey-text","373","1194714","0.0-6.0-3.52","2683117","co37624","norming","","","{""guess"":""game""}","","../img/tt/1217tt.jpg","",""
"null","../img/gs/1217gs.jpg","null","reveal","image-keyboard-response","374","1196717","0.0-6.0-4.52","2683117","co37624","norming","","","","","","",""
"null","../img/tt/1217tt.jpg","null","mooney2","image-keyboard-response","375","1198717","0.0-6.0-5.52","2683117","co37624","norming","","","","","","",""
"4324.520000000019","","","post_reveal_questions","survey-likert","376","1203043","0.0-6.0-6.52","2683117","co37624","norming","","","{""aha"":1}","[0]","../img/tt/1217tt.jpg","",""
"null","<div style=""font-size:60px;""> </div>","null","fixation","html-keyboard-response","377","1203245","0.0-6.0-0.53","2683117","co37624","norming","","","","","","",""
"null","../img/tt/1276tt.jpg","null","mooney1","image-keyboard-response","378","1206247","0.0-6.0-1.53","2683117","co37624","norming","","","","","","",""
"4770.370000000112","","","post_mooney1_questions","survey-likert","379","1211019","0.0-6.0-2.53","2683117","co37624","norming","","","{""curiosity"":1,""confidence"":1}","[0,1]","../img/tt/1276tt.jpg","",""
"725.9400000004098","","","recognition","survey-text","380","1211746","0.0-6.0-3.53","2683117","co37624","norming","","","{""guess"":""""}","","../img/tt/1276tt.jpg","",""
"null","../img/gs/1276gs.jpg","null","reveal","image-keyboard-response","381","1213751","0.0-6.0-4.53","2683117","co37624","norming","","","","","","",""
"null","../img/tt/1276tt.jpg","null","mooney2","image-keyboard-response","382","1215756","0.0-6.0-5.53","2683117","co37624","norming","","","","","","",""
"2008.3850000002421","","","post_reveal_questions","survey-likert","383","1217766","0.0-6.0-6.53","2683117","co37624","norming","","","{""aha"":3}","[0]","../img/tt/1276tt.jpg","",""
"null","<div style=""font-size:60px;""> </div>","null","fixation","html-keyboard-response","384","1217973","0.0-6.0-0.54","2683117","co37624","norming","","","","","","",""
"null","../img/tt/076tt.jpg","null","mooney1","image-keyboard-response","385","1220975","0.0-6.0-1.54","2683117","co37624","norming","","","","","","",""
"5037.190000000177","","","post_mooney1_questions","survey-likert","386","1226014","0.0-6.0-2.54","2683117","co37624","norming","","","{""curiosity"":4,""confidence"":5}","[0,1]","../img/tt/076tt.jpg","",""
"4942.004999999888","","","recognition","survey-text","387","1230958","0.0-6.0-3.54","2683117","co37624","norming","","","{""guess"":""rollerskates""}","","../img/tt/076tt.jpg","",""
"null","../img/gs/076gs.jpg","null","reveal","image-keyboard-response","388","1232960","0.0-6.0-4.54","2683117","co37624","norming","","","","","","",""
"null","../img/tt/076tt.jpg","null","mooney2","image-keyboard-response","389","1234961","0.0-6.0-5.54","2683117","co37624","norming","","","","","","",""
"2171.5800000003073","","","post_reveal_questions","survey-likert","390","1237134","0.0-6.0-6.54","2683117","co37624","norming","","","{""aha"":3}","[0]","../img/tt/076tt.jpg","",""
"null","<div style=""font-size:60px;""> </div>","null","fixation","html-keyboard-response","391","1237335","0.0-6.0-0.55","2683117","co37624","norming","","","","","","",""
"null","../img/tt/1049tt.jpg","null","mooney1","image-keyboard-response","392","1240337","0.0-6.0-1.55","2683117","co37624","norming","","","","","","",""
"12083.660000000149","","","post_mooney1_questions","survey-likert","393","1252422","0.0-6.0-2.55","2683117","co37624","norming","","","{""curiosity"":1,""confidence"":0}","[0,1]","../img/tt/1049tt.jpg","",""
"693.8250000001863","","","recognition","survey-text","394","1253118","0.0-6.0-3.55","2683117","co37624","norming","","","{""guess"":""""}","","../img/tt/1049tt.jpg","",""
"null","../img/gs/1049gs.jpg","null","reveal","image-keyboard-response","395","1255123","0.0-6.0-4.55","2683117","co37624","norming","","","","","","",""
"null","../img/tt/1049tt.jpg","null","mooney2","image-keyboard-response","396","1257128","0.0-6.0-5.55","2683117","co37624","norming","","","","","","",""
"1933.2899999998044","","","post_reveal_questions","survey-likert","397","1259062","0.0-6.0-6.55","2683117","co37624","norming","","","{""aha"":3}","[0]","../img/tt/1049tt.jpg","",""
"null","<div style=""font-size:60px;""> </div>","null","fixation","html-keyboard-response","398","1259265","0.0-6.0-0.56","2683117","co37624","norming","","","","","","",""
"null","../img/tt/406tt.jpg","null","mooney1","image-keyboard-response","399","1262269","0.0-6.0-1.56","2683117","co37624","norming","","","","","","",""
"4407.914999999804","","","post_mooney1_questions","survey-likert","400","1266678","0.0-6.0-2.56","2683117","co37624","norming","","","{""curiosity"":3,""confidence"":1}","[0,1]","../img/tt/406tt.jpg","",""
"2341.875","","","recognition","survey-text","401","1269022","0.0-6.0-3.56","2683117","co37624","norming","","","{""guess"":""teeth""}","","../img/tt/406tt.jpg","",""
"null","../img/gs/406gs.jpg","null","reveal","image-keyboard-response","402","1271024","0.0-6.0-4.56","2683117","co37624","norming","","","","","","",""
"null","../img/tt/406tt.jpg","null","mooney2","image-keyboard-response","403","1273033","0.0-6.0-5.56","2683117","co37624","norming","","","","","","",""
"2435.6800000006333","","","post_reveal_questions","survey-likert","404","1275470","0.0-6.0-6.56","2683117","co37624","norming","","","{""aha"":2}","[0]","../img/tt/406tt.jpg","",""
"null","<div style=""font-size:60px;""> </div>","null","fixation","html-keyboard-response","405","1275680","0.0-6.0-0.57","2683117","co37624","norming","","","","","","",""
"null","../img/tt/1063tt.jpg","null","mooney1","image-keyboard-response","406","1278687","0.0-6.0-1.57","2683117","co37624","norming","","","","","","",""
"4766.515000000363","","","post_mooney1_questions","survey-likert","407","1283454","0.0-6.0-2.57","2683117","co37624","norming","","","{""curiosity"":2,""confidence"":3}","[0,1]","../img/tt/1063tt.jpg","",""
"3309.505000000121","","","recognition","survey-text","408","1286766","0.0-6.0-3.57","2683117","co37624","norming","","","{""guess"":""horse""}","","../img/tt/1063tt.jpg","",""
"null","../img/gs/1063gs.jpg","null","reveal","image-keyboard-response","409","1288767","0.0-6.0-4.57","2683117","co37624","norming","","","","","","",""
"null","../img/tt/1063tt.jpg","null","mooney2","image-keyboard-response","410","1290771","0.0-6.0-5.57","2683117","co37624","norming","","","","","","",""
"2602.115000000689","","","post_reveal_questions","survey-likert","411","1293374","0.0-6.0-6.57","2683117","co37624","norming","","","{""aha"":2}","[0]","../img/tt/1063tt.jpg","",""
"null","<div style=""font-size:60px;""> </div>","null","fixation","html-keyboard-response","412","1293580","0.0-6.0-0.58","2683117","co37624","norming","","","","","","",""
"null","../img/tt/1247tt.jpg","null","mooney1","image-keyboard-response","413","1296588","0.0-6.0-1.58","2683117","co37624","norming","","","","","","",""
"11360.880000000121","","","post_mooney1_questions","survey-likert","414","1307950","0.0-6.0-2.58","2683117","co37624","norming","","","{""curiosity"":2,""confidence"":0}","[0,1]","../img/tt/1247tt.jpg","",""
"1629.7800000002608","","","recognition","survey-text","415","1309582","0.0-6.0-3.58","2683117","co37624","norming","","","{""guess"":""""}","","../img/tt/1247tt.jpg","",""
"null","../img/gs/1247gs.jpg","null","reveal","image-keyboard-response","416","1311585","0.0-6.0-4.58","2683117","co37624","norming","","","","","","",""
"null","../img/tt/1247tt.jpg","null","mooney2","image-keyboard-response","417","1313595","0.0-6.0-5.58","2683117","co37624","norming","","","","","","",""
"2242.5400000000373","","","post_reveal_questions","survey-likert","418","1315838","0.0-6.0-6.58","2683117","co37624","norming","","","{""aha"":1}","[0]","../img/tt/1247tt.jpg","",""
"null","<div style=""font-size:60px;""> </div>","null","fixation","html-keyboard-response","419","1316041","0.0-6.0-0.59","2683117","co37624","norming","","","","","","",""
"null","../img/tt/1053tt.jpg","null","mooney1","image-keyboard-response","420","1319045","0.0-6.0-1.59","2683117","co37624","norming","","","","","","",""
"4240.139999999898","","","post_mooney1_questions","survey-likert","421","1323287","0.0-6.0-2.59","2683117","co37624","norming","","","{""curiosity"":1,""confidence"":1}","[0,1]","../img/tt/1053tt.jpg","",""
"1125.6750000002794","","","recognition","survey-text","422","1324414","0.0-6.0-3.59","2683117","co37624","norming","","","{""guess"":""""}","","../img/tt/1053tt.jpg","",""
"null","../img/gs/1053gs.jpg","null","reveal","image-keyboard-response","423","1326418","0.0-6.0-4.59","2683117","co37624","norming","","","","","","",""
"null","../img/tt/1053tt.jpg","null","mooney2","image-keyboard-response","424","1328422","0.0-6.0-5.59","2683117","co37624","norming","","","","","","",""
"2319.029999999795","","","post_reveal_questions","survey-likert","425","1330742","0.0-6.0-6.59","2683117","co37624","norming","","","{""aha"":4}","[0]","../img/tt/1053tt.jpg","",""
"null","<div style=""font-size:60px;""> </div>","null","fixation","html-keyboard-response","426","1330944","0.0-6.0-0.60","2683117","co37624","norming","","","","","","",""
"null","../img/tt/435tt.jpg","null","mooney1","image-keyboard-response","427","1333946","0.0-6.0-1.60","2683117","co37624","norming","","","","","","",""
"5507.1500000003725","","","post_mooney1_questions","survey-likert","428","1339446","0.0-6.0-2.60","2683117","co37624","norming","","","{""curiosity"":2,""confidence"":4}","[0,1]","../img/tt/435tt.jpg","",""
"2909.899999999674","","","recognition","survey-text","429","1342357","0.0-6.0-3.60","2683117","co37624","norming","","","{""guess"":""pooltable""}","","../img/tt/435tt.jpg","",""
"null","../img/gs/435gs.jpg","null","reveal","image-keyboard-response","430","1344360","0.0-6.0-4.60","2683117","co37624","norming","","","","","","",""
"null","../img/tt/435tt.jpg","null","mooney2","image-keyboard-response","431","1346362","0.0-6.0-5.60","2683117","co37624","norming","","","","","","",""
"4634.184999999823","","","post_reveal_questions","survey-likert","432","1350998","0.0-6.0-6.60","2683117","co37624","norming","","","{""aha"":3}","[0]","../img/tt/435tt.jpg","",""
"null","<div style=""font-size:60px;""> </div>","null","fixation","html-keyboard-response","433","1351203","0.0-6.0-0.61","2683117","co37624","norming","","","","","","",""
"null","../img/tt/307tt.jpg","null","mooney1","image-keyboard-response","434","1354205","0.0-6.0-1.61","2683117","co37624","norming","","","","","","",""
"4055.5149999998976","","","post_mooney1_questions","survey-likert","435","1358262","0.0-6.0-2.61","2683117","co37624","norming","","","{""curiosity"":3,""confidence"":0}","[0,1]","../img/tt/307tt.jpg","",""
"710.0200000004843","","","recognition","survey-text","436","1358974","0.0-6.0-3.61","2683117","co37624","norming","","","{""guess"":""""}","","../img/tt/307tt.jpg","",""
"null","../img/gs/307gs.jpg","null","reveal","image-keyboard-response","437","1360979","0.0-6.0-4.61","2683117","co37624","norming","","","","","","",""
"null","../img/tt/307tt.jpg","null","mooney2","image-keyboard-response","438","1362990","0.0-6.0-5.61","2683117","co37624","norming","","","","","","",""
"1910.2099999999627","","","post_reveal_questions","survey-likert","439","1364901","0.0-6.0-6.61","2683117","co37624","norming","","","{""aha"":1}","[0]","../img/tt/307tt.jpg","",""
"null","<div style=""font-size:60px;""> </div>","null","fixation","html-keyboard-response","440","1365105","0.0-6.0-0.62","2683117","co37624","norming","","","","","","",""
"null","../img/tt/1200tt.jpg","null","mooney1","image-keyboard-response","441","1368109","0.0-6.0-1.62","2683117","co37624","norming","","","","","","",""
"4903.64499999932","","","post_mooney1_questions","survey-likert","442","1373014","0.0-6.0-2.62","2683117","co37624","norming","","","{""curiosity"":1,""confidence"":0}","[0,1]","../img/tt/1200tt.jpg","",""
"1045.7549999991897","","","recognition","survey-text","443","1374062","0.0-6.0-3.62","2683117","co37624","norming","","","{""guess"":""""}","","../img/tt/1200tt.jpg","",""
"null","../img/gs/1200gs.jpg","null","reveal","image-keyboard-response","444","1376072","0.0-6.0-4.62","2683117","co37624","norming","","","","","","",""
"null","../img/tt/1200tt.jpg","null","mooney2","image-keyboard-response","445","1378078","0.0-6.0-5.62","2683117","co37624","norming","","","","","","",""
"5293.899999999674","","","post_reveal_questions","survey-likert","446","1383373","0.0-6.0-6.62","2683117","co37624","norming","","","{""aha"":3}","[0]","../img/tt/1200tt.jpg","",""
"null","<div style=""font-size:60px;""> </div>","null","fixation","html-keyboard-response","447","1383582","0.0-6.0-0.63","2683117","co37624","norming","","","","","","",""
"null","../img/tt/1146tt.jpg","null","mooney1","image-keyboard-response","448","1386584","0.0-6.0-1.63","2683117","co37624","norming","","","","","","",""
"4484.260000000242","","","post_mooney1_questions","survey-likert","449","1391070","0.0-6.0-2.63","2683117","co37624","norming","","","{""curiosity"":1,""confidence"":4}","[0,1]","../img/tt/1146tt.jpg","",""
"9589.265000000363","","","recognition","survey-text","450","1400669","0.0-6.0-3.63","2683117","co37624","norming","","","{""guess"":""arrow ""}","","../img/tt/1146tt.jpg","",""
"null","../img/gs/1146gs.jpg","null","reveal","image-keyboard-response","451","1402678","0.0-6.0-4.63","2683117","co37624","norming","","","","","","",""
"null","../img/tt/1146tt.jpg","null","mooney2","image-keyboard-response","452","1404680","0.0-6.0-5.63","2683117","co37624","norming","","","","","","",""
"3532.805000000866","","","post_reveal_questions","survey-likert","453","1408214","0.0-6.0-6.63","2683117","co37624","norming","","","{""aha"":1}","[0]","../img/tt/1146tt.jpg","",""
"null","<div style=""font-size:60px;""> </div>","null","fixation","html-keyboard-response","454","1408416","0.0-6.0-0.64","2683117","co37624","norming","","","","","","",""
"null","../img/tt/1154tt.jpg","null","mooney1","image-keyboard-response","455","1411418","0.0-6.0-1.64","2683117","co37624","norming","","","","","","",""
"5122.840000000084","","","post_mooney1_questions","survey-likert","456","1416542","0.0-6.0-2.64","2683117","co37624","norming","","","{""curiosity"":4,""confidence"":2}","[0,1]","../img/tt/1154tt.jpg","",""
"2108.970000000205","","","recognition","survey-text","457","1418653","0.0-6.0-3.64","2683117","co37624","norming","","","{""guess"":""cano""}","","../img/tt/1154tt.jpg","",""
"null","../img/gs/1154gs.jpg","null","reveal","image-keyboard-response","458","1420662","0.0-6.0-4.64","2683117","co37624","norming","","","","","","",""
"null","../img/tt/1154tt.jpg","null","mooney2","image-keyboard-response","459","1422664","0.0-6.0-5.64","2683117","co37624","norming","","","","","","",""
"8540.184999999823","","","post_reveal_questions","survey-likert","460","1431205","0.0-6.0-6.64","2683117","co37624","norming","","","{""aha"":4}","[0]","../img/tt/1154tt.jpg","",""
"null","<div style=""font-size:60px;""> </div>","null","fixation","html-keyboard-response","461","1431406","0.0-6.0-0.65","2683117","co37624","norming","","","","","","",""
"null","../img/tt/580tt.jpg","null","mooney1","image-keyboard-response","462","1434412","0.0-6.0-1.65","2683117","co37624","norming","","","","","","",""
"3687.4700000009034","","","post_mooney1_questions","survey-likert","463","1438101","0.0-6.0-2.65","2683117","co37624","norming","","","{""curiosity"":2,""confidence"":1}","[0,1]","../img/tt/580tt.jpg","",""
"21765.945000000065","","","recognition","survey-text","464","1459872","0.0-6.0-3.65","2683117","co37624","norming","","","{""guess"":""""}","","../img/tt/580tt.jpg","",""
"null","../img/gs/580gs.jpg","null","reveal","image-keyboard-response","465","1461882","0.0-6.0-4.65","2683117","co37624","norming","","","","","","",""
"null","../img/tt/580tt.jpg","null","mooney2","image-keyboard-response","466","1463886","0.0-6.0-5.65","2683117","co37624","norming","","","","","","",""
"2176.725000000326","","","post_reveal_questions","survey-likert","467","1466064","0.0-6.0-6.65","2683117","co37624","norming","","","{""aha"":1}","[0]","../img/tt/580tt.jpg","",""
"null","<div style=""font-size:60px;""> </div>","null","fixation","html-keyboard-response","468","1466267","0.0-6.0-0.66","2683117","co37624","norming","","","","","","",""
"null","../img/tt/1186tt.jpg","null","mooney1","image-keyboard-response","469","1469273","0.0-6.0-1.66","2683117","co37624","norming","","","","","","",""
"4718.069999999832","","","post_mooney1_questions","survey-likert","470","1473992","0.0-6.0-2.66","2683117","co37624","norming","","","{""curiosity"":3,""confidence"":1}","[0,1]","../img/tt/1186tt.jpg","",""
"1061.9749999996275","","","recognition","survey-text","471","1475056","0.0-6.0-3.66","2683117","co37624","norming","","","{""guess"":""""}","","../img/tt/1186tt.jpg","",""
"null","../img/gs/1186gs.jpg","null","reveal","image-keyboard-response","472","1477064","0.0-6.0-4.66","2683117","co37624","norming","","","","","","",""
"null","../img/tt/1186tt.jpg","null","mooney2","image-keyboard-response","473","1479070","0.0-6.0-5.66","2683117","co37624","norming","","","","","","",""
"4225.294999999227","","","post_reveal_questions","survey-likert","474","1483296","0.0-6.0-6.66","2683117","co37624","norming","","","{""aha"":2}","[0]","../img/tt/1186tt.jpg","",""
"null","<div style=""font-size:60px;""> </div>","null","fixation","html-keyboard-response","475","1483500","0.0-6.0-0.67","2683117","co37624","norming","","","","","","",""
"null","../img/tt/1260tt.jpg","null","mooney1","image-keyboard-response","476","1486502","0.0-6.0-1.67","2683117","co37624","norming","","","","","","",""
"4033.0750000001863","","","post_mooney1_questions","survey-likert","477","1490536","0.0-6.0-2.67","2683117","co37624","norming","","","{""curiosity"":1,""confidence"":0}","[0,1]","../img/tt/1260tt.jpg","",""
"2421.9950000005774","","","recognition","survey-text","478","1492960","0.0-6.0-3.67","2683117","co37624","norming","","","{""guess"":""egel""}","","../img/tt/1260tt.jpg","",""
"null","../img/gs/1260gs.jpg","null","reveal","image-keyboard-response","479","1494962","0.0-6.0-4.67","2683117","co37624","norming","","","","","","",""
"null","../img/tt/1260tt.jpg","null","mooney2","image-keyboard-response","480","1496973","0.0-6.0-5.67","2683117","co37624","norming","","","","","","",""
"3458.4350000002887","","","post_reveal_questions","survey-likert","481","1500432","0.0-6.0-6.67","2683117","co37624","norming","","","{""aha"":3}","[0]","../img/tt/1260tt.jpg","",""
"null","<div style=""font-size:60px;""> </div>","null","fixation","html-keyboard-response","482","1500643","0.0-6.0-0.68","2683117","co37624","norming","","","","","","",""
"null","../img/tt/270tt.jpg","null","mooney1","image-keyboard-response","483","1503645","0.0-6.0-1.68","2683117","co37624","norming","","","","","","",""
"4546.194999999832","","","post_mooney1_questions","survey-likert","484","1508192","0.0-6.0-2.68","2683117","co37624","norming","","","{""curiosity"":2,""confidence"":1}","[0,1]","../img/tt/270tt.jpg","",""
"3381.9499999999534","","","recognition","survey-text","485","1511576","0.0-6.0-3.68","2683117","co37624","norming","","","{""guess"":""fence""}","","../img/tt/270tt.jpg","",""
"null","../img/gs/270gs.jpg","null","reveal","image-keyboard-response","486","1513578","0.0-6.0-4.68","2683117","co37624","norming","","","","","","",""
"null","../img/tt/270tt.jpg","null","mooney2","image-keyboard-response","487","1515582","0.0-6.0-5.68","2683117","co37624","norming","","","","","","",""
"2664.814999999013","","","post_reveal_questions","survey-likert","488","1518248","0.0-6.0-6.68","2683117","co37624","norming","","","{""aha"":2}","[0]","../img/tt/270tt.jpg","",""
"null","<div style=""font-size:60px;""> </div>","null","fixation","html-keyboard-response","489","1518459","0.0-6.0-0.69","2683117","co37624","norming","","","","","","",""
"null","../img/tt/296tt.jpg","null","mooney1","image-keyboard-response","490","1521460","0.0-6.0-1.69","2683117","co37624","norming","","","","","","",""
"3399.4149999998044","","","post_mooney1_questions","survey-likert","491","1524860","0.0-6.0-2.69","2683117","co37624","norming","","","{""curiosity"":3,""confidence"":4}","[0,1]","../img/tt/296tt.jpg","",""
"3294.049999999581","","","recognition","survey-text","492","1528157","0.0-6.0-3.69","2683117","co37624","norming","","","{""guess"":""typewriter""}","","../img/tt/296tt.jpg","",""
"null","../img/gs/296gs.jpg","null","reveal","image-keyboard-response","493","1530159","0.0-6.0-4.69","2683117","co37624","norming","","","","","","",""
"null","../img/tt/296tt.jpg","null","mooney2","image-keyboard-response","494","1532166","0.0-6.0-5.69","2683117","co37624","norming","","","","","","",""
"3893.6450000000186","","","post_reveal_questions","survey-likert","495","1536060","0.0-6.0-6.69","2683117","co37624","norming","","","{""aha"":4}","[0]","../img/tt/296tt.jpg","",""
"null","<div style=""font-size:60px;""> </div>","null","fixation","html-keyboard-response","496","1536262","0.0-6.0-0.70","2683117","co37624","norming","","","","","","",""
"null","../img/tt/524tt.jpg","null","mooney1","image-keyboard-response","497","1539265","0.0-6.0-1.70","2683117","co37624","norming","","","","","","",""
"4538.565000000875","","","post_mooney1_questions","survey-likert","498","1543804","0.0-6.0-2.70","2683117","co37624","norming","","","{""curiosity"":3,""confidence"":4}","[0,1]","../img/tt/524tt.jpg","",""
"1821.9449999995995","","","recognition","survey-text","499","1545628","0.0-6.0-3.70","2683117","co37624","norming","","","{""guess"":""animal""}","","../img/tt/524tt.jpg","",""
"null","../img/gs/524gs.jpg","null","reveal","image-keyboard-response","500","1547636","0.0-6.0-4.70","2683117","co37624","norming","","","","","","",""
"null","../img/tt/524tt.jpg","null","mooney2","image-keyboard-response","501","1549640","0.0-6.0-5.70","2683117","co37624","norming","","","","","","",""
"13739.535000000615","","","post_reveal_questions","survey-likert","502","1563380","0.0-6.0-6.70","2683117","co37624","norming","","","{""aha"":2}","[0]","../img/tt/524tt.jpg","",""
"null","<div style=""font-size:60px;""> </div>","null","fixation","html-keyboard-response","503","1563582","0.0-6.0-0.71","2683117","co37624","norming","","","","","","",""
"null","../img/tt/1151tt.jpg","null","mooney1","image-keyboard-response","504","1566583","0.0-6.0-1.71","2683117","co37624","norming","","","","","","",""
"5012.069999999832","","","post_mooney1_questions","survey-likert","505","1571596","0.0-6.0-2.71","2683117","co37624","norming","","","{""curiosity"":3,""confidence"":0}","[0,1]","../img/tt/1151tt.jpg","",""
"613.5649999997113","","","recognition","survey-text","506","1572212","0.0-6.0-3.71","2683117","co37624","norming","","","{""guess"":""""}","","../img/tt/1151tt.jpg","",""
"null","../img/gs/1151gs.jpg","null","reveal","image-keyboard-response","507","1574213","0.0-6.0-4.71","2683117","co37624","norming","","","","","","",""
"null","../img/tt/1151tt.jpg","null","mooney2","image-keyboard-response","508","1576214","0.0-6.0-5.71","2683117","co37624","norming","","","","","","",""
"3725.205000000773","","","post_reveal_questions","survey-likert","509","1579941","0.0-6.0-6.71","2683117","co37624","norming","","","{""aha"":1}","[0]","../img/tt/1151tt.jpg","",""
"null","<div style=""font-size:60px;""> </div>","null","fixation","html-keyboard-response","510","1580147","0.0-6.0-0.72","2683117","co37624","norming","","","","","","",""
"null","../img/tt/1270tt.jpg","null","mooney1","image-keyboard-response","511","1583159","0.0-6.0-1.72","2683117","co37624","norming","","","","","","",""
"2938.250000000233","","","post_mooney1_questions","survey-likert","512","1586098","0.0-6.0-2.72","2683117","co37624","norming","","","{""curiosity"":1,""confidence"":0}","[0,1]","../img/tt/1270tt.jpg","",""
"1557.8100000002887","","","recognition","survey-text","513","1587658","0.0-6.0-3.72","2683117","co37624","norming","","","{""guess"":""""}","","../img/tt/1270tt.jpg","",""
"null","../img/gs/1270gs.jpg","null","reveal","image-keyboard-response","514","1589660","0.0-6.0-4.72","2683117","co37624","norming","","","","","","",""
"null","../img/tt/1270tt.jpg","null","mooney2","image-keyboard-response","515","1591662","0.0-6.0-5.72","2683117","co37624","norming","","","","","","",""
"2426.6450000004843","","","post_reveal_questions","survey-likert","516","1594090","0.0-6.0-6.72","2683117","co37624","norming","","","{""aha"":2}","[0]","../img/tt/1270tt.jpg","",""
"null","<div style=""font-size:60px;""> </div>","null","fixation","html-keyboard-response","517","1594299","0.0-6.0-0.73","2683117","co37624","norming","","","","","","",""
"null","../img/tt/477tt.jpg","null","mooney1","image-keyboard-response","518","1597301","0.0-6.0-1.73","2683117","co37624","norming","","","","","","",""
"4580.515000000596","","","post_mooney1_questions","survey-likert","519","1601882","0.0-6.0-2.73","2683117","co37624","norming","","","{""curiosity"":1,""confidence"":2}","[0,1]","../img/tt/477tt.jpg","",""
"1261.679999999702","","","recognition","survey-text","520","1603146","0.0-6.0-3.73","2683117","co37624","norming","","","{""guess"":""""}","","../img/tt/477tt.jpg","",""
"null","../img/gs/477gs.jpg","null","reveal","image-keyboard-response","521","1605150","0.0-6.0-4.73","2683117","co37624","norming","","","","","","",""
"null","../img/tt/477tt.jpg","null","mooney2","image-keyboard-response","522","1607151","0.0-6.0-5.73","2683117","co37624","norming","","","","","","",""
"1505.9750000000931","","","post_reveal_questions","survey-likert","523","1608658","0.0-6.0-6.73","2683117","co37624","norming","","","{""aha"":1}","[0]","../img/tt/477tt.jpg","",""
"null","<div style=""font-size:60px;""> </div>","null","fixation","html-keyboard-response","524","1608867","0.0-6.0-0.74","2683117","co37624","norming","","","","","","",""
"null","../img/tt/1101tt.jpg","null","mooney1","image-keyboard-response","525","1611871","0.0-6.0-1.74","2683117","co37624","norming","","","","","","",""
"3442.404999999795","","","post_mooney1_questions","survey-likert","526","1615314","0.0-6.0-2.74","2683117","co37624","norming","","","{""curiosity"":3,""confidence"":5}","[0,1]","../img/tt/1101tt.jpg","",""
"1661.8649999999907","","","recognition","survey-text","527","1616978","0.0-6.0-3.74","2683117","co37624","norming","","","{""guess"":""person""}","","../img/tt/1101tt.jpg","",""
"null","../img/gs/1101gs.jpg","null","reveal","image-keyboard-response","528","1618981","0.0-6.0-4.74","2683117","co37624","norming","","","","","","",""
"null","../img/tt/1101tt.jpg","null","mooney2","image-keyboard-response","529","1620986","0.0-6.0-5.74","2683117","co37624","norming","","","","","","",""
"4686.79499999946","","","post_reveal_questions","survey-likert","530","1625674","0.0-6.0-6.74","2683117","co37624","norming","","","{""aha"":4}","[0]","../img/tt/1101tt.jpg","",""
"null","<div style=""font-size:60px;""> </div>","null","fixation","html-keyboard-response","531","1625876","0.0-6.0-0.75","2683117","co37624","norming","","","","","","",""
"null","../img/tt/1227tt.jpg","null","mooney1","image-keyboard-response","532","1628879","0.0-6.0-1.75","2683117","co37624","norming","","","","","","",""
"4594.3100000005215","","","post_mooney1_questions","survey-likert","533","1633474","0.0-6.0-2.75","2683117","co37624","norming","","","{""curiosity"":5,""confidence"":0}","[0,1]","../img/tt/1227tt.jpg","",""
"845.6599999999162","","","recognition","survey-text","534","1634322","0.0-6.0-3.75","2683117","co37624","norming","","","{""guess"":""""}","","../img/tt/1227tt.jpg","",""
"null","../img/gs/1227gs.jpg","null","reveal","image-keyboard-response","535","1636332","0.0-6.0-4.75","2683117","co37624","norming","","","","","","",""
"null","../img/tt/1227tt.jpg","null","mooney2","image-keyboard-response","536","1638332","0.0-6.0-5.75","2683117","co37624","norming","","","","","","",""
"2309.0649999994785","","","post_reveal_questions","survey-likert","537","1640642","0.0-6.0-6.75","2683117","co37624","norming","","","{""aha"":5}","[0]","../img/tt/1227tt.jpg","",""
"null","<div style=""font-size:60px;""> </div>","null","fixation","html-keyboard-response","538","1640850","0.0-6.0-0.76","2683117","co37624","norming","","","","","","",""
"null","../img/tt/1236tt.jpg","null","mooney1","image-keyboard-response","539","1643859","0.0-6.0-1.76","2683117","co37624","norming","","","","","","",""
"4454.545000000624","","","post_mooney1_questions","survey-likert","540","1648315","0.0-6.0-2.76","2683117","co37624","norming","","","{""curiosity"":3,""confidence"":0}","[0,1]","../img/tt/1236tt.jpg","",""
"1653.3700000001118","","","recognition","survey-text","541","1649971","0.0-6.0-3.76","2683117","co37624","norming","","","{""guess"":""person""}","","../img/tt/1236tt.jpg","",""
"null","../img/gs/1236gs.jpg","null","reveal","image-keyboard-response","542","1651971","0.0-6.0-4.76","2683117","co37624","norming","","","","","","",""
"null","../img/tt/1236tt.jpg","null","mooney2","image-keyboard-response","543","1653973","0.0-6.0-5.76","2683117","co37624","norming","","","","","","",""
"6332.594999999739","","","post_reveal_questions","survey-likert","544","1660307","0.0-6.0-6.76","2683117","co37624","norming","","","{""aha"":3}","[0]","../img/tt/1236tt.jpg","",""
"null","<div style=""font-size:60px;""> </div>","null","fixation","html-keyboard-response","545","1660513","0.0-6.0-0.77","2683117","co37624","norming","","","","","","",""
"null","../img/tt/1118tt.jpg","null","mooney1","image-keyboard-response","546","1663518","0.0-6.0-1.77","2683117","co37624","norming","","","","","","",""
"3723.054999999469","","","post_mooney1_questions","survey-likert","547","1667243","0.0-6.0-2.77","2683117","co37624","norming","","","{""curiosity"":3,""confidence"":4}","[0,1]","../img/tt/1118tt.jpg","",""
"1989.4200000008568","","","recognition","survey-text","548","1669234","0.0-6.0-3.77","2683117","co37624","norming","","","{""guess"":""boat""}","","../img/tt/1118tt.jpg","",""
"null","../img/gs/1118gs.jpg","null","reveal","image-keyboard-response","549","1671243","0.0-6.0-4.77","2683117","co37624","norming","","","","","","",""
"null","../img/tt/1118tt.jpg","null","mooney2","image-keyboard-response","550","1673249","0.0-6.0-5.77","2683117","co37624","norming","","","","","","",""
"2440.399999999674","","","post_reveal_questions","survey-likert","551","1675690","0.0-6.0-6.77","2683117","co37624","norming","","","{""aha"":4}","[0]","../img/tt/1118tt.jpg","",""
"null","<div style=""font-size:60px;""> </div>","null","fixation","html-keyboard-response","552","1675899","0.0-6.0-0.78","2683117","co37624","norming","","","","","","",""
