"rt","stimulus","key_press","test_part","trial_type","trial_index","time_elapsed","internal_node_id","totalTime","subject","experiment_name","button_pressed","success","responses","question_order","currentStim","old","correct"
"10540.299999999661","Welcome to the experiment. This is an online experiment so please don't close the tab/window until we say goodbye.  Press any key to begin.","75","instructions","html-keyboard-response","0","10555","0.0-0.0","3106474","co37876","norming","","","","","","",""
"48967.885000000024","<div style='word-wrap: break-word; width: 900px'><h3>Please consider this information carefully before deciding whether to participate in this research</h3><ul style='text-align: left; font-size: .8em;'><li><b>Purpose of the research</b>: To examine how people process images.</li><li><b>What you will do in this research</b>:  Stimuli (images) will be presented on the computer and you will be asked different questions about them.</li><li><b>Time required</b>: Participation will take between 45 and 60 minutes to complete.</li><li><b>Risks</b>:  There are no anticipated risks associated with participating in this study. The effects of participating should be comparable to those you would experience from viewing a computer monitor for 30 minutes and using a mouse or keyboard.</li><li><b>Benefits</b>:  This study provides no benefits to you individually except for the credit. The study provides important information about the nature of perception and learning.</li><li><b>Confidentiality</b>:  Your participation in this study will remain confidential. No personally identifiable information will be associated with your data. Your de-identified data may be shared with other researchers and used in future projects.</li><li><b>Participation and withdrawal</b>:  Your participation in this study is completely voluntary and you may refuse to participate or you may choose to withdraw at any time without penalty.</li><li><b>How to contact the researchers</b>: If you have questions or concerns about your participation or payment, or want to request a summary of research findings, please contact Sander Van de Cruys (KU Leuven), at sander.vandecruys@kuleuven.be.</li></ul><p>The nature and purpose of this research have been sufficiently explained and I agree to participate in this study.  I understand that I am free to withdraw at any time without incurring any penalty.</p><p>Please consent by clicking the button below to continue. Otherwise, please exit the study at this time.</p></div>","","instructions","html-button-response","1","59525","0.0-1.0","3106474","co37876","norming","0","","","","","",""
"","","","instructions","fullscreen","2","63311","0.0-2.0","3106474","co37876","norming","","true","","","","",""
"48691.219999999696","","","sona","survey-html-form","3","112009","0.0-3.0","3106474","co37876","norming","","","[{""name"":""sonaid"",""value"":""37876""},{""name"":""debrief"",""value"":""yes""},{""name"":""datajoin"",""value"":""yes""}]","","","",""
"90107.22500000065","<div style='word-wrap: break-word; width: 900px'><h3>Instructions</h3><p>This experiment will have 3 parts. In the first part you will see a series of distorted images like the one below on the left. As you can see in the righthand image, the distorted images are derived from actual photographs. In what follows, you will <strong>briefly</strong> be presented with <strong>only</strong> the distorted image.</p> <div style='float: left; margin-right: 20px;'><img src='../img/018tt.jpg' height='250' width='250'></img></div><div style='float: right; margin-left: 20px;'><img src='../img/018gs.jpg' height='250' width='250'></img></div><p>Subsequently you will be asked a few questions about the image: One question on how <strong>curious</strong> you are about the solution and one on how <strong>confident</strong> you are that you know the solution.</p>Next, we ask you to make a guess on what is in the image. Note that it is OK to name just the <strong>basic level category</strong>. For example when you see a parrot in the image, 'parrot' will obviously be a correct answer but also correct is 'bird'. However, 'animal' will <strong>not</strong> be counted as a correct response. For the example above, 'rose' would be correct or 'flower', but not 'plant'. When soccer players are depicted, 'soccer', 'football', 'soccer players' will be correct, but not 'humans', 'outdoors', or 'sports'. You do not need to describe the image in full, just name the main object in it <strong>in one or two words</strong>. All images depict objects from one of the following broad level categories: animals, inanimate objects, plants, sports, vehicles, and food. Recognizing means knowing <strong>more</strong> than these broad labels for a given image. But we always encourage you to <strong>make a guess</strong> if you can. Note that you are allowed to use <strong>Dutch and English</strong> in your answers, whatever comes easiest for you.</p><p>Press any key to continue.</p></div>","74","instructions","html-keyboard-response","4","202124","0.0-4.0","3106474","co37876","norming","","","","","","",""
"19517.785000000003","<div style='word-wrap: break-word; width: 900px'><h3>Instructions</h3> <p>Next, the solution image will be revealed to you and you'll be asked to indicate how strong your <strong>aha-experience</strong> was after seeing the solution. This describes the positive feeling of the 'click' you sometimes experience, when the pieces of the 'puzzle' fall together and you suddenly have 'insight' in the image.</p><img src='aha.jpg' height='188' width='250'></img><p>Note that there are no right or wrong answers. We are interested in what <strong>you</strong> see in the image and how <strong>you</strong> feel about it.</p><p>Press any key to start the experiment.</p></div>","71","instructions","html-keyboard-response","5","221644","0.0-5.0","3106474","co37876","norming","","","","","","",""
"null","<div style=""font-size:60px;""> </div>","null","fixation","html-keyboard-response","6","221848","0.0-6.0-0.0","3106474","co37876","norming","","","","","","",""
"null","../img/tt/053tt.jpg","null","mooney1","image-keyboard-response","7","224851","0.0-6.0-1.0","3106474","co37876","norming","","","","","","",""
"8188.550000000774","","","post_mooney1_questions","survey-likert","8","233044","0.0-6.0-2.0","3106474","co37876","norming","","","{""curiosity"":5,""confidence"":0}","[0,1]","../img/tt/053tt.jpg","",""
"6157.309999999619","","","recognition","survey-text","9","239203","0.0-6.0-3.0","3106474","co37876","norming","","","{""guess"":""""}","","../img/tt/053tt.jpg","",""
"null","../img/gs/053gs.jpg","null","reveal","image-keyboard-response","10","241206","0.0-6.0-4.0","3106474","co37876","norming","","","","","","",""
"null","../img/tt/053tt.jpg","null","mooney2","image-keyboard-response","11","243208","0.0-6.0-5.0","3106474","co37876","norming","","","","","","",""
"11042.774999999907","","","post_reveal_questions","survey-likert","12","254251","0.0-6.0-6.0","3106474","co37876","norming","","","{""aha"":5}","[0]","../img/tt/053tt.jpg","",""
"null","<div style=""font-size:60px;""> </div>","null","fixation","html-keyboard-response","13","254456","0.0-6.0-0.1","3106474","co37876","norming","","","","","","",""
"null","../img/tt/1171tt.jpg","null","mooney1","image-keyboard-response","14","257458","0.0-6.0-1.1","3106474","co37876","norming","","","","","","",""
"6471.300000000163","","","post_mooney1_questions","survey-likert","15","263936","0.0-6.0-2.1","3106474","co37876","norming","","","{""curiosity"":4,""confidence"":1}","[0,1]","../img/tt/1171tt.jpg","",""
"4181.9599999999045","","","recognition","survey-text","16","268120","0.0-6.0-3.1","3106474","co37876","norming","","","{""guess"":""""}","","../img/tt/1171tt.jpg","",""
"null","../img/gs/1171gs.jpg","null","reveal","image-keyboard-response","17","270121","0.0-6.0-4.1","3106474","co37876","norming","","","","","","",""
"null","../img/tt/1171tt.jpg","null","mooney2","image-keyboard-response","18","272122","0.0-6.0-5.1","3106474","co37876","norming","","","","","","",""
"4516.704999999958","","","post_reveal_questions","survey-likert","19","276640","0.0-6.0-6.1","3106474","co37876","norming","","","{""aha"":5}","[0]","../img/tt/1171tt.jpg","",""
"null","<div style=""font-size:60px;""> </div>","null","fixation","html-keyboard-response","20","276849","0.0-6.0-0.2","3106474","co37876","norming","","","","","","",""
"null","../img/tt/064tt.jpg","null","mooney1","image-keyboard-response","21","279855","0.0-6.0-1.2","3106474","co37876","norming","","","","","","",""
"7454.844999999274","","","post_mooney1_questions","survey-likert","22","287312","0.0-6.0-2.2","3106474","co37876","norming","","","{""curiosity"":6,""confidence"":0}","[0,1]","../img/tt/064tt.jpg","",""
"934.1099999992293","","","recognition","survey-text","23","288248","0.0-6.0-3.2","3106474","co37876","norming","","","{""guess"":""""}","","../img/tt/064tt.jpg","",""
"null","../img/gs/064gs.jpg","null","reveal","image-keyboard-response","24","290251","0.0-6.0-4.2","3106474","co37876","norming","","","","","","",""
"null","../img/tt/064tt.jpg","null","mooney2","image-keyboard-response","25","292252","0.0-6.0-5.2","3106474","co37876","norming","","","","","","",""
"3785.340000000375","","","post_reveal_questions","survey-likert","26","296040","0.0-6.0-6.2","3106474","co37876","norming","","","{""aha"":5}","[0]","../img/tt/064tt.jpg","",""
"null","<div style=""font-size:60px;""> </div>","null","fixation","html-keyboard-response","27","296248","0.0-6.0-0.3","3106474","co37876","norming","","","","","","",""
"null","../img/tt/406tt.jpg","null","mooney1","image-keyboard-response","28","299253","0.0-6.0-1.3","3106474","co37876","norming","","","","","","",""
"8945.644999999786","","","post_mooney1_questions","survey-likert","29","308199","0.0-6.0-2.3","3106474","co37876","norming","","","{""curiosity"":5,""confidence"":2}","[0,1]","../img/tt/406tt.jpg","",""
"894.5699999994831","","","recognition","survey-text","30","309096","0.0-6.0-3.3","3106474","co37876","norming","","","{""guess"":""""}","","../img/tt/406tt.jpg","",""
"null","../img/gs/406gs.jpg","null","reveal","image-keyboard-response","31","311102","0.0-6.0-4.3","3106474","co37876","norming","","","","","","",""
"null","../img/tt/406tt.jpg","null","mooney2","image-keyboard-response","32","313112","0.0-6.0-5.3","3106474","co37876","norming","","","","","","",""
"3997.87000000017","","","post_reveal_questions","survey-likert","33","317112","0.0-6.0-6.3","3106474","co37876","norming","","","{""aha"":4}","[0]","../img/tt/406tt.jpg","",""
"null","<div style=""font-size:60px;""> </div>","null","fixation","html-keyboard-response","34","317320","0.0-6.0-0.4","3106474","co37876","norming","","","","","","",""
"null","../img/tt/1118tt.jpg","null","mooney1","image-keyboard-response","35","320326","0.0-6.0-1.4","3106474","co37876","norming","","","","","","",""
"12399.599999999744","","","post_mooney1_questions","survey-likert","36","332730","0.0-6.0-2.4","3106474","co37876","norming","","","{""curiosity"":5,""confidence"":0}","[0,1]","../img/tt/1118tt.jpg","",""
"7910.130000000179","","","recognition","survey-text","37","340642","0.0-6.0-3.4","3106474","co37876","norming","","","{""guess"":""""}","","../img/tt/1118tt.jpg","",""
"null","../img/gs/1118gs.jpg","null","reveal","image-keyboard-response","38","342651","0.0-6.0-4.4","3106474","co37876","norming","","","","","","",""
"null","../img/tt/1118tt.jpg","null","mooney2","image-keyboard-response","39","344654","0.0-6.0-5.4","3106474","co37876","norming","","","","","","",""
"3138.074999999837","","","post_reveal_questions","survey-likert","40","347794","0.0-6.0-6.4","3106474","co37876","norming","","","{""aha"":4}","[0]","../img/tt/1118tt.jpg","",""
"null","<div style=""font-size:60px;""> </div>","null","fixation","html-keyboard-response","41","348004","0.0-6.0-0.5","3106474","co37876","norming","","","","","","",""
"null","../img/tt/319tt.jpg","null","mooney1","image-keyboard-response","42","351014","0.0-6.0-1.5","3106474","co37876","norming","","","","","","",""
"6506.205000000598","","","post_mooney1_questions","survey-likert","43","357522","0.0-6.0-2.5","3106474","co37876","norming","","","{""curiosity"":3,""confidence"":1}","[0,1]","../img/tt/319tt.jpg","",""
"1438.305000000575","","","recognition","survey-text","44","358962","0.0-6.0-3.5","3106474","co37876","norming","","","{""guess"":""""}","","../img/tt/319tt.jpg","",""
"null","../img/gs/319gs.jpg","null","reveal","image-keyboard-response","45","360970","0.0-6.0-4.5","3106474","co37876","norming","","","","","","",""
"null","../img/tt/319tt.jpg","null","mooney2","image-keyboard-response","46","362981","0.0-6.0-5.5","3106474","co37876","norming","","","","","","",""
"5674.790000000037","","","post_reveal_questions","survey-likert","47","368658","0.0-6.0-6.5","3106474","co37876","norming","","","{""aha"":2}","[0]","../img/tt/319tt.jpg","",""
"null","<div style=""font-size:60px;""> </div>","null","fixation","html-keyboard-response","48","368863","0.0-6.0-0.6","3106474","co37876","norming","","","","","","",""
"null","../img/tt/1126tt.jpg","null","mooney1","image-keyboard-response","49","371876","0.0-6.0-1.6","3106474","co37876","norming","","","","","","",""
"7395.590000000084","","","post_mooney1_questions","survey-likert","50","379274","0.0-6.0-2.6","3106474","co37876","norming","","","{""curiosity"":3,""confidence"":2}","[0,1]","../img/tt/1126tt.jpg","",""
"894.2200000001467","","","recognition","survey-text","51","380170","0.0-6.0-3.6","3106474","co37876","norming","","","{""guess"":""""}","","../img/tt/1126tt.jpg","",""
"null","../img/gs/1126gs.jpg","null","reveal","image-keyboard-response","52","382179","0.0-6.0-4.6","3106474","co37876","norming","","","","","","",""
"null","../img/tt/1126tt.jpg","null","mooney2","image-keyboard-response","53","384187","0.0-6.0-5.6","3106474","co37876","norming","","","","","","",""
"3596.634999999893","","","post_reveal_questions","survey-likert","54","387791","0.0-6.0-6.6","3106474","co37876","norming","","","{""aha"":3}","[0]","../img/tt/1126tt.jpg","",""
"null","<div style=""font-size:60px;""> </div>","null","fixation","html-keyboard-response","55","387996","0.0-6.0-0.7","3106474","co37876","norming","","","","","","",""
"null","../img/tt/1125tt.jpg","null","mooney1","image-keyboard-response","56","391002","0.0-6.0-1.7","3106474","co37876","norming","","","","","","",""
"9250.474999999802","","","post_mooney1_questions","survey-likert","57","400255","0.0-6.0-2.7","3106474","co37876","norming","","","{""curiosity"":5,""confidence"":4}","[0,1]","../img/tt/1125tt.jpg","",""
"4653.839999999909","","","recognition","survey-text","58","404911","0.0-6.0-3.7","3106474","co37876","norming","","","{""guess"":""Auto""}","","../img/tt/1125tt.jpg","",""
"null","../img/gs/1125gs.jpg","null","reveal","image-keyboard-response","59","406919","0.0-6.0-4.7","3106474","co37876","norming","","","","","","",""
"null","../img/tt/1125tt.jpg","null","mooney2","image-keyboard-response","60","408927","0.0-6.0-5.7","3106474","co37876","norming","","","","","","",""
"3117.4700000001467","","","post_reveal_questions","survey-likert","61","412047","0.0-6.0-6.7","3106474","co37876","norming","","","{""aha"":5}","[0]","../img/tt/1125tt.jpg","",""
"null","<div style=""font-size:60px;""> </div>","null","fixation","html-keyboard-response","62","412251","0.0-6.0-0.8","3106474","co37876","norming","","","","","","",""
"null","../img/tt/301tt.jpg","null","mooney1","image-keyboard-response","63","415261","0.0-6.0-1.8","3106474","co37876","norming","","","","","","",""
"6657.385000000417","","","post_mooney1_questions","survey-likert","64","421919","0.0-6.0-2.8","3106474","co37876","norming","","","{""curiosity"":4,""confidence"":3}","[0,1]","../img/tt/301tt.jpg","",""
"3126.1999999997206","","","recognition","survey-text","65","425047","0.0-6.0-3.8","3106474","co37876","norming","","","{""guess"":""trein""}","","../img/tt/301tt.jpg","",""
"null","../img/gs/301gs.jpg","null","reveal","image-keyboard-response","66","427051","0.0-6.0-4.8","3106474","co37876","norming","","","","","","",""
"null","../img/tt/301tt.jpg","null","mooney2","image-keyboard-response","67","429060","0.0-6.0-5.8","3106474","co37876","norming","","","","","","",""
"3969.2700000004843","","","post_reveal_questions","survey-likert","68","433031","0.0-6.0-6.8","3106474","co37876","norming","","","{""aha"":4}","[0]","../img/tt/301tt.jpg","",""
"null","<div style=""font-size:60px;""> </div>","null","fixation","html-keyboard-response","69","433241","0.0-6.0-0.9","3106474","co37876","norming","","","","","","",""
"null","../img/tt/598tt.jpg","null","mooney1","image-keyboard-response","70","436247","0.0-6.0-1.9","3106474","co37876","norming","","","","","","",""
"5213.980000000447","","","post_mooney1_questions","survey-likert","71","441463","0.0-6.0-2.9","3106474","co37876","norming","","","{""curiosity"":2,""confidence"":2}","[0,1]","../img/tt/598tt.jpg","",""
"1094.4349999999395","","","recognition","survey-text","72","442559","0.0-6.0-3.9","3106474","co37876","norming","","","{""guess"":""""}","","../img/tt/598tt.jpg","",""
"null","../img/gs/598gs.jpg","null","reveal","image-keyboard-response","73","444560","0.0-6.0-4.9","3106474","co37876","norming","","","","","","",""
"null","../img/tt/598tt.jpg","null","mooney2","image-keyboard-response","74","446570","0.0-6.0-5.9","3106474","co37876","norming","","","","","","",""
"3959.9699999998556","","","post_reveal_questions","survey-likert","75","450533","0.0-6.0-6.9","3106474","co37876","norming","","","{""aha"":4}","[0]","../img/tt/598tt.jpg","",""
"null","<div style=""font-size:60px;""> </div>","null","fixation","html-keyboard-response","76","450735","0.0-6.0-0.10","3106474","co37876","norming","","","","","","",""
"null","../img/tt/189tt.jpg","null","mooney1","image-keyboard-response","77","453738","0.0-6.0-1.10","3106474","co37876","norming","","","","","","",""
"5207.929999999586","","","post_mooney1_questions","survey-likert","78","458949","0.0-6.0-2.10","3106474","co37876","norming","","","{""curiosity"":4,""confidence"":1}","[0,1]","../img/tt/189tt.jpg","",""
"749.8999999998487","","","recognition","survey-text","79","459701","0.0-6.0-3.10","3106474","co37876","norming","","","{""guess"":""""}","","../img/tt/189tt.jpg","",""
"null","../img/gs/189gs.jpg","null","reveal","image-keyboard-response","80","461705","0.0-6.0-4.10","3106474","co37876","norming","","","","","","",""
"null","../img/tt/189tt.jpg","null","mooney2","image-keyboard-response","81","463707","0.0-6.0-5.10","3106474","co37876","norming","","","","","","",""
"3424.4399999997695","","","post_reveal_questions","survey-likert","82","467133","0.0-6.0-6.10","3106474","co37876","norming","","","{""aha"":4}","[0]","../img/tt/189tt.jpg","",""
"null","<div style=""font-size:60px;""> </div>","null","fixation","html-keyboard-response","83","467338","0.0-6.0-0.11","3106474","co37876","norming","","","","","","",""
"null","../img/tt/1309tt.jpg","null","mooney1","image-keyboard-response","84","470344","0.0-6.0-1.11","3106474","co37876","norming","","","","","","",""
"6761.700000000012","","","post_mooney1_questions","survey-likert","85","477109","0.0-6.0-2.11","3106474","co37876","norming","","","{""curiosity"":4,""confidence"":4}","[0,1]","../img/tt/1309tt.jpg","",""
"3822.035000000149","","","recognition","survey-text","86","480933","0.0-6.0-3.11","3106474","co37876","norming","","","{""guess"":""auto""}","","../img/tt/1309tt.jpg","",""
"null","../img/gs/1309gs.jpg","null","reveal","image-keyboard-response","87","482937","0.0-6.0-4.11","3106474","co37876","norming","","","","","","",""
"null","../img/tt/1309tt.jpg","null","mooney2","image-keyboard-response","88","484939","0.0-6.0-5.11","3106474","co37876","norming","","","","","","",""
"3407.549999999872","","","post_reveal_questions","survey-likert","89","488349","0.0-6.0-6.11","3106474","co37876","norming","","","{""aha"":2}","[0]","../img/tt/1309tt.jpg","",""
"null","<div style=""font-size:60px;""> </div>","null","fixation","html-keyboard-response","90","488559","0.0-6.0-0.12","3106474","co37876","norming","","","","","","",""
"null","../img/tt/105tt.jpg","null","mooney1","image-keyboard-response","91","491568","0.0-6.0-1.12","3106474","co37876","norming","","","","","","",""
"4170.255000000005","","","post_mooney1_questions","survey-likert","92","495741","0.0-6.0-2.12","3106474","co37876","norming","","","{""curiosity"":4,""confidence"":3}","[0,1]","../img/tt/105tt.jpg","",""
"4126.124999999767","","","recognition","survey-text","93","499869","0.0-6.0-3.12","3106474","co37876","norming","","","{""guess"":""paperclip""}","","../img/tt/105tt.jpg","",""
"null","../img/gs/105gs.jpg","null","reveal","image-keyboard-response","94","501870","0.0-6.0-4.12","3106474","co37876","norming","","","","","","",""
"null","../img/tt/105tt.jpg","null","mooney2","image-keyboard-response","95","503878","0.0-6.0-5.12","3106474","co37876","norming","","","","","","",""
"4836.524999999732","","","post_reveal_questions","survey-likert","96","508717","0.0-6.0-6.12","3106474","co37876","norming","","","{""aha"":1}","[0]","../img/tt/105tt.jpg","",""
"null","<div style=""font-size:60px;""> </div>","null","fixation","html-keyboard-response","97","508919","0.0-6.0-0.13","3106474","co37876","norming","","","","","","",""
"null","../img/tt/1236tt.jpg","null","mooney1","image-keyboard-response","98","511931","0.0-6.0-1.13","3106474","co37876","norming","","","","","","",""
"4366.264999999665","","","post_mooney1_questions","survey-likert","99","516299","0.0-6.0-2.13","3106474","co37876","norming","","","{""curiosity"":4,""confidence"":0}","[0,1]","../img/tt/1236tt.jpg","",""
"846.0399999994552","","","recognition","survey-text","100","517146","0.0-6.0-3.13","3106474","co37876","norming","","","{""guess"":""""}","","../img/tt/1236tt.jpg","",""
"null","../img/gs/1236gs.jpg","null","reveal","image-keyboard-response","101","519154","0.0-6.0-4.13","3106474","co37876","norming","","","","","","",""
"null","../img/tt/1236tt.jpg","null","mooney2","image-keyboard-response","102","521162","0.0-6.0-5.13","3106474","co37876","norming","","","","","","",""
"2926.9850000001024","","","post_reveal_questions","survey-likert","103","524091","0.0-6.0-6.13","3106474","co37876","norming","","","{""aha"":3}","[0]","../img/tt/1236tt.jpg","",""
"null","<div style=""font-size:60px;""> </div>","null","fixation","html-keyboard-response","104","524299","0.0-6.0-0.14","3106474","co37876","norming","","","","","","",""
"null","../img/tt/1044tt.jpg","null","mooney1","image-keyboard-response","105","527307","0.0-6.0-1.14","3106474","co37876","norming","","","","","","",""
"6438.9999999993015","","","post_mooney1_questions","survey-likert","106","533747","0.0-6.0-2.14","3106474","co37876","norming","","","{""curiosity"":3,""confidence"":0}","[0,1]","../img/tt/1044tt.jpg","",""
"2765.804999999935","","","recognition","survey-text","107","536514","0.0-6.0-3.14","3106474","co37876","norming","","","{""guess"":""""}","","../img/tt/1044tt.jpg","",""
"null","../img/gs/1044gs.jpg","null","reveal","image-keyboard-response","108","538519","0.0-6.0-4.14","3106474","co37876","norming","","","","","","",""
"null","../img/tt/1044tt.jpg","null","mooney2","image-keyboard-response","109","540524","0.0-6.0-5.14","3106474","co37876","norming","","","","","","",""
"3284.499999999767","","","post_reveal_questions","survey-likert","110","543810","0.0-6.0-6.14","3106474","co37876","norming","","","{""aha"":3}","[0]","../img/tt/1044tt.jpg","",""
"null","<div style=""font-size:60px;""> </div>","null","fixation","html-keyboard-response","111","544012","0.0-6.0-0.15","3106474","co37876","norming","","","","","","",""
"null","../img/tt/1254tt.jpg","null","mooney1","image-keyboard-response","112","547020","0.0-6.0-1.15","3106474","co37876","norming","","","","","","",""
"4501.699999999721","","","post_mooney1_questions","survey-likert","113","551523","0.0-6.0-2.15","3106474","co37876","norming","","","{""curiosity"":4,""confidence"":3}","[0,1]","../img/tt/1254tt.jpg","",""
"4134.105000000098","","","recognition","survey-text","114","555658","0.0-6.0-3.15","3106474","co37876","norming","","","{""guess"":""konijn""}","","../img/tt/1254tt.jpg","",""
"null","../img/gs/1254gs.jpg","null","reveal","image-keyboard-response","115","557659","0.0-6.0-4.15","3106474","co37876","norming","","","","","","",""
"null","../img/tt/1254tt.jpg","null","mooney2","image-keyboard-response","116","559663","0.0-6.0-5.15","3106474","co37876","norming","","","","","","",""
"5761.045000000158","","","post_reveal_questions","survey-likert","117","565427","0.0-6.0-6.15","3106474","co37876","norming","","","{""aha"":1}","[0]","../img/tt/1254tt.jpg","",""
"null","<div style=""font-size:60px;""> </div>","null","fixation","html-keyboard-response","118","565629","0.0-6.0-0.16","3106474","co37876","norming","","","","","","",""
"null","../img/tt/1181tt.jpg","null","mooney1","image-keyboard-response","119","568632","0.0-6.0-1.16","3106474","co37876","norming","","","","","","",""
"7520.524999999907","","","post_mooney1_questions","survey-likert","120","576155","0.0-6.0-2.16","3106474","co37876","norming","","","{""curiosity"":5,""confidence"":3}","[0,1]","../img/tt/1181tt.jpg","",""
"3389.9549999997253","","","recognition","survey-text","121","579546","0.0-6.0-3.16","3106474","co37876","norming","","","{""guess"":""man""}","","../img/tt/1181tt.jpg","",""
"null","../img/gs/1181gs.jpg","null","reveal","image-keyboard-response","122","581549","0.0-6.0-4.16","3106474","co37876","norming","","","","","","",""
"null","../img/tt/1181tt.jpg","null","mooney2","image-keyboard-response","123","583557","0.0-6.0-5.16","3106474","co37876","norming","","","","","","",""
"4378.969999999739","","","post_reveal_questions","survey-likert","124","587938","0.0-6.0-6.16","3106474","co37876","norming","","","{""aha"":1}","[0]","../img/tt/1181tt.jpg","",""
"null","<div style=""font-size:60px;""> </div>","null","fixation","html-keyboard-response","125","588140","0.0-6.0-0.17","3106474","co37876","norming","","","","","","",""
"null","../img/tt/552tt.jpg","null","mooney1","image-keyboard-response","126","591150","0.0-6.0-1.17","3106474","co37876","norming","","","","","","",""
"8258.079999999609","","","post_mooney1_questions","survey-likert","127","599411","0.0-6.0-2.17","3106474","co37876","norming","","","{""curiosity"":5,""confidence"":4}","[0,1]","../img/tt/552tt.jpg","",""
"5109.779999999795","","","recognition","survey-text","128","604522","0.0-6.0-3.17","3106474","co37876","norming","","","{""guess"":""eekhoorn""}","","../img/tt/552tt.jpg","",""
"null","../img/gs/552gs.jpg","null","reveal","image-keyboard-response","129","606529","0.0-6.0-4.17","3106474","co37876","norming","","","","","","",""
"null","../img/tt/552tt.jpg","null","mooney2","image-keyboard-response","130","608537","0.0-6.0-5.17","3106474","co37876","norming","","","","","","",""
"3142.8999999997905","","","post_reveal_questions","survey-likert","131","611682","0.0-6.0-6.17","3106474","co37876","norming","","","{""aha"":2}","[0]","../img/tt/552tt.jpg","",""
"null","<div style=""font-size:60px;""> </div>","null","fixation","html-keyboard-response","132","611883","0.0-6.0-0.18","3106474","co37876","norming","","","","","","",""
"null","../img/tt/1069tt.jpg","null","mooney1","image-keyboard-response","133","614892","0.0-6.0-1.18","3106474","co37876","norming","","","","","","",""
"6107.469999999972","","","post_mooney1_questions","survey-likert","134","621003","0.0-6.0-2.18","3106474","co37876","norming","","","{""curiosity"":5,""confidence"":4}","[0,1]","../img/tt/1069tt.jpg","",""
"3174.054999999469","","","recognition","survey-text","135","624178","0.0-6.0-3.18","3106474","co37876","norming","","","{""guess"":""olifant""}","","../img/tt/1069tt.jpg","",""
"null","../img/gs/1069gs.jpg","null","reveal","image-keyboard-response","136","626181","0.0-6.0-4.18","3106474","co37876","norming","","","","","","",""
"null","../img/tt/1069tt.jpg","null","mooney2","image-keyboard-response","137","628192","0.0-6.0-5.18","3106474","co37876","norming","","","","","","",""
"3448.3749999998836","","","post_reveal_questions","survey-likert","138","631642","0.0-6.0-6.18","3106474","co37876","norming","","","{""aha"":2}","[0]","../img/tt/1069tt.jpg","",""
"null","<div style=""font-size:60px;""> </div>","null","fixation","html-keyboard-response","139","631844","0.0-6.0-0.19","3106474","co37876","norming","","","","","","",""
"null","../img/tt/412tt.jpg","null","mooney1","image-keyboard-response","140","634852","0.0-6.0-1.19","3106474","co37876","norming","","","","","","",""
"5299.845000000438","","","post_mooney1_questions","survey-likert","141","640154","0.0-6.0-2.19","3106474","co37876","norming","","","{""curiosity"":3,""confidence"":2}","[0,1]","../img/tt/412tt.jpg","",""
"3005.510000000824","","","recognition","survey-text","142","643162","0.0-6.0-3.19","3106474","co37876","norming","","","{""guess"":""zwaan""}","","../img/tt/412tt.jpg","",""
"null","../img/gs/412gs.jpg","null","reveal","image-keyboard-response","143","645171","0.0-6.0-4.19","3106474","co37876","norming","","","","","","",""
"null","../img/tt/412tt.jpg","null","mooney2","image-keyboard-response","144","647173","0.0-6.0-5.19","3106474","co37876","norming","","","","","","",""
"3460.0149999995483","","","post_reveal_questions","survey-likert","145","650634","0.0-6.0-6.19","3106474","co37876","norming","","","{""aha"":3}","[0]","../img/tt/412tt.jpg","",""
"null","<div style=""font-size:60px;""> </div>","null","fixation","html-keyboard-response","146","650839","0.0-6.0-0.20","3106474","co37876","norming","","","","","","",""
"null","../img/tt/1202tt.jpg","null","mooney1","image-keyboard-response","147","653842","0.0-6.0-1.20","3106474","co37876","norming","","","","","","",""
"4454.204999999958","","","post_mooney1_questions","survey-likert","148","658298","0.0-6.0-2.20","3106474","co37876","norming","","","{""curiosity"":1,""confidence"":0}","[0,1]","../img/tt/1202tt.jpg","",""
"1325.7549999997718","","","recognition","survey-text","149","659626","0.0-6.0-3.20","3106474","co37876","norming","","","{""guess"":""""}","","../img/tt/1202tt.jpg","",""
"null","../img/gs/1202gs.jpg","null","reveal","image-keyboard-response","150","661629","0.0-6.0-4.20","3106474","co37876","norming","","","","","","",""
"null","../img/tt/1202tt.jpg","null","mooney2","image-keyboard-response","151","663637","0.0-6.0-5.20","3106474","co37876","norming","","","","","","",""
"3018.6350000003586","","","post_reveal_questions","survey-likert","152","666658","0.0-6.0-6.20","3106474","co37876","norming","","","{""aha"":1}","[0]","../img/tt/1202tt.jpg","",""
"null","<div style=""font-size:60px;""> </div>","null","fixation","html-keyboard-response","153","666859","0.0-6.0-0.21","3106474","co37876","norming","","","","","","",""
"null","../img/tt/1043tt.jpg","null","mooney1","image-keyboard-response","154","669865","0.0-6.0-1.21","3106474","co37876","norming","","","","","","",""
"7182.2249999996275","","","post_mooney1_questions","survey-likert","155","677050","0.0-6.0-2.21","3106474","co37876","norming","","","{""curiosity"":2,""confidence"":0}","[0,1]","../img/tt/1043tt.jpg","",""
"909.7400000001071","","","recognition","survey-text","156","677962","0.0-6.0-3.21","3106474","co37876","norming","","","{""guess"":""""}","","../img/tt/1043tt.jpg","",""
"null","../img/gs/1043gs.jpg","null","reveal","image-keyboard-response","157","679967","0.0-6.0-4.21","3106474","co37876","norming","","","","","","",""
"null","../img/tt/1043tt.jpg","null","mooney2","image-keyboard-response","158","681970","0.0-6.0-5.21","3106474","co37876","norming","","","","","","",""
"3918.970000000554","","","post_reveal_questions","survey-likert","159","685890","0.0-6.0-6.21","3106474","co37876","norming","","","{""aha"":1}","[0]","../img/tt/1043tt.jpg","",""
"null","<div style=""font-size:60px;""> </div>","null","fixation","html-keyboard-response","160","686096","0.0-6.0-0.22","3106474","co37876","norming","","","","","","",""
"null","../img/tt/507tt.jpg","null","mooney1","image-keyboard-response","161","689104","0.0-6.0-1.22","3106474","co37876","norming","","","","","","",""
"4761.070000000414","","","post_mooney1_questions","survey-likert","162","693866","0.0-6.0-2.22","3106474","co37876","norming","","","{""curiosity"":4,""confidence"":3}","[0,1]","../img/tt/507tt.jpg","",""
"5893.425000000163","","","recognition","survey-text","163","699762","0.0-6.0-3.22","3106474","co37876","norming","","","{""guess"":""optreden""}","","../img/tt/507tt.jpg","",""
"null","../img/gs/507gs.jpg","null","reveal","image-keyboard-response","164","701766","0.0-6.0-4.22","3106474","co37876","norming","","","","","","",""
"null","../img/tt/507tt.jpg","null","mooney2","image-keyboard-response","165","703769","0.0-6.0-5.22","3106474","co37876","norming","","","","","","",""
"3182.5650000000605","","","post_reveal_questions","survey-likert","166","706954","0.0-6.0-6.22","3106474","co37876","norming","","","{""aha"":3}","[0]","../img/tt/507tt.jpg","",""
"null","<div style=""font-size:60px;""> </div>","null","fixation","html-keyboard-response","167","707155","0.0-6.0-0.23","3106474","co37876","norming","","","","","","",""
"null","../img/tt/1156tt.jpg","null","mooney1","image-keyboard-response","168","710165","0.0-6.0-1.23","3106474","co37876","norming","","","","","","",""
"6163.380000000005","","","post_mooney1_questions","survey-likert","169","716330","0.0-6.0-2.23","3106474","co37876","norming","","","{""curiosity"":4,""confidence"":5}","[0,1]","../img/tt/1156tt.jpg","",""
"7597.8150000000605","","","recognition","survey-text","170","723930","0.0-6.0-3.23","3106474","co37876","norming","","","{""guess"":""vrouw strand""}","","../img/tt/1156tt.jpg","",""
"null","../img/gs/1156gs.jpg","null","reveal","image-keyboard-response","171","725932","0.0-6.0-4.23","3106474","co37876","norming","","","","","","",""
"null","../img/tt/1156tt.jpg","null","mooney2","image-keyboard-response","172","727943","0.0-6.0-5.23","3106474","co37876","norming","","","","","","",""
"3865.9950000001118","","","post_reveal_questions","survey-likert","173","731810","0.0-6.0-6.23","3106474","co37876","norming","","","{""aha"":3}","[0]","../img/tt/1156tt.jpg","",""
"null","<div style=""font-size:60px;""> </div>","null","fixation","html-keyboard-response","174","732012","0.0-6.0-0.24","3106474","co37876","norming","","","","","","",""
"null","../img/tt/1251tt.jpg","null","mooney1","image-keyboard-response","175","735014","0.0-6.0-1.24","3106474","co37876","norming","","","","","","",""
"4843.219999999739","","","post_mooney1_questions","survey-likert","176","739858","0.0-6.0-2.24","3106474","co37876","norming","","","{""curiosity"":1,""confidence"":0}","[0,1]","../img/tt/1251tt.jpg","",""
"1086.0449999991106","","","recognition","survey-text","177","740946","0.0-6.0-3.24","3106474","co37876","norming","","","{""guess"":""""}","","../img/tt/1251tt.jpg","",""
"null","../img/gs/1251gs.jpg","null","reveal","image-keyboard-response","178","742955","0.0-6.0-4.24","3106474","co37876","norming","","","","","","",""
"null","../img/tt/1251tt.jpg","null","mooney2","image-keyboard-response","179","744965","0.0-6.0-5.24","3106474","co37876","norming","","","","","","",""
"2387.4750000004424","","","post_reveal_questions","survey-likert","180","747354","0.0-6.0-6.24","3106474","co37876","norming","","","{""aha"":2}","[0]","../img/tt/1251tt.jpg","",""
"null","<div style=""font-size:60px;""> </div>","null","fixation","html-keyboard-response","181","747555","0.0-6.0-0.25","3106474","co37876","norming","","","","","","",""
"null","../img/tt/124tt.jpg","null","mooney1","image-keyboard-response","182","750566","0.0-6.0-1.25","3106474","co37876","norming","","","","","","",""
"4282.710000000312","","","post_mooney1_questions","survey-likert","183","754850","0.0-6.0-2.25","3106474","co37876","norming","","","{""curiosity"":5,""confidence"":5}","[0,1]","../img/tt/124tt.jpg","",""
"2525.9599999999627","","","recognition","survey-text","184","757373","0.0-6.0-3.25","3106474","co37876","norming","","","{""guess"":""panda""}","","../img/tt/124tt.jpg","",""
"null","../img/gs/124gs.jpg","null","reveal","image-keyboard-response","185","759375","0.0-6.0-4.25","3106474","co37876","norming","","","","","","",""
"null","../img/tt/124tt.jpg","null","mooney2","image-keyboard-response","186","761381","0.0-6.0-5.25","3106474","co37876","norming","","","","","","",""
"4271.780000000028","","","post_reveal_questions","survey-likert","187","765653","0.0-6.0-6.25","3106474","co37876","norming","","","{""aha"":4}","[0]","../img/tt/124tt.jpg","",""
"null","<div style=""font-size:60px;""> </div>","null","fixation","html-keyboard-response","188","765860","0.0-6.0-0.26","3106474","co37876","norming","","","","","","",""
"null","../img/tt/1260tt.jpg","null","mooney1","image-keyboard-response","189","768869","0.0-6.0-1.26","3106474","co37876","norming","","","","","","",""
"4847.5499999994645","","","post_mooney1_questions","survey-likert","190","773718","0.0-6.0-2.26","3106474","co37876","norming","","","{""curiosity"":1,""confidence"":0}","[0,1]","../img/tt/1260tt.jpg","",""
"686.0549999992363","","","recognition","survey-text","191","774405","0.0-6.0-3.26","3106474","co37876","norming","","","{""guess"":""""}","","../img/tt/1260tt.jpg","",""
"null","../img/gs/1260gs.jpg","null","reveal","image-keyboard-response","192","776408","0.0-6.0-4.26","3106474","co37876","norming","","","","","","",""
"null","../img/tt/1260tt.jpg","null","mooney2","image-keyboard-response","193","778412","0.0-6.0-5.26","3106474","co37876","norming","","","","","","",""
"2944.770000000135","","","post_reveal_questions","survey-likert","194","781358","0.0-6.0-6.26","3106474","co37876","norming","","","{""aha"":1}","[0]","../img/tt/1260tt.jpg","",""
"null","<div style=""font-size:60px;""> </div>","null","fixation","html-keyboard-response","195","781562","0.0-6.0-0.27","3106474","co37876","norming","","","","","","",""
"null","../img/tt/497tt.jpg","null","mooney1","image-keyboard-response","196","784571","0.0-6.0-1.27","3106474","co37876","norming","","","","","","",""
"6577.809999999707","","","post_mooney1_questions","survey-likert","197","791150","0.0-6.0-2.27","3106474","co37876","norming","","","{""curiosity"":3,""confidence"":4}","[0,1]","../img/tt/497tt.jpg","",""
"3766.0150000001304","","","recognition","survey-text","198","794918","0.0-6.0-3.27","3106474","co37876","norming","","","{""guess"":""kookplaat""}","","../img/tt/497tt.jpg","",""
"null","../img/gs/497gs.jpg","null","reveal","image-keyboard-response","199","796927","0.0-6.0-4.27","3106474","co37876","norming","","","","","","",""
"null","../img/tt/497tt.jpg","null","mooney2","image-keyboard-response","200","798934","0.0-6.0-5.27","3106474","co37876","norming","","","","","","",""
"4230.574999999488","","","post_reveal_questions","survey-likert","201","803166","0.0-6.0-6.27","3106474","co37876","norming","","","{""aha"":0}","[0]","../img/tt/497tt.jpg","",""
"null","<div style=""font-size:60px;""> </div>","null","fixation","html-keyboard-response","202","803371","0.0-6.0-0.28","3106474","co37876","norming","","","","","","",""
"null","../img/tt/1148tt.jpg","null","mooney1","image-keyboard-response","203","806376","0.0-6.0-1.28","3106474","co37876","norming","","","","","","",""
"5756.450000000768","","","post_mooney1_questions","survey-likert","204","812134","0.0-6.0-2.28","3106474","co37876","norming","","","{""curiosity"":5,""confidence"":5}","[0,1]","../img/tt/1148tt.jpg","",""
"3261.714999999618","","","recognition","survey-text","205","815398","0.0-6.0-3.28","3106474","co37876","norming","","","{""guess"":""waterpolo""}","","../img/tt/1148tt.jpg","",""
"null","../img/gs/1148gs.jpg","null","reveal","image-keyboard-response","206","817405","0.0-6.0-4.28","3106474","co37876","norming","","","","","","",""
"null","../img/tt/1148tt.jpg","null","mooney2","image-keyboard-response","207","819407","0.0-6.0-5.28","3106474","co37876","norming","","","","","","",""
"2546.7099999996135","","","post_reveal_questions","survey-likert","208","821954","0.0-6.0-6.28","3106474","co37876","norming","","","{""aha"":1}","[0]","../img/tt/1148tt.jpg","",""
"null","<div style=""font-size:60px;""> </div>","null","fixation","html-keyboard-response","209","822164","0.0-6.0-0.29","3106474","co37876","norming","","","","","","",""
"null","../img/tt/300tt.jpg","null","mooney1","image-keyboard-response","210","825166","0.0-6.0-1.29","3106474","co37876","norming","","","","","","",""
"4299.815000000293","","","post_mooney1_questions","survey-likert","211","829466","0.0-6.0-2.29","3106474","co37876","norming","","","{""curiosity"":1,""confidence"":0}","[0,1]","../img/tt/300tt.jpg","",""
"933.8100000005215","","","recognition","survey-text","212","830402","0.0-6.0-3.29","3106474","co37876","norming","","","{""guess"":""""}","","../img/tt/300tt.jpg","",""
"null","../img/gs/300gs.jpg","null","reveal","image-keyboard-response","213","832409","0.0-6.0-4.29","3106474","co37876","norming","","","","","","",""
"null","../img/tt/300tt.jpg","null","mooney2","image-keyboard-response","214","834412","0.0-6.0-5.29","3106474","co37876","norming","","","","","","",""
"3861.1849999997066","","","post_reveal_questions","survey-likert","215","838274","0.0-6.0-6.29","3106474","co37876","norming","","","{""aha"":3}","[0]","../img/tt/300tt.jpg","",""
"null","<div style=""font-size:60px;""> </div>","null","fixation","html-keyboard-response","216","838482","0.0-6.0-0.30","3106474","co37876","norming","","","","","","",""
"null","../img/tt/1061tt.jpg","null","mooney1","image-keyboard-response","217","841492","0.0-6.0-1.30","3106474","co37876","norming","","","","","","",""
"5180.745000000577","","","post_mooney1_questions","survey-likert","218","846674","0.0-6.0-2.30","3106474","co37876","norming","","","{""curiosity"":4,""confidence"":2}","[0,1]","../img/tt/1061tt.jpg","",""
"3046.1850000001723","","","recognition","survey-text","219","849722","0.0-6.0-3.30","3106474","co37876","norming","","","{""guess"":""plein""}","","../img/tt/1061tt.jpg","",""
"null","../img/gs/1061gs.jpg","null","reveal","image-keyboard-response","220","851729","0.0-6.0-4.30","3106474","co37876","norming","","","","","","",""
"null","../img/tt/1061tt.jpg","null","mooney2","image-keyboard-response","221","853737","0.0-6.0-5.30","3106474","co37876","norming","","","","","","",""
"5088.19000000041","","","post_reveal_questions","survey-likert","222","858826","0.0-6.0-6.30","3106474","co37876","norming","","","{""aha"":2}","[0]","../img/tt/1061tt.jpg","",""
"null","<div style=""font-size:60px;""> </div>","null","fixation","html-keyboard-response","223","859037","0.0-6.0-0.31","3106474","co37876","norming","","","","","","",""
"null","../img/tt/1143tt.jpg","null","mooney1","image-keyboard-response","224","862040","0.0-6.0-1.31","3106474","co37876","norming","","","","","","",""
"5153.094999999739","","","post_mooney1_questions","survey-likert","225","867194","0.0-6.0-2.31","3106474","co37876","norming","","","{""curiosity"":4,""confidence"":5}","[0,1]","../img/tt/1143tt.jpg","",""
"2670.2000000005355","","","recognition","survey-text","226","869866","0.0-6.0-3.31","3106474","co37876","norming","","","{""guess"":""fitness""}","","../img/tt/1143tt.jpg","",""
"null","../img/gs/1143gs.jpg","null","reveal","image-keyboard-response","227","871872","0.0-6.0-4.31","3106474","co37876","norming","","","","","","",""
"null","../img/tt/1143tt.jpg","null","mooney2","image-keyboard-response","228","873882","0.0-6.0-5.31","3106474","co37876","norming","","","","","","",""
"3023.460000000312","","","post_reveal_questions","survey-likert","229","876906","0.0-6.0-6.31","3106474","co37876","norming","","","{""aha"":1}","[0]","../img/tt/1143tt.jpg","",""
"null","<div style=""font-size:60px;""> </div>","null","fixation","html-keyboard-response","230","877116","0.0-6.0-0.32","3106474","co37876","norming","","","","","","",""
"null","../img/tt/123tt.jpg","null","mooney1","image-keyboard-response","231","880120","0.0-6.0-1.32","3106474","co37876","norming","","","","","","",""
"5777.95500000054","","","post_mooney1_questions","survey-likert","232","885899","0.0-6.0-2.32","3106474","co37876","norming","","","{""curiosity"":5,""confidence"":2}","[0,1]","../img/tt/123tt.jpg","",""
"950.0299999999115","","","recognition","survey-text","233","886850","0.0-6.0-3.32","3106474","co37876","norming","","","{""guess"":""""}","","../img/tt/123tt.jpg","",""
"null","../img/gs/123gs.jpg","null","reveal","image-keyboard-response","234","888861","0.0-6.0-4.32","3106474","co37876","norming","","","","","","",""
"null","../img/tt/123tt.jpg","null","mooney2","image-keyboard-response","235","890863","0.0-6.0-5.32","3106474","co37876","norming","","","","","","",""
"2554.5199999996694","","","post_reveal_questions","survey-likert","236","893418","0.0-6.0-6.32","3106474","co37876","norming","","","{""aha"":4}","[0]","../img/tt/123tt.jpg","",""
"null","<div style=""font-size:60px;""> </div>","null","fixation","html-keyboard-response","237","893621","0.0-6.0-0.33","3106474","co37876","norming","","","","","","",""
"null","../img/tt/1024tt.jpg","null","mooney1","image-keyboard-response","238","896625","0.0-6.0-1.33","3106474","co37876","norming","","","","","","",""
"7280.300000000279","","","post_mooney1_questions","survey-likert","239","903907","0.0-6.0-2.33","3106474","co37876","norming","","","{""curiosity"":5,""confidence"":4}","[0,1]","../img/tt/1024tt.jpg","",""
"2621.700000000652","","","recognition","survey-text","240","906530","0.0-6.0-3.33","3106474","co37876","norming","","","{""guess"":""vrouw""}","","../img/tt/1024tt.jpg","",""
"null","../img/gs/1024gs.jpg","null","reveal","image-keyboard-response","241","908534","0.0-6.0-4.33","3106474","co37876","norming","","","","","","",""
"null","../img/tt/1024tt.jpg","null","mooney2","image-keyboard-response","242","910545","0.0-6.0-5.33","3106474","co37876","norming","","","","","","",""
"3448.8800000000047","","","post_reveal_questions","survey-likert","243","913994","0.0-6.0-6.33","3106474","co37876","norming","","","{""aha"":4}","[0]","../img/tt/1024tt.jpg","",""
"null","<div style=""font-size:60px;""> </div>","null","fixation","html-keyboard-response","244","914199","0.0-6.0-0.34","3106474","co37876","norming","","","","","","",""
"null","../img/tt/1247tt.jpg","null","mooney1","image-keyboard-response","245","917201","0.0-6.0-1.34","3106474","co37876","norming","","","","","","",""
"3712.330000000191","","","post_mooney1_questions","survey-likert","246","920914","0.0-6.0-2.34","3106474","co37876","norming","","","{""curiosity"":2,""confidence"":0}","[0,1]","../img/tt/1247tt.jpg","",""
"693.680000000284","","","recognition","survey-text","247","921610","0.0-6.0-3.34","3106474","co37876","norming","","","{""guess"":""""}","","../img/tt/1247tt.jpg","",""
"null","../img/gs/1247gs.jpg","null","reveal","image-keyboard-response","248","923613","0.0-6.0-4.34","3106474","co37876","norming","","","","","","",""
"null","../img/tt/1247tt.jpg","null","mooney2","image-keyboard-response","249","925619","0.0-6.0-5.34","3106474","co37876","norming","","","","","","",""
"3782.6249999998836","","","post_reveal_questions","survey-likert","250","929402","0.0-6.0-6.34","3106474","co37876","norming","","","{""aha"":3}","[0]","../img/tt/1247tt.jpg","",""
"null","<div style=""font-size:60px;""> </div>","null","fixation","html-keyboard-response","251","929616","0.0-6.0-0.35","3106474","co37876","norming","","","","","","",""
"null","../img/tt/436tt.jpg","null","mooney1","image-keyboard-response","252","932629","0.0-6.0-1.35","3106474","co37876","norming","","","","","","",""
"4956.669999999576","","","post_mooney1_questions","survey-likert","253","937588","0.0-6.0-2.35","3106474","co37876","norming","","","{""curiosity"":2,""confidence"":0}","[0,1]","../img/tt/436tt.jpg","",""
"628.2949999994598","","","recognition","survey-text","254","938218","0.0-6.0-3.35","3106474","co37876","norming","","","{""guess"":""""}","","../img/tt/436tt.jpg","",""
"null","../img/gs/436gs.jpg","null","reveal","image-keyboard-response","255","940228","0.0-6.0-4.35","3106474","co37876","norming","","","","","","",""
"null","../img/tt/436tt.jpg","null","mooney2","image-keyboard-response","256","942228","0.0-6.0-5.35","3106474","co37876","norming","","","","","","",""
"2420.734999999753","","","post_reveal_questions","survey-likert","257","944650","0.0-6.0-6.35","3106474","co37876","norming","","","{""aha"":2}","[0]","../img/tt/436tt.jpg","",""
"null","<div style=""font-size:60px;""> </div>","null","fixation","html-keyboard-response","258","944855","0.0-6.0-0.36","3106474","co37876","norming","","","","","","",""
"null","../img/tt/046tt.jpg","null","mooney1","image-keyboard-response","259","947863","0.0-6.0-1.36","3106474","co37876","norming","","","","","","",""
"5530.539999999804","","","post_mooney1_questions","survey-likert","260","953394","0.0-6.0-2.36","3106474","co37876","norming","","","{""curiosity"":1,""confidence"":0}","[0,1]","../img/tt/046tt.jpg","",""
"798.010000000475","","","recognition","survey-text","261","954194","0.0-6.0-3.36","3106474","co37876","norming","","","{""guess"":""""}","","../img/tt/046tt.jpg","",""
"null","../img/gs/046gs.jpg","null","reveal","image-keyboard-response","262","956204","0.0-6.0-4.36","3106474","co37876","norming","","","","","","",""
"null","../img/tt/046tt.jpg","null","mooney2","image-keyboard-response","263","958209","0.0-6.0-5.36","3106474","co37876","norming","","","","","","",""
"3464.2850000000326","","","post_reveal_questions","survey-likert","264","961674","0.0-6.0-6.36","3106474","co37876","norming","","","{""aha"":5}","[0]","../img/tt/046tt.jpg","",""
"null","<div style=""font-size:60px;""> </div>","null","fixation","html-keyboard-response","265","961885","0.0-6.0-0.37","3106474","co37876","norming","","","","","","",""
"null","../img/tt/357tt.jpg","null","mooney1","image-keyboard-response","266","964893","0.0-6.0-1.37","3106474","co37876","norming","","","","","","",""
"3884.699999999604","","","post_mooney1_questions","survey-likert","267","968779","0.0-6.0-2.37","3106474","co37876","norming","","","{""curiosity"":2,""confidence"":0}","[0,1]","../img/tt/357tt.jpg","",""
"1037.180000000284","","","recognition","survey-text","268","969818","0.0-6.0-3.37","3106474","co37876","norming","","","{""guess"":""""}","","../img/tt/357tt.jpg","",""
"null","../img/gs/357gs.jpg","null","reveal","image-keyboard-response","269","971821","0.0-6.0-4.37","3106474","co37876","norming","","","","","","",""
"null","../img/tt/357tt.jpg","null","mooney2","image-keyboard-response","270","973830","0.0-6.0-5.37","3106474","co37876","norming","","","","","","",""
"3195.4800000003306","","","post_reveal_questions","survey-likert","271","977027","0.0-6.0-6.37","3106474","co37876","norming","","","{""aha"":5}","[0]","../img/tt/357tt.jpg","",""
"null","<div style=""font-size:60px;""> </div>","null","fixation","html-keyboard-response","272","977236","0.0-6.0-0.38","3106474","co37876","norming","","","","","","",""
"null","../img/tt/194tt.jpg","null","mooney1","image-keyboard-response","273","980238","0.0-6.0-1.38","3106474","co37876","norming","","","","","","",""
"5387.429999999818","","","post_mooney1_questions","survey-likert","274","985627","0.0-6.0-2.38","3106474","co37876","norming","","","{""curiosity"":2,""confidence"":6}","[0,1]","../img/tt/194tt.jpg","",""
"5165.570000000065","","","recognition","survey-text","275","990794","0.0-6.0-3.38","3106474","co37876","norming","","","{""guess"":""vrouw, harp""}","","../img/tt/194tt.jpg","",""
"null","../img/gs/194gs.jpg","null","reveal","image-keyboard-response","276","992795","0.0-6.0-4.38","3106474","co37876","norming","","","","","","",""
"null","../img/tt/194tt.jpg","null","mooney2","image-keyboard-response","277","994802","0.0-6.0-5.38","3106474","co37876","norming","","","","","","",""
"2919.7050000003073","","","post_reveal_questions","survey-likert","278","997723","0.0-6.0-6.38","3106474","co37876","norming","","","{""aha"":0}","[0]","../img/tt/194tt.jpg","",""
"null","<div style=""font-size:60px;""> </div>","null","fixation","html-keyboard-response","279","997933","0.0-6.0-0.39","3106474","co37876","norming","","","","","","",""
"null","../img/tt/1186tt.jpg","null","mooney1","image-keyboard-response","280","1000943","0.0-6.0-1.39","3106474","co37876","norming","","","","","","",""
"4394.65000000014","","","post_mooney1_questions","survey-likert","281","1005338","0.0-6.0-2.39","3106474","co37876","norming","","","{""curiosity"":5,""confidence"":4}","[0,1]","../img/tt/1186tt.jpg","",""
"3533.919999999809","","","recognition","survey-text","282","1008874","0.0-6.0-3.39","3106474","co37876","norming","","","{""guess"":""wandelaar""}","","../img/tt/1186tt.jpg","",""
"null","../img/gs/1186gs.jpg","null","reveal","image-keyboard-response","283","1010883","0.0-6.0-4.39","3106474","co37876","norming","","","","","","",""
"null","../img/tt/1186tt.jpg","null","mooney2","image-keyboard-response","284","1012886","0.0-6.0-5.39","3106474","co37876","norming","","","","","","",""
"2291.3149999994785","","","post_reveal_questions","survey-likert","285","1015178","0.0-6.0-6.39","3106474","co37876","norming","","","{""aha"":4}","[0]","../img/tt/1186tt.jpg","",""
"null","<div style=""font-size:60px;""> </div>","null","fixation","html-keyboard-response","286","1015380","0.0-6.0-0.40","3106474","co37876","norming","","","","","","",""
"null","../img/tt/435tt.jpg","null","mooney1","image-keyboard-response","287","1018386","0.0-6.0-1.40","3106474","co37876","norming","","","","","","",""
"5255.245000000228","","","post_mooney1_questions","survey-likert","288","1023643","0.0-6.0-2.40","3106474","co37876","norming","","","{""curiosity"":5,""confidence"":2}","[0,1]","../img/tt/435tt.jpg","",""
"789.7849999999162","","","recognition","survey-text","289","1024435","0.0-6.0-3.40","3106474","co37876","norming","","","{""guess"":""""}","","../img/tt/435tt.jpg","",""
"null","../img/gs/435gs.jpg","null","reveal","image-keyboard-response","290","1026436","0.0-6.0-4.40","3106474","co37876","norming","","","","","","",""
"null","../img/tt/435tt.jpg","null","mooney2","image-keyboard-response","291","1028436","0.0-6.0-5.40","3106474","co37876","norming","","","","","","",""
"2900.744999999879","","","post_reveal_questions","survey-likert","292","1031338","0.0-6.0-6.40","3106474","co37876","norming","","","{""aha"":5}","[0]","../img/tt/435tt.jpg","",""
"null","<div style=""font-size:60px;""> </div>","null","fixation","html-keyboard-response","293","1031545","0.0-6.0-0.41","3106474","co37876","norming","","","","","","",""
"null","../img/tt/084tt.jpg","null","mooney1","image-keyboard-response","294","1034552","0.0-6.0-1.41","3106474","co37876","norming","","","","","","",""
"8354.04999999993","","","post_mooney1_questions","survey-likert","295","1042907","0.0-6.0-2.41","3106474","co37876","norming","","","{""curiosity"":4,""confidence"":4}","[0,1]","../img/tt/084tt.jpg","",""
"2893.179999999935","","","recognition","survey-text","296","1045802","0.0-6.0-3.41","3106474","co37876","norming","","","{""guess"":""vogel""}","","../img/tt/084tt.jpg","",""
"null","../img/gs/084gs.jpg","null","reveal","image-keyboard-response","297","1047808","0.0-6.0-4.41","3106474","co37876","norming","","","","","","",""
"null","../img/tt/084tt.jpg","null","mooney2","image-keyboard-response","298","1049809","0.0-6.0-5.41","3106474","co37876","norming","","","","","","",""
"2512.8399999993853","","","post_reveal_questions","survey-likert","299","1052323","0.0-6.0-6.41","3106474","co37876","norming","","","{""aha"":2}","[0]","../img/tt/084tt.jpg","",""
"null","<div style=""font-size:60px;""> </div>","null","fixation","html-keyboard-response","300","1052524","0.0-6.0-0.42","3106474","co37876","norming","","","","","","",""
"null","../img/tt/1161tt.jpg","null","mooney1","image-keyboard-response","301","1055532","0.0-6.0-1.42","3106474","co37876","norming","","","","","","",""
"3557.534999999916","","","post_mooney1_questions","survey-likert","302","1059091","0.0-6.0-2.42","3106474","co37876","norming","","","{""curiosity"":4,""confidence"":4}","[0,1]","../img/tt/1161tt.jpg","",""
"5030.060000000056","","","recognition","survey-text","303","1064114","0.0-6.0-3.42","3106474","co37876","norming","","","{""guess"":""bergbeklimmer""}","","../img/tt/1161tt.jpg","",""
"null","../img/gs/1161gs.jpg","null","reveal","image-keyboard-response","304","1066121","0.0-6.0-4.42","3106474","co37876","norming","","","","","","",""
"null","../img/tt/1161tt.jpg","null","mooney2","image-keyboard-response","305","1068129","0.0-6.0-5.42","3106474","co37876","norming","","","","","","",""
"3223.7600000000093","","","post_reveal_questions","survey-likert","306","1071355","0.0-6.0-6.42","3106474","co37876","norming","","","{""aha"":1}","[0]","../img/tt/1161tt.jpg","",""
"null","<div style=""font-size:60px;""> </div>","null","fixation","html-keyboard-response","307","1071559","0.0-6.0-0.43","3106474","co37876","norming","","","","","","",""
"null","../img/tt/1078tt.jpg","null","mooney1","image-keyboard-response","308","1074562","0.0-6.0-1.43","3106474","co37876","norming","","","","","","",""
"4374.794999999693","","","post_mooney1_questions","survey-likert","309","1078938","0.0-6.0-2.43","3106474","co37876","norming","","","{""curiosity"":5,""confidence"":4}","[0,1]","../img/tt/1078tt.jpg","",""
"3990.0099999995437","","","recognition","survey-text","310","1082930","0.0-6.0-3.43","3106474","co37876","norming","","","{""guess"":""""}","","../img/tt/1078tt.jpg","",""
"null","../img/gs/1078gs.jpg","null","reveal","image-keyboard-response","311","1084931","0.0-6.0-4.43","3106474","co37876","norming","","","","","","",""
"null","../img/tt/1078tt.jpg","null","mooney2","image-keyboard-response","312","1086933","0.0-6.0-5.43","3106474","co37876","norming","","","","","","",""
"2876.7750000006054","","","post_reveal_questions","survey-likert","313","1089811","0.0-6.0-6.43","3106474","co37876","norming","","","{""aha"":4}","[0]","../img/tt/1078tt.jpg","",""
"null","<div style=""font-size:60px;""> </div>","null","fixation","html-keyboard-response","314","1090013","0.0-6.0-0.44","3106474","co37876","norming","","","","","","",""
"null","../img/tt/1086tt.jpg","null","mooney1","image-keyboard-response","315","1093015","0.0-6.0-1.44","3106474","co37876","norming","","","","","","",""
"4593.945000000531","","","post_mooney1_questions","survey-likert","316","1097611","0.0-6.0-2.44","3106474","co37876","norming","","","{""curiosity"":4,""confidence"":1}","[0,1]","../img/tt/1086tt.jpg","",""
"613.9299999994691","","","recognition","survey-text","317","1098226","0.0-6.0-3.44","3106474","co37876","norming","","","{""guess"":""""}","","../img/tt/1086tt.jpg","",""
"null","../img/gs/1086gs.jpg","null","reveal","image-keyboard-response","318","1100229","0.0-6.0-4.44","3106474","co37876","norming","","","","","","",""
"null","../img/tt/1086tt.jpg","null","mooney2","image-keyboard-response","319","1102232","0.0-6.0-5.44","3106474","co37876","norming","","","","","","",""
"2289.2599999995437","","","post_reveal_questions","survey-likert","320","1104523","0.0-6.0-6.44","3106474","co37876","norming","","","{""aha"":5}","[0]","../img/tt/1086tt.jpg","",""
"null","<div style=""font-size:60px;""> </div>","null","fixation","html-keyboard-response","321","1104725","0.0-6.0-0.45","3106474","co37876","norming","","","","","","",""
"null","../img/tt/1353tt.jpg","null","mooney1","image-keyboard-response","322","1107727","0.0-6.0-1.45","3106474","co37876","norming","","","","","","",""
"5001.795000000158","","","post_mooney1_questions","survey-likert","323","1112730","0.0-6.0-2.45","3106474","co37876","norming","","","{""curiosity"":5,""confidence"":0}","[0,1]","../img/tt/1353tt.jpg","",""
"830.0999999991618","","","recognition","survey-text","324","1113562","0.0-6.0-3.45","3106474","co37876","norming","","","{""guess"":""""}","","../img/tt/1353tt.jpg","",""
"null","../img/gs/1353gs.jpg","null","reveal","image-keyboard-response","325","1115569","0.0-6.0-4.45","3106474","co37876","norming","","","","","","",""
"null","../img/tt/1353tt.jpg","null","mooney2","image-keyboard-response","326","1117579","0.0-6.0-5.45","3106474","co37876","norming","","","","","","",""
"3022.4950000001118","","","post_reveal_questions","survey-likert","327","1120602","0.0-6.0-6.45","3106474","co37876","norming","","","{""aha"":4}","[0]","../img/tt/1353tt.jpg","",""
"null","<div style=""font-size:60px;""> </div>","null","fixation","html-keyboard-response","328","1120808","0.0-6.0-0.46","3106474","co37876","norming","","","","","","",""
"null","../img/tt/1250tt.jpg","null","mooney1","image-keyboard-response","329","1123825","0.0-6.0-1.46","3106474","co37876","norming","","","","","","",""
"6872.000000000233","","","post_mooney1_questions","survey-likert","330","1130698","0.0-6.0-2.46","3106474","co37876","norming","","","{""curiosity"":5,""confidence"":4}","[0,1]","../img/tt/1250tt.jpg","",""
"2093.6299999994226","","","recognition","survey-text","331","1132794","0.0-6.0-3.46","3106474","co37876","norming","","","{""guess"":""beer""}","","../img/tt/1250tt.jpg","",""
"null","../img/gs/1250gs.jpg","null","reveal","image-keyboard-response","332","1134802","0.0-6.0-4.46","3106474","co37876","norming","","","","","","",""
"null","../img/tt/1250tt.jpg","null","mooney2","image-keyboard-response","333","1136805","0.0-6.0-5.46","3106474","co37876","norming","","","","","","",""
"3964.3450000004377","","","post_reveal_questions","survey-likert","334","1140770","0.0-6.0-6.46","3106474","co37876","norming","","","{""aha"":1}","[0]","../img/tt/1250tt.jpg","",""
"null","<div style=""font-size:60px;""> </div>","null","fixation","html-keyboard-response","335","1140975","0.0-6.0-0.47","3106474","co37876","norming","","","","","","",""
"null","../img/tt/118tt.jpg","null","mooney1","image-keyboard-response","336","1143979","0.0-6.0-1.47","3106474","co37876","norming","","","","","","",""
"6782.475000000093","","","post_mooney1_questions","survey-likert","337","1150762","0.0-6.0-2.47","3106474","co37876","norming","","","{""curiosity"":3,""confidence"":1}","[0,1]","../img/tt/118tt.jpg","",""
"1229.5949999997392","","","recognition","survey-text","338","1151994","0.0-6.0-3.47","3106474","co37876","norming","","","{""guess"":""""}","","../img/tt/118tt.jpg","",""
"null","../img/gs/118gs.jpg","null","reveal","image-keyboard-response","339","1153996","0.0-6.0-4.47","3106474","co37876","norming","","","","","","",""
"null","../img/tt/118tt.jpg","null","mooney2","image-keyboard-response","340","1155999","0.0-6.0-5.47","3106474","co37876","norming","","","","","","",""
"3554.475000000093","","","post_reveal_questions","survey-likert","341","1159554","0.0-6.0-6.47","3106474","co37876","norming","","","{""aha"":2}","[0]","../img/tt/118tt.jpg","",""
"null","<div style=""font-size:60px;""> </div>","null","fixation","html-keyboard-response","342","1159757","0.0-6.0-0.48","3106474","co37876","norming","","","","","","",""
"null","../img/tt/019tt.jpg","null","mooney1","image-keyboard-response","343","1162759","0.0-6.0-1.48","3106474","co37876","norming","","","","","","",""
"4522.484999999404","","","post_mooney1_questions","survey-likert","344","1167282","0.0-6.0-2.48","3106474","co37876","norming","","","{""curiosity"":1,""confidence"":0}","[0,1]","../img/tt/019tt.jpg","",""
"1134.0749999999534","","","recognition","survey-text","345","1168418","0.0-6.0-3.48","3106474","co37876","norming","","","{""guess"":""""}","","../img/tt/019tt.jpg","",""
"null","../img/gs/019gs.jpg","null","reveal","image-keyboard-response","346","1170427","0.0-6.0-4.48","3106474","co37876","norming","","","","","","",""
"null","../img/tt/019tt.jpg","null","mooney2","image-keyboard-response","347","1172430","0.0-6.0-5.48","3106474","co37876","norming","","","","","","",""
"2434.989999999758","","","post_reveal_questions","survey-likert","348","1174866","0.0-6.0-6.48","3106474","co37876","norming","","","{""aha"":1}","[0]","../img/tt/019tt.jpg","",""
"null","<div style=""font-size:60px;""> </div>","null","fixation","html-keyboard-response","349","1175071","0.0-6.0-0.49","3106474","co37876","norming","","","","","","",""
"null","../img/tt/416tt.jpg","null","mooney1","image-keyboard-response","350","1178080","0.0-6.0-1.49","3106474","co37876","norming","","","","","","",""
"3648.9000000001397","","","post_mooney1_questions","survey-likert","351","1181730","0.0-6.0-2.49","3106474","co37876","norming","","","{""curiosity"":2,""confidence"":0}","[0,1]","../img/tt/416tt.jpg","",""
"502.1699999999255","","","recognition","survey-text","352","1182234","0.0-6.0-3.49","3106474","co37876","norming","","","{""guess"":""""}","","../img/tt/416tt.jpg","",""
"null","../img/gs/416gs.jpg","null","reveal","image-keyboard-response","353","1184240","0.0-6.0-4.49","3106474","co37876","norming","","","","","","",""
"null","../img/tt/416tt.jpg","null","mooney2","image-keyboard-response","354","1186242","0.0-6.0-5.49","3106474","co37876","norming","","","","","","",""
"3586.535000000382","","","post_reveal_questions","survey-likert","355","1189829","0.0-6.0-6.49","3106474","co37876","norming","","","{""aha"":2}","[0]","../img/tt/416tt.jpg","",""
"null","<div style=""font-size:60px;""> </div>","null","fixation","html-keyboard-response","356","1190038","0.0-6.0-0.50","3106474","co37876","norming","","","","","","",""
"null","../img/tt/1239tt.jpg","null","mooney1","image-keyboard-response","357","1193047","0.0-6.0-1.50","3106474","co37876","norming","","","","","","",""
"7212.805000000168","","","post_mooney1_questions","survey-likert","358","1200261","0.0-6.0-2.50","3106474","co37876","norming","","","{""curiosity"":2,""confidence"":6}","[0,1]","../img/tt/1239tt.jpg","",""
"2581.7249999998603","","","recognition","survey-text","359","1202845","0.0-6.0-3.50","3106474","co37876","norming","","","{""guess"":""hond""}","","../img/tt/1239tt.jpg","",""
"null","../img/gs/1239gs.jpg","null","reveal","image-keyboard-response","360","1204849","0.0-6.0-4.50","3106474","co37876","norming","","","","","","",""
"null","../img/tt/1239tt.jpg","null","mooney2","image-keyboard-response","361","1206860","0.0-6.0-5.50","3106474","co37876","norming","","","","","","",""
"2712.0299999995623","","","post_reveal_questions","survey-likert","362","1209573","0.0-6.0-6.50","3106474","co37876","norming","","","{""aha"":0}","[0]","../img/tt/1239tt.jpg","",""
"null","<div style=""font-size:60px;""> </div>","null","fixation","html-keyboard-response","363","1209781","0.0-6.0-0.51","3106474","co37876","norming","","","","","","",""
"null","../img/tt/1262tt.jpg","null","mooney1","image-keyboard-response","364","1212784","0.0-6.0-1.51","3106474","co37876","norming","","","","","","",""
"3836.659999999916","","","post_mooney1_questions","survey-likert","365","1216621","0.0-6.0-2.51","3106474","co37876","norming","","","{""curiosity"":2,""confidence"":0}","[0,1]","../img/tt/1262tt.jpg","",""
"837.9499999999534","","","recognition","survey-text","366","1217461","0.0-6.0-3.51","3106474","co37876","norming","","","{""guess"":""""}","","../img/tt/1262tt.jpg","",""
"null","../img/gs/1262gs.jpg","null","reveal","image-keyboard-response","367","1219464","0.0-6.0-4.51","3106474","co37876","norming","","","","","","",""
"null","../img/tt/1262tt.jpg","null","mooney2","image-keyboard-response","368","1221473","0.0-6.0-5.51","3106474","co37876","norming","","","","","","",""
"4067.355000000214","","","post_reveal_questions","survey-likert","369","1225541","0.0-6.0-6.51","3106474","co37876","norming","","","{""aha"":2}","[0]","../img/tt/1262tt.jpg","",""
"null","<div style=""font-size:60px;""> </div>","null","fixation","html-keyboard-response","370","1225746","0.0-6.0-0.52","3106474","co37876","norming","","","","","","",""
"null","../img/tt/1227tt.jpg","null","mooney1","image-keyboard-response","371","1228751","0.0-6.0-1.52","3106474","co37876","norming","","","","","","",""
"4644.685000000289","","","post_mooney1_questions","survey-likert","372","1233397","0.0-6.0-2.52","3106474","co37876","norming","","","{""curiosity"":1,""confidence"":0}","[0,1]","../img/tt/1227tt.jpg","",""
"589.6750000000466","","","recognition","survey-text","373","1233989","0.0-6.0-3.52","3106474","co37876","norming","","","{""guess"":""""}","","../img/tt/1227tt.jpg","",""
"null","../img/gs/1227gs.jpg","null","reveal","image-keyboard-response","374","1235991","0.0-6.0-4.52","3106474","co37876","norming","","","","","","",""
"null","../img/tt/1227tt.jpg","null","mooney2","image-keyboard-response","375","1237993","0.0-6.0-5.52","3106474","co37876","norming","","","","","","",""
"4043.610000000568","","","post_reveal_questions","survey-likert","376","1242037","0.0-6.0-6.52","3106474","co37876","norming","","","{""aha"":1}","[0]","../img/tt/1227tt.jpg","",""
"null","<div style=""font-size:60px;""> </div>","null","fixation","html-keyboard-response","377","1242245","0.0-6.0-0.53","3106474","co37876","norming","","","","","","",""
"null","../img/tt/584tt.jpg","null","mooney1","image-keyboard-response","378","1245253","0.0-6.0-1.53","3106474","co37876","norming","","","","","","",""
"6083.300000000279","","","post_mooney1_questions","survey-likert","379","1251338","0.0-6.0-2.53","3106474","co37876","norming","","","{""curiosity"":2,""confidence"":5}","[0,1]","../img/tt/584tt.jpg","",""
"6518.039999999804","","","recognition","survey-text","380","1257857","0.0-6.0-3.53","3106474","co37876","norming","","","{""guess"":""gereedschap ""}","","../img/tt/584tt.jpg","",""
"null","../img/gs/584gs.jpg","null","reveal","image-keyboard-response","381","1259868","0.0-6.0-4.53","3106474","co37876","norming","","","","","","",""
"null","../img/tt/584tt.jpg","null","mooney2","image-keyboard-response","382","1261875","0.0-6.0-5.53","3106474","co37876","norming","","","","","","",""
"3156.9499999994878","","","post_reveal_questions","survey-likert","383","1265034","0.0-6.0-6.53","3106474","co37876","norming","","","{""aha"":3}","[0]","../img/tt/584tt.jpg","",""
"null","<div style=""font-size:60px;""> </div>","null","fixation","html-keyboard-response","384","1265242","0.0-6.0-0.54","3106474","co37876","norming","","","","","","",""
"null","../img/tt/1272tt.jpg","null","mooney1","image-keyboard-response","385","1268251","0.0-6.0-1.54","3106474","co37876","norming","","","","","","",""
"4685.6049999997485","","","post_mooney1_questions","survey-likert","386","1272938","0.0-6.0-2.54","3106474","co37876","norming","","","{""curiosity"":3,""confidence"":3}","[0,1]","../img/tt/1272tt.jpg","",""
"1989.5100000002421","","","recognition","survey-text","387","1274930","0.0-6.0-3.54","3106474","co37876","norming","","","{""guess"":""hek""}","","../img/tt/1272tt.jpg","",""
"null","../img/gs/1272gs.jpg","null","reveal","image-keyboard-response","388","1276931","0.0-6.0-4.54","3106474","co37876","norming","","","","","","",""
"null","../img/tt/1272tt.jpg","null","mooney2","image-keyboard-response","389","1278941","0.0-6.0-5.54","3106474","co37876","norming","","","","","","",""
"2475.4850000001024","","","post_reveal_questions","survey-likert","390","1281418","0.0-6.0-6.54","3106474","co37876","norming","","","{""aha"":3}","[0]","../img/tt/1272tt.jpg","",""
"null","<div style=""font-size:60px;""> </div>","null","fixation","html-keyboard-response","391","1281621","0.0-6.0-0.55","3106474","co37876","norming","","","","","","",""
"null","../img/tt/121tt.jpg","null","mooney1","image-keyboard-response","392","1284627","0.0-6.0-1.55","3106474","co37876","norming","","","","","","",""
"5196.464999999851","","","post_mooney1_questions","survey-likert","393","1289826","0.0-6.0-2.55","3106474","co37876","norming","","","{""curiosity"":4,""confidence"":2}","[0,1]","../img/tt/121tt.jpg","",""
"3165.904999999795","","","recognition","survey-text","394","1292993","0.0-6.0-3.55","3106474","co37876","norming","","","{""guess"":""vliegtuig""}","","../img/tt/121tt.jpg","",""
"null","../img/gs/121gs.jpg","null","reveal","image-keyboard-response","395","1294995","0.0-6.0-4.55","3106474","co37876","norming","","","","","","",""
"null","../img/tt/121tt.jpg","null","mooney2","image-keyboard-response","396","1296997","0.0-6.0-5.55","3106474","co37876","norming","","","","","","",""
"4403.764999999898","","","post_reveal_questions","survey-likert","397","1301402","0.0-6.0-6.55","3106474","co37876","norming","","","{""aha"":5}","[0]","../img/tt/121tt.jpg","",""
"null","<div style=""font-size:60px;""> </div>","null","fixation","html-keyboard-response","398","1301612","0.0-6.0-0.56","3106474","co37876","norming","","","","","","",""
"null","../img/tt/222tt.jpg","null","mooney1","image-keyboard-response","399","1304614","0.0-6.0-1.56","3106474","co37876","norming","","","","","","",""
"3378.325000000652","","","post_mooney1_questions","survey-likert","400","1307995","0.0-6.0-2.56","3106474","co37876","norming","","","{""curiosity"":2,""confidence"":0}","[0,1]","../img/tt/222tt.jpg","",""
"750.1900000006426","","","recognition","survey-text","401","1308747","0.0-6.0-3.56","3106474","co37876","norming","","","{""guess"":""""}","","../img/tt/222tt.jpg","",""
"null","../img/gs/222gs.jpg","null","reveal","image-keyboard-response","402","1310753","0.0-6.0-4.56","3106474","co37876","norming","","","","","","",""
"null","../img/tt/222tt.jpg","null","mooney2","image-keyboard-response","403","1312754","0.0-6.0-5.56","3106474","co37876","norming","","","","","","",""
"3047.929999999702","","","post_reveal_questions","survey-likert","404","1315803","0.0-6.0-6.56","3106474","co37876","norming","","","{""aha"":4}","[0]","../img/tt/222tt.jpg","",""
"null","<div style=""font-size:60px;""> </div>","null","fixation","html-keyboard-response","405","1316006","0.0-6.0-0.57","3106474","co37876","norming","","","","","","",""
"null","../img/tt/515tt.jpg","null","mooney1","image-keyboard-response","406","1319010","0.0-6.0-1.57","3106474","co37876","norming","","","","","","",""
"6085.619999999879","","","post_mooney1_questions","survey-likert","407","1325099","0.0-6.0-2.57","3106474","co37876","norming","","","{""curiosity"":4,""confidence"":3}","[0,1]","../img/tt/515tt.jpg","",""
"3102.0399999998044","","","recognition","survey-text","408","1328203","0.0-6.0-3.57","3106474","co37876","norming","","","{""guess"":""""}","","../img/tt/515tt.jpg","",""
"null","../img/gs/515gs.jpg","null","reveal","image-keyboard-response","409","1330207","0.0-6.0-4.57","3106474","co37876","norming","","","","","","",""
"null","../img/tt/515tt.jpg","null","mooney2","image-keyboard-response","410","1332218","0.0-6.0-5.57","3106474","co37876","norming","","","","","","",""
"4640.479999999981","","","post_reveal_questions","survey-likert","411","1336859","0.0-6.0-6.57","3106474","co37876","norming","","","{""aha"":5}","[0]","../img/tt/515tt.jpg","",""
"null","<div style=""font-size:60px;""> </div>","null","fixation","html-keyboard-response","412","1337067","0.0-6.0-0.58","3106474","co37876","norming","","","","","","",""
"null","../img/tt/1211tt.jpg","null","mooney1","image-keyboard-response","413","1340075","0.0-6.0-1.58","3106474","co37876","norming","","","","","","",""
"6902.360000000102","","","post_mooney1_questions","survey-likert","414","1346979","0.0-6.0-2.58","3106474","co37876","norming","","","{""curiosity"":4,""confidence"":4}","[0,1]","../img/tt/1211tt.jpg","",""
"4318.500000000233","","","recognition","survey-text","415","1351299","0.0-6.0-3.58","3106474","co37876","norming","","","{""guess"":""vijver""}","","../img/tt/1211tt.jpg","",""
"null","../img/gs/1211gs.jpg","null","reveal","image-keyboard-response","416","1353305","0.0-6.0-4.58","3106474","co37876","norming","","","","","","",""
"null","../img/tt/1211tt.jpg","null","mooney2","image-keyboard-response","417","1355307","0.0-6.0-5.58","3106474","co37876","norming","","","","","","",""
"2982.920000000391","","","post_reveal_questions","survey-likert","418","1358291","0.0-6.0-6.58","3106474","co37876","norming","","","{""aha"":3}","[0]","../img/tt/1211tt.jpg","",""
"null","<div style=""font-size:60px;""> </div>","null","fixation","html-keyboard-response","419","1358492","0.0-6.0-0.59","3106474","co37876","norming","","","","","","",""
"null","../img/tt/378tt.jpg","null","mooney1","image-keyboard-response","420","1361496","0.0-6.0-1.59","3106474","co37876","norming","","","","","","",""
"3624.83499999973","","","post_mooney1_questions","survey-likert","421","1365124","0.0-6.0-2.59","3106474","co37876","norming","","","{""curiosity"":2,""confidence"":0}","[0,1]","../img/tt/378tt.jpg","",""
"517.8749999995343","","","recognition","survey-text","422","1365643","0.0-6.0-3.59","3106474","co37876","norming","","","{""guess"":""""}","","../img/tt/378tt.jpg","",""
"null","../img/gs/378gs.jpg","null","reveal","image-keyboard-response","423","1367651","0.0-6.0-4.59","3106474","co37876","norming","","","","","","",""
"null","../img/tt/378tt.jpg","null","mooney2","image-keyboard-response","424","1369655","0.0-6.0-5.59","3106474","co37876","norming","","","","","","",""
"3560.059999999823","","","post_reveal_questions","survey-likert","425","1373218","0.0-6.0-6.59","3106474","co37876","norming","","","{""aha"":5}","[0]","../img/tt/378tt.jpg","",""
"null","<div style=""font-size:60px;""> </div>","null","fixation","html-keyboard-response","426","1373419","0.0-6.0-0.60","3106474","co37876","norming","","","","","","",""
"null","../img/tt/1006tt.jpg","null","mooney1","image-keyboard-response","427","1376425","0.0-6.0-1.60","3106474","co37876","norming","","","","","","",""
"3814.104999999283","","","post_mooney1_questions","survey-likert","428","1380242","0.0-6.0-2.60","3106474","co37876","norming","","","{""curiosity"":3,""confidence"":3}","[0,1]","../img/tt/1006tt.jpg","",""
"5549.944999999832","","","recognition","survey-text","429","1385794","0.0-6.0-3.60","3106474","co37876","norming","","","{""guess"":""landschap, gras""}","","../img/tt/1006tt.jpg","",""
"null","../img/gs/1006gs.jpg","null","reveal","image-keyboard-response","430","1387796","0.0-6.0-4.60","3106474","co37876","norming","","","","","","",""
"null","../img/tt/1006tt.jpg","null","mooney2","image-keyboard-response","431","1389804","0.0-6.0-5.60","3106474","co37876","norming","","","","","","",""
"5115.3549999997485","","","post_reveal_questions","survey-likert","432","1394922","0.0-6.0-6.60","3106474","co37876","norming","","","{""aha"":4}","[0]","../img/tt/1006tt.jpg","",""
"null","<div style=""font-size:60px;""> </div>","null","fixation","html-keyboard-response","433","1395127","0.0-6.0-0.61","3106474","co37876","norming","","","","","","",""
"null","../img/tt/091tt.jpg","null","mooney1","image-keyboard-response","434","1398136","0.0-6.0-1.61","3106474","co37876","norming","","","","","","",""
"4975.029999999562","","","post_mooney1_questions","survey-likert","435","1403114","0.0-6.0-2.61","3106474","co37876","norming","","","{""curiosity"":2,""confidence"":0}","[0,1]","../img/tt/091tt.jpg","",""
"854.0649999994785","","","recognition","survey-text","436","1403970","0.0-6.0-3.61","3106474","co37876","norming","","","{""guess"":""""}","","../img/tt/091tt.jpg","",""
"null","../img/gs/091gs.jpg","null","reveal","image-keyboard-response","437","1405972","0.0-6.0-4.61","3106474","co37876","norming","","","","","","",""
"null","../img/tt/091tt.jpg","null","mooney2","image-keyboard-response","438","1407982","0.0-6.0-5.61","3106474","co37876","norming","","","","","","",""
"2961.0849999999627","","","post_reveal_questions","survey-likert","439","1410946","0.0-6.0-6.61","3106474","co37876","norming","","","{""aha"":2}","[0]","../img/tt/091tt.jpg","",""
"null","<div style=""font-size:60px;""> </div>","null","fixation","html-keyboard-response","440","1411156","0.0-6.0-0.62","3106474","co37876","norming","","","","","","",""
"null","../img/tt/1097tt.jpg","null","mooney1","image-keyboard-response","441","1414160","0.0-6.0-1.62","3106474","co37876","norming","","","","","","",""
"6119.08000000054","","","post_mooney1_questions","survey-likert","442","1420282","0.0-6.0-2.62","3106474","co37876","norming","","","{""curiosity"":4,""confidence"":5}","[0,1]","../img/tt/1097tt.jpg","",""
"5189.829999999376","","","recognition","survey-text","443","1425474","0.0-6.0-3.62","3106474","co37876","norming","","","{""guess"":""man, hockey""}","","../img/tt/1097tt.jpg","",""
"null","../img/gs/1097gs.jpg","null","reveal","image-keyboard-response","444","1427485","0.0-6.0-4.62","3106474","co37876","norming","","","","","","",""
"null","../img/tt/1097tt.jpg","null","mooney2","image-keyboard-response","445","1429491","0.0-6.0-5.62","3106474","co37876","norming","","","","","","",""
"3288.035000000382","","","post_reveal_questions","survey-likert","446","1432782","0.0-6.0-6.62","3106474","co37876","norming","","","{""aha"":5}","[0]","../img/tt/1097tt.jpg","",""
"null","<div style=""font-size:60px;""> </div>","null","fixation","html-keyboard-response","447","1432992","0.0-6.0-0.63","3106474","co37876","norming","","","","","","",""
"null","../img/tt/081tt.jpg","null","mooney1","image-keyboard-response","448","1436004","0.0-6.0-1.63","3106474","co37876","norming","","","","","","",""
"3615.274999999907","","","post_mooney1_questions","survey-likert","449","1439622","0.0-6.0-2.63","3106474","co37876","norming","","","{""curiosity"":4,""confidence"":5}","[0,1]","../img/tt/081tt.jpg","",""
"2790.105000000214","","","recognition","survey-text","450","1442414","0.0-6.0-3.63","3106474","co37876","norming","","","{""guess"":""kikker""}","","../img/tt/081tt.jpg","",""
"null","../img/gs/081gs.jpg","null","reveal","image-keyboard-response","451","1444419","0.0-6.0-4.63","3106474","co37876","norming","","","","","","",""
"null","../img/tt/081tt.jpg","null","mooney2","image-keyboard-response","452","1446428","0.0-6.0-5.63","3106474","co37876","norming","","","","","","",""
"3127.764999999432","","","post_reveal_questions","survey-likert","453","1449558","0.0-6.0-6.63","3106474","co37876","norming","","","{""aha"":1}","[0]","../img/tt/081tt.jpg","",""
"null","<div style=""font-size:60px;""> </div>","null","fixation","html-keyboard-response","454","1449764","0.0-6.0-0.64","3106474","co37876","norming","","","","","","",""
"null","../img/tt/1027tt.jpg","null","mooney1","image-keyboard-response","455","1452775","0.0-6.0-1.64","3106474","co37876","norming","","","","","","",""
"3692.4099999996834","","","post_mooney1_questions","survey-likert","456","1456470","0.0-6.0-2.64","3106474","co37876","norming","","","{""curiosity"":5,""confidence"":5}","[0,1]","../img/tt/1027tt.jpg","",""
"4734.159999999916","","","recognition","survey-text","457","1461206","0.0-6.0-3.64","3106474","co37876","norming","","","{""guess"":""nijlpaard""}","","../img/tt/1027tt.jpg","",""
"null","../img/gs/1027gs.jpg","null","reveal","image-keyboard-response","458","1463216","0.0-6.0-4.64","3106474","co37876","norming","","","","","","",""
"null","../img/tt/1027tt.jpg","null","mooney2","image-keyboard-response","459","1465227","0.0-6.0-5.64","3106474","co37876","norming","","","","","","",""
"3378.4050000004936","","","post_reveal_questions","survey-likert","460","1468606","0.0-6.0-6.64","3106474","co37876","norming","","","{""aha"":3}","[0]","../img/tt/1027tt.jpg","",""
"null","<div style=""font-size:60px;""> </div>","null","fixation","html-keyboard-response","461","1468808","0.0-6.0-0.65","3106474","co37876","norming","","","","","","",""
"null","../img/tt/1270tt.jpg","null","mooney1","image-keyboard-response","462","1471815","0.0-6.0-1.65","3106474","co37876","norming","","","","","","",""
"4179.864999999991","","","post_mooney1_questions","survey-likert","463","1475998","0.0-6.0-2.65","3106474","co37876","norming","","","{""curiosity"":3,""confidence"":3}","[0,1]","../img/tt/1270tt.jpg","",""
"2045.970000000205","","","recognition","survey-text","464","1478046","0.0-6.0-3.65","3106474","co37876","norming","","","{""guess"":""muis""}","","../img/tt/1270tt.jpg","",""
"null","../img/gs/1270gs.jpg","null","reveal","image-keyboard-response","465","1480048","0.0-6.0-4.65","3106474","co37876","norming","","","","","","",""
"null","../img/tt/1270tt.jpg","null","mooney2","image-keyboard-response","466","1482052","0.0-6.0-5.65","3106474","co37876","norming","","","","","","",""
"2895.3300000003073","","","post_reveal_questions","survey-likert","467","1484950","0.0-6.0-6.65","3106474","co37876","norming","","","{""aha"":2}","[0]","../img/tt/1270tt.jpg","",""
"null","<div style=""font-size:60px;""> </div>","null","fixation","html-keyboard-response","468","1485155","0.0-6.0-0.66","3106474","co37876","norming","","","","","","",""
"null","../img/tt/380tt.jpg","null","mooney1","image-keyboard-response","469","1488158","0.0-6.0-1.66","3106474","co37876","norming","","","","","","",""
"3668.8350000004284","","","post_mooney1_questions","survey-likert","470","1491827","0.0-6.0-2.66","3106474","co37876","norming","","","{""curiosity"":1,""confidence"":0}","[0,1]","../img/tt/380tt.jpg","",""
"742.0550000006333","","","recognition","survey-text","471","1492571","0.0-6.0-3.66","3106474","co37876","norming","","","{""guess"":""""}","","../img/tt/380tt.jpg","",""
"null","../img/gs/380gs.jpg","null","reveal","image-keyboard-response","472","1494577","0.0-6.0-4.66","3106474","co37876","norming","","","","","","",""
"null","../img/tt/380tt.jpg","null","mooney2","image-keyboard-response","473","1496582","0.0-6.0-5.66","3106474","co37876","norming","","","","","","",""
"2898.239999999525","","","post_reveal_questions","survey-likert","474","1499483","0.0-6.0-6.66","3106474","co37876","norming","","","{""aha"":3}","[0]","../img/tt/380tt.jpg","",""
"null","<div style=""font-size:60px;""> </div>","null","fixation","html-keyboard-response","475","1499693","0.0-6.0-0.67","3106474","co37876","norming","","","","","","",""
"null","../img/tt/1224tt.jpg","null","mooney1","image-keyboard-response","476","1502697","0.0-6.0-1.67","3106474","co37876","norming","","","","","","",""
"4190.8749999993015","","","post_mooney1_questions","survey-likert","477","1506891","0.0-6.0-2.67","3106474","co37876","norming","","","{""curiosity"":4,""confidence"":3}","[0,1]","../img/tt/1224tt.jpg","",""
"2854.1649999998044","","","recognition","survey-text","478","1509747","0.0-6.0-3.67","3106474","co37876","norming","","","{""guess"":""bokser""}","","../img/tt/1224tt.jpg","",""
"null","../img/gs/1224gs.jpg","null","reveal","image-keyboard-response","479","1511757","0.0-6.0-4.67","3106474","co37876","norming","","","","","","",""
"null","../img/tt/1224tt.jpg","null","mooney2","image-keyboard-response","480","1513762","0.0-6.0-5.67","3106474","co37876","norming","","","","","","",""
"3854.255000000121","","","post_reveal_questions","survey-likert","481","1517619","0.0-6.0-6.67","3106474","co37876","norming","","","{""aha"":4}","[0]","../img/tt/1224tt.jpg","",""
"null","<div style=""font-size:60px;""> </div>","null","fixation","html-keyboard-response","482","1517827","0.0-6.0-0.68","3106474","co37876","norming","","","","","","",""
"null","../img/tt/1205tt.jpg","null","mooney1","image-keyboard-response","483","1520830","0.0-6.0-1.68","3106474","co37876","norming","","","","","","",""
"4424.670000000391","","","post_mooney1_questions","survey-likert","484","1525259","0.0-6.0-2.68","3106474","co37876","norming","","","{""curiosity"":3,""confidence"":3}","[0,1]","../img/tt/1205tt.jpg","",""
"5358.160000000615","","","recognition","survey-text","485","1530619","0.0-6.0-3.68","3106474","co37876","norming","","","{""guess"":""feestje, dansen""}","","../img/tt/1205tt.jpg","",""
"null","../img/gs/1205gs.jpg","null","reveal","image-keyboard-response","486","1532620","0.0-6.0-4.68","3106474","co37876","norming","","","","","","",""
"null","../img/tt/1205tt.jpg","null","mooney2","image-keyboard-response","487","1534623","0.0-6.0-5.68","3106474","co37876","norming","","","","","","",""
"2649.5649999997113","","","post_reveal_questions","survey-likert","488","1537275","0.0-6.0-6.68","3106474","co37876","norming","","","{""aha"":4}","[0]","../img/tt/1205tt.jpg","",""
"null","<div style=""font-size:60px;""> </div>","null","fixation","html-keyboard-response","489","1537479","0.0-6.0-0.69","3106474","co37876","norming","","","","","","",""
"null","../img/tt/1084tt.jpg","null","mooney1","image-keyboard-response","490","1540484","0.0-6.0-1.69","3106474","co37876","norming","","","","","","",""
"4539.715000000782","","","post_mooney1_questions","survey-likert","491","1545027","0.0-6.0-2.69","3106474","co37876","norming","","","{""curiosity"":3,""confidence"":0}","[0,1]","../img/tt/1084tt.jpg","",""
"734.0100000002421","","","recognition","survey-text","492","1545763","0.0-6.0-3.69","3106474","co37876","norming","","","{""guess"":""""}","","../img/tt/1084tt.jpg","",""
"null","../img/gs/1084gs.jpg","null","reveal","image-keyboard-response","493","1547770","0.0-6.0-4.69","3106474","co37876","norming","","","","","","",""
"null","../img/tt/1084tt.jpg","null","mooney2","image-keyboard-response","494","1549783","0.0-6.0-5.69","3106474","co37876","norming","","","","","","",""
"1509.1400000001304","","","post_reveal_questions","survey-likert","495","1551295","0.0-6.0-6.69","3106474","co37876","norming","","","{""aha"":3}","[0]","../img/tt/1084tt.jpg","",""
"null","<div style=""font-size:60px;""> </div>","null","fixation","html-keyboard-response","496","1551496","0.0-6.0-0.70","3106474","co37876","norming","","","","","","",""
"null","../img/tt/1235tt.jpg","null","mooney1","image-keyboard-response","497","1554499","0.0-6.0-1.70","3106474","co37876","norming","","","","","","",""
"4664.2700000002515","","","post_mooney1_questions","survey-likert","498","1559167","0.0-6.0-2.70","3106474","co37876","norming","","","{""curiosity"":6,""confidence"":1}","[0,1]","../img/tt/1235tt.jpg","",""
"718.1449999997858","","","recognition","survey-text","499","1559886","0.0-6.0-3.70","3106474","co37876","norming","","","{""guess"":""""}","","../img/tt/1235tt.jpg","",""
"null","../img/gs/1235gs.jpg","null","reveal","image-keyboard-response","500","1561888","0.0-6.0-4.70","3106474","co37876","norming","","","","","","",""
"null","../img/tt/1235tt.jpg","null","mooney2","image-keyboard-response","501","1563894","0.0-6.0-5.70","3106474","co37876","norming","","","","","","",""
"2999.3599999998696","","","post_reveal_questions","survey-likert","502","1566895","0.0-6.0-6.70","3106474","co37876","norming","","","{""aha"":5}","[0]","../img/tt/1235tt.jpg","",""
"null","<div style=""font-size:60px;""> </div>","null","fixation","html-keyboard-response","503","1567105","0.0-6.0-0.71","3106474","co37876","norming","","","","","","",""
"null","../img/tt/329tt.jpg","null","mooney1","image-keyboard-response","504","1570108","0.0-6.0-1.71","3106474","co37876","norming","","","","","","",""
"4447.820000000298","","","post_mooney1_questions","survey-likert","505","1574559","0.0-6.0-2.71","3106474","co37876","norming","","","{""curiosity"":4,""confidence"":4}","[0,1]","../img/tt/329tt.jpg","",""
"3149.999999999767","","","recognition","survey-text","506","1577711","0.0-6.0-3.71","3106474","co37876","norming","","","{""guess"":""buggy""}","","../img/tt/329tt.jpg","",""
"null","../img/gs/329gs.jpg","null","reveal","image-keyboard-response","507","1579712","0.0-6.0-4.71","3106474","co37876","norming","","","","","","",""
"null","../img/tt/329tt.jpg","null","mooney2","image-keyboard-response","508","1581723","0.0-6.0-5.71","3106474","co37876","norming","","","","","","",""
"3081.385000000475","","","post_reveal_questions","survey-likert","509","1584807","0.0-6.0-6.71","3106474","co37876","norming","","","{""aha"":5}","[0]","../img/tt/329tt.jpg","",""
"null","<div style=""font-size:60px;""> </div>","null","fixation","html-keyboard-response","510","1585008","0.0-6.0-0.72","3106474","co37876","norming","","","","","","",""
"null","../img/tt/1063tt.jpg","null","mooney1","image-keyboard-response","511","1588011","0.0-6.0-1.72","3106474","co37876","norming","","","","","","",""
"5624.720000000671","","","post_mooney1_questions","survey-likert","512","1593639","0.0-6.0-2.72","3106474","co37876","norming","","","{""curiosity"":3,""confidence"":2}","[0,1]","../img/tt/1063tt.jpg","",""
"1525.4749999993946","","","recognition","survey-text","513","1595167","0.0-6.0-3.72","3106474","co37876","norming","","","{""guess"":""koe""}","","../img/tt/1063tt.jpg","",""
"null","../img/gs/1063gs.jpg","null","reveal","image-keyboard-response","514","1597173","0.0-6.0-4.72","3106474","co37876","norming","","","","","","",""
"null","../img/tt/1063tt.jpg","null","mooney2","image-keyboard-response","515","1599179","0.0-6.0-5.72","3106474","co37876","norming","","","","","","",""
"3481.784999999916","","","post_reveal_questions","survey-likert","516","1602663","0.0-6.0-6.72","3106474","co37876","norming","","","{""aha"":4}","[0]","../img/tt/1063tt.jpg","",""
"null","<div style=""font-size:60px;""> </div>","null","fixation","html-keyboard-response","517","1602869","0.0-6.0-0.73","3106474","co37876","norming","","","","","","",""
"null","../img/tt/522tt.jpg","null","mooney1","image-keyboard-response","518","1605878","0.0-6.0-1.73","3106474","co37876","norming","","","","","","",""
"8301.545000000158","","","post_mooney1_questions","survey-likert","519","1614183","0.0-6.0-2.73","3106474","co37876","norming","","","{""curiosity"":5,""confidence"":1}","[0,1]","../img/tt/522tt.jpg","",""
"613.8799999998882","","","recognition","survey-text","520","1614798","0.0-6.0-3.73","3106474","co37876","norming","","","{""guess"":""""}","","../img/tt/522tt.jpg","",""
"null","../img/gs/522gs.jpg","null","reveal","image-keyboard-response","521","1616806","0.0-6.0-4.73","3106474","co37876","norming","","","","","","",""
"null","../img/tt/522tt.jpg","null","mooney2","image-keyboard-response","522","1618809","0.0-6.0-5.73","3106474","co37876","norming","","","","","","",""
"3282.8650000002235","","","post_reveal_questions","survey-likert","523","1622095","0.0-6.0-6.73","3106474","co37876","norming","","","{""aha"":3}","[0]","../img/tt/522tt.jpg","",""
"null","<div style=""font-size:60px;""> </div>","null","fixation","html-keyboard-response","524","1622297","0.0-6.0-0.74","3106474","co37876","norming","","","","","","",""
"null","../img/tt/1107tt.jpg","null","mooney1","image-keyboard-response","525","1625308","0.0-6.0-1.74","3106474","co37876","norming","","","","","","",""
"3617.4449999998324","","","post_mooney1_questions","survey-likert","526","1628926","0.0-6.0-2.74","3106474","co37876","norming","","","{""curiosity"":2,""confidence"":0}","[0,1]","../img/tt/1107tt.jpg","",""
"1806.45999999973","","","recognition","survey-text","527","1630735","0.0-6.0-3.74","3106474","co37876","norming","","","{""guess"":""""}","","../img/tt/1107tt.jpg","",""
"null","../img/gs/1107gs.jpg","null","reveal","image-keyboard-response","528","1632739","0.0-6.0-4.74","3106474","co37876","norming","","","","","","",""
"null","../img/tt/1107tt.jpg","null","mooney2","image-keyboard-response","529","1634747","0.0-6.0-5.74","3106474","co37876","norming","","","","","","",""
"3001.1649999995716","","","post_reveal_questions","survey-likert","530","1637751","0.0-6.0-6.74","3106474","co37876","norming","","","{""aha"":4}","[0]","../img/tt/1107tt.jpg","",""
"null","<div style=""font-size:60px;""> </div>","null","fixation","html-keyboard-response","531","1637953","0.0-6.0-0.75","3106474","co37876","norming","","","","","","",""
"null","../img/tt/085tt.jpg","null","mooney1","image-keyboard-response","532","1640957","0.0-6.0-1.75","3106474","co37876","norming","","","","","","",""
"4870.3400000005495","","","post_mooney1_questions","survey-likert","533","1645831","0.0-6.0-2.75","3106474","co37876","norming","","","{""curiosity"":3,""confidence"":0}","[0,1]","../img/tt/085tt.jpg","",""
"838.0700000005309","","","recognition","survey-text","534","1646670","0.0-6.0-3.75","3106474","co37876","norming","","","{""guess"":""""}","","../img/tt/085tt.jpg","",""
"null","../img/gs/085gs.jpg","null","reveal","image-keyboard-response","535","1648677","0.0-6.0-4.75","3106474","co37876","norming","","","","","","",""
"null","../img/tt/085tt.jpg","null","mooney2","image-keyboard-response","536","1650679","0.0-6.0-5.75","3106474","co37876","norming","","","","","","",""
"3556.9899999999907","","","post_reveal_questions","survey-likert","537","1654239","0.0-6.0-6.75","3106474","co37876","norming","","","{""aha"":3}","[0]","../img/tt/085tt.jpg","",""
"null","<div style=""font-size:60px;""> </div>","null","fixation","html-keyboard-response","538","1654446","0.0-6.0-0.76","3106474","co37876","norming","","","","","","",""
"null","../img/tt/1269tt.jpg","null","mooney1","image-keyboard-response","539","1657449","0.0-6.0-1.76","3106474","co37876","norming","","","","","","",""
"12522.535000000149","","","post_mooney1_questions","survey-likert","540","1669975","0.0-6.0-2.76","3106474","co37876","norming","","","{""curiosity"":2,""confidence"":5}","[0,1]","../img/tt/1269tt.jpg","",""
"22589.42500000028","","","recognition","survey-text","541","1692567","0.0-6.0-3.76","3106474","co37876","norming","","","{""guess"":""slapend zoogdier ""}","","../img/tt/1269tt.jpg","",""
"null","../img/gs/1269gs.jpg","null","reveal","image-keyboard-response","542","1694572","0.0-6.0-4.76","3106474","co37876","norming","","","","","","",""
"null","../img/tt/1269tt.jpg","null","mooney2","image-keyboard-response","543","1696581","0.0-6.0-5.76","3106474","co37876","norming","","","","","","",""
"3136.6399999998976","","","post_reveal_questions","survey-likert","544","1699719","0.0-6.0-6.76","3106474","co37876","norming","","","{""aha"":4}","[0]","../img/tt/1269tt.jpg","",""
"null","<div style=""font-size:60px;""> </div>","null","fixation","html-keyboard-response","545","1699923","0.0-6.0-0.77","3106474","co37876","norming","","","","","","",""
"null","../img/tt/559tt.jpg","null","mooney1","image-keyboard-response","546","1702932","0.0-6.0-1.77","3106474","co37876","norming","","","","","","",""
"4446.849999999395","","","post_mooney1_questions","survey-likert","547","1707383","0.0-6.0-2.77","3106474","co37876","norming","","","{""curiosity"":4,""confidence"":5}","[0,1]","../img/tt/559tt.jpg","",""
"3030.2099999999627","","","recognition","survey-text","548","1710415","0.0-6.0-3.77","3106474","co37876","norming","","","{""guess"":""naaimachine""}","","../img/tt/559tt.jpg","",""
"null","../img/gs/559gs.jpg","null","reveal","image-keyboard-response","549","1712416","0.0-6.0-4.77","3106474","co37876","norming","","","","","","",""
"null","../img/tt/559tt.jpg","null","mooney2","image-keyboard-response","550","1714419","0.0-6.0-5.77","3106474","co37876","norming","","","","","","",""
"2881.374999999767","","","post_reveal_questions","survey-likert","551","1717302","0.0-6.0-6.77","3106474","co37876","norming","","","{""aha"":0}","[0]","../img/tt/559tt.jpg","",""
"null","<div style=""font-size:60px;""> </div>","null","fixation","html-keyboard-response","552","1717506","0.0-6.0-0.78","3106474","co37876","norming","","","","","","",""
