"rt","stimulus","key_press","test_part","trial_type","trial_index","time_elapsed","internal_node_id","totalTime","subject","experiment_name","button_pressed","success","responses","question_order","currentStim","old","correct"
"9235.644999999977","Welcome to the experiment. This is an online experiment so please don't close the tab/window until we say goodbye.  Press any key to begin.","75","instructions","html-keyboard-response","0","9252","0.0-0.0","3019249","co37600","norming","","","","","","",""
"17456.56500000001","<div style='word-wrap: break-word; width: 900px'><h3>Please consider this information carefully before deciding whether to participate in this research</h3><ul style='text-align: left; font-size: .8em;'><li><b>Purpose of the research</b>: To examine how people process images.</li><li><b>What you will do in this research</b>:  Stimuli (images) will be presented on the computer and you will be asked different questions about them.</li><li><b>Time required</b>: Participation will take between 45 and 60 minutes to complete.</li><li><b>Risks</b>:  There are no anticipated risks associated with participating in this study. The effects of participating should be comparable to those you would experience from viewing a computer monitor for 30 minutes and using a mouse or keyboard.</li><li><b>Benefits</b>:  This study provides no benefits to you individually except for the credit. The study provides important information about the nature of perception and learning.</li><li><b>Confidentiality</b>:  Your participation in this study will remain confidential. No personally identifiable information will be associated with your data. Your de-identified data may be shared with other researchers and used in future projects.</li><li><b>Participation and withdrawal</b>:  Your participation in this study is completely voluntary and you may refuse to participate or you may choose to withdraw at any time without penalty.</li><li><b>How to contact the researchers</b>: If you have questions or concerns about your participation or payment, or want to request a summary of research findings, please contact Sander Van de Cruys (KU Leuven), at sander.vandecruys@kuleuven.be.</li></ul><p>The nature and purpose of this research have been sufficiently explained and I agree to participate in this study.  I understand that I am free to withdraw at any time without incurring any penalty.</p><p>Please consent by clicking the button below to continue. Otherwise, please exit the study at this time.</p></div>","","instructions","html-button-response","1","26684","0.0-1.0","3019249","co37600","norming","0","","","","","",""
"","","","instructions","fullscreen","2","31630","0.0-2.0","3019249","co37600","norming","","true","","","","",""
"41853.53499999996","","","sona","survey-html-form","3","73488","0.0-3.0","3019249","co37600","norming","","","[{""name"":""sonaid"",""value"":""37600""},{""name"":""debrief"",""value"":""yes""},{""name"":""datajoin"",""value"":""yes""}]","","","",""
"75571.78499999999","<div style='word-wrap: break-word; width: 900px'><h3>Instructions</h3><p>This experiment will have 3 parts. In the first part you will see a series of distorted images like the one below on the left. As you can see in the righthand image, the distorted images are derived from actual photographs. In what follows, you will <strong>briefly</strong> be presented with <strong>only</strong> the distorted image.</p> <div style='float: left; margin-right: 20px;'><img src='../img/018tt.jpg' height='250' width='250'></img></div><div style='float: right; margin-left: 20px;'><img src='../img/018gs.jpg' height='250' width='250'></img></div><p>Subsequently you will be asked a few questions about the image: One question on how <strong>curious</strong> you are about the solution and one on how <strong>confident</strong> you are that you know the solution.</p>Next, we ask you to make a guess on what is in the image. Note that it is OK to name just the <strong>basic level category</strong>. For example when you see a parrot in the image, 'parrot' will obviously be a correct answer but also correct is 'bird'. However, 'animal' will <strong>not</strong> be counted as a correct response. For the example above, 'rose' would be correct or 'flower', but not 'plant'. When soccer players are depicted, 'soccer', 'football', 'soccer players' will be correct, but not 'humans', 'outdoors', or 'sports'. You do not need to describe the image in full, just name the main object in it <strong>in one or two words</strong>. All images depict objects from one of the following broad level categories: animals, inanimate objects, plants, sports, vehicles, and food. Recognizing means knowing <strong>more</strong> than these broad labels for a given image. But we always encourage you to <strong>make a guess</strong> if you can. Note that you are allowed to use <strong>Dutch and English</strong> in your answers, whatever comes easiest for you.</p><p>Press any key to continue.</p></div>","75","instructions","html-keyboard-response","4","148992","0.0-4.0","3019249","co37600","norming","","","","","","",""
"507344.6649999999","<div style='word-wrap: break-word; width: 900px'><h3>Instructions</h3> <p>Next, the solution image will be revealed to you and you'll be asked to indicate how strong your <strong>aha-experience</strong> was after seeing the solution. This describes the positive feeling of the 'click' you sometimes experience, when the pieces of the 'puzzle' fall together and you suddenly have 'insight' in the image.</p><img src='aha.jpg' height='188' width='250'></img><p>Note that there are no right or wrong answers. We are interested in what <strong>you</strong> see in the image and how <strong>you</strong> feel about it.</p><p>Press any key to start the experiment.</p></div>","75","instructions","html-keyboard-response","5","656343","0.0-5.0","3019249","co37600","norming","","","","","","",""
"null","<div style=""font-size:60px;""> </div>","null","fixation","html-keyboard-response","6","656548","0.0-6.0-0.0","3019249","co37600","norming","","","","","","",""
"null","../img/tt/442tt.jpg","null","mooney1","image-keyboard-response","7","659554","0.0-6.0-1.0","3019249","co37600","norming","","","","","","",""
"8751.070000000065","","","post_mooney1_questions","survey-likert","8","668309","0.0-6.0-2.0","3019249","co37600","norming","","","{""curiosity"":2,""confidence"":4}","[0,1]","../img/tt/442tt.jpg","",""
"2333.9100000000326","","","recognition","survey-text","9","670645","0.0-6.0-3.0","3019249","co37600","norming","","","{""guess"":""owl""}","","../img/tt/442tt.jpg","",""
"null","../img/gs/442gs.jpg","null","reveal","image-keyboard-response","10","672652","0.0-6.0-4.0","3019249","co37600","norming","","","","","","",""
"null","../img/tt/442tt.jpg","null","mooney2","image-keyboard-response","11","674654","0.0-6.0-5.0","3019249","co37600","norming","","","","","","",""
"9165.470000000088","","","post_reveal_questions","survey-likert","12","683821","0.0-6.0-6.0","3019249","co37600","norming","","","{""aha"":6}","[0]","../img/tt/442tt.jpg","",""
"null","<div style=""font-size:60px;""> </div>","null","fixation","html-keyboard-response","13","684031","0.0-6.0-0.1","3019249","co37600","norming","","","","","","",""
"null","../img/tt/112tt.jpg","null","mooney1","image-keyboard-response","14","687037","0.0-6.0-1.1","3019249","co37600","norming","","","","","","",""
"5862.885000000009","","","post_mooney1_questions","survey-likert","15","692901","0.0-6.0-2.1","3019249","co37600","norming","","","{""curiosity"":4,""confidence"":2}","[0,1]","../img/tt/112tt.jpg","",""
"2222.2249999999767","","","recognition","survey-text","16","695125","0.0-6.0-3.1","3019249","co37600","norming","","","{""guess"":""penguin""}","","../img/tt/112tt.jpg","",""
"null","../img/gs/112gs.jpg","null","reveal","image-keyboard-response","17","697131","0.0-6.0-4.1","3019249","co37600","norming","","","","","","",""
"null","../img/tt/112tt.jpg","null","mooney2","image-keyboard-response","18","699142","0.0-6.0-5.1","3019249","co37600","norming","","","","","","",""
"2341.0400000000373","","","post_reveal_questions","survey-likert","19","701485","0.0-6.0-6.1","3019249","co37600","norming","","","{""aha"":5}","[0]","../img/tt/112tt.jpg","",""
"null","<div style=""font-size:60px;""> </div>","null","fixation","html-keyboard-response","20","701694","0.0-6.0-0.2","3019249","co37600","norming","","","","","","",""
"null","../img/tt/1232tt.jpg","null","mooney1","image-keyboard-response","21","704699","0.0-6.0-1.2","3019249","co37600","norming","","","","","","",""
"6943.635000000126","","","post_mooney1_questions","survey-likert","22","711645","0.0-6.0-2.2","3019249","co37600","norming","","","{""curiosity"":2,""confidence"":5}","[0,1]","../img/tt/1232tt.jpg","",""
"2246.2049999998417","","","recognition","survey-text","23","713893","0.0-6.0-3.2","3019249","co37600","norming","","","{""guess"":""bird""}","","../img/tt/1232tt.jpg","",""
"null","../img/gs/1232gs.jpg","null","reveal","image-keyboard-response","24","715901","0.0-6.0-4.2","3019249","co37600","norming","","","","","","",""
"null","../img/tt/1232tt.jpg","null","mooney2","image-keyboard-response","25","717915","0.0-6.0-5.2","3019249","co37600","norming","","","","","","",""
"4065.394999999902","","","post_reveal_questions","survey-likert","26","721981","0.0-6.0-6.2","3019249","co37600","norming","","","{""aha"":1}","[0]","../img/tt/1232tt.jpg","",""
"null","<div style=""font-size:60px;""> </div>","null","fixation","html-keyboard-response","27","722183","0.0-6.0-0.3","3019249","co37600","norming","","","","","","",""
"null","../img/tt/1290tt.jpg","null","mooney1","image-keyboard-response","28","725188","0.0-6.0-1.3","3019249","co37600","norming","","","","","","",""
"3928.7249999999767","","","post_mooney1_questions","survey-likert","29","729117","0.0-6.0-2.3","3019249","co37600","norming","","","{""curiosity"":5,""confidence"":1}","[0,1]","../img/tt/1290tt.jpg","",""
"2173.960000000079","","","recognition","survey-text","30","731293","0.0-6.0-3.3","3019249","co37600","norming","","","{""guess"":""lamp""}","","../img/tt/1290tt.jpg","",""
"null","../img/gs/1290gs.jpg","null","reveal","image-keyboard-response","31","733297","0.0-6.0-4.3","3019249","co37600","norming","","","","","","",""
"null","../img/tt/1290tt.jpg","null","mooney2","image-keyboard-response","32","735300","0.0-6.0-5.3","3019249","co37600","norming","","","","","","",""
"2144.804999999935","","","post_reveal_questions","survey-likert","33","737445","0.0-6.0-6.3","3019249","co37600","norming","","","{""aha"":6}","[0]","../img/tt/1290tt.jpg","",""
"null","<div style=""font-size:60px;""> </div>","null","fixation","html-keyboard-response","34","737648","0.0-6.0-0.4","3019249","co37600","norming","","","","","","",""
"null","../img/tt/1006tt.jpg","null","mooney1","image-keyboard-response","35","740650","0.0-6.0-1.4","3019249","co37600","norming","","","","","","",""
"5674.394999999902","","","post_mooney1_questions","survey-likert","36","746325","0.0-6.0-2.4","3019249","co37600","norming","","","{""curiosity"":5,""confidence"":0}","[0,1]","../img/tt/1006tt.jpg","",""
"3205.965000000084","","","recognition","survey-text","37","749533","0.0-6.0-3.4","3019249","co37600","norming","","","{""guess"":""grass""}","","../img/tt/1006tt.jpg","",""
"null","../img/gs/1006gs.jpg","null","reveal","image-keyboard-response","38","751542","0.0-6.0-4.4","3019249","co37600","norming","","","","","","",""
"null","../img/tt/1006tt.jpg","null","mooney2","image-keyboard-response","39","753552","0.0-6.0-5.4","3019249","co37600","norming","","","","","","",""
"2740.0250000000233","","","post_reveal_questions","survey-likert","40","756293","0.0-6.0-6.4","3019249","co37600","norming","","","{""aha"":6}","[0]","../img/tt/1006tt.jpg","",""
"null","<div style=""font-size:60px;""> </div>","null","fixation","html-keyboard-response","41","756500","0.0-6.0-0.5","3019249","co37600","norming","","","","","","",""
"null","../img/tt/118tt.jpg","null","mooney1","image-keyboard-response","42","759501","0.0-6.0-1.5","3019249","co37600","norming","","","","","","",""
"5821.680000000051","","","post_mooney1_questions","survey-likert","43","765325","0.0-6.0-2.5","3019249","co37600","norming","","","{""curiosity"":5,""confidence"":2}","[0,1]","../img/tt/118tt.jpg","",""
"1614.3449999998556","","","recognition","survey-text","44","766941","0.0-6.0-3.5","3019249","co37600","norming","","","{""guess"":""rails""}","","../img/tt/118tt.jpg","",""
"null","../img/gs/118gs.jpg","null","reveal","image-keyboard-response","45","768946","0.0-6.0-4.5","3019249","co37600","norming","","","","","","",""
"null","../img/tt/118tt.jpg","null","mooney2","image-keyboard-response","46","770948","0.0-6.0-5.5","3019249","co37600","norming","","","","","","",""
"2048.3849999997765","","","post_reveal_questions","survey-likert","47","772997","0.0-6.0-6.5","3019249","co37600","norming","","","{""aha"":5}","[0]","../img/tt/118tt.jpg","",""
"null","<div style=""font-size:60px;""> </div>","null","fixation","html-keyboard-response","48","773200","0.0-6.0-0.6","3019249","co37600","norming","","","","","","",""
"null","../img/tt/329tt.jpg","null","mooney1","image-keyboard-response","49","776204","0.0-6.0-1.6","3019249","co37600","norming","","","","","","",""
"4744.305000000168","","","post_mooney1_questions","survey-likert","50","780945","0.0-6.0-2.6","3019249","co37600","norming","","","{""curiosity"":5,""confidence"":0}","[0,1]","../img/tt/329tt.jpg","",""
"3110.390000000014","","","recognition","survey-text","51","784057","0.0-6.0-3.6","3019249","co37600","norming","","","{""guess"":""elephant""}","","../img/tt/329tt.jpg","",""
"null","../img/gs/329gs.jpg","null","reveal","image-keyboard-response","52","786067","0.0-6.0-4.6","3019249","co37600","norming","","","","","","",""
"null","../img/tt/329tt.jpg","null","mooney2","image-keyboard-response","53","788069","0.0-6.0-5.6","3019249","co37600","norming","","","","","","",""
"2074.519999999902","","","post_reveal_questions","survey-likert","54","790145","0.0-6.0-6.6","3019249","co37600","norming","","","{""aha"":4}","[0]","../img/tt/329tt.jpg","",""
"null","<div style=""font-size:60px;""> </div>","null","fixation","html-keyboard-response","55","790355","0.0-6.0-0.7","3019249","co37600","norming","","","","","","",""
"null","../img/tt/435tt.jpg","null","mooney1","image-keyboard-response","56","793363","0.0-6.0-1.7","3019249","co37600","norming","","","","","","",""
"6389.165000000037","","","post_mooney1_questions","survey-likert","57","799753","0.0-6.0-2.7","3019249","co37600","norming","","","{""curiosity"":1,""confidence"":5}","[0,1]","../img/tt/435tt.jpg","",""
"3374.0250000001397","","","recognition","survey-text","58","803129","0.0-6.0-3.7","3019249","co37600","norming","","","{""guess"":""pooltable""}","","../img/tt/435tt.jpg","",""
"null","../img/gs/435gs.jpg","null","reveal","image-keyboard-response","59","805137","0.0-6.0-4.7","3019249","co37600","norming","","","","","","",""
"null","../img/tt/435tt.jpg","null","mooney2","image-keyboard-response","60","807139","0.0-6.0-5.7","3019249","co37600","norming","","","","","","",""
"1899.684999999823","","","post_reveal_questions","survey-likert","61","809041","0.0-6.0-6.7","3019249","co37600","norming","","","{""aha"":0}","[0]","../img/tt/435tt.jpg","",""
"null","<div style=""font-size:60px;""> </div>","null","fixation","html-keyboard-response","62","809248","0.0-6.0-0.8","3019249","co37600","norming","","","","","","",""
"null","../img/tt/1143tt.jpg","null","mooney1","image-keyboard-response","63","812250","0.0-6.0-1.8","3019249","co37600","norming","","","","","","",""
"3670.170000000042","","","post_mooney1_questions","survey-likert","64","815921","0.0-6.0-2.8","3019249","co37600","norming","","","{""curiosity"":2,""confidence"":4}","[0,1]","../img/tt/1143tt.jpg","",""
"2390.5500000000466","","","recognition","survey-text","65","818313","0.0-6.0-3.8","3019249","co37600","norming","","","{""guess"":""fitness""}","","../img/tt/1143tt.jpg","",""
"null","../img/gs/1143gs.jpg","null","reveal","image-keyboard-response","66","820314","0.0-6.0-4.8","3019249","co37600","norming","","","","","","",""
"null","../img/tt/1143tt.jpg","null","mooney2","image-keyboard-response","67","822323","0.0-6.0-5.8","3019249","co37600","norming","","","","","","",""
"2955.6900000000605","","","post_reveal_questions","survey-likert","68","825281","0.0-6.0-6.8","3019249","co37600","norming","","","{""aha"":1}","[0]","../img/tt/1143tt.jpg","",""
"null","<div style=""font-size:60px;""> </div>","null","fixation","html-keyboard-response","69","825483","0.0-6.0-0.9","3019249","co37600","norming","","","","","","",""
"null","../img/tt/1278tt.jpg","null","mooney1","image-keyboard-response","70","828491","0.0-6.0-1.9","3019249","co37600","norming","","","","","","",""
"4675.149999999907","","","post_mooney1_questions","survey-likert","71","833169","0.0-6.0-2.9","3019249","co37600","norming","","","{""curiosity"":4,""confidence"":1}","[0,1]","../img/tt/1278tt.jpg","",""
"5542.450000000186","","","recognition","survey-text","72","838713","0.0-6.0-3.9","3019249","co37600","norming","","","{""guess"":""clown""}","","../img/tt/1278tt.jpg","",""
"null","../img/gs/1278gs.jpg","null","reveal","image-keyboard-response","73","840723","0.0-6.0-4.9","3019249","co37600","norming","","","","","","",""
"null","../img/tt/1278tt.jpg","null","mooney2","image-keyboard-response","74","842726","0.0-6.0-5.9","3019249","co37600","norming","","","","","","",""
"2146.07500000007","","","post_reveal_questions","survey-likert","75","844873","0.0-6.0-6.9","3019249","co37600","norming","","","{""aha"":6}","[0]","../img/tt/1278tt.jpg","",""
"null","<div style=""font-size:60px;""> </div>","null","fixation","html-keyboard-response","76","845079","0.0-6.0-0.10","3019249","co37600","norming","","","","","","",""
"null","../img/tt/307tt.jpg","null","mooney1","image-keyboard-response","77","848085","0.0-6.0-1.10","3019249","co37600","norming","","","","","","",""
"4907.339999999967","","","post_mooney1_questions","survey-likert","78","852993","0.0-6.0-2.10","3019249","co37600","norming","","","{""curiosity"":6,""confidence"":0}","[0,1]","../img/tt/307tt.jpg","",""
"2638.315000000177","","","recognition","survey-text","79","855633","0.0-6.0-3.10","3019249","co37600","norming","","","{""guess"":""shoe""}","","../img/tt/307tt.jpg","",""
"null","../img/gs/307gs.jpg","null","reveal","image-keyboard-response","80","857637","0.0-6.0-4.10","3019249","co37600","norming","","","","","","",""
"null","../img/tt/307tt.jpg","null","mooney2","image-keyboard-response","81","859640","0.0-6.0-5.10","3019249","co37600","norming","","","","","","",""
"2128.5800000000745","","","post_reveal_questions","survey-likert","82","861769","0.0-6.0-6.10","3019249","co37600","norming","","","{""aha"":1}","[0]","../img/tt/307tt.jpg","",""
"null","<div style=""font-size:60px;""> </div>","null","fixation","html-keyboard-response","83","861978","0.0-6.0-0.11","3019249","co37600","norming","","","","","","",""
"null","../img/tt/1181tt.jpg","null","mooney1","image-keyboard-response","84","864983","0.0-6.0-1.11","3019249","co37600","norming","","","","","","",""
"4831.844999999972","","","post_mooney1_questions","survey-likert","85","869817","0.0-6.0-2.11","3019249","co37600","norming","","","{""curiosity"":2,""confidence"":3}","[0,1]","../img/tt/1181tt.jpg","",""
"5030.175000000163","","","recognition","survey-text","86","874849","0.0-6.0-3.11","3019249","co37600","norming","","","{""guess"":""baseball players""}","","../img/tt/1181tt.jpg","",""
"null","../img/gs/1181gs.jpg","null","reveal","image-keyboard-response","87","876854","0.0-6.0-4.11","3019249","co37600","norming","","","","","","",""
"null","../img/tt/1181tt.jpg","null","mooney2","image-keyboard-response","88","878859","0.0-6.0-5.11","3019249","co37600","norming","","","","","","",""
"2709.4999999998836","","","post_reveal_questions","survey-likert","89","881569","0.0-6.0-6.11","3019249","co37600","norming","","","{""aha"":4}","[0]","../img/tt/1181tt.jpg","",""
"null","<div style=""font-size:60px;""> </div>","null","fixation","html-keyboard-response","90","881772","0.0-6.0-0.12","3019249","co37600","norming","","","","","","",""
"null","../img/tt/1175tt.jpg","null","mooney1","image-keyboard-response","91","884773","0.0-6.0-1.12","3019249","co37600","norming","","","","","","",""
"4146.229999999981","","","post_mooney1_questions","survey-likert","92","888922","0.0-6.0-2.12","3019249","co37600","norming","","","{""curiosity"":5,""confidence"":0}","[0,1]","../img/tt/1175tt.jpg","",""
"1990.160000000149","","","recognition","survey-text","93","890913","0.0-6.0-3.12","3019249","co37600","norming","","","{""guess"":""people""}","","../img/tt/1175tt.jpg","",""
"null","../img/gs/1175gs.jpg","null","reveal","image-keyboard-response","94","892915","0.0-6.0-4.12","3019249","co37600","norming","","","","","","",""
"null","../img/tt/1175tt.jpg","null","mooney2","image-keyboard-response","95","894916","0.0-6.0-5.12","3019249","co37600","norming","","","","","","",""
"2340.204999999958","","","post_reveal_questions","survey-likert","96","897257","0.0-6.0-6.12","3019249","co37600","norming","","","{""aha"":1}","[0]","../img/tt/1175tt.jpg","",""
"null","<div style=""font-size:60px;""> </div>","null","fixation","html-keyboard-response","97","897460","0.0-6.0-0.13","3019249","co37600","norming","","","","","","",""
"null","../img/tt/1080tt.jpg","null","mooney1","image-keyboard-response","98","900463","0.0-6.0-1.13","3019249","co37600","norming","","","","","","",""
"4007.4250000000466","","","post_mooney1_questions","survey-likert","99","904473","0.0-6.0-2.13","3019249","co37600","norming","","","{""curiosity"":4,""confidence"":2}","[0,1]","../img/tt/1080tt.jpg","",""
"2134.0899999999674","","","recognition","survey-text","100","906609","0.0-6.0-3.13","3019249","co37600","norming","","","{""guess"":""woman""}","","../img/tt/1080tt.jpg","",""
"null","../img/gs/1080gs.jpg","null","reveal","image-keyboard-response","101","908611","0.0-6.0-4.13","3019249","co37600","norming","","","","","","",""
"null","../img/tt/1080tt.jpg","null","mooney2","image-keyboard-response","102","910612","0.0-6.0-5.13","3019249","co37600","norming","","","","","","",""
"1723.8250000000698","","","post_reveal_questions","survey-likert","103","912336","0.0-6.0-6.13","3019249","co37600","norming","","","{""aha"":4}","[0]","../img/tt/1080tt.jpg","",""
"null","<div style=""font-size:60px;""> </div>","null","fixation","html-keyboard-response","104","912548","0.0-6.0-0.14","3019249","co37600","norming","","","","","","",""
"null","../img/tt/358tt.jpg","null","mooney1","image-keyboard-response","105","915553","0.0-6.0-1.14","3019249","co37600","norming","","","","","","",""
"5060.904999999795","","","post_mooney1_questions","survey-likert","106","920617","0.0-6.0-2.14","3019249","co37600","norming","","","{""curiosity"":4,""confidence"":1}","[0,1]","../img/tt/358tt.jpg","",""
"1158.6000000002095","","","recognition","survey-text","107","921777","0.0-6.0-3.14","3019249","co37600","norming","","","{""guess"":""dog""}","","../img/tt/358tt.jpg","",""
"null","../img/gs/358gs.jpg","null","reveal","image-keyboard-response","108","923779","0.0-6.0-4.14","3019249","co37600","norming","","","","","","",""
"null","../img/tt/358tt.jpg","null","mooney2","image-keyboard-response","109","925781","0.0-6.0-5.14","3019249","co37600","norming","","","","","","",""
"3409.8250000001863","","","post_reveal_questions","survey-likert","110","929193","0.0-6.0-6.14","3019249","co37600","norming","","","{""aha"":5}","[0]","../img/tt/358tt.jpg","",""
"null","<div style=""font-size:60px;""> </div>","null","fixation","html-keyboard-response","111","929401","0.0-6.0-0.15","3019249","co37600","norming","","","","","","",""
"null","../img/tt/1190tt.jpg","null","mooney1","image-keyboard-response","112","932411","0.0-6.0-1.15","3019249","co37600","norming","","","","","","",""
"4236.310000000056","","","post_mooney1_questions","survey-likert","113","936649","0.0-6.0-2.15","3019249","co37600","norming","","","{""curiosity"":5,""confidence"":0}","[0,1]","../img/tt/1190tt.jpg","",""
"2182.25","","","recognition","survey-text","114","938833","0.0-6.0-3.15","3019249","co37600","norming","","","{""guess"":""turtle""}","","../img/tt/1190tt.jpg","",""
"null","../img/gs/1190gs.jpg","null","reveal","image-keyboard-response","115","940842","0.0-6.0-4.15","3019249","co37600","norming","","","","","","",""
"null","../img/tt/1190tt.jpg","null","mooney2","image-keyboard-response","116","942845","0.0-6.0-5.15","3019249","co37600","norming","","","","","","",""
"1785.280000000028","","","post_reveal_questions","survey-likert","117","944632","0.0-6.0-6.15","3019249","co37600","norming","","","{""aha"":6}","[0]","../img/tt/1190tt.jpg","",""
"null","<div style=""font-size:60px;""> </div>","null","fixation","html-keyboard-response","118","944839","0.0-6.0-0.16","3019249","co37600","norming","","","","","","",""
"null","../img/tt/1186tt.jpg","null","mooney1","image-keyboard-response","119","947844","0.0-6.0-1.16","3019249","co37600","norming","","","","","","",""
"11748.01000000001","","","post_mooney1_questions","survey-likert","120","959593","0.0-6.0-2.16","3019249","co37600","norming","","","{""curiosity"":3,""confidence"":4}","[0,1]","../img/tt/1186tt.jpg","",""
"1942.0449999999255","","","recognition","survey-text","121","961536","0.0-6.0-3.16","3019249","co37600","norming","","","{""guess"":""wandelaar""}","","../img/tt/1186tt.jpg","",""
"null","../img/gs/1186gs.jpg","null","reveal","image-keyboard-response","122","963540","0.0-6.0-4.16","3019249","co37600","norming","","","","","","",""
"null","../img/tt/1186tt.jpg","null","mooney2","image-keyboard-response","123","965548","0.0-6.0-5.16","3019249","co37600","norming","","","","","","",""
"2019.8150000000605","","","post_reveal_questions","survey-likert","124","967570","0.0-6.0-6.16","3019249","co37600","norming","","","{""aha"":6}","[0]","../img/tt/1186tt.jpg","",""
"null","<div style=""font-size:60px;""> </div>","null","fixation","html-keyboard-response","125","967775","0.0-6.0-0.17","3019249","co37600","norming","","","","","","",""
"null","../img/tt/082tt.jpg","null","mooney1","image-keyboard-response","126","970785","0.0-6.0-1.17","3019249","co37600","norming","","","","","","",""
"5055.145000000019","","","post_mooney1_questions","survey-likert","127","975842","0.0-6.0-2.17","3019249","co37600","norming","","","{""curiosity"":1,""confidence"":5}","[0,1]","../img/tt/082tt.jpg","",""
"1582.2249999998603","","","recognition","survey-text","128","977426","0.0-6.0-3.17","3019249","co37600","norming","","","{""guess"":""bird""}","","../img/tt/082tt.jpg","",""
"null","../img/gs/082gs.jpg","null","reveal","image-keyboard-response","129","979434","0.0-6.0-4.17","3019249","co37600","norming","","","","","","",""
"null","../img/tt/082tt.jpg","null","mooney2","image-keyboard-response","130","981436","0.0-6.0-5.17","3019249","co37600","norming","","","","","","",""
"1748.9899999999907","","","post_reveal_questions","survey-likert","131","983186","0.0-6.0-6.17","3019249","co37600","norming","","","{""aha"":1}","[0]","../img/tt/082tt.jpg","",""
"null","<div style=""font-size:60px;""> </div>","null","fixation","html-keyboard-response","132","983391","0.0-6.0-0.18","3019249","co37600","norming","","","","","","",""
"null","../img/tt/1053tt.jpg","null","mooney1","image-keyboard-response","133","986397","0.0-6.0-1.18","3019249","co37600","norming","","","","","","",""
"5107.034999999916","","","post_mooney1_questions","survey-likert","134","991506","0.0-6.0-2.18","3019249","co37600","norming","","","{""curiosity"":1,""confidence"":5}","[0,1]","../img/tt/1053tt.jpg","",""
"2222.2199999998556","","","recognition","survey-text","135","993730","0.0-6.0-3.18","3019249","co37600","norming","","","{""guess"":""cows""}","","../img/tt/1053tt.jpg","",""
"null","../img/gs/1053gs.jpg","null","reveal","image-keyboard-response","136","995733","0.0-6.0-4.18","3019249","co37600","norming","","","","","","",""
"null","../img/tt/1053tt.jpg","null","mooney2","image-keyboard-response","137","997736","0.0-6.0-5.18","3019249","co37600","norming","","","","","","",""
"3424.0899999999674","","","post_reveal_questions","survey-likert","138","1001162","0.0-6.0-6.18","3019249","co37600","norming","","","{""aha"":0}","[0]","../img/tt/1053tt.jpg","",""
"null","<div style=""font-size:60px;""> </div>","null","fixation","html-keyboard-response","139","1001371","0.0-6.0-0.19","3019249","co37600","norming","","","","","","",""
"null","../img/tt/1142tt.jpg","null","mooney1","image-keyboard-response","140","1004378","0.0-6.0-1.19","3019249","co37600","norming","","","","","","",""
"4389.8150000000605","","","post_mooney1_questions","survey-likert","141","1008770","0.0-6.0-2.19","3019249","co37600","norming","","","{""curiosity"":1,""confidence"":5}","[0,1]","../img/tt/1142tt.jpg","",""
"13950.355000000214","","","recognition","survey-text","142","1022722","0.0-6.0-3.19","3019249","co37600","norming","","","{""guess"":""voetballer""}","","../img/tt/1142tt.jpg","",""
"null","../img/gs/1142gs.jpg","null","reveal","image-keyboard-response","143","1024726","0.0-6.0-4.19","3019249","co37600","norming","","","","","","",""
"null","../img/tt/1142tt.jpg","null","mooney2","image-keyboard-response","144","1026728","0.0-6.0-5.19","3019249","co37600","norming","","","","","","",""
"1816.1600000000326","","","post_reveal_questions","survey-likert","145","1028546","0.0-6.0-6.19","3019249","co37600","norming","","","{""aha"":5}","[0]","../img/tt/1142tt.jpg","",""
"null","<div style=""font-size:60px;""> </div>","null","fixation","html-keyboard-response","146","1028747","0.0-6.0-0.20","3019249","co37600","norming","","","","","","",""
"null","../img/tt/1353tt.jpg","null","mooney1","image-keyboard-response","147","1031751","0.0-6.0-1.20","3019249","co37600","norming","","","","","","",""
"4936.410000000033","","","post_mooney1_questions","survey-likert","148","1036690","0.0-6.0-2.20","3019249","co37600","norming","","","{""curiosity"":4,""confidence"":3}","[0,1]","../img/tt/1353tt.jpg","",""
"1358.1049999999814","","","recognition","survey-text","149","1038050","0.0-6.0-3.20","3019249","co37600","norming","","","{""guess"":""riem""}","","../img/tt/1353tt.jpg","",""
"null","../img/gs/1353gs.jpg","null","reveal","image-keyboard-response","150","1040060","0.0-6.0-4.20","3019249","co37600","norming","","","","","","",""
"null","../img/tt/1353tt.jpg","null","mooney2","image-keyboard-response","151","1042061","0.0-6.0-5.20","3019249","co37600","norming","","","","","","",""
"1475.1800000001676","","","post_reveal_questions","survey-likert","152","1043538","0.0-6.0-6.20","3019249","co37600","norming","","","{""aha"":4}","[0]","../img/tt/1353tt.jpg","",""
"null","<div style=""font-size:60px;""> </div>","null","fixation","html-keyboard-response","153","1043745","0.0-6.0-0.21","3019249","co37600","norming","","","","","","",""
"null","../img/tt/085tt.jpg","null","mooney1","image-keyboard-response","154","1046747","0.0-6.0-1.21","3019249","co37600","norming","","","","","","",""
"4228.895000000019","","","post_mooney1_questions","survey-likert","155","1050979","0.0-6.0-2.21","3019249","co37600","norming","","","{""curiosity"":6,""confidence"":0}","[0,1]","../img/tt/085tt.jpg","",""
"2494.1699999999255","","","recognition","survey-text","156","1053474","0.0-6.0-3.21","3019249","co37600","norming","","","{""guess"":""bloem""}","","../img/tt/085tt.jpg","",""
"null","../img/gs/085gs.jpg","null","reveal","image-keyboard-response","157","1055484","0.0-6.0-4.21","3019249","co37600","norming","","","","","","",""
"null","../img/tt/085tt.jpg","null","mooney2","image-keyboard-response","158","1057486","0.0-6.0-5.21","3019249","co37600","norming","","","","","","",""
"2635.2050000000745","","","post_reveal_questions","survey-likert","159","1060122","0.0-6.0-6.21","3019249","co37600","norming","","","{""aha"":4}","[0]","../img/tt/085tt.jpg","",""
"null","<div style=""font-size:60px;""> </div>","null","fixation","html-keyboard-response","160","1060329","0.0-6.0-0.22","3019249","co37600","norming","","","","","","",""
"null","../img/tt/599tt.jpg","null","mooney1","image-keyboard-response","161","1063337","0.0-6.0-1.22","3019249","co37600","norming","","","","","","",""
"5166.699999999953","","","post_mooney1_questions","survey-likert","162","1068506","0.0-6.0-2.22","3019249","co37600","norming","","","{""curiosity"":1,""confidence"":6}","[0,1]","../img/tt/599tt.jpg","",""
"1494.2949999999255","","","recognition","survey-text","163","1070002","0.0-6.0-3.22","3019249","co37600","norming","","","{""guess"":""uilen""}","","../img/tt/599tt.jpg","",""
"null","../img/gs/599gs.jpg","null","reveal","image-keyboard-response","164","1072009","0.0-6.0-4.22","3019249","co37600","norming","","","","","","",""
"null","../img/tt/599tt.jpg","null","mooney2","image-keyboard-response","165","1074010","0.0-6.0-5.22","3019249","co37600","norming","","","","","","",""
"2214.964999999851","","","post_reveal_questions","survey-likert","166","1076226","0.0-6.0-6.22","3019249","co37600","norming","","","{""aha"":0}","[0]","../img/tt/599tt.jpg","",""
"null","<div style=""font-size:60px;""> </div>","null","fixation","html-keyboard-response","167","1076431","0.0-6.0-0.23","3019249","co37600","norming","","","","","","",""
"null","../img/tt/456tt.jpg","null","mooney1","image-keyboard-response","168","1079438","0.0-6.0-1.23","3019249","co37600","norming","","","","","","",""
"4066.9200000001583","","","post_mooney1_questions","survey-likert","169","1083506","0.0-6.0-2.23","3019249","co37600","norming","","","{""curiosity"":1,""confidence"":5}","[0,1]","../img/tt/456tt.jpg","",""
"1630.344999999972","","","recognition","survey-text","170","1085136","0.0-6.0-3.23","3019249","co37600","norming","","","{""guess"":""ijsbeer""}","","../img/tt/456tt.jpg","",""
"null","../img/gs/456gs.jpg","null","reveal","image-keyboard-response","171","1087138","0.0-6.0-4.23","3019249","co37600","norming","","","","","","",""
"null","../img/tt/456tt.jpg","null","mooney2","image-keyboard-response","172","1089139","0.0-6.0-5.23","3019249","co37600","norming","","","","","","",""
"1483.380000000121","","","post_reveal_questions","survey-likert","173","1090624","0.0-6.0-6.23","3019249","co37600","norming","","","{""aha"":1}","[0]","../img/tt/456tt.jpg","",""
"null","<div style=""font-size:60px;""> </div>","null","fixation","html-keyboard-response","174","1090825","0.0-6.0-0.24","3019249","co37600","norming","","","","","","",""
"null","../img/tt/1254tt.jpg","null","mooney1","image-keyboard-response","175","1093829","0.0-6.0-1.24","3019249","co37600","norming","","","","","","",""
"5199.415000000037","","","post_mooney1_questions","survey-likert","176","1099032","0.0-6.0-2.24","3019249","co37600","norming","","","{""curiosity"":5,""confidence"":1}","[0,1]","../img/tt/1254tt.jpg","",""
"2070.1800000001676","","","recognition","survey-text","177","1101103","0.0-6.0-3.24","3019249","co37600","norming","","","{""guess"":""konijnen""}","","../img/tt/1254tt.jpg","",""
"null","../img/gs/1254gs.jpg","null","reveal","image-keyboard-response","178","1103109","0.0-6.0-4.24","3019249","co37600","norming","","","","","","",""
"null","../img/tt/1254tt.jpg","null","mooney2","image-keyboard-response","179","1105111","0.0-6.0-5.24","3019249","co37600","norming","","","","","","",""
"1655.4449999998324","","","post_reveal_questions","survey-likert","180","1106767","0.0-6.0-6.24","3019249","co37600","norming","","","{""aha"":2}","[0]","../img/tt/1254tt.jpg","",""
"null","<div style=""font-size:60px;""> </div>","null","fixation","html-keyboard-response","181","1106975","0.0-6.0-0.25","3019249","co37600","norming","","","","","","",""
"null","../img/tt/1122tt.jpg","null","mooney1","image-keyboard-response","182","1109977","0.0-6.0-1.25","3019249","co37600","norming","","","","","","",""
"4163.339999999851","","","post_mooney1_questions","survey-likert","183","1114143","0.0-6.0-2.25","3019249","co37600","norming","","","{""curiosity"":4,""confidence"":4}","[0,1]","../img/tt/1122tt.jpg","",""
"2302.3899999998976","","","recognition","survey-text","184","1116447","0.0-6.0-3.25","3019249","co37600","norming","","","{""guess"":""auto's""}","","../img/tt/1122tt.jpg","",""
"null","../img/gs/1122gs.jpg","null","reveal","image-keyboard-response","185","1118458","0.0-6.0-4.25","3019249","co37600","norming","","","","","","",""
"null","../img/tt/1122tt.jpg","null","mooney2","image-keyboard-response","186","1120465","0.0-6.0-5.25","3019249","co37600","norming","","","","","","",""
"1916.5549999999348","","","post_reveal_questions","survey-likert","187","1122383","0.0-6.0-6.25","3019249","co37600","norming","","","{""aha"":5}","[0]","../img/tt/1122tt.jpg","",""
"null","<div style=""font-size:60px;""> </div>","null","fixation","html-keyboard-response","188","1122593","0.0-6.0-0.26","3019249","co37600","norming","","","","","","",""
"null","../img/tt/1063tt.jpg","null","mooney1","image-keyboard-response","189","1125598","0.0-6.0-1.26","3019249","co37600","norming","","","","","","",""
"4726.019999999786","","","post_mooney1_questions","survey-likert","190","1130327","0.0-6.0-2.26","3019249","co37600","norming","","","{""curiosity"":5,""confidence"":1}","[0,1]","../img/tt/1063tt.jpg","",""
"1654.3500000000931","","","recognition","survey-text","191","1131983","0.0-6.0-3.26","3019249","co37600","norming","","","{""guess"":""olifant""}","","../img/tt/1063tt.jpg","",""
"null","../img/gs/1063gs.jpg","null","reveal","image-keyboard-response","192","1133985","0.0-6.0-4.26","3019249","co37600","norming","","","","","","",""
"null","../img/tt/1063tt.jpg","null","mooney2","image-keyboard-response","193","1135990","0.0-6.0-5.26","3019249","co37600","norming","","","","","","",""
"1431.3199999998324","","","post_reveal_questions","survey-likert","194","1137423","0.0-6.0-6.26","3019249","co37600","norming","","","{""aha"":2}","[0]","../img/tt/1063tt.jpg","",""
"null","<div style=""font-size:60px;""> </div>","null","fixation","html-keyboard-response","195","1137628","0.0-6.0-0.27","3019249","co37600","norming","","","","","","",""
"null","../img/tt/477tt.jpg","null","mooney1","image-keyboard-response","196","1140638","0.0-6.0-1.27","3019249","co37600","norming","","","","","","",""
"3654.435000000056","","","post_mooney1_questions","survey-likert","197","1144296","0.0-6.0-2.27","3019249","co37600","norming","","","{""curiosity"":5,""confidence"":1}","[0,1]","../img/tt/477tt.jpg","",""
"1349.9900000002235","","","recognition","survey-text","198","1145643","0.0-6.0-3.27","3019249","co37600","norming","","","{""guess"":""aap""}","","../img/tt/477tt.jpg","",""
"null","../img/gs/477gs.jpg","null","reveal","image-keyboard-response","199","1147650","0.0-6.0-4.27","3019249","co37600","norming","","","","","","",""
"null","../img/tt/477tt.jpg","null","mooney2","image-keyboard-response","200","1149657","0.0-6.0-5.27","3019249","co37600","norming","","","","","","",""
"1818.0499999998137","","","post_reveal_questions","survey-likert","201","1151475","0.0-6.0-6.27","3019249","co37600","norming","","","{""aha"":6}","[0]","../img/tt/477tt.jpg","",""
"null","<div style=""font-size:60px;""> </div>","null","fixation","html-keyboard-response","202","1151683","0.0-6.0-0.28","3019249","co37600","norming","","","","","","",""
"null","../img/tt/091tt.jpg","null","mooney1","image-keyboard-response","203","1154690","0.0-6.0-1.28","3019249","co37600","norming","","","","","","",""
"4095.1949999998324","","","post_mooney1_questions","survey-likert","204","1158788","0.0-6.0-2.28","3019249","co37600","norming","","","{""curiosity"":6,""confidence"":0}","[0,1]","../img/tt/091tt.jpg","",""
"2422.219999999972","","","recognition","survey-text","205","1161211","0.0-6.0-3.28","3019249","co37600","norming","","","{""guess"":""landschap""}","","../img/tt/091tt.jpg","",""
"null","../img/gs/091gs.jpg","null","reveal","image-keyboard-response","206","1163218","0.0-6.0-4.28","3019249","co37600","norming","","","","","","",""
"null","../img/tt/091tt.jpg","null","mooney2","image-keyboard-response","207","1165219","0.0-6.0-5.28","3019249","co37600","norming","","","","","","",""
"1999.0799999998417","","","post_reveal_questions","survey-likert","208","1167219","0.0-6.0-6.28","3019249","co37600","norming","","","{""aha"":3}","[0]","../img/tt/091tt.jpg","",""
"null","<div style=""font-size:60px;""> </div>","null","fixation","html-keyboard-response","209","1167424","0.0-6.0-0.29","3019249","co37600","norming","","","","","","",""
"null","../img/tt/440tt.jpg","null","mooney1","image-keyboard-response","210","1170434","0.0-6.0-1.29","3019249","co37600","norming","","","","","","",""
"3862.410000000149","","","post_mooney1_questions","survey-likert","211","1174299","0.0-6.0-2.29","3019249","co37600","norming","","","{""curiosity"":5,""confidence"":2}","[0,1]","../img/tt/440tt.jpg","",""
"1646.3350000001956","","","recognition","survey-text","212","1175947","0.0-6.0-3.29","3019249","co37600","norming","","","{""guess"":""paard""}","","../img/tt/440tt.jpg","",""
"null","../img/gs/440gs.jpg","null","reveal","image-keyboard-response","213","1177951","0.0-6.0-4.29","3019249","co37600","norming","","","","","","",""
"null","../img/tt/440tt.jpg","null","mooney2","image-keyboard-response","214","1179954","0.0-6.0-5.29","3019249","co37600","norming","","","","","","",""
"1998.469999999972","","","post_reveal_questions","survey-likert","215","1181955","0.0-6.0-6.29","3019249","co37600","norming","","","{""aha"":5}","[0]","../img/tt/440tt.jpg","",""
"null","<div style=""font-size:60px;""> </div>","null","fixation","html-keyboard-response","216","1182159","0.0-6.0-0.30","3019249","co37600","norming","","","","","","",""
"null","../img/tt/300tt.jpg","null","mooney1","image-keyboard-response","217","1185162","0.0-6.0-1.30","3019249","co37600","norming","","","","","","",""
"3032.2000000001863","","","post_mooney1_questions","survey-likert","218","1188196","0.0-6.0-2.30","3019249","co37600","norming","","","{""curiosity"":6,""confidence"":0}","[0,1]","../img/tt/300tt.jpg","",""
"4470.054999999935","","","recognition","survey-text","219","1192667","0.0-6.0-3.30","3019249","co37600","norming","","","{""guess"":""man""}","","../img/tt/300tt.jpg","",""
"null","../img/gs/300gs.jpg","null","reveal","image-keyboard-response","220","1194676","0.0-6.0-4.30","3019249","co37600","norming","","","","","","",""
"null","../img/tt/300tt.jpg","null","mooney2","image-keyboard-response","221","1196679","0.0-6.0-5.30","3019249","co37600","norming","","","","","","",""
"1954.9750000000931","","","post_reveal_questions","survey-likert","222","1198635","0.0-6.0-6.30","3019249","co37600","norming","","","{""aha"":6}","[0]","../img/tt/300tt.jpg","",""
"null","<div style=""font-size:60px;""> </div>","null","fixation","html-keyboard-response","223","1198838","0.0-6.0-0.31","3019249","co37600","norming","","","","","","",""
"null","../img/tt/353tt.jpg","null","mooney1","image-keyboard-response","224","1201847","0.0-6.0-1.31","3019249","co37600","norming","","","","","","",""
"3099.3199999998324","","","post_mooney1_questions","survey-likert","225","1204948","0.0-6.0-2.31","3019249","co37600","norming","","","{""curiosity"":1,""confidence"":6}","[0,1]","../img/tt/353tt.jpg","",""
"3317.9699999997392","","","recognition","survey-text","226","1208268","0.0-6.0-3.31","3019249","co37600","norming","","","{""guess"":""pinguïn""}","","../img/tt/353tt.jpg","",""
"null","../img/gs/353gs.jpg","null","reveal","image-keyboard-response","227","1210279","0.0-6.0-4.31","3019249","co37600","norming","","","","","","",""
"null","../img/tt/353tt.jpg","null","mooney2","image-keyboard-response","228","1212282","0.0-6.0-5.31","3019249","co37600","norming","","","","","","",""
"1745.315000000177","","","post_reveal_questions","survey-likert","229","1214028","0.0-6.0-6.31","3019249","co37600","norming","","","{""aha"":1}","[0]","../img/tt/353tt.jpg","",""
"null","<div style=""font-size:60px;""> </div>","null","fixation","html-keyboard-response","230","1214237","0.0-6.0-0.32","3019249","co37600","norming","","","","","","",""
"null","../img/tt/357tt.jpg","null","mooney1","image-keyboard-response","231","1217240","0.0-6.0-1.32","3019249","co37600","norming","","","","","","",""
"4131.569999999832","","","post_mooney1_questions","survey-likert","232","1221372","0.0-6.0-2.32","3019249","co37600","norming","","","{""curiosity"":1,""confidence"":5}","[0,1]","../img/tt/357tt.jpg","",""
"1709.875","","","recognition","survey-text","233","1223084","0.0-6.0-3.32","3019249","co37600","norming","","","{""guess"":""egel""}","","../img/tt/357tt.jpg","",""
"null","../img/gs/357gs.jpg","null","reveal","image-keyboard-response","234","1225087","0.0-6.0-4.32","3019249","co37600","norming","","","","","","",""
"null","../img/tt/357tt.jpg","null","mooney2","image-keyboard-response","235","1227089","0.0-6.0-5.32","3019249","co37600","norming","","","","","","",""
"1712.4299999999348","","","post_reveal_questions","survey-likert","236","1228804","0.0-6.0-6.32","3019249","co37600","norming","","","{""aha"":0}","[0]","../img/tt/357tt.jpg","",""
"null","<div style=""font-size:60px;""> </div>","null","fixation","html-keyboard-response","237","1229006","0.0-6.0-0.33","3019249","co37600","norming","","","","","","",""
"null","../img/tt/1126tt.jpg","null","mooney1","image-keyboard-response","238","1232013","0.0-6.0-1.33","3019249","co37600","norming","","","","","","",""
"4348.369999999879","","","post_mooney1_questions","survey-likert","239","1236364","0.0-6.0-2.33","3019249","co37600","norming","","","{""curiosity"":5,""confidence"":1}","[0,1]","../img/tt/1126tt.jpg","",""
"1709.9450000000652","","","recognition","survey-text","240","1238076","0.0-6.0-3.33","3019249","co37600","norming","","","{""guess"":""boom""}","","../img/tt/1126tt.jpg","",""
"null","../img/gs/1126gs.jpg","null","reveal","image-keyboard-response","241","1240085","0.0-6.0-4.33","3019249","co37600","norming","","","","","","",""
"null","../img/tt/1126tt.jpg","null","mooney2","image-keyboard-response","242","1242087","0.0-6.0-5.33","3019249","co37600","norming","","","","","","",""
"2060.0849999999627","","","post_reveal_questions","survey-likert","243","1244148","0.0-6.0-6.33","3019249","co37600","norming","","","{""aha"":6}","[0]","../img/tt/1126tt.jpg","",""
"null","<div style=""font-size:60px;""> </div>","null","fixation","html-keyboard-response","244","1244351","0.0-6.0-0.34","3019249","co37600","norming","","","","","","",""
"null","../img/tt/184tt.jpg","null","mooney1","image-keyboard-response","245","1247360","0.0-6.0-1.34","3019249","co37600","norming","","","","","","",""
"4217.75","","","post_mooney1_questions","survey-likert","246","1251580","0.0-6.0-2.34","3019249","co37600","norming","","","{""curiosity"":4,""confidence"":4}","[0,1]","../img/tt/184tt.jpg","",""
"2078.1450000002515","","","recognition","survey-text","247","1253660","0.0-6.0-3.34","3019249","co37600","norming","","","{""guess"":""luiaard""}","","../img/tt/184tt.jpg","",""
"null","../img/gs/184gs.jpg","null","reveal","image-keyboard-response","248","1255664","0.0-6.0-4.34","3019249","co37600","norming","","","","","","",""
"null","../img/tt/184tt.jpg","null","mooney2","image-keyboard-response","249","1257675","0.0-6.0-5.34","3019249","co37600","norming","","","","","","",""
"1590.7599999997765","","","post_reveal_questions","survey-likert","250","1259268","0.0-6.0-6.34","3019249","co37600","norming","","","{""aha"":5}","[0]","../img/tt/184tt.jpg","",""
"null","<div style=""font-size:60px;""> </div>","null","fixation","html-keyboard-response","251","1259472","0.0-6.0-0.35","3019249","co37600","norming","","","","","","",""
"null","../img/tt/105tt.jpg","null","mooney1","image-keyboard-response","252","1262481","0.0-6.0-1.35","3019249","co37600","norming","","","","","","",""
"3768.8849999997765","","","post_mooney1_questions","survey-likert","253","1266258","0.0-6.0-2.35","3019249","co37600","norming","","","{""curiosity"":6,""confidence"":0}","[0,1]","../img/tt/105tt.jpg","",""
"1726.4050000002608","","","recognition","survey-text","254","1267986","0.0-6.0-3.35","3019249","co37600","norming","","","{""guess"":""vlinder""}","","../img/tt/105tt.jpg","",""
"null","../img/gs/105gs.jpg","null","reveal","image-keyboard-response","255","1269993","0.0-6.0-4.35","3019249","co37600","norming","","","","","","",""
"null","../img/tt/105tt.jpg","null","mooney2","image-keyboard-response","256","1271994","0.0-6.0-5.35","3019249","co37600","norming","","","","","","",""
"2510.9600000001956","","","post_reveal_questions","survey-likert","257","1274506","0.0-6.0-6.35","3019249","co37600","norming","","","{""aha"":0}","[0]","../img/tt/105tt.jpg","",""
"null","<div style=""font-size:60px;""> </div>","null","fixation","html-keyboard-response","258","1274713","0.0-6.0-0.36","3019249","co37600","norming","","","","","","",""
"null","../img/tt/598tt.jpg","null","mooney1","image-keyboard-response","259","1277714","0.0-6.0-1.36","3019249","co37600","norming","","","","","","",""
"3638.7099999999627","","","post_mooney1_questions","survey-likert","260","1281354","0.0-6.0-2.36","3019249","co37600","norming","","","{""curiosity"":6,""confidence"":0}","[0,1]","../img/tt/598tt.jpg","",""
"1718.4150000000373","","","recognition","survey-text","261","1283074","0.0-6.0-3.36","3019249","co37600","norming","","","{""guess"":""scampi""}","","../img/tt/598tt.jpg","",""
"null","../img/gs/598gs.jpg","null","reveal","image-keyboard-response","262","1285076","0.0-6.0-4.36","3019249","co37600","norming","","","","","","",""
"null","../img/tt/598tt.jpg","null","mooney2","image-keyboard-response","263","1287085","0.0-6.0-5.36","3019249","co37600","norming","","","","","","",""
"1762.4250000000466","","","post_reveal_questions","survey-likert","264","1288850","0.0-6.0-6.36","3019249","co37600","norming","","","{""aha"":4}","[0]","../img/tt/598tt.jpg","",""
"null","<div style=""font-size:60px;""> </div>","null","fixation","html-keyboard-response","265","1289056","0.0-6.0-0.37","3019249","co37600","norming","","","","","","",""
"null","../img/tt/080tt.jpg","null","mooney1","image-keyboard-response","266","1292068","0.0-6.0-1.37","3019249","co37600","norming","","","","","","",""
"4019.744999999879","","","post_mooney1_questions","survey-likert","267","1296090","0.0-6.0-2.37","3019249","co37600","norming","","","{""curiosity"":5,""confidence"":1}","[0,1]","../img/tt/080tt.jpg","",""
"2358.1699999999255","","","recognition","survey-text","268","1298450","0.0-6.0-3.37","3019249","co37600","norming","","","{""guess"":""kangoeroe""}","","../img/tt/080tt.jpg","",""
"null","../img/gs/080gs.jpg","null","reveal","image-keyboard-response","269","1300457","0.0-6.0-4.37","3019249","co37600","norming","","","","","","",""
"null","../img/tt/080tt.jpg","null","mooney2","image-keyboard-response","270","1302464","0.0-6.0-5.37","3019249","co37600","norming","","","","","","",""
"2135.965000000084","","","post_reveal_questions","survey-likert","271","1304602","0.0-6.0-6.37","3019249","co37600","norming","","","{""aha"":5}","[0]","../img/tt/080tt.jpg","",""
"null","<div style=""font-size:60px;""> </div>","null","fixation","html-keyboard-response","272","1304813","0.0-6.0-0.38","3019249","co37600","norming","","","","","","",""
"null","../img/tt/1118tt.jpg","null","mooney1","image-keyboard-response","273","1307825","0.0-6.0-1.38","3019249","co37600","norming","","","","","","",""
"3974.7100000001956","","","post_mooney1_questions","survey-likert","274","1311802","0.0-6.0-2.38","3019249","co37600","norming","","","{""curiosity"":5,""confidence"":1}","[0,1]","../img/tt/1118tt.jpg","",""
"1494.0649999999441","","","recognition","survey-text","275","1313298","0.0-6.0-3.38","3019249","co37600","norming","","","{""guess"":""boot""}","","../img/tt/1118tt.jpg","",""
"null","../img/gs/1118gs.jpg","null","reveal","image-keyboard-response","276","1315302","0.0-6.0-4.38","3019249","co37600","norming","","","","","","",""
"null","../img/tt/1118tt.jpg","null","mooney2","image-keyboard-response","277","1317314","0.0-6.0-5.38","3019249","co37600","norming","","","","","","",""
"2494.274999999907","","","post_reveal_questions","survey-likert","278","1319810","0.0-6.0-6.38","3019249","co37600","norming","","","{""aha"":5}","[0]","../img/tt/1118tt.jpg","",""
"null","<div style=""font-size:60px;""> </div>","null","fixation","html-keyboard-response","279","1320011","0.0-6.0-0.39","3019249","co37600","norming","","","","","","",""
"null","../img/tt/078tt.jpg","null","mooney1","image-keyboard-response","280","1323015","0.0-6.0-1.39","3019249","co37600","norming","","","","","","",""
"4056.720000000205","","","post_mooney1_questions","survey-likert","281","1327066","0.0-6.0-2.39","3019249","co37600","norming","","","{""curiosity"":5,""confidence"":1}","[0,1]","../img/tt/078tt.jpg","",""
"1389.720000000205","","","recognition","survey-text","282","1328458","0.0-6.0-3.39","3019249","co37600","norming","","","{""guess"":""bij""}","","../img/tt/078tt.jpg","",""
"null","../img/gs/078gs.jpg","null","reveal","image-keyboard-response","283","1330461","0.0-6.0-4.39","3019249","co37600","norming","","","","","","",""
"null","../img/tt/078tt.jpg","null","mooney2","image-keyboard-response","284","1332462","0.0-6.0-5.39","3019249","co37600","norming","","","","","","",""
"1779.0399999998044","","","post_reveal_questions","survey-likert","285","1334242","0.0-6.0-6.39","3019249","co37600","norming","","","{""aha"":5}","[0]","../img/tt/078tt.jpg","",""
"null","<div style=""font-size:60px;""> </div>","null","fixation","html-keyboard-response","286","1334450","0.0-6.0-0.40","3019249","co37600","norming","","","","","","",""
"null","../img/tt/1243tt.jpg","null","mooney1","image-keyboard-response","287","1337458","0.0-6.0-1.40","3019249","co37600","norming","","","","","","",""
"3750.5849999999627","","","post_mooney1_questions","survey-likert","288","1341210","0.0-6.0-2.40","3019249","co37600","norming","","","{""curiosity"":4,""confidence"":5}","[0,1]","../img/tt/1243tt.jpg","",""
"1134.030000000028","","","recognition","survey-text","289","1342346","0.0-6.0-3.40","3019249","co37600","norming","","","{""guess"":""aap""}","","../img/tt/1243tt.jpg","",""
"null","../img/gs/1243gs.jpg","null","reveal","image-keyboard-response","290","1344347","0.0-6.0-4.40","3019249","co37600","norming","","","","","","",""
"null","../img/tt/1243tt.jpg","null","mooney2","image-keyboard-response","291","1346351","0.0-6.0-5.40","3019249","co37600","norming","","","","","","",""
"2080.899999999907","","","post_reveal_questions","survey-likert","292","1348434","0.0-6.0-6.40","3019249","co37600","norming","","","{""aha"":6}","[0]","../img/tt/1243tt.jpg","",""
"null","<div style=""font-size:60px;""> </div>","null","fixation","html-keyboard-response","293","1348642","0.0-6.0-0.41","3019249","co37600","norming","","","","","","",""
"null","../img/tt/1043tt.jpg","null","mooney1","image-keyboard-response","294","1351645","0.0-6.0-1.41","3019249","co37600","norming","","","","","","",""
"3194.4250000000466","","","post_mooney1_questions","survey-likert","295","1354842","0.0-6.0-2.41","3019249","co37600","norming","","","{""curiosity"":6,""confidence"":0}","[0,1]","../img/tt/1043tt.jpg","",""
"1918.280000000028","","","recognition","survey-text","296","1356762","0.0-6.0-3.41","3019249","co37600","norming","","","{""guess"":""pretzel""}","","../img/tt/1043tt.jpg","",""
"null","../img/gs/1043gs.jpg","null","reveal","image-keyboard-response","297","1358770","0.0-6.0-4.41","3019249","co37600","norming","","","","","","",""
"null","../img/tt/1043tt.jpg","null","mooney2","image-keyboard-response","298","1360774","0.0-6.0-5.41","3019249","co37600","norming","","","","","","",""
"1643.6649999998044","","","post_reveal_questions","survey-likert","299","1362418","0.0-6.0-6.41","3019249","co37600","norming","","","{""aha"":4}","[0]","../img/tt/1043tt.jpg","",""
"null","<div style=""font-size:60px;""> </div>","null","fixation","html-keyboard-response","300","1362623","0.0-6.0-0.42","3019249","co37600","norming","","","","","","",""
"null","../img/tt/108tt.jpg","null","mooney1","image-keyboard-response","301","1365625","0.0-6.0-1.42","3019249","co37600","norming","","","","","","",""
"3933.655000000028","","","post_mooney1_questions","survey-likert","302","1369562","0.0-6.0-2.42","3019249","co37600","norming","","","{""curiosity"":5,""confidence"":1}","[0,1]","../img/tt/108tt.jpg","",""
"1213.8000000000466","","","recognition","survey-text","303","1370778","0.0-6.0-3.42","3019249","co37600","norming","","","{""guess"":""eend""}","","../img/tt/108tt.jpg","",""
"null","../img/gs/108gs.jpg","null","reveal","image-keyboard-response","304","1372784","0.0-6.0-4.42","3019249","co37600","norming","","","","","","",""
"null","../img/tt/108tt.jpg","null","mooney2","image-keyboard-response","305","1374793","0.0-6.0-5.42","3019249","co37600","norming","","","","","","",""
"1947.7150000000838","","","post_reveal_questions","survey-likert","306","1376746","0.0-6.0-6.42","3019249","co37600","norming","","","{""aha"":0}","[0]","../img/tt/108tt.jpg","",""
"null","<div style=""font-size:60px;""> </div>","null","fixation","html-keyboard-response","307","1376955","0.0-6.0-0.43","3019249","co37600","norming","","","","","","",""
"null","../img/tt/1188tt.jpg","null","mooney1","image-keyboard-response","308","1379960","0.0-6.0-1.43","3019249","co37600","norming","","","","","","",""
"5024.949999999953","","","post_mooney1_questions","survey-likert","309","1384986","0.0-6.0-2.43","3019249","co37600","norming","","","{""curiosity"":1,""confidence"":5}","[0,1]","../img/tt/1188tt.jpg","",""
"3437.6399999998976","","","recognition","survey-text","310","1388428","0.0-6.0-3.43","3019249","co37600","norming","","","{""guess"":""rugby speler""}","","../img/tt/1188tt.jpg","",""
"null","../img/gs/1188gs.jpg","null","reveal","image-keyboard-response","311","1390437","0.0-6.0-4.43","3019249","co37600","norming","","","","","","",""
"null","../img/tt/1188tt.jpg","null","mooney2","image-keyboard-response","312","1392438","0.0-6.0-5.43","3019249","co37600","norming","","","","","","",""
"1861.2749999999069","","","post_reveal_questions","survey-likert","313","1394300","0.0-6.0-6.43","3019249","co37600","norming","","","{""aha"":5}","[0]","../img/tt/1188tt.jpg","",""
"null","<div style=""font-size:60px;""> </div>","null","fixation","html-keyboard-response","314","1394505","0.0-6.0-0.44","3019249","co37600","norming","","","","","","",""
"null","../img/tt/418tt.jpg","null","mooney1","image-keyboard-response","315","1397516","0.0-6.0-1.44","3019249","co37600","norming","","","","","","",""
"4276.820000000065","","","post_mooney1_questions","survey-likert","316","1401796","0.0-6.0-2.44","3019249","co37600","norming","","","{""curiosity"":5,""confidence"":1}","[0,1]","../img/tt/418tt.jpg","",""
"1622.3249999999534","","","recognition","survey-text","317","1403420","0.0-6.0-3.44","3019249","co37600","norming","","","{""guess"":""boom""}","","../img/tt/418tt.jpg","",""
"null","../img/gs/418gs.jpg","null","reveal","image-keyboard-response","318","1405421","0.0-6.0-4.44","3019249","co37600","norming","","","","","","",""
"null","../img/tt/418tt.jpg","null","mooney2","image-keyboard-response","319","1407428","0.0-6.0-5.44","3019249","co37600","norming","","","","","","",""
"2621.905000000028","","","post_reveal_questions","survey-likert","320","1410052","0.0-6.0-6.44","3019249","co37600","norming","","","{""aha"":4}","[0]","../img/tt/418tt.jpg","",""
"null","<div style=""font-size:60px;""> </div>","null","fixation","html-keyboard-response","321","1410262","0.0-6.0-0.45","3019249","co37600","norming","","","","","","",""
"null","../img/tt/1116tt.jpg","null","mooney1","image-keyboard-response","322","1413271","0.0-6.0-1.45","3019249","co37600","norming","","","","","","",""
"5834.3849999997765","","","post_mooney1_questions","survey-likert","323","1419109","0.0-6.0-2.45","3019249","co37600","norming","","","{""curiosity"":5,""confidence"":2}","[0,1]","../img/tt/1116tt.jpg","",""
"2694.1700000001583","","","recognition","survey-text","324","1421804","0.0-6.0-3.45","3019249","co37600","norming","","","{""guess"":""vliegtuigen""}","","../img/tt/1116tt.jpg","",""
"null","../img/gs/1116gs.jpg","null","reveal","image-keyboard-response","325","1423806","0.0-6.0-4.45","3019249","co37600","norming","","","","","","",""
"null","../img/tt/1116tt.jpg","null","mooney2","image-keyboard-response","326","1425810","0.0-6.0-5.45","3019249","co37600","norming","","","","","","",""
"2840.2600000000093","","","post_reveal_questions","survey-likert","327","1428652","0.0-6.0-6.45","3019249","co37600","norming","","","{""aha"":1}","[0]","../img/tt/1116tt.jpg","",""
"null","<div style=""font-size:60px;""> </div>","null","fixation","html-keyboard-response","328","1428858","0.0-6.0-0.46","3019249","co37600","norming","","","","","","",""
"null","../img/tt/1205tt.jpg","null","mooney1","image-keyboard-response","329","1431860","0.0-6.0-1.46","3019249","co37600","norming","","","","","","",""
"3197.124999999767","","","post_mooney1_questions","survey-likert","330","1435060","0.0-6.0-2.46","3019249","co37600","norming","","","{""curiosity"":6,""confidence"":0}","[0,1]","../img/tt/1205tt.jpg","",""
"1910.1149999997579","","","recognition","survey-text","331","1436972","0.0-6.0-3.46","3019249","co37600","norming","","","{""guess"":""taart""}","","../img/tt/1205tt.jpg","",""
"null","../img/gs/1205gs.jpg","null","reveal","image-keyboard-response","332","1438979","0.0-6.0-4.46","3019249","co37600","norming","","","","","","",""
"null","../img/tt/1205tt.jpg","null","mooney2","image-keyboard-response","333","1440980","0.0-6.0-5.46","3019249","co37600","norming","","","","","","",""
"1535.4250000000466","","","post_reveal_questions","survey-likert","334","1442516","0.0-6.0-6.46","3019249","co37600","norming","","","{""aha"":6}","[0]","../img/tt/1205tt.jpg","",""
"null","<div style=""font-size:60px;""> </div>","null","fixation","html-keyboard-response","335","1442717","0.0-6.0-0.47","3019249","co37600","norming","","","","","","",""
"null","../img/tt/060tt.jpg","null","mooney1","image-keyboard-response","336","1445719","0.0-6.0-1.47","3019249","co37600","norming","","","","","","",""
"3860.7800000002608","","","post_mooney1_questions","survey-likert","337","1449582","0.0-6.0-2.47","3019249","co37600","norming","","","{""curiosity"":3,""confidence"":4}","[0,1]","../img/tt/060tt.jpg","",""
"2589.090000000084","","","recognition","survey-text","338","1452174","0.0-6.0-3.47","3019249","co37600","norming","","","{""guess"":""hamburger""}","","../img/tt/060tt.jpg","",""
"null","../img/gs/060gs.jpg","null","reveal","image-keyboard-response","339","1454178","0.0-6.0-4.47","3019249","co37600","norming","","","","","","",""
"null","../img/tt/060tt.jpg","null","mooney2","image-keyboard-response","340","1456182","0.0-6.0-5.47","3019249","co37600","norming","","","","","","",""
"3174.7099999999627","","","post_reveal_questions","survey-likert","341","1459358","0.0-6.0-6.47","3019249","co37600","norming","","","{""aha"":1}","[0]","../img/tt/060tt.jpg","",""
"null","<div style=""font-size:60px;""> </div>","null","fixation","html-keyboard-response","342","1459560","0.0-6.0-0.48","3019249","co37600","norming","","","","","","",""
"null","../img/tt/222tt.jpg","null","mooney1","image-keyboard-response","343","1462566","0.0-6.0-1.48","3019249","co37600","norming","","","","","","",""
"6661.274999999907","","","post_mooney1_questions","survey-likert","344","1469230","0.0-6.0-2.48","3019249","co37600","norming","","","{""curiosity"":5,""confidence"":1}","[0,1]","../img/tt/222tt.jpg","",""
"1054.1349999997765","","","recognition","survey-text","345","1470286","0.0-6.0-3.48","3019249","co37600","norming","","","{""guess"":""boot""}","","../img/tt/222tt.jpg","",""
"null","../img/gs/222gs.jpg","null","reveal","image-keyboard-response","346","1472287","0.0-6.0-4.48","3019249","co37600","norming","","","","","","",""
"null","../img/tt/222tt.jpg","null","mooney2","image-keyboard-response","347","1474292","0.0-6.0-5.48","3019249","co37600","norming","","","","","","",""
"2647.375","","","post_reveal_questions","survey-likert","348","1476942","0.0-6.0-6.48","3019249","co37600","norming","","","{""aha"":6}","[0]","../img/tt/222tt.jpg","",""
"null","<div style=""font-size:60px;""> </div>","null","fixation","html-keyboard-response","349","1477145","0.0-6.0-0.49","3019249","co37600","norming","","","","","","",""
"null","../img/tt/438tt.jpg","null","mooney1","image-keyboard-response","350","1480147","0.0-6.0-1.49","3019249","co37600","norming","","","","","","",""
"3257.4250000000466","","","post_mooney1_questions","survey-likert","351","1483406","0.0-6.0-2.49","3019249","co37600","norming","","","{""curiosity"":1,""confidence"":5}","[0,1]","../img/tt/438tt.jpg","",""
"9742.600000000093","","","recognition","survey-text","352","1493150","0.0-6.0-3.49","3019249","co37600","norming","","","{""guess"":""vlinder""}","","../img/tt/438tt.jpg","",""
"null","../img/gs/438gs.jpg","null","reveal","image-keyboard-response","353","1495152","0.0-6.0-4.49","3019249","co37600","norming","","","","","","",""
"null","../img/tt/438tt.jpg","null","mooney2","image-keyboard-response","354","1497154","0.0-6.0-5.49","3019249","co37600","norming","","","","","","",""
"1675.2099999999627","","","post_reveal_questions","survey-likert","355","1498830","0.0-6.0-6.49","3019249","co37600","norming","","","{""aha"":4}","[0]","../img/tt/438tt.jpg","",""
"null","<div style=""font-size:60px;""> </div>","null","fixation","html-keyboard-response","356","1499033","0.0-6.0-0.50","3019249","co37600","norming","","","","","","",""
"null","../img/tt/1236tt.jpg","null","mooney1","image-keyboard-response","357","1502034","0.0-6.0-1.50","3019249","co37600","norming","","","","","","",""
"4880.510000000009","","","post_mooney1_questions","survey-likert","358","1506918","0.0-6.0-2.50","3019249","co37600","norming","","","{""curiosity"":3,""confidence"":4}","[0,1]","../img/tt/1236tt.jpg","",""
"1222.0849999999627","","","recognition","survey-text","359","1508141","0.0-6.0-3.50","3019249","co37600","norming","","","{""guess"":""eend""}","","../img/tt/1236tt.jpg","",""
"null","../img/gs/1236gs.jpg","null","reveal","image-keyboard-response","360","1510142","0.0-6.0-4.50","3019249","co37600","norming","","","","","","",""
"null","../img/tt/1236tt.jpg","null","mooney2","image-keyboard-response","361","1512148","0.0-6.0-5.50","3019249","co37600","norming","","","","","","",""
"3783.7949999999255","","","post_reveal_questions","survey-likert","362","1515933","0.0-6.0-6.50","3019249","co37600","norming","","","{""aha"":3}","[0]","../img/tt/1236tt.jpg","",""
"null","<div style=""font-size:60px;""> </div>","null","fixation","html-keyboard-response","363","1516140","0.0-6.0-0.51","3019249","co37600","norming","","","","","","",""
"null","../img/tt/1024tt.jpg","null","mooney1","image-keyboard-response","364","1519146","0.0-6.0-1.51","3019249","co37600","norming","","","","","","",""
"3888.065000000177","","","post_mooney1_questions","survey-likert","365","1523037","0.0-6.0-2.51","3019249","co37600","norming","","","{""curiosity"":6,""confidence"":1}","[0,1]","../img/tt/1024tt.jpg","",""
"1726.280000000028","","","recognition","survey-text","366","1524765","0.0-6.0-3.51","3019249","co37600","norming","","","{""guess"":""loper""}","","../img/tt/1024tt.jpg","",""
"null","../img/gs/1024gs.jpg","null","reveal","image-keyboard-response","367","1526776","0.0-6.0-4.51","3019249","co37600","norming","","","","","","",""
"null","../img/tt/1024tt.jpg","null","mooney2","image-keyboard-response","368","1528778","0.0-6.0-5.51","3019249","co37600","norming","","","","","","",""
"2218.439999999944","","","post_reveal_questions","survey-likert","369","1530997","0.0-6.0-6.51","3019249","co37600","norming","","","{""aha"":6}","[0]","../img/tt/1024tt.jpg","",""
"null","<div style=""font-size:60px;""> </div>","null","fixation","html-keyboard-response","370","1531204","0.0-6.0-0.52","3019249","co37600","norming","","","","","","",""
"null","../img/tt/1070tt.jpg","null","mooney1","image-keyboard-response","371","1534214","0.0-6.0-1.52","3019249","co37600","norming","","","","","","",""
"3997.719999999972","","","post_mooney1_questions","survey-likert","372","1538213","0.0-6.0-2.52","3019249","co37600","norming","","","{""curiosity"":4,""confidence"":4}","[0,1]","../img/tt/1070tt.jpg","",""
"2965.9749999998603","","","recognition","survey-text","373","1541181","0.0-6.0-3.52","3019249","co37600","norming","","","{""guess"":""hot dog""}","","../img/tt/1070tt.jpg","",""
"null","../img/gs/1070gs.jpg","null","reveal","image-keyboard-response","374","1543184","0.0-6.0-4.52","3019249","co37600","norming","","","","","","",""
"null","../img/tt/1070tt.jpg","null","mooney2","image-keyboard-response","375","1545190","0.0-6.0-5.52","3019249","co37600","norming","","","","","","",""
"2461.570000000065","","","post_reveal_questions","survey-likert","376","1547653","0.0-6.0-6.52","3019249","co37600","norming","","","{""aha"":3}","[0]","../img/tt/1070tt.jpg","",""
"null","<div style=""font-size:60px;""> </div>","null","fixation","html-keyboard-response","377","1547858","0.0-6.0-0.53","3019249","co37600","norming","","","","","","",""
"null","../img/tt/1241tt.jpg","null","mooney1","image-keyboard-response","378","1550861","0.0-6.0-1.53","3019249","co37600","norming","","","","","","",""
"2917.184999999823","","","post_mooney1_questions","survey-likert","379","1553781","0.0-6.0-2.53","3019249","co37600","norming","","","{""curiosity"":6,""confidence"":0}","[0,1]","../img/tt/1241tt.jpg","",""
"2102.160000000382","","","recognition","survey-text","380","1555885","0.0-6.0-3.53","3019249","co37600","norming","","","{""guess"":""achtbaan""}","","../img/tt/1241tt.jpg","",""
"null","../img/gs/1241gs.jpg","null","reveal","image-keyboard-response","381","1557892","0.0-6.0-4.53","3019249","co37600","norming","","","","","","",""
"null","../img/tt/1241tt.jpg","null","mooney2","image-keyboard-response","382","1559902","0.0-6.0-5.53","3019249","co37600","norming","","","","","","",""
"2269.5450000001583","","","post_reveal_questions","survey-likert","383","1562173","0.0-6.0-6.53","3019249","co37600","norming","","","{""aha"":4}","[0]","../img/tt/1241tt.jpg","",""
"null","<div style=""font-size:60px;""> </div>","null","fixation","html-keyboard-response","384","1562378","0.0-6.0-0.54","3019249","co37600","norming","","","","","","",""
"null","../img/tt/580tt.jpg","null","mooney1","image-keyboard-response","385","1565382","0.0-6.0-1.54","3019249","co37600","norming","","","","","","",""
"3923.6999999999534","","","post_mooney1_questions","survey-likert","386","1569309","0.0-6.0-2.54","3019249","co37600","norming","","","{""curiosity"":5,""confidence"":1}","[0,1]","../img/tt/580tt.jpg","",""
"1470.155000000028","","","recognition","survey-text","387","1570781","0.0-6.0-3.54","3019249","co37600","norming","","","{""guess"":""boom""}","","../img/tt/580tt.jpg","",""
"null","../img/gs/580gs.jpg","null","reveal","image-keyboard-response","388","1572788","0.0-6.0-4.54","3019249","co37600","norming","","","","","","",""
"null","../img/tt/580tt.jpg","null","mooney2","image-keyboard-response","389","1574792","0.0-6.0-5.54","3019249","co37600","norming","","","","","","",""
"1675.940000000177","","","post_reveal_questions","survey-likert","390","1576469","0.0-6.0-6.54","3019249","co37600","norming","","","{""aha"":6}","[0]","../img/tt/580tt.jpg","",""
"null","<div style=""font-size:60px;""> </div>","null","fixation","html-keyboard-response","391","1576671","0.0-6.0-0.55","3019249","co37600","norming","","","","","","",""
"null","../img/tt/094tt.jpg","null","mooney1","image-keyboard-response","392","1579675","0.0-6.0-1.55","3019249","co37600","norming","","","","","","",""
"3223.439999999944","","","post_mooney1_questions","survey-likert","393","1582901","0.0-6.0-2.55","3019249","co37600","norming","","","{""curiosity"":1,""confidence"":6}","[0,1]","../img/tt/094tt.jpg","",""
"1366.0049999998882","","","recognition","survey-text","394","1584269","0.0-6.0-3.55","3019249","co37600","norming","","","{""guess"":""wolf""}","","../img/tt/094tt.jpg","",""
"null","../img/gs/094gs.jpg","null","reveal","image-keyboard-response","395","1586278","0.0-6.0-4.55","3019249","co37600","norming","","","","","","",""
"null","../img/tt/094tt.jpg","null","mooney2","image-keyboard-response","396","1588279","0.0-6.0-5.55","3019249","co37600","norming","","","","","","",""
"1684.530000000028","","","post_reveal_questions","survey-likert","397","1589965","0.0-6.0-6.55","3019249","co37600","norming","","","{""aha"":0}","[0]","../img/tt/094tt.jpg","",""
"null","<div style=""font-size:60px;""> </div>","null","fixation","html-keyboard-response","398","1590175","0.0-6.0-0.56","3019249","co37600","norming","","","","","","",""
"null","../img/tt/1250tt.jpg","null","mooney1","image-keyboard-response","399","1593184","0.0-6.0-1.56","3019249","co37600","norming","","","","","","",""
"4866.715000000317","","","post_mooney1_questions","survey-likert","400","1598053","0.0-6.0-2.56","3019249","co37600","norming","","","{""curiosity"":3,""confidence"":4}","[0,1]","../img/tt/1250tt.jpg","",""
"2022.0500000000466","","","recognition","survey-text","401","1600077","0.0-6.0-3.56","3019249","co37600","norming","","","{""guess"":""zwanen""}","","../img/tt/1250tt.jpg","",""
"null","../img/gs/1250gs.jpg","null","reveal","image-keyboard-response","402","1602086","0.0-6.0-4.56","3019249","co37600","norming","","","","","","",""
"null","../img/tt/1250tt.jpg","null","mooney2","image-keyboard-response","403","1604090","0.0-6.0-5.56","3019249","co37600","norming","","","","","","",""
"2248.7150000003166","","","post_reveal_questions","survey-likert","404","1606341","0.0-6.0-6.56","3019249","co37600","norming","","","{""aha"":2}","[0]","../img/tt/1250tt.jpg","",""
"null","<div style=""font-size:60px;""> </div>","null","fixation","html-keyboard-response","405","1606549","0.0-6.0-0.57","3019249","co37600","norming","","","","","","",""
"null","../img/tt/549tt.jpg","null","mooney1","image-keyboard-response","406","1609553","0.0-6.0-1.57","3019249","co37600","norming","","","","","","",""
"3632.9950000001118","","","post_mooney1_questions","survey-likert","407","1613189","0.0-6.0-2.57","3019249","co37600","norming","","","{""curiosity"":4,""confidence"":1}","[0,1]","../img/tt/549tt.jpg","",""
"3590.0300000002608","","","recognition","survey-text","408","1616781","0.0-6.0-3.57","3019249","co37600","norming","","","{""guess"":""wormen""}","","../img/tt/549tt.jpg","",""
"null","../img/gs/549gs.jpg","null","reveal","image-keyboard-response","409","1618782","0.0-6.0-4.57","3019249","co37600","norming","","","","","","",""
"null","../img/tt/549tt.jpg","null","mooney2","image-keyboard-response","410","1620793","0.0-6.0-5.57","3019249","co37600","norming","","","","","","",""
"3568.9500000001863","","","post_reveal_questions","survey-likert","411","1624365","0.0-6.0-6.57","3019249","co37600","norming","","","{""aha"":2}","[0]","../img/tt/549tt.jpg","",""
"null","<div style=""font-size:60px;""> </div>","null","fixation","html-keyboard-response","412","1624572","0.0-6.0-0.58","3019249","co37600","norming","","","","","","",""
"null","../img/tt/1276tt.jpg","null","mooney1","image-keyboard-response","413","1627577","0.0-6.0-1.58","3019249","co37600","norming","","","","","","",""
"5377.29000000027","","","post_mooney1_questions","survey-likert","414","1632963","0.0-6.0-2.58","3019249","co37600","norming","","","{""curiosity"":5,""confidence"":1}","[0,1]","../img/tt/1276tt.jpg","",""
"1469.9350000002887","","","recognition","survey-text","415","1634435","0.0-6.0-3.58","3019249","co37600","norming","","","{""guess"":""beer""}","","../img/tt/1276tt.jpg","",""
"null","../img/gs/1276gs.jpg","null","reveal","image-keyboard-response","416","1636438","0.0-6.0-4.58","3019249","co37600","norming","","","","","","",""
"null","../img/tt/1276tt.jpg","null","mooney2","image-keyboard-response","417","1638440","0.0-6.0-5.58","3019249","co37600","norming","","","","","","",""
"1425.8300000000745","","","post_reveal_questions","survey-likert","418","1639867","0.0-6.0-6.58","3019249","co37600","norming","","","{""aha"":5}","[0]","../img/tt/1276tt.jpg","",""
"null","<div style=""font-size:60px;""> </div>","null","fixation","html-keyboard-response","419","1640070","0.0-6.0-0.59","3019249","co37600","norming","","","","","","",""
"null","../img/tt/406tt.jpg","null","mooney1","image-keyboard-response","420","1643076","0.0-6.0-1.59","3019249","co37600","norming","","","","","","",""
"4637.505000000121","","","post_mooney1_questions","survey-likert","421","1647715","0.0-6.0-2.59","3019249","co37600","norming","","","{""curiosity"":1,""confidence"":6}","[0,1]","../img/tt/406tt.jpg","",""
"2829.5550000001676","","","recognition","survey-text","422","1650547","0.0-6.0-3.59","3019249","co37600","norming","","","{""guess"":""vleermuis""}","","../img/tt/406tt.jpg","",""
"null","../img/gs/406gs.jpg","null","reveal","image-keyboard-response","423","1652549","0.0-6.0-4.59","3019249","co37600","norming","","","","","","",""
"null","../img/tt/406tt.jpg","null","mooney2","image-keyboard-response","424","1654554","0.0-6.0-5.59","3019249","co37600","norming","","","","","","",""
"2133.910000000149","","","post_reveal_questions","survey-likert","425","1656691","0.0-6.0-6.59","3019249","co37600","norming","","","{""aha"":1}","[0]","../img/tt/406tt.jpg","",""
"null","<div style=""font-size:60px;""> </div>","null","fixation","html-keyboard-response","426","1656894","0.0-6.0-0.60","3019249","co37600","norming","","","","","","",""
"null","../img/tt/1283tt.jpg","null","mooney1","image-keyboard-response","427","1659902","0.0-6.0-1.60","3019249","co37600","norming","","","","","","",""
"4443.590000000317","","","post_mooney1_questions","survey-likert","428","1664347","0.0-6.0-2.60","3019249","co37600","norming","","","{""curiosity"":3,""confidence"":5}","[0,1]","../img/tt/1283tt.jpg","",""
"1558.2400000002235","","","recognition","survey-text","429","1665907","0.0-6.0-3.60","3019249","co37600","norming","","","{""guess"":""vow""}","","../img/tt/1283tt.jpg","",""
"null","../img/gs/1283gs.jpg","null","reveal","image-keyboard-response","430","1667913","0.0-6.0-4.60","3019249","co37600","norming","","","","","","",""
"null","../img/tt/1283tt.jpg","null","mooney2","image-keyboard-response","431","1669915","0.0-6.0-5.60","3019249","co37600","norming","","","","","","",""
"4276.914999999804","","","post_reveal_questions","survey-likert","432","1674195","0.0-6.0-6.60","3019249","co37600","norming","","","{""aha"":1}","[0]","../img/tt/1283tt.jpg","",""
"null","<div style=""font-size:60px;""> </div>","null","fixation","html-keyboard-response","433","1674405","0.0-6.0-0.61","3019249","co37600","norming","","","","","","",""
"null","../img/tt/1002tt.jpg","null","mooney1","image-keyboard-response","434","1677413","0.0-6.0-1.61","3019249","co37600","norming","","","","","","",""
"3261.2899999998044","","","post_mooney1_questions","survey-likert","435","1680675","0.0-6.0-2.61","3019249","co37600","norming","","","{""curiosity"":1,""confidence"":6}","[0,1]","../img/tt/1002tt.jpg","",""
"1438.2100000001956","","","recognition","survey-text","436","1682115","0.0-6.0-3.61","3019249","co37600","norming","","","{""guess"":""beer""}","","../img/tt/1002tt.jpg","",""
"null","../img/gs/1002gs.jpg","null","reveal","image-keyboard-response","437","1684118","0.0-6.0-4.61","3019249","co37600","norming","","","","","","",""
"null","../img/tt/1002tt.jpg","null","mooney2","image-keyboard-response","438","1686120","0.0-6.0-5.61","3019249","co37600","norming","","","","","","",""
"3240.5749999999534","","","post_reveal_questions","survey-likert","439","1689365","0.0-6.0-6.61","3019249","co37600","norming","","","{""aha"":0}","[0]","../img/tt/1002tt.jpg","",""
"null","<div style=""font-size:60px;""> </div>","null","fixation","html-keyboard-response","440","1689571","0.0-6.0-0.62","3019249","co37600","norming","","","","","","",""
"null","../img/tt/380tt.jpg","null","mooney1","image-keyboard-response","441","1692578","0.0-6.0-1.62","3019249","co37600","norming","","","","","","",""
"4457.489999999758","","","post_mooney1_questions","survey-likert","442","1697037","0.0-6.0-2.62","3019249","co37600","norming","","","{""curiosity"":4,""confidence"":2}","[0,1]","../img/tt/380tt.jpg","",""
"1686.4850000003353","","","recognition","survey-text","443","1698725","0.0-6.0-3.62","3019249","co37600","norming","","","{""guess"":""vogel""}","","../img/tt/380tt.jpg","",""
"null","../img/gs/380gs.jpg","null","reveal","image-keyboard-response","444","1700731","0.0-6.0-4.62","3019249","co37600","norming","","","","","","",""
"null","../img/tt/380tt.jpg","null","mooney2","image-keyboard-response","445","1702732","0.0-6.0-5.62","3019249","co37600","norming","","","","","","",""
"1358.530000000028","","","post_reveal_questions","survey-likert","446","1704093","0.0-6.0-6.62","3019249","co37600","norming","","","{""aha"":5}","[0]","../img/tt/380tt.jpg","",""
"null","<div style=""font-size:60px;""> </div>","null","fixation","html-keyboard-response","447","1704294","0.0-6.0-0.63","3019249","co37600","norming","","","","","","",""
"null","../img/tt/040tt.jpg","null","mooney1","image-keyboard-response","448","1707300","0.0-6.0-1.63","3019249","co37600","norming","","","","","","",""
"4390.629999999888","","","post_mooney1_questions","survey-likert","449","1711693","0.0-6.0-2.63","3019249","co37600","norming","","","{""curiosity"":5,""confidence"":1}","[0,1]","../img/tt/040tt.jpg","",""
"1782.1049999997485","","","recognition","survey-text","450","1713477","0.0-6.0-3.63","3019249","co37600","norming","","","{""guess"":""vogel""}","","../img/tt/040tt.jpg","",""
"null","../img/gs/040gs.jpg","null","reveal","image-keyboard-response","451","1715483","0.0-6.0-4.63","3019249","co37600","norming","","","","","","",""
"null","../img/tt/040tt.jpg","null","mooney2","image-keyboard-response","452","1717486","0.0-6.0-5.63","3019249","co37600","norming","","","","","","",""
"1838.2600000000093","","","post_reveal_questions","survey-likert","453","1719325","0.0-6.0-6.63","3019249","co37600","norming","","","{""aha"":6}","[0]","../img/tt/040tt.jpg","",""
"null","<div style=""font-size:60px;""> </div>","null","fixation","html-keyboard-response","454","1719535","0.0-6.0-0.64","3019249","co37600","norming","","","","","","",""
"null","../img/tt/1159tt.jpg","null","mooney1","image-keyboard-response","455","1722538","0.0-6.0-1.64","3019249","co37600","norming","","","","","","",""
"4792.135000000009","","","post_mooney1_questions","survey-likert","456","1727333","0.0-6.0-2.64","3019249","co37600","norming","","","{""curiosity"":2,""confidence"":4}","[0,1]","../img/tt/1159tt.jpg","",""
"1373.8899999996647","","","recognition","survey-text","457","1728709","0.0-6.0-3.64","3019249","co37600","norming","","","{""guess"":""haven""}","","../img/tt/1159tt.jpg","",""
"null","../img/gs/1159gs.jpg","null","reveal","image-keyboard-response","458","1730711","0.0-6.0-4.64","3019249","co37600","norming","","","","","","",""
"null","../img/tt/1159tt.jpg","null","mooney2","image-keyboard-response","459","1732713","0.0-6.0-5.64","3019249","co37600","norming","","","","","","",""
"2035.029999999795","","","post_reveal_questions","survey-likert","460","1734749","0.0-6.0-6.64","3019249","co37600","norming","","","{""aha"":5}","[0]","../img/tt/1159tt.jpg","",""
"null","<div style=""font-size:60px;""> </div>","null","fixation","html-keyboard-response","461","1734957","0.0-6.0-0.65","3019249","co37600","norming","","","","","","",""
"null","../img/tt/013tt.jpg","null","mooney1","image-keyboard-response","462","1737967","0.0-6.0-1.65","3019249","co37600","norming","","","","","","",""
"4594.464999999618","","","post_mooney1_questions","survey-likert","463","1742565","0.0-6.0-2.65","3019249","co37600","norming","","","{""curiosity"":2,""confidence"":4}","[0,1]","../img/tt/013tt.jpg","",""
"2254.179999999935","","","recognition","survey-text","464","1744821","0.0-6.0-3.65","3019249","co37600","norming","","","{""guess"":""dolfijn""}","","../img/tt/013tt.jpg","",""
"null","../img/gs/013gs.jpg","null","reveal","image-keyboard-response","465","1746822","0.0-6.0-4.65","3019249","co37600","norming","","","","","","",""
"null","../img/tt/013tt.jpg","null","mooney2","image-keyboard-response","466","1748822","0.0-6.0-5.65","3019249","co37600","norming","","","","","","",""
"1325.2350000003353","","","post_reveal_questions","survey-likert","467","1750150","0.0-6.0-6.65","3019249","co37600","norming","","","{""aha"":6}","[0]","../img/tt/013tt.jpg","",""
"null","<div style=""font-size:60px;""> </div>","null","fixation","html-keyboard-response","468","1750356","0.0-6.0-0.66","3019249","co37600","norming","","","","","","",""
"null","../img/tt/1107tt.jpg","null","mooney1","image-keyboard-response","469","1753363","0.0-6.0-1.66","3019249","co37600","norming","","","","","","",""
"2953.510000000475","","","post_mooney1_questions","survey-likert","470","1756318","0.0-6.0-2.66","3019249","co37600","norming","","","{""curiosity"":6,""confidence"":0}","[0,1]","../img/tt/1107tt.jpg","",""
"1693.875","","","recognition","survey-text","471","1758014","0.0-6.0-3.66","3019249","co37600","norming","","","{""guess"":""""}","","../img/tt/1107tt.jpg","",""
"null","../img/gs/1107gs.jpg","null","reveal","image-keyboard-response","472","1760016","0.0-6.0-4.66","3019249","co37600","norming","","","","","","",""
"null","../img/tt/1107tt.jpg","null","mooney2","image-keyboard-response","473","1762017","0.0-6.0-5.66","3019249","co37600","norming","","","","","","",""
"1363.8400000000838","","","post_reveal_questions","survey-likert","474","1763382","0.0-6.0-6.66","3019249","co37600","norming","","","{""aha"":6}","[0]","../img/tt/1107tt.jpg","",""
"null","<div style=""font-size:60px;""> </div>","null","fixation","html-keyboard-response","475","1763592","0.0-6.0-0.67","3019249","co37600","norming","","","","","","",""
"null","../img/tt/1217tt.jpg","null","mooney1","image-keyboard-response","476","1766599","0.0-6.0-1.67","3019249","co37600","norming","","","","","","",""
"4179.290000000037","","","post_mooney1_questions","survey-likert","477","1770782","0.0-6.0-2.67","3019249","co37600","norming","","","{""curiosity"":1,""confidence"":5}","[0,1]","../img/tt/1217tt.jpg","",""
"2822.1150000004563","","","recognition","survey-text","478","1773606","0.0-6.0-3.67","3019249","co37600","norming","","","{""guess"":""voetballers""}","","../img/tt/1217tt.jpg","",""
"null","../img/gs/1217gs.jpg","null","reveal","image-keyboard-response","479","1775609","0.0-6.0-4.67","3019249","co37600","norming","","","","","","",""
"null","../img/tt/1217tt.jpg","null","mooney2","image-keyboard-response","480","1777613","0.0-6.0-5.67","3019249","co37600","norming","","","","","","",""
"2575.714999999851","","","post_reveal_questions","survey-likert","481","1780190","0.0-6.0-6.67","3019249","co37600","norming","","","{""aha"":1}","[0]","../img/tt/1217tt.jpg","",""
"null","<div style=""font-size:60px;""> </div>","null","fixation","html-keyboard-response","482","1780395","0.0-6.0-0.68","3019249","co37600","norming","","","","","","",""
"null","../img/tt/189tt.jpg","null","mooney1","image-keyboard-response","483","1783399","0.0-6.0-1.68","3019249","co37600","norming","","","","","","",""
"4930.800000000047","","","post_mooney1_questions","survey-likert","484","1788334","0.0-6.0-2.68","3019249","co37600","norming","","","{""curiosity"":6,""confidence"":2}","[0,1]","../img/tt/189tt.jpg","",""
"8038.244999999879","","","recognition","survey-text","485","1796374","0.0-6.0-3.68","3019249","co37600","norming","","","{""guess"":""paard""}","","../img/tt/189tt.jpg","",""
"null","../img/gs/189gs.jpg","null","reveal","image-keyboard-response","486","1798383","0.0-6.0-4.68","3019249","co37600","norming","","","","","","",""
"null","../img/tt/189tt.jpg","null","mooney2","image-keyboard-response","487","1800387","0.0-6.0-5.68","3019249","co37600","norming","","","","","","",""
"2256.214999999851","","","post_reveal_questions","survey-likert","488","1802646","0.0-6.0-6.68","3019249","co37600","norming","","","{""aha"":5}","[0]","../img/tt/189tt.jpg","",""
"null","<div style=""font-size:60px;""> </div>","null","fixation","html-keyboard-response","489","1802848","0.0-6.0-0.69","3019249","co37600","norming","","","","","","",""
"null","../img/tt/1066tt.jpg","null","mooney1","image-keyboard-response","490","1805850","0.0-6.0-1.69","3019249","co37600","norming","","","","","","",""
"2962.219999999972","","","post_mooney1_questions","survey-likert","491","1808814","0.0-6.0-2.69","3019249","co37600","norming","","","{""curiosity"":1,""confidence"":5}","[0,1]","../img/tt/1066tt.jpg","",""
"1958.4300000001676","","","recognition","survey-text","492","1810767","0.0-6.0-3.69","3019249","co37600","norming","","","{""guess"":""bus""}","","../img/tt/1066tt.jpg","",""
"null","../img/gs/1066gs.jpg","null","reveal","image-keyboard-response","493","1812769","0.0-6.0-4.69","3019249","co37600","norming","","","","","","",""
"null","../img/tt/1066tt.jpg","null","mooney2","image-keyboard-response","494","1814772","0.0-6.0-5.69","3019249","co37600","norming","","","","","","",""
"2033.8400000000838","","","post_reveal_questions","survey-likert","495","1816807","0.0-6.0-6.69","3019249","co37600","norming","","","{""aha"":0}","[0]","../img/tt/1066tt.jpg","",""
"null","<div style=""font-size:60px;""> </div>","null","fixation","html-keyboard-response","496","1817014","0.0-6.0-0.70","3019249","co37600","norming","","","","","","",""
"null","../img/tt/378tt.jpg","null","mooney1","image-keyboard-response","497","1820021","0.0-6.0-1.70","3019249","co37600","norming","","","","","","",""
"3662.089999999851","","","post_mooney1_questions","survey-likert","498","1823687","0.0-6.0-2.70","3019249","co37600","norming","","","{""curiosity"":1,""confidence"":5}","[0,1]","../img/tt/378tt.jpg","",""
"1798.0749999997206","","","recognition","survey-text","499","1825486","0.0-6.0-3.70","3019249","co37600","norming","","","{""guess"":""vogel""}","","../img/tt/378tt.jpg","",""
"null","../img/gs/378gs.jpg","null","reveal","image-keyboard-response","500","1827488","0.0-6.0-4.70","3019249","co37600","norming","","","","","","",""
"null","../img/tt/378tt.jpg","null","mooney2","image-keyboard-response","501","1829490","0.0-6.0-5.70","3019249","co37600","norming","","","","","","",""
"1523.3849999997765","","","post_reveal_questions","survey-likert","502","1831015","0.0-6.0-6.70","3019249","co37600","norming","","","{""aha"":4}","[0]","../img/tt/378tt.jpg","",""
"null","<div style=""font-size:60px;""> </div>","null","fixation","html-keyboard-response","503","1831222","0.0-6.0-0.71","3019249","co37600","norming","","","","","","",""
"null","../img/tt/007tt.jpg","null","mooney1","image-keyboard-response","504","1834228","0.0-6.0-1.71","3019249","co37600","norming","","","","","","",""
"3431.8649999999907","","","post_mooney1_questions","survey-likert","505","1837663","0.0-6.0-2.71","3019249","co37600","norming","","","{""curiosity"":2,""confidence"":4}","[0,1]","../img/tt/007tt.jpg","",""
"1870.220000000205","","","recognition","survey-text","506","1839535","0.0-6.0-3.71","3019249","co37600","norming","","","{""guess"":""walrus""}","","../img/tt/007tt.jpg","",""
"null","../img/gs/007gs.jpg","null","reveal","image-keyboard-response","507","1841537","0.0-6.0-4.71","3019249","co37600","norming","","","","","","",""
"null","../img/tt/007tt.jpg","null","mooney2","image-keyboard-response","508","1843539","0.0-6.0-5.71","3019249","co37600","norming","","","","","","",""
"2211.064999999944","","","post_reveal_questions","survey-likert","509","1845751","0.0-6.0-6.71","3019249","co37600","norming","","","{""aha"":1}","[0]","../img/tt/007tt.jpg","",""
"null","<div style=""font-size:60px;""> </div>","null","fixation","html-keyboard-response","510","1845953","0.0-6.0-0.72","3019249","co37600","norming","","","","","","",""
"null","../img/tt/1251tt.jpg","null","mooney1","image-keyboard-response","511","1848961","0.0-6.0-1.72","3019249","co37600","norming","","","","","","",""
"3642.464999999851","","","post_mooney1_questions","survey-likert","512","1852607","0.0-6.0-2.72","3019249","co37600","norming","","","{""curiosity"":1,""confidence"":5}","[0,1]","../img/tt/1251tt.jpg","",""
"1213.8100000002887","","","recognition","survey-text","513","1853823","0.0-6.0-3.72","3019249","co37600","norming","","","{""guess"":""beer""}","","../img/tt/1251tt.jpg","",""
"null","../img/gs/1251gs.jpg","null","reveal","image-keyboard-response","514","1855827","0.0-6.0-4.72","3019249","co37600","norming","","","","","","",""
"null","../img/tt/1251tt.jpg","null","mooney2","image-keyboard-response","515","1857830","0.0-6.0-5.72","3019249","co37600","norming","","","","","","",""
"3479.2950000001583","","","post_reveal_questions","survey-likert","516","1861311","0.0-6.0-6.72","3019249","co37600","norming","","","{""aha"":0}","[0]","../img/tt/1251tt.jpg","",""
"null","<div style=""font-size:60px;""> </div>","null","fixation","html-keyboard-response","517","1861514","0.0-6.0-0.73","3019249","co37600","norming","","","","","","",""
"null","../img/tt/1084tt.jpg","null","mooney1","image-keyboard-response","518","1864518","0.0-6.0-1.73","3019249","co37600","norming","","","","","","",""
"6879.514999999898","","","post_mooney1_questions","survey-likert","519","1871405","0.0-6.0-2.73","3019249","co37600","norming","","","{""curiosity"":4,""confidence"":3}","[0,1]","../img/tt/1084tt.jpg","",""
"1686.0449999999255","","","recognition","survey-text","520","1873093","0.0-6.0-3.73","3019249","co37600","norming","","","{""guess"":""sushi""}","","../img/tt/1084tt.jpg","",""
"null","../img/gs/1084gs.jpg","null","reveal","image-keyboard-response","521","1875102","0.0-6.0-4.73","3019249","co37600","norming","","","","","","",""
"null","../img/tt/1084tt.jpg","null","mooney2","image-keyboard-response","522","1877106","0.0-6.0-5.73","3019249","co37600","norming","","","","","","",""
"1703.594999999972","","","post_reveal_questions","survey-likert","523","1878813","0.0-6.0-6.73","3019249","co37600","norming","","","{""aha"":2}","[0]","../img/tt/1084tt.jpg","",""
"null","<div style=""font-size:60px;""> </div>","null","fixation","html-keyboard-response","524","1879018","0.0-6.0-0.74","3019249","co37600","norming","","","","","","",""
"null","../img/tt/1247tt.jpg","null","mooney1","image-keyboard-response","525","1882022","0.0-6.0-1.74","3019249","co37600","norming","","","","","","",""
"4997.030000000028","","","post_mooney1_questions","survey-likert","526","1887021","0.0-6.0-2.74","3019249","co37600","norming","","","{""curiosity"":2,""confidence"":4}","[0,1]","../img/tt/1247tt.jpg","",""
"3206.024999999907","","","recognition","survey-text","527","1890229","0.0-6.0-3.74","3019249","co37600","norming","","","{""guess"":""jachtluipaard""}","","../img/tt/1247tt.jpg","",""
"null","../img/gs/1247gs.jpg","null","reveal","image-keyboard-response","528","1892236","0.0-6.0-4.74","3019249","co37600","norming","","","","","","",""
"null","../img/tt/1247tt.jpg","null","mooney2","image-keyboard-response","529","1894237","0.0-6.0-5.74","3019249","co37600","norming","","","","","","",""
"1710.6899999999441","","","post_reveal_questions","survey-likert","530","1895949","0.0-6.0-6.74","3019249","co37600","norming","","","{""aha"":5}","[0]","../img/tt/1247tt.jpg","",""
"null","<div style=""font-size:60px;""> </div>","null","fixation","html-keyboard-response","531","1896158","0.0-6.0-0.75","3019249","co37600","norming","","","","","","",""
"null","../img/tt/296tt.jpg","null","mooney1","image-keyboard-response","532","1899166","0.0-6.0-1.75","3019249","co37600","norming","","","","","","",""
"5714.945000000065","","","post_mooney1_questions","survey-likert","533","1904885","0.0-6.0-2.75","3019249","co37600","norming","","","{""curiosity"":4,""confidence"":3}","[0,1]","../img/tt/296tt.jpg","",""
"9910.209999999963","","","recognition","survey-text","534","1914797","0.0-6.0-3.75","3019249","co37600","norming","","","{""guess"":""tandartsstoel""}","","../img/tt/296tt.jpg","",""
"null","../img/gs/296gs.jpg","null","reveal","image-keyboard-response","535","1916802","0.0-6.0-4.75","3019249","co37600","norming","","","","","","",""
"null","../img/tt/296tt.jpg","null","mooney2","image-keyboard-response","536","1918804","0.0-6.0-5.75","3019249","co37600","norming","","","","","","",""
"1870.1500000001397","","","post_reveal_questions","survey-likert","537","1920677","0.0-6.0-6.75","3019249","co37600","norming","","","{""aha"":1}","[0]","../img/tt/296tt.jpg","",""
"null","<div style=""font-size:60px;""> </div>","null","fixation","html-keyboard-response","538","1920883","0.0-6.0-0.76","3019249","co37600","norming","","","","","","",""
"null","../img/tt/590tt.jpg","null","mooney1","image-keyboard-response","539","1923891","0.0-6.0-1.76","3019249","co37600","norming","","","","","","",""
"3749.0100000000093","","","post_mooney1_questions","survey-likert","540","1927645","0.0-6.0-2.76","3019249","co37600","norming","","","{""curiosity"":3,""confidence"":4}","[0,1]","../img/tt/590tt.jpg","",""
"1877.7700000000186","","","recognition","survey-text","541","1929525","0.0-6.0-3.76","3019249","co37600","norming","","","{""guess"":""piano""}","","../img/tt/590tt.jpg","",""
"null","../img/gs/590gs.jpg","null","reveal","image-keyboard-response","542","1931535","0.0-6.0-4.76","3019249","co37600","norming","","","","","","",""
"null","../img/tt/590tt.jpg","null","mooney2","image-keyboard-response","543","1933537","0.0-6.0-5.76","3019249","co37600","norming","","","","","","",""
"1310","","","post_reveal_questions","survey-likert","544","1934850","0.0-6.0-6.76","3019249","co37600","norming","","","{""aha"":4}","[0]","../img/tt/590tt.jpg","",""
"null","<div style=""font-size:60px;""> </div>","null","fixation","html-keyboard-response","545","1935052","0.0-6.0-0.77","3019249","co37600","norming","","","","","","",""
"null","../img/tt/270tt.jpg","null","mooney1","image-keyboard-response","546","1938054","0.0-6.0-1.77","3019249","co37600","norming","","","","","","",""
"2939.1949999998324","","","post_mooney1_questions","survey-likert","547","1940994","0.0-6.0-2.77","3019249","co37600","norming","","","{""curiosity"":2,""confidence"":5}","[0,1]","../img/tt/270tt.jpg","",""
"1430.2199999997392","","","recognition","survey-text","548","1942426","0.0-6.0-3.77","3019249","co37600","norming","","","{""guess"":""eland""}","","../img/tt/270tt.jpg","",""
"null","../img/gs/270gs.jpg","null","reveal","image-keyboard-response","549","1944428","0.0-6.0-4.77","3019249","co37600","norming","","","","","","",""
"null","../img/tt/270tt.jpg","null","mooney2","image-keyboard-response","550","1946431","0.0-6.0-5.77","3019249","co37600","norming","","","","","","",""
"2466.2750000001397","","","post_reveal_questions","survey-likert","551","1948898","0.0-6.0-6.77","3019249","co37600","norming","","","{""aha"":0}","[0]","../img/tt/270tt.jpg","",""
