"rt","stimulus","key_press","test_part","trial_type","trial_index","time_elapsed","internal_node_id","totalTime","subject","experiment_name","button_pressed","success","responses","question_order","currentStim","old","correct"
"9034.800000001269","Welcome to the experiment. This is an online experiment so please don't close the tab/window until we say goodbye.  Press any key to begin.","32","instructions","html-keyboard-response","0","9050","0.0-0.0","2902409","co37999","norming","","","","","","",""
"31720.084999999017","<div style='word-wrap: break-word; width: 900px'><h3>Please consider this information carefully before deciding whether to participate in this research</h3><ul style='text-align: left; font-size: .8em;'><li><b>Purpose of the research</b>: To examine how people process images.</li><li><b>What you will do in this research</b>:  Stimuli (images) will be presented on the computer and you will be asked different questions about them.</li><li><b>Time required</b>: Participation will take between 45 and 60 minutes to complete.</li><li><b>Risks</b>:  There are no anticipated risks associated with participating in this study. The effects of participating should be comparable to those you would experience from viewing a computer monitor for 30 minutes and using a mouse or keyboard.</li><li><b>Benefits</b>:  This study provides no benefits to you individually except for the credit. The study provides important information about the nature of perception and learning.</li><li><b>Confidentiality</b>:  Your participation in this study will remain confidential. No personally identifiable information will be associated with your data. Your de-identified data may be shared with other researchers and used in future projects.</li><li><b>Participation and withdrawal</b>:  Your participation in this study is completely voluntary and you may refuse to participate or you may choose to withdraw at any time without penalty.</li><li><b>How to contact the researchers</b>: If you have questions or concerns about your participation or payment, or want to request a summary of research findings, please contact Sander Van de Cruys (KU Leuven), at sander.vandecruys@kuleuven.be.</li></ul><p>The nature and purpose of this research have been sufficiently explained and I agree to participate in this study.  I understand that I am free to withdraw at any time without incurring any penalty.</p><p>Please consent by clicking the button below to continue. Otherwise, please exit the study at this time.</p></div>","","instructions","html-button-response","1","40781","0.0-1.0","2902409","co37999","norming","0","","","","","",""
"","","","instructions","fullscreen","2","44086","0.0-2.0","2902409","co37999","norming","","true","","","","",""
"45715.97499999916","","","sona","survey-html-form","3","89809","0.0-3.0","2902409","co37999","norming","","","[{""name"":""sonaid"",""value"":""37999""},{""name"":""debrief"",""value"":""yes""},{""name"":""datajoin"",""value"":""yes""}]","","","",""
"55244.0749999987","<div style='word-wrap: break-word; width: 900px'><h3>Instructions</h3><p>This experiment will have 3 parts. In the first part you will see a series of distorted images like the one below on the left. As you can see in the righthand image, the distorted images are derived from actual photographs. In what follows, you will <strong>briefly</strong> be presented with <strong>only</strong> the distorted image.</p> <div style='float: left; margin-right: 20px;'><img src='../img/018tt.jpg' height='250' width='250'></img></div><div style='float: right; margin-left: 20px;'><img src='../img/018gs.jpg' height='250' width='250'></img></div><p>Subsequently you will be asked a few questions about the image: One question on how <strong>curious</strong> you are about the solution and one on how <strong>confident</strong> you are that you know the solution.</p>Next, we ask you to make a guess on what is in the image. Note that it is OK to name just the <strong>basic level category</strong>. For example when you see a parrot in the image, 'parrot' will obviously be a correct answer but also correct is 'bird'. However, 'animal' will <strong>not</strong> be counted as a correct response. For the example above, 'rose' would be correct or 'flower', but not 'plant'. When soccer players are depicted, 'soccer', 'football', 'soccer players' will be correct, but not 'humans', 'outdoors', or 'sports'. You do not need to describe the image in full, just name the main object in it <strong>in one or two words</strong>. All images depict objects from one of the following broad level categories: animals, inanimate objects, plants, sports, vehicles, and food. Recognizing means knowing <strong>more</strong> than these broad labels for a given image. But we always encourage you to <strong>make a guess</strong> if you can. Note that you are allowed to use <strong>Dutch and English</strong> in your answers, whatever comes easiest for you.</p><p>Press any key to continue.</p></div>","32","instructions","html-keyboard-response","4","145055","0.0-4.0","2902409","co37999","norming","","","","","","",""
"95261.77500000087","<div style='word-wrap: break-word; width: 900px'><h3>Instructions</h3> <p>Next, the solution image will be revealed to you and you'll be asked to indicate how strong your <strong>aha-experience</strong> was after seeing the solution. This describes the positive feeling of the 'click' you sometimes experience, when the pieces of the 'puzzle' fall together and you suddenly have 'insight' in the image.</p><img src='aha.jpg' height='188' width='250'></img><p>Note that there are no right or wrong answers. We are interested in what <strong>you</strong> see in the image and how <strong>you</strong> feel about it.</p><p>Press any key to start the experiment.</p></div>","188","instructions","html-keyboard-response","5","240321","0.0-5.0","2902409","co37999","norming","","","","","","",""
"null","<div style=""font-size:60px;""> </div>","null","fixation","html-keyboard-response","6","240523","0.0-6.0-0.0","2902409","co37999","norming","","","","","","",""
"null","../img/tt/010tt.jpg","null","mooney1","image-keyboard-response","7","243528","0.0-6.0-1.0","2902409","co37999","norming","","","","","","",""
"10836.355000001291","","","post_mooney1_questions","survey-likert","8","254368","0.0-6.0-2.0","2902409","co37999","norming","","","{""curiosity"":6,""confidence"":0}","[0,1]","../img/tt/010tt.jpg","",""
"5181.425000000658","","","recognition","survey-text","9","259552","0.0-6.0-3.0","2902409","co37999","norming","","","{""guess"":""""}","","../img/tt/010tt.jpg","",""
"null","../img/gs/010gs.jpg","null","reveal","image-keyboard-response","10","261554","0.0-6.0-4.0","2902409","co37999","norming","","","","","","",""
"null","../img/tt/010tt.jpg","null","mooney2","image-keyboard-response","11","263557","0.0-6.0-5.0","2902409","co37999","norming","","","","","","",""
"4336.164999998815","","","post_reveal_questions","survey-likert","12","267896","0.0-6.0-6.0","2902409","co37999","norming","","","{""aha"":5}","[0]","../img/tt/010tt.jpg","",""
"null","<div style=""font-size:60px;""> </div>","null","fixation","html-keyboard-response","13","268098","0.0-6.0-0.1","2902409","co37999","norming","","","","","","",""
"null","../img/tt/1234tt.jpg","null","mooney1","image-keyboard-response","14","271101","0.0-6.0-1.1","2902409","co37999","norming","","","","","","",""
"6329.685000000638","","","post_mooney1_questions","survey-likert","15","277432","0.0-6.0-2.1","2902409","co37999","norming","","","{""curiosity"":4,""confidence"":4}","[0,1]","../img/tt/1234tt.jpg","",""
"15222.114999998652","","","recognition","survey-text","16","292655","0.0-6.0-3.1","2902409","co37999","norming","","","{""guess"":""bootje""}","","../img/tt/1234tt.jpg","",""
"null","../img/gs/1234gs.jpg","null","reveal","image-keyboard-response","17","294656","0.0-6.0-4.1","2902409","co37999","norming","","","","","","",""
"null","../img/tt/1234tt.jpg","null","mooney2","image-keyboard-response","18","296659","0.0-6.0-5.1","2902409","co37999","norming","","","","","","",""
"3874.4499999993714","","","post_reveal_questions","survey-likert","19","300538","0.0-6.0-6.1","2902409","co37999","norming","","","{""aha"":5}","[0]","../img/tt/1234tt.jpg","",""
"null","<div style=""font-size:60px;""> </div>","null","fixation","html-keyboard-response","20","300741","0.0-6.0-0.2","2902409","co37999","norming","","","","","","",""
"null","../img/tt/1012tt.jpg","null","mooney1","image-keyboard-response","21","303745","0.0-6.0-1.2","2902409","co37999","norming","","","","","","",""
"8520.660000000149","","","post_mooney1_questions","survey-likert","22","312266","0.0-6.0-2.2","2902409","co37999","norming","","","{""curiosity"":5,""confidence"":2}","[0,1]","../img/tt/1012tt.jpg","",""
"8670.10000000114","","","recognition","survey-text","23","320938","0.0-6.0-3.2","2902409","co37999","norming","","","{""guess"":""paard""}","","../img/tt/1012tt.jpg","",""
"null","../img/gs/1012gs.jpg","null","reveal","image-keyboard-response","24","322940","0.0-6.0-4.2","2902409","co37999","norming","","","","","","",""
"null","../img/tt/1012tt.jpg","null","mooney2","image-keyboard-response","25","324943","0.0-6.0-5.2","2902409","co37999","norming","","","","","","",""
"3377.109999999462","","","post_reveal_questions","survey-likert","26","328322","0.0-6.0-6.2","2902409","co37999","norming","","","{""aha"":3}","[0]","../img/tt/1012tt.jpg","",""
"null","<div style=""font-size:60px;""> </div>","null","fixation","html-keyboard-response","27","328525","0.0-6.0-0.3","2902409","co37999","norming","","","","","","",""
"null","../img/tt/515tt.jpg","null","mooney1","image-keyboard-response","28","331529","0.0-6.0-1.3","2902409","co37999","norming","","","","","","",""
"5342.484999999171","","","post_mooney1_questions","survey-likert","29","336874","0.0-6.0-2.3","2902409","co37999","norming","","","{""curiosity"":3,""confidence"":5}","[0,1]","../img/tt/515tt.jpg","",""
"6262.085000000312","","","recognition","survey-text","30","343138","0.0-6.0-3.3","2902409","co37999","norming","","","{""guess"":""vogeltje""}","","../img/tt/515tt.jpg","",""
"null","../img/gs/515gs.jpg","null","reveal","image-keyboard-response","31","345139","0.0-6.0-4.3","2902409","co37999","norming","","","","","","",""
"null","../img/tt/515tt.jpg","null","mooney2","image-keyboard-response","32","347141","0.0-6.0-5.3","2902409","co37999","norming","","","","","","",""
"2714.8199999992503","","","post_reveal_questions","survey-likert","33","349858","0.0-6.0-6.3","2902409","co37999","norming","","","{""aha"":2}","[0]","../img/tt/515tt.jpg","",""
"null","<div style=""font-size:60px;""> </div>","null","fixation","html-keyboard-response","34","350061","0.0-6.0-0.4","2902409","co37999","norming","","","","","","",""
"null","../img/tt/078tt.jpg","null","mooney1","image-keyboard-response","35","353064","0.0-6.0-1.4","2902409","co37999","norming","","","","","","",""
"6209.410000001313","","","post_mooney1_questions","survey-likert","36","359274","0.0-6.0-2.4","2902409","co37999","norming","","","{""curiosity"":1,""confidence"":6}","[0,1]","../img/tt/078tt.jpg","",""
"5878.0450000013225","","","recognition","survey-text","37","365156","0.0-6.0-3.4","2902409","co37999","norming","","","{""guess"":""druiven""}","","../img/tt/078tt.jpg","",""
"null","../img/gs/078gs.jpg","null","reveal","image-keyboard-response","38","367158","0.0-6.0-4.4","2902409","co37999","norming","","","","","","",""
"null","../img/tt/078tt.jpg","null","mooney2","image-keyboard-response","39","369168","0.0-6.0-5.4","2902409","co37999","norming","","","","","","",""
"2898.5750000010594","","","post_reveal_questions","survey-likert","40","372068","0.0-6.0-6.4","2902409","co37999","norming","","","{""aha"":0}","[0]","../img/tt/078tt.jpg","",""
"null","<div style=""font-size:60px;""> </div>","null","fixation","html-keyboard-response","41","372269","0.0-6.0-0.5","2902409","co37999","norming","","","","","","",""
"null","../img/tt/1275tt.jpg","null","mooney1","image-keyboard-response","42","375274","0.0-6.0-1.5","2902409","co37999","norming","","","","","","",""
"5207.220000000205","","","post_mooney1_questions","survey-likert","43","380484","0.0-6.0-2.5","2902409","co37999","norming","","","{""curiosity"":4,""confidence"":4}","[0,1]","../img/tt/1275tt.jpg","",""
"3670.0750000000116","","","recognition","survey-text","44","384156","0.0-6.0-3.5","2902409","co37999","norming","","","{""guess"":""wolf""}","","../img/tt/1275tt.jpg","",""
"null","../img/gs/1275gs.jpg","null","reveal","image-keyboard-response","45","386157","0.0-6.0-4.5","2902409","co37999","norming","","","","","","",""
"null","../img/tt/1275tt.jpg","null","mooney2","image-keyboard-response","46","388159","0.0-6.0-5.5","2902409","co37999","norming","","","","","","",""
"4579.504999999714","","","post_reveal_questions","survey-likert","47","392739","0.0-6.0-6.5","2902409","co37999","norming","","","{""aha"":4}","[0]","../img/tt/1275tt.jpg","",""
"null","<div style=""font-size:60px;""> </div>","null","fixation","html-keyboard-response","48","392941","0.0-6.0-0.6","2902409","co37999","norming","","","","","","",""
"null","../img/tt/1148tt.jpg","null","mooney1","image-keyboard-response","49","395944","0.0-6.0-1.6","2902409","co37999","norming","","","","","","",""
"11570.990000000107","","","post_mooney1_questions","survey-likert","50","407516","0.0-6.0-2.6","2902409","co37999","norming","","","{""curiosity"":5,""confidence"":1}","[0,1]","../img/tt/1148tt.jpg","",""
"25758.139999999898","","","recognition","survey-text","51","433277","0.0-6.0-3.6","2902409","co37999","norming","","","{""guess"":""straatscène""}","","../img/tt/1148tt.jpg","",""
"null","../img/gs/1148gs.jpg","null","reveal","image-keyboard-response","52","435279","0.0-6.0-4.6","2902409","co37999","norming","","","","","","",""
"null","../img/tt/1148tt.jpg","null","mooney2","image-keyboard-response","53","437282","0.0-6.0-5.6","2902409","co37999","norming","","","","","","",""
"4417.054999999877","","","post_reveal_questions","survey-likert","54","441701","0.0-6.0-6.6","2902409","co37999","norming","","","{""aha"":5}","[0]","../img/tt/1148tt.jpg","",""
"null","<div style=""font-size:60px;""> </div>","null","fixation","html-keyboard-response","55","441903","0.0-6.0-0.7","2902409","co37999","norming","","","","","","",""
"null","../img/tt/020tt.jpg","null","mooney1","image-keyboard-response","56","444906","0.0-6.0-1.7","2902409","co37999","norming","","","","","","",""
"10576.095000000321","","","post_mooney1_questions","survey-likert","57","455485","0.0-6.0-2.7","2902409","co37999","norming","","","{""curiosity"":4,""confidence"":3}","[0,1]","../img/tt/020tt.jpg","",""
"4534.079999999492","","","recognition","survey-text","58","460021","0.0-6.0-3.7","2902409","co37999","norming","","","{""guess"":""man""}","","../img/tt/020tt.jpg","",""
"null","../img/gs/020gs.jpg","null","reveal","image-keyboard-response","59","462024","0.0-6.0-4.7","2902409","co37999","norming","","","","","","",""
"null","../img/tt/020tt.jpg","null","mooney2","image-keyboard-response","60","464026","0.0-6.0-5.7","2902409","co37999","norming","","","","","","",""
"4240.789999999863","","","post_reveal_questions","survey-likert","61","468269","0.0-6.0-6.7","2902409","co37999","norming","","","{""aha"":4}","[0]","../img/tt/020tt.jpg","",""
"null","<div style=""font-size:60px;""> </div>","null","fixation","html-keyboard-response","62","468472","0.0-6.0-0.8","2902409","co37999","norming","","","","","","",""
"null","../img/tt/1237tt.jpg","null","mooney1","image-keyboard-response","63","471475","0.0-6.0-1.8","2902409","co37999","norming","","","","","","",""
"5471.93499999959","","","post_mooney1_questions","survey-likert","64","476949","0.0-6.0-2.8","2902409","co37999","norming","","","{""curiosity"":1,""confidence"":6}","[0,1]","../img/tt/1237tt.jpg","",""
"2950.205000001006","","","recognition","survey-text","65","479901","0.0-6.0-3.8","2902409","co37999","norming","","","{""guess"":""eendje""}","","../img/tt/1237tt.jpg","",""
"null","../img/gs/1237gs.jpg","null","reveal","image-keyboard-response","66","481903","0.0-6.0-4.8","2902409","co37999","norming","","","","","","",""
"null","../img/tt/1237tt.jpg","null","mooney2","image-keyboard-response","67","483904","0.0-6.0-5.8","2902409","co37999","norming","","","","","","",""
"24980.464999998745","","","post_reveal_questions","survey-likert","68","508885","0.0-6.0-6.8","2902409","co37999","norming","","","{""aha"":1}","[0]","../img/tt/1237tt.jpg","",""
"null","<div style=""font-size:60px;""> </div>","null","fixation","html-keyboard-response","69","509087","0.0-6.0-0.9","2902409","co37999","norming","","","","","","",""
"null","../img/tt/135tt.jpg","null","mooney1","image-keyboard-response","70","512090","0.0-6.0-1.9","2902409","co37999","norming","","","","","","",""
"4730.4000000003725","","","post_mooney1_questions","survey-likert","71","516822","0.0-6.0-2.9","2902409","co37999","norming","","","{""curiosity"":0,""confidence"":6}","[0,1]","../img/tt/135tt.jpg","",""
"4950.02999999997","","","recognition","survey-text","72","521773","0.0-6.0-3.9","2902409","co37999","norming","","","{""guess"":""toiletbril""}","","../img/tt/135tt.jpg","",""
"null","../img/gs/135gs.jpg","null","reveal","image-keyboard-response","73","523775","0.0-6.0-4.9","2902409","co37999","norming","","","","","","",""
"null","../img/tt/135tt.jpg","null","mooney2","image-keyboard-response","74","525778","0.0-6.0-5.9","2902409","co37999","norming","","","","","","",""
"2474.9649999993853","","","post_reveal_questions","survey-likert","75","528253","0.0-6.0-6.9","2902409","co37999","norming","","","{""aha"":0}","[0]","../img/tt/135tt.jpg","",""
"null","<div style=""font-size:60px;""> </div>","null","fixation","html-keyboard-response","76","528455","0.0-6.0-0.10","2902409","co37999","norming","","","","","","",""
"null","../img/tt/118tt.jpg","null","mooney1","image-keyboard-response","77","531459","0.0-6.0-1.10","2902409","co37999","norming","","","","","","",""
"6952.155000000959","","","post_mooney1_questions","survey-likert","78","538414","0.0-6.0-2.10","2902409","co37999","norming","","","{""curiosity"":6,""confidence"":1}","[0,1]","../img/tt/118tt.jpg","",""
"2421.2200000000885","","","recognition","survey-text","79","540837","0.0-6.0-3.10","2902409","co37999","norming","","","{""guess"":""banaan""}","","../img/tt/118tt.jpg","",""
"null","../img/gs/118gs.jpg","null","reveal","image-keyboard-response","80","542839","0.0-6.0-4.10","2902409","co37999","norming","","","","","","",""
"null","../img/tt/118tt.jpg","null","mooney2","image-keyboard-response","81","544840","0.0-6.0-5.10","2902409","co37999","norming","","","","","","",""
"4306.9849999992875","","","post_reveal_questions","survey-likert","82","549149","0.0-6.0-6.10","2902409","co37999","norming","","","{""aha"":5}","[0]","../img/tt/118tt.jpg","",""
"null","<div style=""font-size:60px;""> </div>","null","fixation","html-keyboard-response","83","549351","0.0-6.0-0.11","2902409","co37999","norming","","","","","","",""
"null","../img/tt/1227tt.jpg","null","mooney1","image-keyboard-response","84","552355","0.0-6.0-1.11","2902409","co37999","norming","","","","","","",""
"4567.800000000745","","","post_mooney1_questions","survey-likert","85","556925","0.0-6.0-2.11","2902409","co37999","norming","","","{""curiosity"":5,""confidence"":2}","[0,1]","../img/tt/1227tt.jpg","",""
"4446.174999999115","","","recognition","survey-text","86","561373","0.0-6.0-3.11","2902409","co37999","norming","","","{""guess"":""kippen""}","","../img/tt/1227tt.jpg","",""
"null","../img/gs/1227gs.jpg","null","reveal","image-keyboard-response","87","563376","0.0-6.0-4.11","2902409","co37999","norming","","","","","","",""
"null","../img/tt/1227tt.jpg","null","mooney2","image-keyboard-response","88","565378","0.0-6.0-5.11","2902409","co37999","norming","","","","","","",""
"2625.749999999185","","","post_reveal_questions","survey-likert","89","568005","0.0-6.0-6.11","2902409","co37999","norming","","","{""aha"":5}","[0]","../img/tt/1227tt.jpg","",""
"null","<div style=""font-size:60px;""> </div>","null","fixation","html-keyboard-response","90","568207","0.0-6.0-0.12","2902409","co37999","norming","","","","","","",""
"null","../img/tt/1181tt.jpg","null","mooney1","image-keyboard-response","91","571209","0.0-6.0-1.12","2902409","co37999","norming","","","","","","",""
"14857.66999999946","","","post_mooney1_questions","survey-likert","92","586069","0.0-6.0-2.12","2902409","co37999","norming","","","{""curiosity"":4,""confidence"":1}","[0,1]","../img/tt/1181tt.jpg","",""
"7629.699999999604","","","recognition","survey-text","93","593701","0.0-6.0-3.12","2902409","co37999","norming","","","{""guess"":""mannen""}","","../img/tt/1181tt.jpg","",""
"null","../img/gs/1181gs.jpg","null","reveal","image-keyboard-response","94","595702","0.0-6.0-4.12","2902409","co37999","norming","","","","","","",""
"null","../img/tt/1181tt.jpg","null","mooney2","image-keyboard-response","95","597704","0.0-6.0-5.12","2902409","co37999","norming","","","","","","",""
"3267.305000001099","","","post_reveal_questions","survey-likert","96","600973","0.0-6.0-6.12","2902409","co37999","norming","","","{""aha"":5}","[0]","../img/tt/1181tt.jpg","",""
"null","<div style=""font-size:60px;""> </div>","null","fixation","html-keyboard-response","97","601175","0.0-6.0-0.13","2902409","co37999","norming","","","","","","",""
"null","../img/tt/438tt.jpg","null","mooney1","image-keyboard-response","98","604177","0.0-6.0-1.13","2902409","co37999","norming","","","","","","",""
"4899.07999999926","","","post_mooney1_questions","survey-likert","99","609077","0.0-6.0-2.13","2902409","co37999","norming","","","{""curiosity"":6,""confidence"":0}","[0,1]","../img/tt/438tt.jpg","",""
"1437.7900000000373","","","recognition","survey-text","100","610517","0.0-6.0-3.13","2902409","co37999","norming","","","{""guess"":""""}","","../img/tt/438tt.jpg","",""
"null","../img/gs/438gs.jpg","null","reveal","image-keyboard-response","101","612518","0.0-6.0-4.13","2902409","co37999","norming","","","","","","",""
"null","../img/tt/438tt.jpg","null","mooney2","image-keyboard-response","102","614521","0.0-6.0-5.13","2902409","co37999","norming","","","","","","",""
"3130.6999999997206","","","post_reveal_questions","survey-likert","103","617653","0.0-6.0-6.13","2902409","co37999","norming","","","{""aha"":5}","[0]","../img/tt/438tt.jpg","",""
"null","<div style=""font-size:60px;""> </div>","null","fixation","html-keyboard-response","104","617854","0.0-6.0-0.14","2902409","co37999","norming","","","","","","",""
"null","../img/tt/001tt.jpg","null","mooney1","image-keyboard-response","105","620856","0.0-6.0-1.14","2902409","co37999","norming","","","","","","",""
"5771.025000000023","","","post_mooney1_questions","survey-likert","106","626630","0.0-6.0-2.14","2902409","co37999","norming","","","{""curiosity"":6,""confidence"":1}","[0,1]","../img/tt/001tt.jpg","",""
"4373.949999999255","","","recognition","survey-text","107","631005","0.0-6.0-3.14","2902409","co37999","norming","","","{""guess"":""stier""}","","../img/tt/001tt.jpg","",""
"null","../img/gs/001gs.jpg","null","reveal","image-keyboard-response","108","633007","0.0-6.0-4.14","2902409","co37999","norming","","","","","","",""
"null","../img/tt/001tt.jpg","null","mooney2","image-keyboard-response","109","635010","0.0-6.0-5.14","2902409","co37999","norming","","","","","","",""
"3689.5249999997905","","","post_reveal_questions","survey-likert","110","638701","0.0-6.0-6.14","2902409","co37999","norming","","","{""aha"":5}","[0]","../img/tt/001tt.jpg","",""
"null","<div style=""font-size:60px;""> </div>","null","fixation","html-keyboard-response","111","638903","0.0-6.0-0.15","2902409","co37999","norming","","","","","","",""
"null","../img/tt/163tt.jpg","null","mooney1","image-keyboard-response","112","641906","0.0-6.0-1.15","2902409","co37999","norming","","","","","","",""
"6849.640000000363","","","post_mooney1_questions","survey-likert","113","648758","0.0-6.0-2.15","2902409","co37999","norming","","","{""curiosity"":4,""confidence"":4}","[0,1]","../img/tt/163tt.jpg","",""
"6062.079999999609","","","recognition","survey-text","114","654821","0.0-6.0-3.15","2902409","co37999","norming","","","{""guess"":""kikker""}","","../img/tt/163tt.jpg","",""
"null","../img/gs/163gs.jpg","null","reveal","image-keyboard-response","115","656824","0.0-6.0-4.15","2902409","co37999","norming","","","","","","",""
"null","../img/tt/163tt.jpg","null","mooney2","image-keyboard-response","116","658826","0.0-6.0-5.15","2902409","co37999","norming","","","","","","",""
"3426.70000000007","","","post_reveal_questions","survey-likert","117","662253","0.0-6.0-6.15","2902409","co37999","norming","","","{""aha"":5}","[0]","../img/tt/163tt.jpg","",""
"null","<div style=""font-size:60px;""> </div>","null","fixation","html-keyboard-response","118","662454","0.0-6.0-0.16","2902409","co37999","norming","","","","","","",""
"null","../img/tt/082tt.jpg","null","mooney1","image-keyboard-response","119","665455","0.0-6.0-1.16","2902409","co37999","norming","","","","","","",""
"6593.539999999804","","","post_mooney1_questions","survey-likert","120","672053","0.0-6.0-2.16","2902409","co37999","norming","","","{""curiosity"":2,""confidence"":6}","[0,1]","../img/tt/082tt.jpg","",""
"5989.7799999999115","","","recognition","survey-text","121","678045","0.0-6.0-3.16","2902409","co37999","norming","","","{""guess"":""papegaai""}","","../img/tt/082tt.jpg","",""
"null","../img/gs/082gs.jpg","null","reveal","image-keyboard-response","122","680046","0.0-6.0-4.16","2902409","co37999","norming","","","","","","",""
"null","../img/tt/082tt.jpg","null","mooney2","image-keyboard-response","123","682048","0.0-6.0-5.16","2902409","co37999","norming","","","","","","",""
"2707.0499999991152","","","post_reveal_questions","survey-likert","124","684757","0.0-6.0-6.16","2902409","co37999","norming","","","{""aha"":1}","[0]","../img/tt/082tt.jpg","",""
"null","<div style=""font-size:60px;""> </div>","null","fixation","html-keyboard-response","125","684960","0.0-6.0-0.17","2902409","co37999","norming","","","","","","",""
"null","../img/tt/296tt.jpg","null","mooney1","image-keyboard-response","126","687964","0.0-6.0-1.17","2902409","co37999","norming","","","","","","",""
"5142.560000000172","","","post_mooney1_questions","survey-likert","127","693109","0.0-6.0-2.17","2902409","co37999","norming","","","{""curiosity"":5,""confidence"":4}","[0,1]","../img/tt/296tt.jpg","",""
"3478.2049999994924","","","recognition","survey-text","128","696589","0.0-6.0-3.17","2902409","co37999","norming","","","{""guess"":""doodskist""}","","../img/tt/296tt.jpg","",""
"null","../img/gs/296gs.jpg","null","reveal","image-keyboard-response","129","698590","0.0-6.0-4.17","2902409","co37999","norming","","","","","","",""
"null","../img/tt/296tt.jpg","null","mooney2","image-keyboard-response","130","700593","0.0-6.0-5.17","2902409","co37999","norming","","","","","","",""
"3217.220000000554","","","post_reveal_questions","survey-likert","131","703813","0.0-6.0-6.17","2902409","co37999","norming","","","{""aha"":6}","[0]","../img/tt/296tt.jpg","",""
"null","<div style=""font-size:60px;""> </div>","null","fixation","html-keyboard-response","132","704016","0.0-6.0-0.18","2902409","co37999","norming","","","","","","",""
"null","../img/tt/357tt.jpg","null","mooney1","image-keyboard-response","133","707020","0.0-6.0-1.18","2902409","co37999","norming","","","","","","",""
"5286.829999999143","","","post_mooney1_questions","survey-likert","134","712309","0.0-6.0-2.18","2902409","co37999","norming","","","{""curiosity"":4,""confidence"":5}","[0,1]","../img/tt/357tt.jpg","",""
"3590.1100000010338","","","recognition","survey-text","135","715901","0.0-6.0-3.18","2902409","co37999","norming","","","{""guess"":""egel""}","","../img/tt/357tt.jpg","",""
"null","../img/gs/357gs.jpg","null","reveal","image-keyboard-response","136","717903","0.0-6.0-4.18","2902409","co37999","norming","","","","","","",""
"null","../img/tt/357tt.jpg","null","mooney2","image-keyboard-response","137","719905","0.0-6.0-5.18","2902409","co37999","norming","","","","","","",""
"2625.964999999269","","","post_reveal_questions","survey-likert","138","722533","0.0-6.0-6.18","2902409","co37999","norming","","","{""aha"":3}","[0]","../img/tt/357tt.jpg","",""
"null","<div style=""font-size:60px;""> </div>","null","fixation","html-keyboard-response","139","722734","0.0-6.0-0.19","2902409","co37999","norming","","","","","","",""
"null","../img/tt/1269tt.jpg","null","mooney1","image-keyboard-response","140","725737","0.0-6.0-1.19","2902409","co37999","norming","","","","","","",""
"7705.319999999134","","","post_mooney1_questions","survey-likert","141","733445","0.0-6.0-2.19","2902409","co37999","norming","","","{""curiosity"":5,""confidence"":2}","[0,1]","../img/tt/1269tt.jpg","",""
"3261.7200000004377","","","recognition","survey-text","142","736709","0.0-6.0-3.19","2902409","co37999","norming","","","{""guess"":""vos""}","","../img/tt/1269tt.jpg","",""
"null","../img/gs/1269gs.jpg","null","reveal","image-keyboard-response","143","738710","0.0-6.0-4.19","2902409","co37999","norming","","","","","","",""
"null","../img/tt/1269tt.jpg","null","mooney2","image-keyboard-response","144","740712","0.0-6.0-5.19","2902409","co37999","norming","","","","","","",""
"2466.334999999148","","","post_reveal_questions","survey-likert","145","743181","0.0-6.0-6.19","2902409","co37999","norming","","","{""aha"":6}","[0]","../img/tt/1269tt.jpg","",""
"null","<div style=""font-size:60px;""> </div>","null","fixation","html-keyboard-response","146","743382","0.0-6.0-0.20","2902409","co37999","norming","","","","","","",""
"null","../img/tt/1309tt.jpg","null","mooney1","image-keyboard-response","147","746386","0.0-6.0-1.20","2902409","co37999","norming","","","","","","",""
"8048.964999999967","","","post_mooney1_questions","survey-likert","148","754437","0.0-6.0-2.20","2902409","co37999","norming","","","{""curiosity"":4,""confidence"":1}","[0,1]","../img/tt/1309tt.jpg","",""
"3373.8150000008754","","","recognition","survey-text","149","757813","0.0-6.0-3.20","2902409","co37999","norming","","","{""guess"":""bos""}","","../img/tt/1309tt.jpg","",""
"null","../img/gs/1309gs.jpg","null","reveal","image-keyboard-response","150","759815","0.0-6.0-4.20","2902409","co37999","norming","","","","","","",""
"null","../img/tt/1309tt.jpg","null","mooney2","image-keyboard-response","151","761817","0.0-6.0-5.20","2902409","co37999","norming","","","","","","",""
"9803.285000000033","","","post_reveal_questions","survey-likert","152","771621","0.0-6.0-6.20","2902409","co37999","norming","","","{""aha"":1}","[0]","../img/tt/1309tt.jpg","",""
"null","<div style=""font-size:60px;""> </div>","null","fixation","html-keyboard-response","153","771822","0.0-6.0-0.21","2902409","co37999","norming","","","","","","",""
"null","../img/tt/1078tt.jpg","null","mooney1","image-keyboard-response","154","774824","0.0-6.0-1.21","2902409","co37999","norming","","","","","","",""
"7802.064999999944","","","post_mooney1_questions","survey-likert","155","782629","0.0-6.0-2.21","2902409","co37999","norming","","","{""curiosity"":5,""confidence"":0}","[0,1]","../img/tt/1078tt.jpg","",""
"1630.0899999986868","","","recognition","survey-text","156","784261","0.0-6.0-3.21","2902409","co37999","norming","","","{""guess"":""""}","","../img/tt/1078tt.jpg","",""
"null","../img/gs/1078gs.jpg","null","reveal","image-keyboard-response","157","786262","0.0-6.0-4.21","2902409","co37999","norming","","","","","","",""
"null","../img/tt/1078tt.jpg","null","mooney2","image-keyboard-response","158","788264","0.0-6.0-5.21","2902409","co37999","norming","","","","","","",""
"3074.715000000666","","","post_reveal_questions","survey-likert","159","791341","0.0-6.0-6.21","2902409","co37999","norming","","","{""aha"":5}","[0]","../img/tt/1078tt.jpg","",""
"null","<div style=""font-size:60px;""> </div>","null","fixation","html-keyboard-response","160","791543","0.0-6.0-0.22","2902409","co37999","norming","","","","","","",""
"null","../img/tt/1006tt.jpg","null","mooney1","image-keyboard-response","161","794544","0.0-6.0-1.22","2902409","co37999","norming","","","","","","",""
"13801.825000000536","","","post_mooney1_questions","survey-likert","162","808349","0.0-6.0-2.22","2902409","co37999","norming","","","{""curiosity"":4,""confidence"":0}","[0,1]","../img/tt/1006tt.jpg","",""
"966.0100000000093","","","recognition","survey-text","163","809317","0.0-6.0-3.22","2902409","co37999","norming","","","{""guess"":""""}","","../img/tt/1006tt.jpg","",""
"null","../img/gs/1006gs.jpg","null","reveal","image-keyboard-response","164","811319","0.0-6.0-4.22","2902409","co37999","norming","","","","","","",""
"null","../img/tt/1006tt.jpg","null","mooney2","image-keyboard-response","165","813321","0.0-6.0-5.22","2902409","co37999","norming","","","","","","",""
"3353.359999999171","","","post_reveal_questions","survey-likert","166","816677","0.0-6.0-6.22","2902409","co37999","norming","","","{""aha"":5}","[0]","../img/tt/1006tt.jpg","",""
"null","<div style=""font-size:60px;""> </div>","null","fixation","html-keyboard-response","167","816880","0.0-6.0-0.23","2902409","co37999","norming","","","","","","",""
"null","../img/tt/1063tt.jpg","null","mooney1","image-keyboard-response","168","819882","0.0-6.0-1.23","2902409","co37999","norming","","","","","","",""
"3937.40500000061","","","post_mooney1_questions","survey-likert","169","823821","0.0-6.0-2.23","2902409","co37999","norming","","","{""curiosity"":5,""confidence"":1}","[0,1]","../img/tt/1063tt.jpg","",""
"2734.3149999997113","","","recognition","survey-text","170","826557","0.0-6.0-3.23","2902409","co37999","norming","","","{""guess"":""pony""}","","../img/tt/1063tt.jpg","",""
"null","../img/gs/1063gs.jpg","null","reveal","image-keyboard-response","171","828558","0.0-6.0-4.23","2902409","co37999","norming","","","","","","",""
"null","../img/tt/1063tt.jpg","null","mooney2","image-keyboard-response","172","830560","0.0-6.0-5.23","2902409","co37999","norming","","","","","","",""
"2682.869999998715","","","post_reveal_questions","survey-likert","173","833245","0.0-6.0-6.23","2902409","co37999","norming","","","{""aha"":3}","[0]","../img/tt/1063tt.jpg","",""
"null","<div style=""font-size:60px;""> </div>","null","fixation","html-keyboard-response","174","833447","0.0-6.0-0.24","2902409","co37999","norming","","","","","","",""
"null","../img/tt/1191tt.jpg","null","mooney1","image-keyboard-response","175","836450","0.0-6.0-1.24","2902409","co37999","norming","","","","","","",""
"5848.200000000303","","","post_mooney1_questions","survey-likert","176","842301","0.0-6.0-2.24","2902409","co37999","norming","","","{""curiosity"":5,""confidence"":2}","[0,1]","../img/tt/1191tt.jpg","",""
"5461.994999999646","","","recognition","survey-text","177","847765","0.0-6.0-3.24","2902409","co37999","norming","","","{""guess"":""kamelen""}","","../img/tt/1191tt.jpg","",""
"null","../img/gs/1191gs.jpg","null","reveal","image-keyboard-response","178","849767","0.0-6.0-4.24","2902409","co37999","norming","","","","","","",""
"null","../img/tt/1191tt.jpg","null","mooney2","image-keyboard-response","179","851768","0.0-6.0-5.24","2902409","co37999","norming","","","","","","",""
"4035.120000000461","","","post_reveal_questions","survey-likert","180","855804","0.0-6.0-6.24","2902409","co37999","norming","","","{""aha"":6}","[0]","../img/tt/1191tt.jpg","",""
"null","<div style=""font-size:60px;""> </div>","null","fixation","html-keyboard-response","181","856006","0.0-6.0-0.25","2902409","co37999","norming","","","","","","",""
"null","../img/tt/1268tt.jpg","null","mooney1","image-keyboard-response","182","859010","0.0-6.0-1.25","2902409","co37999","norming","","","","","","",""
"3775.8400000002002","","","post_mooney1_questions","survey-likert","183","862789","0.0-6.0-2.25","2902409","co37999","norming","","","{""curiosity"":6,""confidence"":0}","[0,1]","../img/tt/1268tt.jpg","",""
"974.0949999996228","","","recognition","survey-text","184","863765","0.0-6.0-3.25","2902409","co37999","norming","","","{""guess"":""""}","","../img/tt/1268tt.jpg","",""
"null","../img/gs/1268gs.jpg","null","reveal","image-keyboard-response","185","865768","0.0-6.0-4.25","2902409","co37999","norming","","","","","","",""
"null","../img/tt/1268tt.jpg","null","mooney2","image-keyboard-response","186","867769","0.0-6.0-5.25","2902409","co37999","norming","","","","","","",""
"3819.30499999912","","","post_reveal_questions","survey-likert","187","871589","0.0-6.0-6.25","2902409","co37999","norming","","","{""aha"":5}","[0]","../img/tt/1268tt.jpg","",""
"null","<div style=""font-size:60px;""> </div>","null","fixation","html-keyboard-response","188","871792","0.0-6.0-0.26","2902409","co37999","norming","","","","","","",""
"null","../img/tt/1151tt.jpg","null","mooney1","image-keyboard-response","189","874793","0.0-6.0-1.26","2902409","co37999","norming","","","","","","",""
"5136.945000000182","","","post_mooney1_questions","survey-likert","190","879933","0.0-6.0-2.26","2902409","co37999","norming","","","{""curiosity"":5,""confidence"":1}","[0,1]","../img/tt/1151tt.jpg","",""
"5534.055000000051","","","recognition","survey-text","191","885469","0.0-6.0-3.26","2902409","co37999","norming","","","{""guess"":""basketter""}","","../img/tt/1151tt.jpg","",""
"null","../img/gs/1151gs.jpg","null","reveal","image-keyboard-response","192","887470","0.0-6.0-4.26","2902409","co37999","norming","","","","","","",""
"null","../img/tt/1151tt.jpg","null","mooney2","image-keyboard-response","193","889472","0.0-6.0-5.26","2902409","co37999","norming","","","","","","",""
"3146.819999999949","","","post_reveal_questions","survey-likert","194","892621","0.0-6.0-6.26","2902409","co37999","norming","","","{""aha"":6}","[0]","../img/tt/1151tt.jpg","",""
"null","<div style=""font-size:60px;""> </div>","null","fixation","html-keyboard-response","195","892823","0.0-6.0-0.27","2902409","co37999","norming","","","","","","",""
"null","../img/tt/1125tt.jpg","null","mooney1","image-keyboard-response","196","895826","0.0-6.0-1.27","2902409","co37999","norming","","","","","","",""
"5786.3899999993155","","","post_mooney1_questions","survey-likert","197","901613","0.0-6.0-2.27","2902409","co37999","norming","","","{""curiosity"":5,""confidence"":2}","[0,1]","../img/tt/1125tt.jpg","",""
"5701.949999998789","","","recognition","survey-text","198","907317","0.0-6.0-3.27","2902409","co37999","norming","","","{""guess"":""hockey""}","","../img/tt/1125tt.jpg","",""
"null","../img/gs/1125gs.jpg","null","reveal","image-keyboard-response","199","909320","0.0-6.0-4.27","2902409","co37999","norming","","","","","","",""
"null","../img/tt/1125tt.jpg","null","mooney2","image-keyboard-response","200","911323","0.0-6.0-5.27","2902409","co37999","norming","","","","","","",""
"3449.1550000002608","","","post_reveal_questions","survey-likert","201","914773","0.0-6.0-6.27","2902409","co37999","norming","","","{""aha"":6}","[0]","../img/tt/1125tt.jpg","",""
"null","<div style=""font-size:60px;""> </div>","null","fixation","html-keyboard-response","202","914975","0.0-6.0-0.28","2902409","co37999","norming","","","","","","",""
"null","../img/tt/1102tt.jpg","null","mooney1","image-keyboard-response","203","917977","0.0-6.0-1.28","2902409","co37999","norming","","","","","","",""
"5985.4350000005215","","","post_mooney1_questions","survey-likert","204","923966","0.0-6.0-2.28","2902409","co37999","norming","","","{""curiosity"":6,""confidence"":1}","[0,1]","../img/tt/1102tt.jpg","",""
"3884.4950000003446","","","recognition","survey-text","205","927853","0.0-6.0-3.28","2902409","co37999","norming","","","{""guess"":""jungle""}","","../img/tt/1102tt.jpg","",""
"null","../img/gs/1102gs.jpg","null","reveal","image-keyboard-response","206","929856","0.0-6.0-4.28","2902409","co37999","norming","","","","","","",""
"null","../img/tt/1102tt.jpg","null","mooney2","image-keyboard-response","207","931857","0.0-6.0-5.28","2902409","co37999","norming","","","","","","",""
"3491.18999999878","","","post_reveal_questions","survey-likert","208","935349","0.0-6.0-6.28","2902409","co37999","norming","","","{""aha"":6}","[0]","../img/tt/1102tt.jpg","",""
"null","<div style=""font-size:60px;""> </div>","null","fixation","html-keyboard-response","209","935552","0.0-6.0-0.29","2902409","co37999","norming","","","","","","",""
"null","../img/tt/497tt.jpg","null","mooney1","image-keyboard-response","210","938553","0.0-6.0-1.29","2902409","co37999","norming","","","","","","",""
"3771.4700000014855","","","post_mooney1_questions","survey-likert","211","942325","0.0-6.0-2.29","2902409","co37999","norming","","","{""curiosity"":5,""confidence"":2}","[0,1]","../img/tt/497tt.jpg","",""
"2638.0150000004796","","","recognition","survey-text","212","944965","0.0-6.0-3.29","2902409","co37999","norming","","","{""guess"":""viool""}","","../img/tt/497tt.jpg","",""
"null","../img/gs/497gs.jpg","null","reveal","image-keyboard-response","213","946966","0.0-6.0-4.29","2902409","co37999","norming","","","","","","",""
"null","../img/tt/497tt.jpg","null","mooney2","image-keyboard-response","214","948967","0.0-6.0-5.29","2902409","co37999","norming","","","","","","",""
"1781.3799999986077","","","post_reveal_questions","survey-likert","215","950749","0.0-6.0-6.29","2902409","co37999","norming","","","{""aha"":5}","[0]","../img/tt/497tt.jpg","",""
"null","<div style=""font-size:60px;""> </div>","null","fixation","html-keyboard-response","216","950951","0.0-6.0-0.30","2902409","co37999","norming","","","","","","",""
"null","../img/tt/1130tt.jpg","null","mooney1","image-keyboard-response","217","953952","0.0-6.0-1.30","2902409","co37999","norming","","","","","","",""
"4739.7849999998","","","post_mooney1_questions","survey-likert","218","958693","0.0-6.0-2.30","2902409","co37999","norming","","","{""curiosity"":1,""confidence"":6}","[0,1]","../img/tt/1130tt.jpg","",""
"6366.164999999455","","","recognition","survey-text","219","965061","0.0-6.0-3.30","2902409","co37999","norming","","","{""guess"":""wielrenner""}","","../img/tt/1130tt.jpg","",""
"null","../img/gs/1130gs.jpg","null","reveal","image-keyboard-response","220","967063","0.0-6.0-4.30","2902409","co37999","norming","","","","","","",""
"null","../img/tt/1130tt.jpg","null","mooney2","image-keyboard-response","221","969065","0.0-6.0-5.30","2902409","co37999","norming","","","","","","",""
"3113.919999999809","","","post_reveal_questions","survey-likert","222","972181","0.0-6.0-6.30","2902409","co37999","norming","","","{""aha"":0}","[0]","../img/tt/1130tt.jpg","",""
"null","<div style=""font-size:60px;""> </div>","null","fixation","html-keyboard-response","223","972383","0.0-6.0-0.31","2902409","co37999","norming","","","","","","",""
"null","../img/tt/468tt.jpg","null","mooney1","image-keyboard-response","224","975386","0.0-6.0-1.31","2902409","co37999","norming","","","","","","",""
"4631.410000001779","","","post_mooney1_questions","survey-likert","225","980021","0.0-6.0-2.31","2902409","co37999","norming","","","{""curiosity"":6,""confidence"":1}","[0,1]","../img/tt/468tt.jpg","",""
"2606.120000000461","","","recognition","survey-text","226","982629","0.0-6.0-3.31","2902409","co37999","norming","","","{""guess"":""viool""}","","../img/tt/468tt.jpg","",""
"null","../img/gs/468gs.jpg","null","reveal","image-keyboard-response","227","984632","0.0-6.0-4.31","2902409","co37999","norming","","","","","","",""
"null","../img/tt/468tt.jpg","null","mooney2","image-keyboard-response","228","986635","0.0-6.0-5.31","2902409","co37999","norming","","","","","","",""
"2168.7450000008103","","","post_reveal_questions","survey-likert","229","988805","0.0-6.0-6.31","2902409","co37999","norming","","","{""aha"":2}","[0]","../img/tt/468tt.jpg","",""
"null","<div style=""font-size:60px;""> </div>","null","fixation","html-keyboard-response","230","989007","0.0-6.0-0.32","2902409","co37999","norming","","","","","","",""
"null","../img/tt/1043tt.jpg","null","mooney1","image-keyboard-response","231","992009","0.0-6.0-1.32","2902409","co37999","norming","","","","","","",""
"7705.58499999973","","","post_mooney1_questions","survey-likert","232","999717","0.0-6.0-2.32","2902409","co37999","norming","","","{""curiosity"":5,""confidence"":0}","[0,1]","../img/tt/1043tt.jpg","",""
"1357.9700000009034","","","recognition","survey-text","233","1001077","0.0-6.0-3.32","2902409","co37999","norming","","","{""guess"":""""}","","../img/tt/1043tt.jpg","",""
"null","../img/gs/1043gs.jpg","null","reveal","image-keyboard-response","234","1003078","0.0-6.0-4.32","2902409","co37999","norming","","","","","","",""
"null","../img/tt/1043tt.jpg","null","mooney2","image-keyboard-response","235","1005079","0.0-6.0-5.32","2902409","co37999","norming","","","","","","",""
"15420.98999999871","","","post_reveal_questions","survey-likert","236","1020501","0.0-6.0-6.32","2902409","co37999","norming","","","{""aha"":3}","[0]","../img/tt/1043tt.jpg","",""
"null","<div style=""font-size:60px;""> </div>","null","fixation","html-keyboard-response","237","1020702","0.0-6.0-0.33","2902409","co37999","norming","","","","","","",""
"null","../img/tt/1033tt.jpg","null","mooney1","image-keyboard-response","238","1023706","0.0-6.0-1.33","2902409","co37999","norming","","","","","","",""
"9128.05000000121","","","post_mooney1_questions","survey-likert","239","1032837","0.0-6.0-2.33","2902409","co37999","norming","","","{""curiosity"":4,""confidence"":0}","[0,1]","../img/tt/1033tt.jpg","",""
"1222.1499999995576","","","recognition","survey-text","240","1034061","0.0-6.0-3.33","2902409","co37999","norming","","","{""guess"":""""}","","../img/tt/1033tt.jpg","",""
"null","../img/gs/1033gs.jpg","null","reveal","image-keyboard-response","241","1036063","0.0-6.0-4.33","2902409","co37999","norming","","","","","","",""
"null","../img/tt/1033tt.jpg","null","mooney2","image-keyboard-response","242","1038066","0.0-6.0-5.33","2902409","co37999","norming","","","","","","",""
"2465.1100000010338","","","post_reveal_questions","survey-likert","243","1040533","0.0-6.0-6.33","2902409","co37999","norming","","","{""aha"":5}","[0]","../img/tt/1033tt.jpg","",""
"null","<div style=""font-size:60px;""> </div>","null","fixation","html-keyboard-response","244","1040735","0.0-6.0-0.34","2902409","co37999","norming","","","","","","",""
"null","../img/tt/567tt.jpg","null","mooney1","image-keyboard-response","245","1043736","0.0-6.0-1.34","2902409","co37999","norming","","","","","","",""
"6137.534999999916","","","post_mooney1_questions","survey-likert","246","1049877","0.0-6.0-2.34","2902409","co37999","norming","","","{""curiosity"":2,""confidence"":5}","[0,1]","../img/tt/567tt.jpg","",""
"5318.035000000149","","","recognition","survey-text","247","1055197","0.0-6.0-3.34","2902409","co37999","norming","","","{""guess"":""broodrooster""}","","../img/tt/567tt.jpg","",""
"null","../img/gs/567gs.jpg","null","reveal","image-keyboard-response","248","1057198","0.0-6.0-4.34","2902409","co37999","norming","","","","","","",""
"null","../img/tt/567tt.jpg","null","mooney2","image-keyboard-response","249","1059200","0.0-6.0-5.34","2902409","co37999","norming","","","","","","",""
"4602.295000000624","","","post_reveal_questions","survey-likert","250","1063805","0.0-6.0-6.34","2902409","co37999","norming","","","{""aha"":0}","[0]","../img/tt/567tt.jpg","",""
"null","<div style=""font-size:60px;""> </div>","null","fixation","html-keyboard-response","251","1064007","0.0-6.0-0.35","2902409","co37999","norming","","","","","","",""
"null","../img/tt/315tt.jpg","null","mooney1","image-keyboard-response","252","1067009","0.0-6.0-1.35","2902409","co37999","norming","","","","","","",""
"5609.059999998892","","","post_mooney1_questions","survey-likert","253","1072621","0.0-6.0-2.35","2902409","co37999","norming","","","{""curiosity"":1,""confidence"":6}","[0,1]","../img/tt/315tt.jpg","",""
"3630.130000001285","","","recognition","survey-text","254","1076253","0.0-6.0-3.35","2902409","co37999","norming","","","{""guess"":""kat""}","","../img/tt/315tt.jpg","",""
"null","../img/gs/315gs.jpg","null","reveal","image-keyboard-response","255","1078254","0.0-6.0-4.35","2902409","co37999","norming","","","","","","",""
"null","../img/tt/315tt.jpg","null","mooney2","image-keyboard-response","256","1080257","0.0-6.0-5.35","2902409","co37999","norming","","","","","","",""
"2736.560000000987","","","post_reveal_questions","survey-likert","257","1082997","0.0-6.0-6.35","2902409","co37999","norming","","","{""aha"":0}","[0]","../img/tt/315tt.jpg","",""
"null","<div style=""font-size:60px;""> </div>","null","fixation","html-keyboard-response","258","1083199","0.0-6.0-0.36","2902409","co37999","norming","","","","","","",""
"null","../img/tt/032tt.jpg","null","mooney1","image-keyboard-response","259","1086202","0.0-6.0-1.36","2902409","co37999","norming","","","","","","",""
"4599.659999999916","","","post_mooney1_questions","survey-likert","260","1090805","0.0-6.0-2.36","2902409","co37999","norming","","","{""curiosity"":6,""confidence"":0}","[0,1]","../img/tt/032tt.jpg","",""
"1277.994999998482","","","recognition","survey-text","261","1092085","0.0-6.0-3.36","2902409","co37999","norming","","","{""guess"":""""}","","../img/tt/032tt.jpg","",""
"null","../img/gs/032gs.jpg","null","reveal","image-keyboard-response","262","1094087","0.0-6.0-4.36","2902409","co37999","norming","","","","","","",""
"null","../img/tt/032tt.jpg","null","mooney2","image-keyboard-response","263","1096090","0.0-6.0-5.36","2902409","co37999","norming","","","","","","",""
"18999.945000001462","","","post_reveal_questions","survey-likert","264","1115093","0.0-6.0-6.36","2902409","co37999","norming","","","{""aha"":4}","[0]","../img/tt/032tt.jpg","",""
"null","<div style=""font-size:60px;""> </div>","null","fixation","html-keyboard-response","265","1115295","0.0-6.0-0.37","2902409","co37999","norming","","","","","","",""
"null","../img/tt/436tt.jpg","null","mooney1","image-keyboard-response","266","1118298","0.0-6.0-1.37","2902409","co37999","norming","","","","","","",""
"20832.374999999767","","","post_mooney1_questions","survey-likert","267","1139133","0.0-6.0-2.37","2902409","co37999","norming","","","{""curiosity"":5,""confidence"":0}","[0,1]","../img/tt/436tt.jpg","",""
"782.009999999078","","","recognition","survey-text","268","1139916","0.0-6.0-3.37","2902409","co37999","norming","","","{""guess"":""""}","","../img/tt/436tt.jpg","",""
"null","../img/gs/436gs.jpg","null","reveal","image-keyboard-response","269","1141918","0.0-6.0-4.37","2902409","co37999","norming","","","","","","",""
"null","../img/tt/436tt.jpg","null","mooney2","image-keyboard-response","270","1143920","0.0-6.0-5.37","2902409","co37999","norming","","","","","","",""
"6226.709999999031","","","post_reveal_questions","survey-likert","271","1150148","0.0-6.0-6.37","2902409","co37999","norming","","","{""aha"":4}","[0]","../img/tt/436tt.jpg","",""
"null","<div style=""font-size:60px;""> </div>","null","fixation","html-keyboard-response","272","1150349","0.0-6.0-0.38","2902409","co37999","norming","","","","","","",""
"null","../img/tt/096tt.jpg","null","mooney1","image-keyboard-response","273","1153353","0.0-6.0-1.38","2902409","co37999","norming","","","","","","",""
"5296.914999998873","","","post_mooney1_questions","survey-likert","274","1158653","0.0-6.0-2.38","2902409","co37999","norming","","","{""curiosity"":4,""confidence"":1}","[0,1]","../img/tt/096tt.jpg","",""
"3574.075000000419","","","recognition","survey-text","275","1162229","0.0-6.0-3.38","2902409","co37999","norming","","","{""guess"":""piano""}","","../img/tt/096tt.jpg","",""
"null","../img/gs/096gs.jpg","null","reveal","image-keyboard-response","276","1164230","0.0-6.0-4.38","2902409","co37999","norming","","","","","","",""
"null","../img/tt/096tt.jpg","null","mooney2","image-keyboard-response","277","1166232","0.0-6.0-5.38","2902409","co37999","norming","","","","","","",""
"5162.199999999022","","","post_reveal_questions","survey-likert","278","1171397","0.0-6.0-6.38","2902409","co37999","norming","","","{""aha"":2}","[0]","../img/tt/096tt.jpg","",""
"null","<div style=""font-size:60px;""> </div>","null","fixation","html-keyboard-response","279","1171599","0.0-6.0-0.39","2902409","co37999","norming","","","","","","",""
"null","../img/tt/559tt.jpg","null","mooney1","image-keyboard-response","280","1174602","0.0-6.0-1.39","2902409","co37999","norming","","","","","","",""
"3680.6049999997485","","","post_mooney1_questions","survey-likert","281","1178285","0.0-6.0-2.39","2902409","co37999","norming","","","{""curiosity"":6,""confidence"":0}","[0,1]","../img/tt/559tt.jpg","",""
"645.4099999989849","","","recognition","survey-text","282","1178941","0.0-6.0-3.39","2902409","co37999","norming","","","{""guess"":""""}","","../img/tt/559tt.jpg","",""
"null","../img/gs/559gs.jpg","null","reveal","image-keyboard-response","283","1180943","0.0-6.0-4.39","2902409","co37999","norming","","","","","","",""
"null","../img/tt/559tt.jpg","null","mooney2","image-keyboard-response","284","1182945","0.0-6.0-5.39","2902409","co37999","norming","","","","","","",""
"3761.5200000000186","","","post_reveal_questions","survey-likert","285","1186709","0.0-6.0-6.39","2902409","co37999","norming","","","{""aha"":5}","[0]","../img/tt/559tt.jpg","",""
"null","<div style=""font-size:60px;""> </div>","null","fixation","html-keyboard-response","286","1186910","0.0-6.0-0.40","2902409","co37999","norming","","","","","","",""
"null","../img/tt/084tt.jpg","null","mooney1","image-keyboard-response","287","1189912","0.0-6.0-1.40","2902409","co37999","norming","","","","","","",""
"6403.669999999693","","","post_mooney1_questions","survey-likert","288","1196317","0.0-6.0-2.40","2902409","co37999","norming","","","{""curiosity"":3,""confidence"":1}","[0,1]","../img/tt/084tt.jpg","",""
"7142.10500000068","","","recognition","survey-text","289","1203461","0.0-6.0-3.40","2902409","co37999","norming","","","{""guess"":""gans""}","","../img/tt/084tt.jpg","",""
"null","../img/gs/084gs.jpg","null","reveal","image-keyboard-response","290","1205462","0.0-6.0-4.40","2902409","co37999","norming","","","","","","",""
"null","../img/tt/084tt.jpg","null","mooney2","image-keyboard-response","291","1207464","0.0-6.0-5.40","2902409","co37999","norming","","","","","","",""
"3178.904999998864","","","post_reveal_questions","survey-likert","292","1210645","0.0-6.0-6.40","2902409","co37999","norming","","","{""aha"":3}","[0]","../img/tt/084tt.jpg","",""
"null","<div style=""font-size:60px;""> </div>","null","fixation","html-keyboard-response","293","1210847","0.0-6.0-0.41","2902409","co37999","norming","","","","","","",""
"null","../img/tt/552tt.jpg","null","mooney1","image-keyboard-response","294","1213852","0.0-6.0-1.41","2902409","co37999","norming","","","","","","",""
"3993.7399999999907","","","post_mooney1_questions","survey-likert","295","1217847","0.0-6.0-2.41","2902409","co37999","norming","","","{""curiosity"":5,""confidence"":0}","[0,1]","../img/tt/552tt.jpg","",""
"822.2399999992922","","","recognition","survey-text","296","1218671","0.0-6.0-3.41","2902409","co37999","norming","","","{""guess"":""""}","","../img/tt/552tt.jpg","",""
"null","../img/gs/552gs.jpg","null","reveal","image-keyboard-response","297","1220672","0.0-6.0-4.41","2902409","co37999","norming","","","","","","",""
"null","../img/tt/552tt.jpg","null","mooney2","image-keyboard-response","298","1222674","0.0-6.0-5.41","2902409","co37999","norming","","","","","","",""
"3178.7800000002608","","","post_reveal_questions","survey-likert","299","1225855","0.0-6.0-6.41","2902409","co37999","norming","","","{""aha"":6}","[0]","../img/tt/552tt.jpg","",""
"null","<div style=""font-size:60px;""> </div>","null","fixation","html-keyboard-response","300","1226057","0.0-6.0-0.42","2902409","co37999","norming","","","","","","",""
"null","../img/tt/406tt.jpg","null","mooney1","image-keyboard-response","301","1229060","0.0-6.0-1.42","2902409","co37999","norming","","","","","","",""
"3432.58000000054","","","post_mooney1_questions","survey-likert","302","1232495","0.0-6.0-2.42","2902409","co37999","norming","","","{""curiosity"":4,""confidence"":1}","[0,1]","../img/tt/406tt.jpg","",""
"4838.130000000121","","","recognition","survey-text","303","1237335","0.0-6.0-3.42","2902409","co37999","norming","","","{""guess"":""vleermuis""}","","../img/tt/406tt.jpg","",""
"null","../img/gs/406gs.jpg","null","reveal","image-keyboard-response","304","1239337","0.0-6.0-4.42","2902409","co37999","norming","","","","","","",""
"null","../img/tt/406tt.jpg","null","mooney2","image-keyboard-response","305","1241339","0.0-6.0-5.42","2902409","co37999","norming","","","","","","",""
"3911.130000000354","","","post_reveal_questions","survey-likert","306","1245255","0.0-6.0-6.42","2902409","co37999","norming","","","{""aha"":1}","[0]","../img/tt/406tt.jpg","",""
"null","<div style=""font-size:60px;""> </div>","null","fixation","html-keyboard-response","307","1245457","0.0-6.0-0.43","2902409","co37999","norming","","","","","","",""
"null","../img/tt/1143tt.jpg","null","mooney1","image-keyboard-response","308","1248461","0.0-6.0-1.43","2902409","co37999","norming","","","","","","",""
"2711.0499999998137","","","post_mooney1_questions","survey-likert","309","1251175","0.0-6.0-2.43","2902409","co37999","norming","","","{""curiosity"":6,""confidence"":0}","[0,1]","../img/tt/1143tt.jpg","",""
"710.1750000000466","","","recognition","survey-text","310","1251887","0.0-6.0-3.43","2902409","co37999","norming","","","{""guess"":""""}","","../img/tt/1143tt.jpg","",""
"null","../img/gs/1143gs.jpg","null","reveal","image-keyboard-response","311","1253888","0.0-6.0-4.43","2902409","co37999","norming","","","","","","",""
"null","../img/tt/1143tt.jpg","null","mooney2","image-keyboard-response","312","1255891","0.0-6.0-5.43","2902409","co37999","norming","","","","","","",""
"2747.630000001751","","","post_reveal_questions","survey-likert","313","1258639","0.0-6.0-6.43","2902409","co37999","norming","","","{""aha"":4}","[0]","../img/tt/1143tt.jpg","",""
"null","<div style=""font-size:60px;""> </div>","null","fixation","html-keyboard-response","314","1258840","0.0-6.0-0.44","2902409","co37999","norming","","","","","","",""
"null","../img/tt/1118tt.jpg","null","mooney1","image-keyboard-response","315","1261841","0.0-6.0-1.44","2902409","co37999","norming","","","","","","",""
"5021.005000000587","","","post_mooney1_questions","survey-likert","316","1266863","0.0-6.0-2.44","2902409","co37999","norming","","","{""curiosity"":3,""confidence"":1}","[0,1]","../img/tt/1118tt.jpg","",""
"3110.4150000009686","","","recognition","survey-text","317","1269975","0.0-6.0-3.44","2902409","co37999","norming","","","{""guess"":""auto""}","","../img/tt/1118tt.jpg","",""
"null","../img/gs/1118gs.jpg","null","reveal","image-keyboard-response","318","1271977","0.0-6.0-4.44","2902409","co37999","norming","","","","","","",""
"null","../img/tt/1118tt.jpg","null","mooney2","image-keyboard-response","319","1273982","0.0-6.0-5.44","2902409","co37999","norming","","","","","","",""
"3016.8699999994133","","","post_reveal_questions","survey-likert","320","1277001","0.0-6.0-6.44","2902409","co37999","norming","","","{""aha"":4}","[0]","../img/tt/1118tt.jpg","",""
"null","<div style=""font-size:60px;""> </div>","null","fixation","html-keyboard-response","321","1277203","0.0-6.0-0.45","2902409","co37999","norming","","","","","","",""
"null","../img/tt/053tt.jpg","null","mooney1","image-keyboard-response","322","1280206","0.0-6.0-1.45","2902409","co37999","norming","","","","","","",""
"9623.955000001006","","","post_mooney1_questions","survey-likert","323","1289833","0.0-6.0-2.45","2902409","co37999","norming","","","{""curiosity"":2,""confidence"":0}","[0,1]","../img/tt/053tt.jpg","",""
"902.0749999999534","","","recognition","survey-text","324","1290737","0.0-6.0-3.45","2902409","co37999","norming","","","{""guess"":""""}","","../img/tt/053tt.jpg","",""
"null","../img/gs/053gs.jpg","null","reveal","image-keyboard-response","325","1292738","0.0-6.0-4.45","2902409","co37999","norming","","","","","","",""
"null","../img/tt/053tt.jpg","null","mooney2","image-keyboard-response","326","1294740","0.0-6.0-5.45","2902409","co37999","norming","","","","","","",""
"2754.0900000003166","","","post_reveal_questions","survey-likert","327","1297497","0.0-6.0-6.45","2902409","co37999","norming","","","{""aha"":3}","[0]","../img/tt/053tt.jpg","",""
"null","<div style=""font-size:60px;""> </div>","null","fixation","html-keyboard-response","328","1297698","0.0-6.0-0.46","2902409","co37999","norming","","","","","","",""
"null","../img/tt/1362tt.jpg","null","mooney1","image-keyboard-response","329","1300702","0.0-6.0-1.46","2902409","co37999","norming","","","","","","",""
"3352.2600000014063","","","post_mooney1_questions","survey-likert","330","1304057","0.0-6.0-2.46","2902409","co37999","norming","","","{""curiosity"":3,""confidence"":1}","[0,1]","../img/tt/1362tt.jpg","",""
"4302.29499999946","","","recognition","survey-text","331","1308361","0.0-6.0-3.46","2902409","co37999","norming","","","{""guess"":""platenspeler""}","","../img/tt/1362tt.jpg","",""
"null","../img/gs/1362gs.jpg","null","reveal","image-keyboard-response","332","1310362","0.0-6.0-4.46","2902409","co37999","norming","","","","","","",""
"null","../img/tt/1362tt.jpg","null","mooney2","image-keyboard-response","333","1312365","0.0-6.0-5.46","2902409","co37999","norming","","","","","","",""
"2530.9349999988917","","","post_reveal_questions","survey-likert","334","1314897","0.0-6.0-6.46","2902409","co37999","norming","","","{""aha"":4}","[0]","../img/tt/1362tt.jpg","",""
"null","<div style=""font-size:60px;""> </div>","null","fixation","html-keyboard-response","335","1315099","0.0-6.0-0.47","2902409","co37999","norming","","","","","","",""
"null","../img/tt/1200tt.jpg","null","mooney1","image-keyboard-response","336","1318103","0.0-6.0-1.47","2902409","co37999","norming","","","","","","",""
"7151.389999999199","","","post_mooney1_questions","survey-likert","337","1325257","0.0-6.0-2.47","2902409","co37999","norming","","","{""curiosity"":3,""confidence"":2}","[0,1]","../img/tt/1200tt.jpg","",""
"2989.760000000475","","","recognition","survey-text","338","1328249","0.0-6.0-3.47","2902409","co37999","norming","","","{""guess"":""krab""}","","../img/tt/1200tt.jpg","",""
"null","../img/gs/1200gs.jpg","null","reveal","image-keyboard-response","339","1330251","0.0-6.0-4.47","2902409","co37999","norming","","","","","","",""
"null","../img/tt/1200tt.jpg","null","mooney2","image-keyboard-response","340","1332255","0.0-6.0-5.47","2902409","co37999","norming","","","","","","",""
"2247.2500000004657","","","post_reveal_questions","survey-likert","341","1334506","0.0-6.0-6.47","2902409","co37999","norming","","","{""aha"":3}","[0]","../img/tt/1200tt.jpg","",""
"null","<div style=""font-size:60px;""> </div>","null","fixation","html-keyboard-response","342","1334707","0.0-6.0-0.48","2902409","co37999","norming","","","","","","",""
"null","../img/tt/435tt.jpg","null","mooney1","image-keyboard-response","343","1337710","0.0-6.0-1.48","2902409","co37999","norming","","","","","","",""
"4513.6350000011735","","","post_mooney1_questions","survey-likert","344","1342227","0.0-6.0-2.48","2902409","co37999","norming","","","{""curiosity"":3,""confidence"":2}","[0,1]","../img/tt/435tt.jpg","",""
"6086.095000000671","","","recognition","survey-text","345","1348314","0.0-6.0-3.48","2902409","co37999","norming","","","{""guess"":""pooltafel""}","","../img/tt/435tt.jpg","",""
"null","../img/gs/435gs.jpg","null","reveal","image-keyboard-response","346","1350316","0.0-6.0-4.48","2902409","co37999","norming","","","","","","",""
"null","../img/tt/435tt.jpg","null","mooney2","image-keyboard-response","347","1352318","0.0-6.0-5.48","2902409","co37999","norming","","","","","","",""
"4145.590000000084","","","post_reveal_questions","survey-likert","348","1356466","0.0-6.0-6.48","2902409","co37999","norming","","","{""aha"":2}","[0]","../img/tt/435tt.jpg","",""
"null","<div style=""font-size:60px;""> </div>","null","fixation","html-keyboard-response","349","1356668","0.0-6.0-0.49","2902409","co37999","norming","","","","","","",""
"null","../img/tt/007tt.jpg","null","mooney1","image-keyboard-response","350","1359671","0.0-6.0-1.49","2902409","co37999","norming","","","","","","",""
"6983.949999999721","","","post_mooney1_questions","survey-likert","351","1366659","0.0-6.0-2.49","2902409","co37999","norming","","","{""curiosity"":5,""confidence"":3}","[0,1]","../img/tt/007tt.jpg","",""
"4630.0649999994785","","","recognition","survey-text","352","1371290","0.0-6.0-3.49","2902409","co37999","norming","","","{""guess"":""walrus""}","","../img/tt/007tt.jpg","",""
"null","../img/gs/007gs.jpg","null","reveal","image-keyboard-response","353","1373292","0.0-6.0-4.49","2902409","co37999","norming","","","","","","",""
"null","../img/tt/007tt.jpg","null","mooney2","image-keyboard-response","354","1375294","0.0-6.0-5.49","2902409","co37999","norming","","","","","","",""
"2153.744999999646","","","post_reveal_questions","survey-likert","355","1377450","0.0-6.0-6.49","2902409","co37999","norming","","","{""aha"":5}","[0]","../img/tt/007tt.jpg","",""
"null","<div style=""font-size:60px;""> </div>","null","fixation","html-keyboard-response","356","1377652","0.0-6.0-0.50","2902409","co37999","norming","","","","","","",""
"null","../img/tt/1128tt.jpg","null","mooney1","image-keyboard-response","357","1380655","0.0-6.0-1.50","2902409","co37999","norming","","","","","","",""
"4895.635000000708","","","post_mooney1_questions","survey-likert","358","1385554","0.0-6.0-2.50","2902409","co37999","norming","","","{""curiosity"":2,""confidence"":1}","[0,1]","../img/tt/1128tt.jpg","",""
"4478.665000000503","","","recognition","survey-text","359","1390034","0.0-6.0-3.50","2902409","co37999","norming","","","{""guess"":""meisje""}","","../img/tt/1128tt.jpg","",""
"null","../img/gs/1128gs.jpg","null","reveal","image-keyboard-response","360","1392035","0.0-6.0-4.50","2902409","co37999","norming","","","","","","",""
"null","../img/tt/1128tt.jpg","null","mooney2","image-keyboard-response","361","1394037","0.0-6.0-5.50","2902409","co37999","norming","","","","","","",""
"2858.5400000009686","","","post_reveal_questions","survey-likert","362","1396901","0.0-6.0-6.50","2902409","co37999","norming","","","{""aha"":3}","[0]","../img/tt/1128tt.jpg","",""
"null","<div style=""font-size:60px;""> </div>","null","fixation","html-keyboard-response","363","1397102","0.0-6.0-0.51","2902409","co37999","norming","","","","","","",""
"null","../img/tt/1196tt.jpg","null","mooney1","image-keyboard-response","364","1400106","0.0-6.0-1.51","2902409","co37999","norming","","","","","","",""
"2639.2400000004563","","","post_mooney1_questions","survey-likert","365","1402749","0.0-6.0-2.51","2902409","co37999","norming","","","{""curiosity"":6,""confidence"":0}","[0,1]","../img/tt/1196tt.jpg","",""
"1037.9250000005122","","","recognition","survey-text","366","1403788","0.0-6.0-3.51","2902409","co37999","norming","","","{""guess"":""""}","","../img/tt/1196tt.jpg","",""
"null","../img/gs/1196gs.jpg","null","reveal","image-keyboard-response","367","1405791","0.0-6.0-4.51","2902409","co37999","norming","","","","","","",""
"null","../img/tt/1196tt.jpg","null","mooney2","image-keyboard-response","368","1407793","0.0-6.0-5.51","2902409","co37999","norming","","","","","","",""
"2242.2600000009406","","","post_reveal_questions","survey-likert","369","1410037","0.0-6.0-6.51","2902409","co37999","norming","","","{""aha"":2}","[0]","../img/tt/1196tt.jpg","",""
"null","<div style=""font-size:60px;""> </div>","null","fixation","html-keyboard-response","370","1410238","0.0-6.0-0.52","2902409","co37999","norming","","","","","","",""
"null","../img/tt/1232tt.jpg","null","mooney1","image-keyboard-response","371","1413241","0.0-6.0-1.52","2902409","co37999","norming","","","","","","",""
"7176.7950000013225","","","post_mooney1_questions","survey-likert","372","1420421","0.0-6.0-2.52","2902409","co37999","norming","","","{""curiosity"":2,""confidence"":0}","[0,1]","../img/tt/1232tt.jpg","",""
"973.9449999995995","","","recognition","survey-text","373","1421396","0.0-6.0-3.52","2902409","co37999","norming","","","{""guess"":""""}","","../img/tt/1232tt.jpg","",""
"null","../img/gs/1232gs.jpg","null","reveal","image-keyboard-response","374","1423398","0.0-6.0-4.52","2902409","co37999","norming","","","","","","",""
"null","../img/tt/1232tt.jpg","null","mooney2","image-keyboard-response","375","1425401","0.0-6.0-5.52","2902409","co37999","norming","","","","","","",""
"2463.4649999989197","","","post_reveal_questions","survey-likert","376","1427869","0.0-6.0-6.52","2902409","co37999","norming","","","{""aha"":4}","[0]","../img/tt/1232tt.jpg","",""
"null","<div style=""font-size:60px;""> </div>","null","fixation","html-keyboard-response","377","1428070","0.0-6.0-0.53","2902409","co37999","norming","","","","","","",""
"null","../img/tt/1251tt.jpg","null","mooney1","image-keyboard-response","378","1431073","0.0-6.0-1.53","2902409","co37999","norming","","","","","","",""
"6024.344999999972","","","post_mooney1_questions","survey-likert","379","1437101","0.0-6.0-2.53","2902409","co37999","norming","","","{""curiosity"":3,""confidence"":1}","[0,1]","../img/tt/1251tt.jpg","",""
"2477.969999999972","","","recognition","survey-text","380","1439580","0.0-6.0-3.53","2902409","co37999","norming","","","{""guess"":""beer""}","","../img/tt/1251tt.jpg","",""
"null","../img/gs/1251gs.jpg","null","reveal","image-keyboard-response","381","1441583","0.0-6.0-4.53","2902409","co37999","norming","","","","","","",""
"null","../img/tt/1251tt.jpg","null","mooney2","image-keyboard-response","382","1443586","0.0-6.0-5.53","2902409","co37999","norming","","","","","","",""
"3383.7249999998603","","","post_reveal_questions","survey-likert","383","1446972","0.0-6.0-6.53","2902409","co37999","norming","","","{""aha"":2}","[0]","../img/tt/1251tt.jpg","",""
"null","<div style=""font-size:60px;""> </div>","null","fixation","html-keyboard-response","384","1447173","0.0-6.0-0.54","2902409","co37999","norming","","","","","","",""
"null","../img/tt/442tt.jpg","null","mooney1","image-keyboard-response","385","1450177","0.0-6.0-1.54","2902409","co37999","norming","","","","","","",""
"3024.559999999823","","","post_mooney1_questions","survey-likert","386","1453205","0.0-6.0-2.54","2902409","co37999","norming","","","{""curiosity"":6,""confidence"":0}","[0,1]","../img/tt/442tt.jpg","",""
"581.9850000005681","","","recognition","survey-text","387","1453788","0.0-6.0-3.54","2902409","co37999","norming","","","{""guess"":""""}","","../img/tt/442tt.jpg","",""
"null","../img/gs/442gs.jpg","null","reveal","image-keyboard-response","388","1455789","0.0-6.0-4.54","2902409","co37999","norming","","","","","","",""
"null","../img/tt/442tt.jpg","null","mooney2","image-keyboard-response","389","1457794","0.0-6.0-5.54","2902409","co37999","norming","","","","","","",""
"4900.094999999274","","","post_reveal_questions","survey-likert","390","1462695","0.0-6.0-6.54","2902409","co37999","norming","","","{""aha"":4}","[0]","../img/tt/442tt.jpg","",""
"null","<div style=""font-size:60px;""> </div>","null","fixation","html-keyboard-response","391","1462897","0.0-6.0-0.55","2902409","co37999","norming","","","","","","",""
"null","../img/tt/1126tt.jpg","null","mooney1","image-keyboard-response","392","1465900","0.0-6.0-1.55","2902409","co37999","norming","","","","","","",""
"4433.254999999888","","","post_mooney1_questions","survey-likert","393","1470335","0.0-6.0-2.55","2902409","co37999","norming","","","{""curiosity"":4,""confidence"":1}","[0,1]","../img/tt/1126tt.jpg","",""
"2798.090000000084","","","recognition","survey-text","394","1473135","0.0-6.0-3.55","2902409","co37999","norming","","","{""guess"":""wrap""}","","../img/tt/1126tt.jpg","",""
"null","../img/gs/1126gs.jpg","null","reveal","image-keyboard-response","395","1475136","0.0-6.0-4.55","2902409","co37999","norming","","","","","","",""
"null","../img/tt/1126tt.jpg","null","mooney2","image-keyboard-response","396","1477137","0.0-6.0-5.55","2902409","co37999","norming","","","","","","",""
"2106.6299999982584","","","post_reveal_questions","survey-likert","397","1479247","0.0-6.0-6.55","2902409","co37999","norming","","","{""aha"":4}","[0]","../img/tt/1126tt.jpg","",""
"null","<div style=""font-size:60px;""> </div>","null","fixation","html-keyboard-response","398","1479448","0.0-6.0-0.56","2902409","co37999","norming","","","","","","",""
"null","../img/tt/1091tt.jpg","null","mooney1","image-keyboard-response","399","1482451","0.0-6.0-1.56","2902409","co37999","norming","","","","","","",""
"4240.064999999944","","","post_mooney1_questions","survey-likert","400","1486695","0.0-6.0-2.56","2902409","co37999","norming","","","{""curiosity"":2,""confidence"":0}","[0,1]","../img/tt/1091tt.jpg","",""
"957.9950000005774","","","recognition","survey-text","401","1487654","0.0-6.0-3.56","2902409","co37999","norming","","","{""guess"":""""}","","../img/tt/1091tt.jpg","",""
"null","../img/gs/1091gs.jpg","null","reveal","image-keyboard-response","402","1489656","0.0-6.0-4.56","2902409","co37999","norming","","","","","","",""
"null","../img/tt/1091tt.jpg","null","mooney2","image-keyboard-response","403","1491658","0.0-6.0-5.56","2902409","co37999","norming","","","","","","",""
"2082.2749999987427","","","post_reveal_questions","survey-likert","404","1493743","0.0-6.0-6.56","2902409","co37999","norming","","","{""aha"":5}","[0]","../img/tt/1091tt.jpg","",""
"null","<div style=""font-size:60px;""> </div>","null","fixation","html-keyboard-response","405","1493945","0.0-6.0-0.57","2902409","co37999","norming","","","","","","",""
"null","../img/tt/105tt.jpg","null","mooney1","image-keyboard-response","406","1496950","0.0-6.0-1.57","2902409","co37999","norming","","","","","","",""
"3148.9600000004284","","","post_mooney1_questions","survey-likert","407","1500103","0.0-6.0-2.57","2902409","co37999","norming","","","{""curiosity"":6,""confidence"":0}","[0,1]","../img/tt/105tt.jpg","",""
"926.1400000015274","","","recognition","survey-text","408","1501031","0.0-6.0-3.57","2902409","co37999","norming","","","{""guess"":""""}","","../img/tt/105tt.jpg","",""
"null","../img/gs/105gs.jpg","null","reveal","image-keyboard-response","409","1503032","0.0-6.0-4.57","2902409","co37999","norming","","","","","","",""
"null","../img/tt/105tt.jpg","null","mooney2","image-keyboard-response","410","1505033","0.0-6.0-5.57","2902409","co37999","norming","","","","","","",""
"2842.68499999959","","","post_reveal_questions","survey-likert","411","1507879","0.0-6.0-6.57","2902409","co37999","norming","","","{""aha"":6}","[0]","../img/tt/105tt.jpg","",""
"null","<div style=""font-size:60px;""> </div>","null","fixation","html-keyboard-response","412","1508081","0.0-6.0-0.58","2902409","co37999","norming","","","","","","",""
"null","../img/tt/1040tt.jpg","null","mooney1","image-keyboard-response","413","1511083","0.0-6.0-1.58","2902409","co37999","norming","","","","","","",""
"3840.0099999997765","","","post_mooney1_questions","survey-likert","414","1514927","0.0-6.0-2.58","2902409","co37999","norming","","","{""curiosity"":1,""confidence"":0}","[0,1]","../img/tt/1040tt.jpg","",""
"1270.1149999992922","","","recognition","survey-text","415","1516199","0.0-6.0-3.58","2902409","co37999","norming","","","{""guess"":""""}","","../img/tt/1040tt.jpg","",""
"null","../img/gs/1040gs.jpg","null","reveal","image-keyboard-response","416","1518200","0.0-6.0-4.58","2902409","co37999","norming","","","","","","",""
"null","../img/tt/1040tt.jpg","null","mooney2","image-keyboard-response","417","1520202","0.0-6.0-5.58","2902409","co37999","norming","","","","","","",""
"2449.8050000001676","","","post_reveal_questions","survey-likert","418","1522655","0.0-6.0-6.58","2902409","co37999","norming","","","{""aha"":2}","[0]","../img/tt/1040tt.jpg","",""
"null","<div style=""font-size:60px;""> </div>","null","fixation","html-keyboard-response","419","1522857","0.0-6.0-0.59","2902409","co37999","norming","","","","","","",""
"null","../img/tt/524tt.jpg","null","mooney1","image-keyboard-response","420","1525861","0.0-6.0-1.59","2902409","co37999","norming","","","","","","",""
"6408.859999999637","","","post_mooney1_questions","survey-likert","421","1532271","0.0-6.0-2.59","2902409","co37999","norming","","","{""curiosity"":4,""confidence"":2}","[0,1]","../img/tt/524tt.jpg","",""
"2062.214999999851","","","recognition","survey-text","422","1534335","0.0-6.0-3.59","2902409","co37999","norming","","","{""guess"":""beer""}","","../img/tt/524tt.jpg","",""
"null","../img/gs/524gs.jpg","null","reveal","image-keyboard-response","423","1536338","0.0-6.0-4.59","2902409","co37999","norming","","","","","","",""
"null","../img/tt/524tt.jpg","null","mooney2","image-keyboard-response","424","1538340","0.0-6.0-5.59","2902409","co37999","norming","","","","","","",""
"3968.275000001071","","","post_reveal_questions","survey-likert","425","1542311","0.0-6.0-6.59","2902409","co37999","norming","","","{""aha"":3}","[0]","../img/tt/524tt.jpg","",""
"null","<div style=""font-size:60px;""> </div>","null","fixation","html-keyboard-response","426","1542512","0.0-6.0-0.60","2902409","co37999","norming","","","","","","",""
"null","../img/tt/1037tt.jpg","null","mooney1","image-keyboard-response","427","1545515","0.0-6.0-1.60","2902409","co37999","norming","","","","","","",""
"7480.010000000941","","","post_mooney1_questions","survey-likert","428","1552999","0.0-6.0-2.60","2902409","co37999","norming","","","{""curiosity"":2,""confidence"":0}","[0,1]","../img/tt/1037tt.jpg","",""
"1334.16500000027","","","recognition","survey-text","429","1554335","0.0-6.0-3.60","2902409","co37999","norming","","","{""guess"":""""}","","../img/tt/1037tt.jpg","",""
"null","../img/gs/1037gs.jpg","null","reveal","image-keyboard-response","430","1556336","0.0-6.0-4.60","2902409","co37999","norming","","","","","","",""
"null","../img/tt/1037tt.jpg","null","mooney2","image-keyboard-response","431","1558339","0.0-6.0-5.60","2902409","co37999","norming","","","","","","",""
"2704.20999999973","","","post_reveal_questions","survey-likert","432","1561047","0.0-6.0-6.60","2902409","co37999","norming","","","{""aha"":2}","[0]","../img/tt/1037tt.jpg","",""
"null","<div style=""font-size:60px;""> </div>","null","fixation","html-keyboard-response","433","1561248","0.0-6.0-0.61","2902409","co37999","norming","","","","","","",""
"null","../img/tt/189tt.jpg","null","mooney1","image-keyboard-response","434","1564251","0.0-6.0-1.61","2902409","co37999","norming","","","","","","",""
"6018.845000000671","","","post_mooney1_questions","survey-likert","435","1570271","0.0-6.0-2.61","2902409","co37999","norming","","","{""curiosity"":4,""confidence"":1}","[0,1]","../img/tt/189tt.jpg","",""
"13454.0699999996","","","recognition","survey-text","436","1583727","0.0-6.0-3.61","2902409","co37999","norming","","","{""guess"":""surfbord""}","","../img/tt/189tt.jpg","",""
"null","../img/gs/189gs.jpg","null","reveal","image-keyboard-response","437","1585729","0.0-6.0-4.61","2902409","co37999","norming","","","","","","",""
"null","../img/tt/189tt.jpg","null","mooney2","image-keyboard-response","438","1587732","0.0-6.0-5.61","2902409","co37999","norming","","","","","","",""
"2360.094999999972","","","post_reveal_questions","survey-likert","439","1590095","0.0-6.0-6.61","2902409","co37999","norming","","","{""aha"":4}","[0]","../img/tt/189tt.jpg","",""
"null","<div style=""font-size:60px;""> </div>","null","fixation","html-keyboard-response","440","1590297","0.0-6.0-0.62","2902409","co37999","norming","","","","","","",""
"null","../img/tt/307tt.jpg","null","mooney1","image-keyboard-response","441","1593301","0.0-6.0-1.62","2902409","co37999","norming","","","","","","",""
"3886.8650000004563","","","post_mooney1_questions","survey-likert","442","1597191","0.0-6.0-2.62","2902409","co37999","norming","","","{""curiosity"":1,""confidence"":0}","[0,1]","../img/tt/307tt.jpg","",""
"821.5799999998417","","","recognition","survey-text","443","1598015","0.0-6.0-3.62","2902409","co37999","norming","","","{""guess"":""""}","","../img/tt/307tt.jpg","",""
"null","../img/gs/307gs.jpg","null","reveal","image-keyboard-response","444","1600016","0.0-6.0-4.62","2902409","co37999","norming","","","","","","",""
"null","../img/tt/307tt.jpg","null","mooney2","image-keyboard-response","445","1602018","0.0-6.0-5.62","2902409","co37999","norming","","","","","","",""
"3202.170000000391","","","post_reveal_questions","survey-likert","446","1605223","0.0-6.0-6.62","2902409","co37999","norming","","","{""aha"":3}","[0]","../img/tt/307tt.jpg","",""
"null","<div style=""font-size:60px;""> </div>","null","fixation","html-keyboard-response","447","1605424","0.0-6.0-0.63","2902409","co37999","norming","","","","","","",""
"null","../img/tt/1366tt.jpg","null","mooney1","image-keyboard-response","448","1608426","0.0-6.0-1.63","2902409","co37999","norming","","","","","","",""
"4193.620000000112","","","post_mooney1_questions","survey-likert","449","1612623","0.0-6.0-2.63","2902409","co37999","norming","","","{""curiosity"":5,""confidence"":0}","[0,1]","../img/tt/1366tt.jpg","",""
"1062.1649999995716","","","recognition","survey-text","450","1613687","0.0-6.0-3.63","2902409","co37999","norming","","","{""guess"":""""}","","../img/tt/1366tt.jpg","",""
"null","../img/gs/1366gs.jpg","null","reveal","image-keyboard-response","451","1615688","0.0-6.0-4.63","2902409","co37999","norming","","","","","","",""
"null","../img/tt/1366tt.jpg","null","mooney2","image-keyboard-response","452","1617689","0.0-6.0-5.63","2902409","co37999","norming","","","","","","",""
"3541.119999999879","","","post_reveal_questions","survey-likert","453","1621231","0.0-6.0-6.63","2902409","co37999","norming","","","{""aha"":5}","[0]","../img/tt/1366tt.jpg","",""
"null","<div style=""font-size:60px;""> </div>","null","fixation","html-keyboard-response","454","1621432","0.0-6.0-0.64","2902409","co37999","norming","","","","","","",""
"null","../img/tt/1278tt.jpg","null","mooney1","image-keyboard-response","455","1624437","0.0-6.0-1.64","2902409","co37999","norming","","","","","","",""
"3958.605000001611","","","post_mooney1_questions","survey-likert","456","1628399","0.0-6.0-2.64","2902409","co37999","norming","","","{""curiosity"":4,""confidence"":0}","[0,1]","../img/tt/1278tt.jpg","",""
"662.1899999990128","","","recognition","survey-text","457","1629063","0.0-6.0-3.64","2902409","co37999","norming","","","{""guess"":""""}","","../img/tt/1278tt.jpg","",""
"null","../img/gs/1278gs.jpg","null","reveal","image-keyboard-response","458","1631064","0.0-6.0-4.64","2902409","co37999","norming","","","","","","",""
"null","../img/tt/1278tt.jpg","null","mooney2","image-keyboard-response","459","1633067","0.0-6.0-5.64","2902409","co37999","norming","","","","","","",""
"5368.529999999795","","","post_reveal_questions","survey-likert","460","1638438","0.0-6.0-6.64","2902409","co37999","norming","","","{""aha"":2}","[0]","../img/tt/1278tt.jpg","",""
"null","<div style=""font-size:60px;""> </div>","null","fixation","html-keyboard-response","461","1638639","0.0-6.0-0.65","2902409","co37999","norming","","","","","","",""
"null","../img/tt/319tt.jpg","null","mooney1","image-keyboard-response","462","1641642","0.0-6.0-1.65","2902409","co37999","norming","","","","","","",""
"5688.835000000894","","","post_mooney1_questions","survey-likert","463","1647335","0.0-6.0-2.65","2902409","co37999","norming","","","{""curiosity"":2,""confidence"":1}","[0,1]","../img/tt/319tt.jpg","",""
"3861.899999999907","","","recognition","survey-text","464","1651198","0.0-6.0-3.65","2902409","co37999","norming","","","{""guess"":""koeien""}","","../img/tt/319tt.jpg","",""
"null","../img/gs/319gs.jpg","null","reveal","image-keyboard-response","465","1653200","0.0-6.0-4.65","2902409","co37999","norming","","","","","","",""
"null","../img/tt/319tt.jpg","null","mooney2","image-keyboard-response","466","1655203","0.0-6.0-5.65","2902409","co37999","norming","","","","","","",""
"3072.6950000007637","","","post_reveal_questions","survey-likert","467","1658278","0.0-6.0-6.65","2902409","co37999","norming","","","{""aha"":2}","[0]","../img/tt/319tt.jpg","",""
"null","<div style=""font-size:60px;""> </div>","null","fixation","html-keyboard-response","468","1658479","0.0-6.0-0.66","2902409","co37999","norming","","","","","","",""
"null","../img/tt/405tt.jpg","null","mooney1","image-keyboard-response","469","1661484","0.0-6.0-1.66","2902409","co37999","norming","","","","","","",""
"4423.254999999655","","","post_mooney1_questions","survey-likert","470","1665911","0.0-6.0-2.66","2902409","co37999","norming","","","{""curiosity"":4,""confidence"":3}","[0,1]","../img/tt/405tt.jpg","",""
"2790.184999999823","","","recognition","survey-text","471","1668702","0.0-6.0-3.66","2902409","co37999","norming","","","{""guess"":""koala""}","","../img/tt/405tt.jpg","",""
"null","../img/gs/405gs.jpg","null","reveal","image-keyboard-response","472","1670704","0.0-6.0-4.66","2902409","co37999","norming","","","","","","",""
"null","../img/tt/405tt.jpg","null","mooney2","image-keyboard-response","473","1672708","0.0-6.0-5.66","2902409","co37999","norming","","","","","","",""
"3135.140000000363","","","post_reveal_questions","survey-likert","474","1675846","0.0-6.0-6.66","2902409","co37999","norming","","","{""aha"":2}","[0]","../img/tt/405tt.jpg","",""
"null","<div style=""font-size:60px;""> </div>","null","fixation","html-keyboard-response","475","1676048","0.0-6.0-0.67","2902409","co37999","norming","","","","","","",""
"null","../img/tt/378tt.jpg","null","mooney1","image-keyboard-response","476","1679052","0.0-6.0-1.67","2902409","co37999","norming","","","","","","",""
"5647.2149999991525","","","post_mooney1_questions","survey-likert","477","1684703","0.0-6.0-2.67","2902409","co37999","norming","","","{""curiosity"":2,""confidence"":4}","[0,1]","../img/tt/378tt.jpg","",""
"4302.079999999609","","","recognition","survey-text","478","1689006","0.0-6.0-3.67","2902409","co37999","norming","","","{""guess"":""gebogen man""}","","../img/tt/378tt.jpg","",""
"null","../img/gs/378gs.jpg","null","reveal","image-keyboard-response","479","1691008","0.0-6.0-4.67","2902409","co37999","norming","","","","","","",""
"null","../img/tt/378tt.jpg","null","mooney2","image-keyboard-response","480","1693014","0.0-6.0-5.67","2902409","co37999","norming","","","","","","",""
"4685.6349999997765","","","post_reveal_questions","survey-likert","481","1697702","0.0-6.0-6.67","2902409","co37999","norming","","","{""aha"":5}","[0]","../img/tt/378tt.jpg","",""
"null","<div style=""font-size:60px;""> </div>","null","fixation","html-keyboard-response","482","1697905","0.0-6.0-0.68","2902409","co37999","norming","","","","","","",""
"null","../img/tt/046tt.jpg","null","mooney1","image-keyboard-response","483","1700907","0.0-6.0-1.68","2902409","co37999","norming","","","","","","",""
"6455.400000000838","","","post_mooney1_questions","survey-likert","484","1707366","0.0-6.0-2.68","2902409","co37999","norming","","","{""curiosity"":4,""confidence"":2}","[0,1]","../img/tt/046tt.jpg","",""
"2166.165000000503","","","recognition","survey-text","485","1709534","0.0-6.0-3.68","2902409","co37999","norming","","","{""guess"":""hond""}","","../img/tt/046tt.jpg","",""
"null","../img/gs/046gs.jpg","null","reveal","image-keyboard-response","486","1711535","0.0-6.0-4.68","2902409","co37999","norming","","","","","","",""
"null","../img/tt/046tt.jpg","null","mooney2","image-keyboard-response","487","1713537","0.0-6.0-5.68","2902409","co37999","norming","","","","","","",""
"2163.990000000922","","","post_reveal_questions","survey-likert","488","1715702","0.0-6.0-6.68","2902409","co37999","norming","","","{""aha"":2}","[0]","../img/tt/046tt.jpg","",""
"null","<div style=""font-size:60px;""> </div>","null","fixation","html-keyboard-response","489","1715904","0.0-6.0-0.69","2902409","co37999","norming","","","","","","",""
"null","../img/tt/318tt.jpg","null","mooney1","image-keyboard-response","490","1718907","0.0-6.0-1.69","2902409","co37999","norming","","","","","","",""
"4624.064999999944","","","post_mooney1_questions","survey-likert","491","1723534","0.0-6.0-2.69","2902409","co37999","norming","","","{""curiosity"":2,""confidence"":3}","[0,1]","../img/tt/318tt.jpg","",""
"2621.984999999637","","","recognition","survey-text","492","1726158","0.0-6.0-3.69","2902409","co37999","norming","","","{""guess"":""auto""}","","../img/tt/318tt.jpg","",""
"null","../img/gs/318gs.jpg","null","reveal","image-keyboard-response","493","1728159","0.0-6.0-4.69","2902409","co37999","norming","","","","","","",""
"null","../img/tt/318tt.jpg","null","mooney2","image-keyboard-response","494","1730162","0.0-6.0-5.69","2902409","co37999","norming","","","","","","",""
"3849.4900000004563","","","post_reveal_questions","survey-likert","495","1734014","0.0-6.0-6.69","2902409","co37999","norming","","","{""aha"":0}","[0]","../img/tt/318tt.jpg","",""
"null","<div style=""font-size:60px;""> </div>","null","fixation","html-keyboard-response","496","1734216","0.0-6.0-0.70","2902409","co37999","norming","","","","","","",""
"null","../img/tt/1254tt.jpg","null","mooney1","image-keyboard-response","497","1737219","0.0-6.0-1.70","2902409","co37999","norming","","","","","","",""
"5423.445000000531","","","post_mooney1_questions","survey-likert","498","1742646","0.0-6.0-2.70","2902409","co37999","norming","","","{""curiosity"":2,""confidence"":3}","[0,1]","../img/tt/1254tt.jpg","",""
"2630.054999999702","","","recognition","survey-text","499","1745278","0.0-6.0-3.70","2902409","co37999","norming","","","{""guess"":""ezel""}","","../img/tt/1254tt.jpg","",""
"null","../img/gs/1254gs.jpg","null","reveal","image-keyboard-response","500","1747280","0.0-6.0-4.70","2902409","co37999","norming","","","","","","",""
"null","../img/tt/1254tt.jpg","null","mooney2","image-keyboard-response","501","1749282","0.0-6.0-5.70","2902409","co37999","norming","","","","","","",""
"4289.49500000081","","","post_reveal_questions","survey-likert","502","1753574","0.0-6.0-6.70","2902409","co37999","norming","","","{""aha"":5}","[0]","../img/tt/1254tt.jpg","",""
"null","<div style=""font-size:60px;""> </div>","null","fixation","html-keyboard-response","503","1753776","0.0-6.0-0.71","2902409","co37999","norming","","","","","","",""
"null","../img/tt/1262tt.jpg","null","mooney1","image-keyboard-response","504","1756781","0.0-6.0-1.71","2902409","co37999","norming","","","","","","",""
"4389.675000000279","","","post_mooney1_questions","survey-likert","505","1761174","0.0-6.0-2.71","2902409","co37999","norming","","","{""curiosity"":2,""confidence"":1}","[0,1]","../img/tt/1262tt.jpg","",""
"4342.160000000149","","","recognition","survey-text","506","1765518","0.0-6.0-3.71","2902409","co37999","norming","","","{""guess"":""papegaai""}","","../img/tt/1262tt.jpg","",""
"null","../img/gs/1262gs.jpg","null","reveal","image-keyboard-response","507","1767520","0.0-6.0-4.71","2902409","co37999","norming","","","","","","",""
"null","../img/tt/1262tt.jpg","null","mooney2","image-keyboard-response","508","1769522","0.0-6.0-5.71","2902409","co37999","norming","","","","","","",""
"2728.969999999972","","","post_reveal_questions","survey-likert","509","1772254","0.0-6.0-6.71","2902409","co37999","norming","","","{""aha"":4}","[0]","../img/tt/1262tt.jpg","",""
"null","<div style=""font-size:60px;""> </div>","null","fixation","html-keyboard-response","510","1772456","0.0-6.0-0.72","2902409","co37999","norming","","","","","","",""
"null","../img/tt/123tt.jpg","null","mooney1","image-keyboard-response","511","1775459","0.0-6.0-1.72","2902409","co37999","norming","","","","","","",""
"5159.569999999832","","","post_mooney1_questions","survey-likert","512","1780622","0.0-6.0-2.72","2902409","co37999","norming","","","{""curiosity"":2,""confidence"":0}","[0,1]","../img/tt/123tt.jpg","",""
"773.9749999998603","","","recognition","survey-text","513","1781398","0.0-6.0-3.72","2902409","co37999","norming","","","{""guess"":""""}","","../img/tt/123tt.jpg","",""
"null","../img/gs/123gs.jpg","null","reveal","image-keyboard-response","514","1783400","0.0-6.0-4.72","2902409","co37999","norming","","","","","","",""
"null","../img/tt/123tt.jpg","null","mooney2","image-keyboard-response","515","1785401","0.0-6.0-5.72","2902409","co37999","norming","","","","","","",""
"2001.7950000001583","","","post_reveal_questions","survey-likert","516","1787406","0.0-6.0-6.72","2902409","co37999","norming","","","{""aha"":2}","[0]","../img/tt/123tt.jpg","",""
"null","<div style=""font-size:60px;""> </div>","null","fixation","html-keyboard-response","517","1787608","0.0-6.0-0.73","2902409","co37999","norming","","","","","","",""
"null","../img/tt/1146tt.jpg","null","mooney1","image-keyboard-response","518","1790613","0.0-6.0-1.73","2902409","co37999","norming","","","","","","",""
"6256.240000000689","","","post_mooney1_questions","survey-likert","519","1796870","0.0-6.0-2.73","2902409","co37999","norming","","","{""curiosity"":4,""confidence"":2}","[0,1]","../img/tt/1146tt.jpg","",""
"3414.1950000012293","","","recognition","survey-text","520","1800286","0.0-6.0-3.73","2902409","co37999","norming","","","{""guess"":""vrouw""}","","../img/tt/1146tt.jpg","",""
"null","../img/gs/1146gs.jpg","null","reveal","image-keyboard-response","521","1802287","0.0-6.0-4.73","2902409","co37999","norming","","","","","","",""
"null","../img/tt/1146tt.jpg","null","mooney2","image-keyboard-response","522","1804289","0.0-6.0-5.73","2902409","co37999","norming","","","","","","",""
"3065.94000000041","","","post_reveal_questions","survey-likert","523","1807358","0.0-6.0-6.73","2902409","co37999","norming","","","{""aha"":6}","[0]","../img/tt/1146tt.jpg","",""
"null","<div style=""font-size:60px;""> </div>","null","fixation","html-keyboard-response","524","1807561","0.0-6.0-0.74","2902409","co37999","norming","","","","","","",""
"null","../img/tt/085tt.jpg","null","mooney1","image-keyboard-response","525","1810564","0.0-6.0-1.74","2902409","co37999","norming","","","","","","",""
"4510.505000000121","","","post_mooney1_questions","survey-likert","526","1815078","0.0-6.0-2.74","2902409","co37999","norming","","","{""curiosity"":3,""confidence"":3}","[0,1]","../img/tt/085tt.jpg","",""
"5094.225000000792","","","recognition","survey-text","527","1820174","0.0-6.0-3.74","2902409","co37999","norming","","","{""guess"":""sprinkhaan""}","","../img/tt/085tt.jpg","",""
"null","../img/gs/085gs.jpg","null","reveal","image-keyboard-response","528","1822175","0.0-6.0-4.74","2902409","co37999","norming","","","","","","",""
"null","../img/tt/085tt.jpg","null","mooney2","image-keyboard-response","529","1824177","0.0-6.0-5.74","2902409","co37999","norming","","","","","","",""
"3562.3149999992456","","","post_reveal_questions","survey-likert","530","1827742","0.0-6.0-6.74","2902409","co37999","norming","","","{""aha"":3}","[0]","../img/tt/085tt.jpg","",""
"null","<div style=""font-size:60px;""> </div>","null","fixation","html-keyboard-response","531","1827944","0.0-6.0-0.75","2902409","co37999","norming","","","","","","",""
"null","../img/tt/222tt.jpg","null","mooney1","image-keyboard-response","532","1830946","0.0-6.0-1.75","2902409","co37999","norming","","","","","","",""
"4120.43999999878","","","post_mooney1_questions","survey-likert","533","1835071","0.0-6.0-2.75","2902409","co37999","norming","","","{""curiosity"":2,""confidence"":0}","[0,1]","../img/tt/222tt.jpg","",""
"710.035000000149","","","recognition","survey-text","534","1835782","0.0-6.0-3.75","2902409","co37999","norming","","","{""guess"":""""}","","../img/tt/222tt.jpg","",""
"null","../img/gs/222gs.jpg","null","reveal","image-keyboard-response","535","1837784","0.0-6.0-4.75","2902409","co37999","norming","","","","","","",""
"null","../img/tt/222tt.jpg","null","mooney2","image-keyboard-response","536","1839788","0.0-6.0-5.75","2902409","co37999","norming","","","","","","",""
"2591.3399999991525","","","post_reveal_questions","survey-likert","537","1842382","0.0-6.0-6.75","2902409","co37999","norming","","","{""aha"":5}","[0]","../img/tt/222tt.jpg","",""
"null","<div style=""font-size:60px;""> </div>","null","fixation","html-keyboard-response","538","1842583","0.0-6.0-0.76","2902409","co37999","norming","","","","","","",""
"null","../img/tt/1156tt.jpg","null","mooney1","image-keyboard-response","539","1845587","0.0-6.0-1.76","2902409","co37999","norming","","","","","","",""
"7120.235000000102","","","post_mooney1_questions","survey-likert","540","1852711","0.0-6.0-2.76","2902409","co37999","norming","","","{""curiosity"":1,""confidence"":0}","[0,1]","../img/tt/1156tt.jpg","",""
"997.9849999998696","","","recognition","survey-text","541","1853710","0.0-6.0-3.76","2902409","co37999","norming","","","{""guess"":""""}","","../img/tt/1156tt.jpg","",""
"null","../img/gs/1156gs.jpg","null","reveal","image-keyboard-response","542","1855713","0.0-6.0-4.76","2902409","co37999","norming","","","","","","",""
"null","../img/tt/1156tt.jpg","null","mooney2","image-keyboard-response","543","1857714","0.0-6.0-5.76","2902409","co37999","norming","","","","","","",""
"4169.280000000028","","","post_reveal_questions","survey-likert","544","1861886","0.0-6.0-6.76","2902409","co37999","norming","","","{""aha"":3}","[0]","../img/tt/1156tt.jpg","",""
"null","<div style=""font-size:60px;""> </div>","null","fixation","html-keyboard-response","545","1862088","0.0-6.0-0.77","2902409","co37999","norming","","","","","","",""
"null","../img/tt/456tt.jpg","null","mooney1","image-keyboard-response","546","1865091","0.0-6.0-1.77","2902409","co37999","norming","","","","","","",""
"5727.419999999227","","","post_mooney1_questions","survey-likert","547","1870822","0.0-6.0-2.77","2902409","co37999","norming","","","{""curiosity"":2,""confidence"":3}","[0,1]","../img/tt/456tt.jpg","",""
"2150.1850000005215","","","recognition","survey-text","548","1872974","0.0-6.0-3.77","2902409","co37999","norming","","","{""guess"":""hond""}","","../img/tt/456tt.jpg","",""
"null","../img/gs/456gs.jpg","null","reveal","image-keyboard-response","549","1874976","0.0-6.0-4.77","2902409","co37999","norming","","","","","","",""
"null","../img/tt/456tt.jpg","null","mooney2","image-keyboard-response","550","1876978","0.0-6.0-5.77","2902409","co37999","norming","","","","","","",""
"2841.7150000005495","","","post_reveal_questions","survey-likert","551","1879822","0.0-6.0-6.77","2902409","co37999","norming","","","{""aha"":3}","[0]","../img/tt/456tt.jpg","",""
"null","<div style=""font-size:60px;""> </div>","null","fixation","html-keyboard-response","552","1880023","0.0-6.0-0.78","2902409","co37999","norming","","","","","","",""
