"rt","stimulus","key_press","test_part","trial_type","trial_index","time_elapsed","internal_node_id","totalTime","subject","experiment_name","button_pressed","success","responses","question_order","currentStim","old","correct"
"8432.519999999386","Welcome to the experiment. This is an online experiment so please don't close the tab/window until we say goodbye.  Press any key to begin.","77","instructions","html-keyboard-response","0","8447","0.0-0.0","2941583","co37795","norming","","","","","","",""
"42968.8900000001","<div style='word-wrap: break-word; width: 900px'><h3>Please consider this information carefully before deciding whether to participate in this research</h3><ul style='text-align: left; font-size: .8em;'><li><b>Purpose of the research</b>: To examine how people process images.</li><li><b>What you will do in this research</b>:  Stimuli (images) will be presented on the computer and you will be asked different questions about them.</li><li><b>Time required</b>: Participation will take between 45 and 60 minutes to complete.</li><li><b>Risks</b>:  There are no anticipated risks associated with participating in this study. The effects of participating should be comparable to those you would experience from viewing a computer monitor for 30 minutes and using a mouse or keyboard.</li><li><b>Benefits</b>:  This study provides no benefits to you individually except for the credit. The study provides important information about the nature of perception and learning.</li><li><b>Confidentiality</b>:  Your participation in this study will remain confidential. No personally identifiable information will be associated with your data. Your de-identified data may be shared with other researchers and used in future projects.</li><li><b>Participation and withdrawal</b>:  Your participation in this study is completely voluntary and you may refuse to participate or you may choose to withdraw at any time without penalty.</li><li><b>How to contact the researchers</b>: If you have questions or concerns about your participation or payment, or want to request a summary of research findings, please contact Sander Van de Cruys (KU Leuven), at sander.vandecruys@kuleuven.be.</li></ul><p>The nature and purpose of this research have been sufficiently explained and I agree to participate in this study.  I understand that I am free to withdraw at any time without incurring any penalty.</p><p>Please consent by clicking the button below to continue. Otherwise, please exit the study at this time.</p></div>","","instructions","html-button-response","1","51413","0.0-1.0","2941583","co37795","norming","0","","","","","",""
"","","","instructions","fullscreen","2","55454","0.0-2.0","2941583","co37795","norming","","true","","","","",""
"53883.295000000544","","","sona","survey-html-form","3","109344","0.0-3.0","2941583","co37795","norming","","","[{""name"":""sonaid"",""value"":""37795""},{""name"":""debrief"",""value"":""no""},{""name"":""datajoin"",""value"":""yes""}]","","","",""
"69156.19500000047","<div style='word-wrap: break-word; width: 900px'><h3>Instructions</h3><p>This experiment will have 3 parts. In the first part you will see a series of distorted images like the one below on the left. As you can see in the righthand image, the distorted images are derived from actual photographs. In what follows, you will <strong>briefly</strong> be presented with <strong>only</strong> the distorted image.</p> <div style='float: left; margin-right: 20px;'><img src='../img/018tt.jpg' height='250' width='250'></img></div><div style='float: right; margin-left: 20px;'><img src='../img/018gs.jpg' height='250' width='250'></img></div><p>Subsequently you will be asked a few questions about the image: One question on how <strong>curious</strong> you are about the solution and one on how <strong>confident</strong> you are that you know the solution.</p>Next, we ask you to make a guess on what is in the image. Note that it is OK to name just the <strong>basic level category</strong>. For example when you see a parrot in the image, 'parrot' will obviously be a correct answer but also correct is 'bird'. However, 'animal' will <strong>not</strong> be counted as a correct response. For the example above, 'rose' would be correct or 'flower', but not 'plant'. When soccer players are depicted, 'soccer', 'football', 'soccer players' will be correct, but not 'humans', 'outdoors', or 'sports'. You do not need to describe the image in full, just name the main object in it <strong>in one or two words</strong>. All images depict objects from one of the following broad level categories: animals, inanimate objects, plants, sports, vehicles, and food. Recognizing means knowing <strong>more</strong> than these broad labels for a given image. But we always encourage you to <strong>make a guess</strong> if you can. Note that you are allowed to use <strong>Dutch and English</strong> in your answers, whatever comes easiest for you.</p><p>Press any key to continue.</p></div>","32","instructions","html-keyboard-response","4","178504","0.0-4.0","2941583","co37795","norming","","","","","","",""
"98222.52500000014","<div style='word-wrap: break-word; width: 900px'><h3>Instructions</h3> <p>Next, the solution image will be revealed to you and you'll be asked to indicate how strong your <strong>aha-experience</strong> was after seeing the solution. This describes the positive feeling of the 'click' you sometimes experience, when the pieces of the 'puzzle' fall together and you suddenly have 'insight' in the image.</p><img src='aha.jpg' height='188' width='250'></img><p>Note that there are no right or wrong answers. We are interested in what <strong>you</strong> see in the image and how <strong>you</strong> feel about it.</p><p>Press any key to start the experiment.</p></div>","32","instructions","html-keyboard-response","5","276733","0.0-5.0","2941583","co37795","norming","","","","","","",""
"null","<div style=""font-size:60px;""> </div>","null","fixation","html-keyboard-response","6","276935","0.0-6.0-0.0","2941583","co37795","norming","","","","","","",""
"null","../img/tt/481tt.jpg","null","mooney1","image-keyboard-response","7","279939","0.0-6.0-1.0","2941583","co37795","norming","","","","","","",""
"8438.769999999786","","","post_mooney1_questions","survey-likert","8","288380","0.0-6.0-2.0","2941583","co37795","norming","","","{""curiosity"":4,""confidence"":6}","[0,1]","../img/tt/481tt.jpg","",""
"4197.535000000265","","","recognition","survey-text","9","292579","0.0-6.0-3.0","2941583","co37795","norming","","","{""guess"":""dog""}","","../img/tt/481tt.jpg","",""
"null","../img/gs/481gs.jpg","null","reveal","image-keyboard-response","10","294586","0.0-6.0-4.0","2941583","co37795","norming","","","","","","",""
"null","../img/tt/481tt.jpg","null","mooney2","image-keyboard-response","11","296596","0.0-6.0-5.0","2941583","co37795","norming","","","","","","",""
"3492.6099999993457","","","post_reveal_questions","survey-likert","12","300091","0.0-6.0-6.0","2941583","co37795","norming","","","{""aha"":4}","[0]","../img/tt/481tt.jpg","",""
"null","<div style=""font-size:60px;""> </div>","null","fixation","html-keyboard-response","13","300302","0.0-6.0-0.1","2941583","co37795","norming","","","","","","",""
"null","../img/tt/056tt.jpg","null","mooney1","image-keyboard-response","14","303310","0.0-6.0-1.1","2941583","co37795","norming","","","","","","",""
"8819.050000000047","","","post_mooney1_questions","survey-likert","15","312132","0.0-6.0-2.1","2941583","co37795","norming","","","{""curiosity"":6,""confidence"":1}","[0,1]","../img/tt/056tt.jpg","",""
"12318.005000000063","","","recognition","survey-text","16","324451","0.0-6.0-3.1","2941583","co37795","norming","","","{""guess"":""statue?""}","","../img/tt/056tt.jpg","",""
"null","../img/gs/056gs.jpg","null","reveal","image-keyboard-response","17","326458","0.0-6.0-4.1","2941583","co37795","norming","","","","","","",""
"null","../img/tt/056tt.jpg","null","mooney2","image-keyboard-response","18","328467","0.0-6.0-5.1","2941583","co37795","norming","","","","","","",""
"1597.9200000001583","","","post_reveal_questions","survey-likert","19","330067","0.0-6.0-6.1","2941583","co37795","norming","","","{""aha"":4}","[0]","../img/tt/056tt.jpg","",""
"null","<div style=""font-size:60px;""> </div>","null","fixation","html-keyboard-response","20","330270","0.0-6.0-0.2","2941583","co37795","norming","","","","","","",""
"null","../img/tt/076tt.jpg","null","mooney1","image-keyboard-response","21","333281","0.0-6.0-1.2","2941583","co37795","norming","","","","","","",""
"5599.514999999898","","","post_mooney1_questions","survey-likert","22","338882","0.0-6.0-2.2","2941583","co37795","norming","","","{""curiosity"":2,""confidence"":5}","[0,1]","../img/tt/076tt.jpg","",""
"4870.25499999983","","","recognition","survey-text","23","343753","0.0-6.0-3.2","2941583","co37795","norming","","","{""guess"":""rolschaatsen""}","","../img/tt/076tt.jpg","",""
"null","../img/gs/076gs.jpg","null","reveal","image-keyboard-response","24","345758","0.0-6.0-4.2","2941583","co37795","norming","","","","","","",""
"null","../img/tt/076tt.jpg","null","mooney2","image-keyboard-response","25","347766","0.0-6.0-5.2","2941583","co37795","norming","","","","","","",""
"3360.719999999681","","","post_reveal_questions","survey-likert","26","351129","0.0-6.0-6.2","2941583","co37795","norming","","","{""aha"":0}","[0]","../img/tt/076tt.jpg","",""
"null","<div style=""font-size:60px;""> </div>","null","fixation","html-keyboard-response","27","351338","0.0-6.0-0.3","2941583","co37795","norming","","","","","","",""
"null","../img/tt/118tt.jpg","null","mooney1","image-keyboard-response","28","354349","0.0-6.0-1.3","2941583","co37795","norming","","","","","","",""
"10018.155000000668","","","post_mooney1_questions","survey-likert","29","364370","0.0-6.0-2.3","2941583","co37795","norming","","","{""curiosity"":5,""confidence"":3}","[0,1]","../img/tt/118tt.jpg","",""
"4405.825000000768","","","recognition","survey-text","30","368777","0.0-6.0-3.3","2941583","co37795","norming","","","{""guess"":""staircase""}","","../img/tt/118tt.jpg","",""
"null","../img/gs/118gs.jpg","null","reveal","image-keyboard-response","31","370782","0.0-6.0-4.3","2941583","co37795","norming","","","","","","",""
"null","../img/tt/118tt.jpg","null","mooney2","image-keyboard-response","32","372787","0.0-6.0-5.3","2941583","co37795","norming","","","","","","",""
"9988.035000000324","","","post_reveal_questions","survey-likert","33","382778","0.0-6.0-6.3","2941583","co37795","norming","","","{""aha"":4}","[0]","../img/tt/118tt.jpg","",""
"null","<div style=""font-size:60px;""> </div>","null","fixation","html-keyboard-response","34","382980","0.0-6.0-0.4","2941583","co37795","norming","","","","","","",""
"null","../img/tt/1070tt.jpg","null","mooney1","image-keyboard-response","35","385986","0.0-6.0-1.4","2941583","co37795","norming","","","","","","",""
"6388.949999999604","","","post_mooney1_questions","survey-likert","36","392378","0.0-6.0-2.4","2941583","co37795","norming","","","{""curiosity"":2,""confidence"":6}","[0,1]","../img/tt/1070tt.jpg","",""
"9557.79999999958","","","recognition","survey-text","37","401933","0.0-6.0-3.4","2941583","co37795","norming","","","{""guess"":""piece of cake""}","","../img/tt/1070tt.jpg","",""
"null","../img/gs/1070gs.jpg","null","reveal","image-keyboard-response","38","403939","0.0-6.0-4.4","2941583","co37795","norming","","","","","","",""
"null","../img/tt/1070tt.jpg","null","mooney2","image-keyboard-response","39","405944","0.0-6.0-5.4","2941583","co37795","norming","","","","","","",""
"2828.109999999462","","","post_reveal_questions","survey-likert","40","408774","0.0-6.0-6.4","2941583","co37795","norming","","","{""aha"":0}","[0]","../img/tt/1070tt.jpg","",""
"null","<div style=""font-size:60px;""> </div>","null","fixation","html-keyboard-response","41","408983","0.0-6.0-0.5","2941583","co37795","norming","","","","","","",""
"null","../img/tt/456tt.jpg","null","mooney1","image-keyboard-response","42","411986","0.0-6.0-1.5","2941583","co37795","norming","","","","","","",""
"15625.449999999546","","","post_mooney1_questions","survey-likert","43","427614","0.0-6.0-2.5","2941583","co37795","norming","","","{""curiosity"":5,""confidence"":1}","[0,1]","../img/tt/456tt.jpg","",""
"4317.979999999807","","","recognition","survey-text","44","431933","0.0-6.0-3.5","2941583","co37795","norming","","","{""guess"":""""}","","../img/tt/456tt.jpg","",""
"null","../img/gs/456gs.jpg","null","reveal","image-keyboard-response","45","433935","0.0-6.0-4.5","2941583","co37795","norming","","","","","","",""
"null","../img/tt/456tt.jpg","null","mooney2","image-keyboard-response","46","435944","0.0-6.0-5.5","2941583","co37795","norming","","","","","","",""
"2483.7149999993853","","","post_reveal_questions","survey-likert","47","438430","0.0-6.0-6.5","2941583","co37795","norming","","","{""aha"":3}","[0]","../img/tt/456tt.jpg","",""
"null","<div style=""font-size:60px;""> </div>","null","fixation","html-keyboard-response","48","438633","0.0-6.0-0.6","2941583","co37795","norming","","","","","","",""
"null","../img/tt/1072tt.jpg","null","mooney1","image-keyboard-response","49","441641","0.0-6.0-1.6","2941583","co37795","norming","","","","","","",""
"5266.134999999835","","","post_mooney1_questions","survey-likert","50","446910","0.0-6.0-2.6","2941583","co37795","norming","","","{""curiosity"":4,""confidence"":4}","[0,1]","../img/tt/1072tt.jpg","",""
"11670.114999999932","","","recognition","survey-text","51","458594","0.0-6.0-3.6","2941583","co37795","norming","","","{""guess"":""bank (zitten)""}","","../img/tt/1072tt.jpg","",""
"null","../img/gs/1072gs.jpg","null","reveal","image-keyboard-response","52","460604","0.0-6.0-4.6","2941583","co37795","norming","","","","","","",""
"null","../img/tt/1072tt.jpg","null","mooney2","image-keyboard-response","53","462607","0.0-6.0-5.6","2941583","co37795","norming","","","","","","",""
"2736.6999999994878","","","post_reveal_questions","survey-likert","54","465346","0.0-6.0-6.6","2941583","co37795","norming","","","{""aha"":6}","[0]","../img/tt/1072tt.jpg","",""
"null","<div style=""font-size:60px;""> </div>","null","fixation","html-keyboard-response","55","465551","0.0-6.0-0.7","2941583","co37795","norming","","","","","","",""
"null","../img/tt/1228tt.jpg","null","mooney1","image-keyboard-response","56","468559","0.0-6.0-1.7","2941583","co37795","norming","","","","","","",""
"5704.719999999681","","","post_mooney1_questions","survey-likert","57","474266","0.0-6.0-2.7","2941583","co37795","norming","","","{""curiosity"":5,""confidence"":2}","[0,1]","../img/tt/1228tt.jpg","",""
"3622.0399999992806","","","recognition","survey-text","58","477890","0.0-6.0-3.7","2941583","co37795","norming","","","{""guess"":""bird""}","","../img/tt/1228tt.jpg","",""
"null","../img/gs/1228gs.jpg","null","reveal","image-keyboard-response","59","479896","0.0-6.0-4.7","2941583","co37795","norming","","","","","","",""
"null","../img/tt/1228tt.jpg","null","mooney2","image-keyboard-response","60","481902","0.0-6.0-5.7","2941583","co37795","norming","","","","","","",""
"5691.004999999714","","","post_reveal_questions","survey-likert","61","487594","0.0-6.0-6.7","2941583","co37795","norming","","","{""aha"":5}","[0]","../img/tt/1228tt.jpg","",""
"null","<div style=""font-size:60px;""> </div>","null","fixation","html-keyboard-response","62","487805","0.0-6.0-0.8","2941583","co37795","norming","","","","","","",""
"null","../img/tt/1237tt.jpg","null","mooney1","image-keyboard-response","63","490807","0.0-6.0-1.8","2941583","co37795","norming","","","","","","",""
"4143.874999999767","","","post_mooney1_questions","survey-likert","64","494954","0.0-6.0-2.8","2941583","co37795","norming","","","{""curiosity"":4,""confidence"":5}","[0,1]","../img/tt/1237tt.jpg","",""
"9901.969999999914","","","recognition","survey-text","65","504858","0.0-6.0-3.8","2941583","co37795","norming","","","{""guess"":""vijver  -lelieblad""}","","../img/tt/1237tt.jpg","",""
"null","../img/gs/1237gs.jpg","null","reveal","image-keyboard-response","66","506868","0.0-6.0-4.8","2941583","co37795","norming","","","","","","",""
"null","../img/tt/1237tt.jpg","null","mooney2","image-keyboard-response","67","508871","0.0-6.0-5.8","2941583","co37795","norming","","","","","","",""
"4479.6399999996065","","","post_reveal_questions","survey-likert","68","513354","0.0-6.0-6.8","2941583","co37795","norming","","","{""aha"":5}","[0]","../img/tt/1237tt.jpg","",""
"null","<div style=""font-size:60px;""> </div>","null","fixation","html-keyboard-response","69","513564","0.0-6.0-0.9","2941583","co37795","norming","","","","","","",""
"null","../img/tt/1053tt.jpg","null","mooney1","image-keyboard-response","70","516575","0.0-6.0-1.9","2941583","co37795","norming","","","","","","",""
"6344.779999999446","","","post_mooney1_questions","survey-likert","71","522924","0.0-6.0-2.9","2941583","co37795","norming","","","{""curiosity"":5,""confidence"":6}","[0,1]","../img/tt/1053tt.jpg","",""
"6317.924999999348","","","recognition","survey-text","72","529244","0.0-6.0-3.9","2941583","co37795","norming","","","{""guess"":""2 koeën""}","","../img/tt/1053tt.jpg","",""
"null","../img/gs/1053gs.jpg","null","reveal","image-keyboard-response","73","531254","0.0-6.0-4.9","2941583","co37795","norming","","","","","","",""
"null","../img/tt/1053tt.jpg","null","mooney2","image-keyboard-response","74","533258","0.0-6.0-5.9","2941583","co37795","norming","","","","","","",""
"1692.5650000002934","","","post_reveal_questions","survey-likert","75","534956","0.0-6.0-6.9","2941583","co37795","norming","","","{""aha"":0}","[0]","../img/tt/1053tt.jpg","",""
"null","<div style=""font-size:60px;""> </div>","null","fixation","html-keyboard-response","76","535160","0.0-6.0-0.10","2941583","co37795","norming","","","","","","",""
"null","../img/tt/1091tt.jpg","null","mooney1","image-keyboard-response","77","538162","0.0-6.0-1.10","2941583","co37795","norming","","","","","","",""
"6823.494999999646","","","post_mooney1_questions","survey-likert","78","544988","0.0-6.0-2.10","2941583","co37795","norming","","","{""curiosity"":1,""confidence"":6}","[0,1]","../img/tt/1091tt.jpg","",""
"3917.984999999986","","","recognition","survey-text","79","548908","0.0-6.0-3.10","2941583","co37795","norming","","","{""guess"":""paard in wei""}","","../img/tt/1091tt.jpg","",""
"null","../img/gs/1091gs.jpg","null","reveal","image-keyboard-response","80","550912","0.0-6.0-4.10","2941583","co37795","norming","","","","","","",""
"null","../img/tt/1091tt.jpg","null","mooney2","image-keyboard-response","81","552922","0.0-6.0-5.10","2941583","co37795","norming","","","","","","",""
"2543.1049999997485","","","post_reveal_questions","survey-likert","82","555468","0.0-6.0-6.10","2941583","co37795","norming","","","{""aha"":0}","[0]","../img/tt/1091tt.jpg","",""
"null","<div style=""font-size:60px;""> </div>","null","fixation","html-keyboard-response","83","555673","0.0-6.0-0.11","2941583","co37795","norming","","","","","","",""
"null","../img/tt/534tt.jpg","null","mooney1","image-keyboard-response","84","558678","0.0-6.0-1.11","2941583","co37795","norming","","","","","","",""
"4037.3300000000745","","","post_mooney1_questions","survey-likert","85","562718","0.0-6.0-2.11","2941583","co37795","norming","","","{""curiosity"":4,""confidence"":4}","[0,1]","../img/tt/534tt.jpg","",""
"2811.8450000000885","","","recognition","survey-text","86","565531","0.0-6.0-3.11","2941583","co37795","norming","","","{""guess"":""gieter""}","","../img/tt/534tt.jpg","",""
"null","../img/gs/534gs.jpg","null","reveal","image-keyboard-response","87","567534","0.0-6.0-4.11","2941583","co37795","norming","","","","","","",""
"null","../img/tt/534tt.jpg","null","mooney2","image-keyboard-response","88","569537","0.0-6.0-5.11","2941583","co37795","norming","","","","","","",""
"1849.0750000000698","","","post_reveal_questions","survey-likert","89","571388","0.0-6.0-6.11","2941583","co37795","norming","","","{""aha"":4}","[0]","../img/tt/534tt.jpg","",""
"null","<div style=""font-size:60px;""> </div>","null","fixation","html-keyboard-response","90","571593","0.0-6.0-0.12","2941583","co37795","norming","","","","","","",""
"null","../img/tt/1122tt.jpg","null","mooney1","image-keyboard-response","91","574596","0.0-6.0-1.12","2941583","co37795","norming","","","","","","",""
"6093.75","","","post_mooney1_questions","survey-likert","92","580694","0.0-6.0-2.12","2941583","co37795","norming","","","{""curiosity"":1,""confidence"":6}","[0,1]","../img/tt/1122tt.jpg","",""
"5533.889999999665","","","recognition","survey-text","93","586230","0.0-6.0-3.12","2941583","co37795","norming","","","{""guess"":""haven - 2 boten""}","","../img/tt/1122tt.jpg","",""
"null","../img/gs/1122gs.jpg","null","reveal","image-keyboard-response","94","588236","0.0-6.0-4.12","2941583","co37795","norming","","","","","","",""
"null","../img/tt/1122tt.jpg","null","mooney2","image-keyboard-response","95","590237","0.0-6.0-5.12","2941583","co37795","norming","","","","","","",""
"2166.960000000545","","","post_reveal_questions","survey-likert","96","592406","0.0-6.0-6.12","2941583","co37795","norming","","","{""aha"":4}","[0]","../img/tt/1122tt.jpg","",""
"null","<div style=""font-size:60px;""> </div>","null","fixation","html-keyboard-response","97","592608","0.0-6.0-0.13","2941583","co37795","norming","","","","","","",""
"null","../img/tt/1175tt.jpg","null","mooney1","image-keyboard-response","98","595611","0.0-6.0-1.13","2941583","co37795","norming","","","","","","",""
"5664.875000000466","","","post_mooney1_questions","survey-likert","99","601278","0.0-6.0-2.13","2941583","co37795","norming","","","{""curiosity"":6,""confidence"":2}","[0,1]","../img/tt/1175tt.jpg","",""
"3094.1750000002794","","","recognition","survey-text","100","604374","0.0-6.0-3.13","2941583","co37795","norming","","","{""guess"":""duikboot""}","","../img/tt/1175tt.jpg","",""
"null","../img/gs/1175gs.jpg","null","reveal","image-keyboard-response","101","606382","0.0-6.0-4.13","2941583","co37795","norming","","","","","","",""
"null","../img/tt/1175tt.jpg","null","mooney2","image-keyboard-response","102","608391","0.0-6.0-5.13","2941583","co37795","norming","","","","","","",""
"1612.9350000000559","","","post_reveal_questions","survey-likert","103","610006","0.0-6.0-6.13","2941583","co37795","norming","","","{""aha"":6}","[0]","../img/tt/1175tt.jpg","",""
"null","<div style=""font-size:60px;""> </div>","null","fixation","html-keyboard-response","104","610212","0.0-6.0-0.14","2941583","co37795","norming","","","","","","",""
"null","../img/tt/442tt.jpg","null","mooney1","image-keyboard-response","105","613215","0.0-6.0-1.14","2941583","co37795","norming","","","","","","",""
"4861.249999999884","","","post_mooney1_questions","survey-likert","106","618078","0.0-6.0-2.14","2941583","co37795","norming","","","{""curiosity"":4,""confidence"":3}","[0,1]","../img/tt/442tt.jpg","",""
"4901.829999999842","","","recognition","survey-text","107","622982","0.0-6.0-3.14","2941583","co37795","norming","","","{""guess"":""sombrero hoed""}","","../img/tt/442tt.jpg","",""
"null","../img/gs/442gs.jpg","null","reveal","image-keyboard-response","108","624987","0.0-6.0-4.14","2941583","co37795","norming","","","","","","",""
"null","../img/tt/442tt.jpg","null","mooney2","image-keyboard-response","109","626998","0.0-6.0-5.14","2941583","co37795","norming","","","","","","",""
"2317.7699999996694","","","post_reveal_questions","survey-likert","110","629318","0.0-6.0-6.14","2941583","co37795","norming","","","{""aha"":5}","[0]","../img/tt/442tt.jpg","",""
"null","<div style=""font-size:60px;""> </div>","null","fixation","html-keyboard-response","111","629521","0.0-6.0-0.15","2941583","co37795","norming","","","","","","",""
"null","../img/tt/1250tt.jpg","null","mooney1","image-keyboard-response","112","632525","0.0-6.0-1.15","2941583","co37795","norming","","","","","","",""
"5246.745000000345","","","post_mooney1_questions","survey-likert","113","637774","0.0-6.0-2.15","2941583","co37795","norming","","","{""curiosity"":5,""confidence"":1}","[0,1]","../img/tt/1250tt.jpg","",""
"6142.034999999916","","","recognition","survey-text","114","643915","0.0-6.0-3.15","2941583","co37795","norming","","","{""guess"":""zadel (paard)""}","","../img/tt/1250tt.jpg","",""
"null","../img/gs/1250gs.jpg","null","reveal","image-keyboard-response","115","645924","0.0-6.0-4.15","2941583","co37795","norming","","","","","","",""
"null","../img/tt/1250tt.jpg","null","mooney2","image-keyboard-response","116","647933","0.0-6.0-5.15","2941583","co37795","norming","","","","","","",""
"2365.130000000121","","","post_reveal_questions","survey-likert","117","650299","0.0-6.0-6.15","2941583","co37795","norming","","","{""aha"":5}","[0]","../img/tt/1250tt.jpg","",""
"null","<div style=""font-size:60px;""> </div>","null","fixation","html-keyboard-response","118","650507","0.0-6.0-0.16","2941583","co37795","norming","","","","","","",""
"null","../img/tt/1066tt.jpg","null","mooney1","image-keyboard-response","119","653511","0.0-6.0-1.16","2941583","co37795","norming","","","","","","",""
"3969.6350000003586","","","post_mooney1_questions","survey-likert","120","657483","0.0-6.0-2.16","2941583","co37795","norming","","","{""curiosity"":5,""confidence"":5}","[0,1]","../img/tt/1066tt.jpg","",""
"3142.0250000001397","","","recognition","survey-text","121","660627","0.0-6.0-3.16","2941583","co37795","norming","","","{""guess"":""stapelbed""}","","../img/tt/1066tt.jpg","",""
"null","../img/gs/1066gs.jpg","null","reveal","image-keyboard-response","122","662630","0.0-6.0-4.16","2941583","co37795","norming","","","","","","",""
"null","../img/tt/1066tt.jpg","null","mooney2","image-keyboard-response","123","664632","0.0-6.0-5.16","2941583","co37795","norming","","","","","","",""
"2649.2999999991152","","","post_reveal_questions","survey-likert","124","667283","0.0-6.0-6.16","2941583","co37795","norming","","","{""aha"":6}","[0]","../img/tt/1066tt.jpg","",""
"null","<div style=""font-size:60px;""> </div>","null","fixation","html-keyboard-response","125","667494","0.0-6.0-0.17","2941583","co37795","norming","","","","","","",""
"null","../img/tt/1151tt.jpg","null","mooney1","image-keyboard-response","126","670504","0.0-6.0-1.17","2941583","co37795","norming","","","","","","",""
"5144.5800000000745","","","post_mooney1_questions","survey-likert","127","675651","0.0-6.0-2.17","2941583","co37795","norming","","","{""curiosity"":6,""confidence"":0}","[0,1]","../img/tt/1151tt.jpg","",""
"773.9600000004284","","","recognition","survey-text","128","676427","0.0-6.0-3.17","2941583","co37795","norming","","","{""guess"":""""}","","../img/tt/1151tt.jpg","",""
"null","../img/gs/1151gs.jpg","null","reveal","image-keyboard-response","129","678432","0.0-6.0-4.17","2941583","co37795","norming","","","","","","",""
"null","../img/tt/1151tt.jpg","null","mooney2","image-keyboard-response","130","680434","0.0-6.0-5.17","2941583","co37795","norming","","","","","","",""
"3006.4650000003166","","","post_reveal_questions","survey-likert","131","683443","0.0-6.0-6.17","2941583","co37795","norming","","","{""aha"":5}","[0]","../img/tt/1151tt.jpg","",""
"null","<div style=""font-size:60px;""> </div>","null","fixation","html-keyboard-response","132","683646","0.0-6.0-0.18","2941583","co37795","norming","","","","","","",""
"null","../img/tt/552tt.jpg","null","mooney1","image-keyboard-response","133","686653","0.0-6.0-1.18","2941583","co37795","norming","","","","","","",""
"4443.130000000587","","","post_mooney1_questions","survey-likert","134","691099","0.0-6.0-2.18","2941583","co37795","norming","","","{""curiosity"":6,""confidence"":0}","[0,1]","../img/tt/552tt.jpg","",""
"1094.1449999990873","","","recognition","survey-text","135","692195","0.0-6.0-3.18","2941583","co37795","norming","","","{""guess"":""""}","","../img/tt/552tt.jpg","",""
"null","../img/gs/552gs.jpg","null","reveal","image-keyboard-response","136","694202","0.0-6.0-4.18","2941583","co37795","norming","","","","","","",""
"null","../img/tt/552tt.jpg","null","mooney2","image-keyboard-response","137","696211","0.0-6.0-5.18","2941583","co37795","norming","","","","","","",""
"1797.520000000135","","","post_reveal_questions","survey-likert","138","698011","0.0-6.0-6.18","2941583","co37795","norming","","","{""aha"":5}","[0]","../img/tt/552tt.jpg","",""
"null","<div style=""font-size:60px;""> </div>","null","fixation","html-keyboard-response","139","698217","0.0-6.0-0.19","2941583","co37795","norming","","","","","","",""
"null","../img/tt/111tt.jpg","null","mooney1","image-keyboard-response","140","701233","0.0-6.0-1.19","2941583","co37795","norming","","","","","","",""
"6063.364999999991","","","post_mooney1_questions","survey-likert","141","707299","0.0-6.0-2.19","2941583","co37795","norming","","","{""curiosity"":5,""confidence"":0}","[0,1]","../img/tt/111tt.jpg","",""
"701.7150000000838","","","recognition","survey-text","142","708002","0.0-6.0-3.19","2941583","co37795","norming","","","{""guess"":""""}","","../img/tt/111tt.jpg","",""
"null","../img/gs/111gs.jpg","null","reveal","image-keyboard-response","143","710008","0.0-6.0-4.19","2941583","co37795","norming","","","","","","",""
"null","../img/tt/111tt.jpg","null","mooney2","image-keyboard-response","144","712014","0.0-6.0-5.19","2941583","co37795","norming","","","","","","",""
"1994.3450000000885","","","post_reveal_questions","survey-likert","145","714010","0.0-6.0-6.19","2941583","co37795","norming","","","{""aha"":4}","[0]","../img/tt/111tt.jpg","",""
"null","<div style=""font-size:60px;""> </div>","null","fixation","html-keyboard-response","146","714217","0.0-6.0-0.20","2941583","co37795","norming","","","","","","",""
"null","../img/tt/046tt.jpg","null","mooney1","image-keyboard-response","147","717227","0.0-6.0-1.20","2941583","co37795","norming","","","","","","",""
"4564.609999999404","","","post_mooney1_questions","survey-likert","148","721794","0.0-6.0-2.20","2941583","co37795","norming","","","{""curiosity"":6,""confidence"":4}","[0,1]","../img/tt/046tt.jpg","",""
"4477.855000000098","","","recognition","survey-text","149","726274","0.0-6.0-3.20","2941583","co37795","norming","","","{""guess"":""face tongue""}","","../img/tt/046tt.jpg","",""
"null","../img/gs/046gs.jpg","null","reveal","image-keyboard-response","150","728283","0.0-6.0-4.20","2941583","co37795","norming","","","","","","",""
"null","../img/tt/046tt.jpg","null","mooney2","image-keyboard-response","151","730287","0.0-6.0-5.20","2941583","co37795","norming","","","","","","",""
"3113.5299999995623","","","post_reveal_questions","survey-likert","152","733402","0.0-6.0-6.20","2941583","co37795","norming","","","{""aha"":4}","[0]","../img/tt/046tt.jpg","",""
"null","<div style=""font-size:60px;""> </div>","null","fixation","html-keyboard-response","153","733608","0.0-6.0-0.21","2941583","co37795","norming","","","","","","",""
"null","../img/tt/1353tt.jpg","null","mooney1","image-keyboard-response","154","736618","0.0-6.0-1.21","2941583","co37795","norming","","","","","","",""
"3901.8799999994226","","","post_mooney1_questions","survey-likert","155","740522","0.0-6.0-2.21","2941583","co37795","norming","","","{""curiosity"":5,""confidence"":2}","[0,1]","../img/tt/1353tt.jpg","",""
"3078.0100000001257","","","recognition","survey-text","156","743602","0.0-6.0-3.21","2941583","co37795","norming","","","{""guess"":""vace""}","","../img/tt/1353tt.jpg","",""
"null","../img/gs/1353gs.jpg","null","reveal","image-keyboard-response","157","745609","0.0-6.0-4.21","2941583","co37795","norming","","","","","","",""
"null","../img/tt/1353tt.jpg","null","mooney2","image-keyboard-response","158","747618","0.0-6.0-5.21","2941583","co37795","norming","","","","","","",""
"2502.0899999999674","","","post_reveal_questions","survey-likert","159","750122","0.0-6.0-6.21","2941583","co37795","norming","","","{""aha"":6}","[0]","../img/tt/1353tt.jpg","",""
"null","<div style=""font-size:60px;""> </div>","null","fixation","html-keyboard-response","160","750324","0.0-6.0-0.22","2941583","co37795","norming","","","","","","",""
"null","../img/tt/013tt.jpg","null","mooney1","image-keyboard-response","161","753335","0.0-6.0-1.22","2941583","co37795","norming","","","","","","",""
"5496.860000000219","","","post_mooney1_questions","survey-likert","162","758835","0.0-6.0-2.22","2941583","co37795","norming","","","{""curiosity"":5,""confidence"":1}","[0,1]","../img/tt/013tt.jpg","",""
"6677.979999999516","","","recognition","survey-text","163","765512","0.0-6.0-3.22","2941583","co37795","norming","","","{""guess"":""""}","","../img/tt/013tt.jpg","",""
"null","../img/gs/013gs.jpg","null","reveal","image-keyboard-response","164","767513","0.0-6.0-4.22","2941583","co37795","norming","","","","","","",""
"null","../img/tt/013tt.jpg","null","mooney2","image-keyboard-response","165","769520","0.0-6.0-5.22","2941583","co37795","norming","","","","","","",""
"3349.125000000582","","","post_reveal_questions","survey-likert","166","772872","0.0-6.0-6.22","2941583","co37795","norming","","","{""aha"":5}","[0]","../img/tt/013tt.jpg","",""
"null","<div style=""font-size:60px;""> </div>","null","fixation","html-keyboard-response","167","773077","0.0-6.0-0.23","2941583","co37795","norming","","","","","","",""
"null","../img/tt/044tt.jpg","null","mooney1","image-keyboard-response","168","776085","0.0-6.0-1.23","2941583","co37795","norming","","","","","","",""
"4647.670000000275","","","post_mooney1_questions","survey-likert","169","780736","0.0-6.0-2.23","2941583","co37795","norming","","","{""curiosity"":4,""confidence"":6}","[0,1]","../img/tt/044tt.jpg","",""
"3574.0499999992317","","","recognition","survey-text","170","784312","0.0-6.0-3.23","2941583","co37795","norming","","","{""guess"":""printer""}","","../img/tt/044tt.jpg","",""
"null","../img/gs/044gs.jpg","null","reveal","image-keyboard-response","171","786315","0.0-6.0-4.23","2941583","co37795","norming","","","","","","",""
"null","../img/tt/044tt.jpg","null","mooney2","image-keyboard-response","172","788326","0.0-6.0-5.23","2941583","co37795","norming","","","","","","",""
"2151.809999999474","","","post_reveal_questions","survey-likert","173","790480","0.0-6.0-6.23","2941583","co37795","norming","","","{""aha"":6}","[0]","../img/tt/044tt.jpg","",""
"null","<div style=""font-size:60px;""> </div>","null","fixation","html-keyboard-response","174","790687","0.0-6.0-0.24","2941583","co37795","norming","","","","","","",""
"null","../img/tt/079tt.jpg","null","mooney1","image-keyboard-response","175","793690","0.0-6.0-1.24","2941583","co37795","norming","","","","","","",""
"3130.4399999998277","","","post_mooney1_questions","survey-likert","176","796824","0.0-6.0-2.24","2941583","co37795","norming","","","{""curiosity"":4,""confidence"":6}","[0,1]","../img/tt/079tt.jpg","",""
"7918.165000000037","","","recognition","survey-text","177","804744","0.0-6.0-3.24","2941583","co37795","norming","","","{""guess"":""beer (dier)""}","","../img/tt/079tt.jpg","",""
"null","../img/gs/079gs.jpg","null","reveal","image-keyboard-response","178","806750","0.0-6.0-4.24","2941583","co37795","norming","","","","","","",""
"null","../img/tt/079tt.jpg","null","mooney2","image-keyboard-response","179","808752","0.0-6.0-5.24","2941583","co37795","norming","","","","","","",""
"1949.9999999997672","","","post_reveal_questions","survey-likert","180","810704","0.0-6.0-6.24","2941583","co37795","norming","","","{""aha"":0}","[0]","../img/tt/079tt.jpg","",""
"null","<div style=""font-size:60px;""> </div>","null","fixation","html-keyboard-response","181","810906","0.0-6.0-0.25","2941583","co37795","norming","","","","","","",""
"null","../img/tt/091tt.jpg","null","mooney1","image-keyboard-response","182","813909","0.0-6.0-1.25","2941583","co37795","norming","","","","","","",""
"3929.8199999993667","","","post_mooney1_questions","survey-likert","183","817840","0.0-6.0-2.25","2941583","co37795","norming","","","{""curiosity"":5,""confidence"":2}","[0,1]","../img/tt/091tt.jpg","",""
"3382.43499999959","","","recognition","survey-text","184","821224","0.0-6.0-3.25","2941583","co37795","norming","","","{""guess"":""dog""}","","../img/tt/091tt.jpg","",""
"null","../img/gs/091gs.jpg","null","reveal","image-keyboard-response","185","823228","0.0-6.0-4.25","2941583","co37795","norming","","","","","","",""
"null","../img/tt/091tt.jpg","null","mooney2","image-keyboard-response","186","825236","0.0-6.0-5.25","2941583","co37795","norming","","","","","","",""
"2600.694999999134","","","post_reveal_questions","survey-likert","187","827841","0.0-6.0-6.25","2941583","co37795","norming","","","{""aha"":5}","[0]","../img/tt/091tt.jpg","",""
"null","<div style=""font-size:60px;""> </div>","null","fixation","html-keyboard-response","188","828047","0.0-6.0-0.26","2941583","co37795","norming","","","","","","",""
"null","../img/tt/522tt.jpg","null","mooney1","image-keyboard-response","189","831059","0.0-6.0-1.26","2941583","co37795","norming","","","","","","",""
"4899.819999999716","","","post_mooney1_questions","survey-likert","190","835961","0.0-6.0-2.26","2941583","co37795","norming","","","{""curiosity"":6,""confidence"":2}","[0,1]","../img/tt/522tt.jpg","",""
"3053.914999999455","","","recognition","survey-text","191","839017","0.0-6.0-3.26","2941583","co37795","norming","","","{""guess"":""astronaut""}","","../img/tt/522tt.jpg","",""
"null","../img/gs/522gs.jpg","null","reveal","image-keyboard-response","192","841026","0.0-6.0-4.26","2941583","co37795","norming","","","","","","",""
"null","../img/tt/522tt.jpg","null","mooney2","image-keyboard-response","193","843032","0.0-6.0-5.26","2941583","co37795","norming","","","","","","",""
"2991.4749999998603","","","post_reveal_questions","survey-likert","194","846025","0.0-6.0-6.26","2941583","co37795","norming","","","{""aha"":6}","[0]","../img/tt/522tt.jpg","",""
"null","<div style=""font-size:60px;""> </div>","null","fixation","html-keyboard-response","195","846227","0.0-6.0-0.27","2941583","co37795","norming","","","","","","",""
"null","../img/tt/603tt.jpg","null","mooney1","image-keyboard-response","196","849237","0.0-6.0-1.27","2941583","co37795","norming","","","","","","",""
"9257.819999999832","","","post_mooney1_questions","survey-likert","197","858497","0.0-6.0-2.27","2941583","co37795","norming","","","{""curiosity"":6,""confidence"":2}","[0,1]","../img/tt/603tt.jpg","",""
"3542.2250000002095","","","recognition","survey-text","198","862041","0.0-6.0-3.27","2941583","co37795","norming","","","{""guess"":""reptile""}","","../img/tt/603tt.jpg","",""
"null","../img/gs/603gs.jpg","null","reveal","image-keyboard-response","199","864047","0.0-6.0-4.27","2941583","co37795","norming","","","","","","",""
"null","../img/tt/603tt.jpg","null","mooney2","image-keyboard-response","200","866051","0.0-6.0-5.27","2941583","co37795","norming","","","","","","",""
"2371.509999999893","","","post_reveal_questions","survey-likert","201","868425","0.0-6.0-6.27","2941583","co37795","norming","","","{""aha"":5}","[0]","../img/tt/603tt.jpg","",""
"null","<div style=""font-size:60px;""> </div>","null","fixation","html-keyboard-response","202","868633","0.0-6.0-0.28","2941583","co37795","norming","","","","","","",""
"null","../img/tt/1118tt.jpg","null","mooney1","image-keyboard-response","203","871639","0.0-6.0-1.28","2941583","co37795","norming","","","","","","",""
"5920.579999999958","","","post_mooney1_questions","survey-likert","204","877561","0.0-6.0-2.28","2941583","co37795","norming","","","{""curiosity"":4,""confidence"":1}","[0,1]","../img/tt/1118tt.jpg","",""
"4893.8149999994785","","","recognition","survey-text","205","882457","0.0-6.0-3.28","2941583","co37795","norming","","","{""guess"":""kanon""}","","../img/tt/1118tt.jpg","",""
"null","../img/gs/1118gs.jpg","null","reveal","image-keyboard-response","206","884460","0.0-6.0-4.28","2941583","co37795","norming","","","","","","",""
"null","../img/tt/1118tt.jpg","null","mooney2","image-keyboard-response","207","886461","0.0-6.0-5.28","2941583","co37795","norming","","","","","","",""
"1642.869999999646","","","post_reveal_questions","survey-likert","208","888109","0.0-6.0-6.28","2941583","co37795","norming","","","{""aha"":6}","[0]","../img/tt/1118tt.jpg","",""
"null","<div style=""font-size:60px;""> </div>","null","fixation","html-keyboard-response","209","888319","0.0-6.0-0.29","2941583","co37795","norming","","","","","","",""
"null","../img/tt/1006tt.jpg","null","mooney1","image-keyboard-response","210","891322","0.0-6.0-1.29","2941583","co37795","norming","","","","","","",""
"5338.5299999999115","","","post_mooney1_questions","survey-likert","211","896661","0.0-6.0-2.29","2941583","co37795","norming","","","{""curiosity"":4,""confidence"":4}","[0,1]","../img/tt/1006tt.jpg","",""
"2918.074999999604","","","recognition","survey-text","212","899581","0.0-6.0-3.29","2941583","co37795","norming","","","{""guess"":""buffel""}","","../img/tt/1006tt.jpg","",""
"null","../img/gs/1006gs.jpg","null","reveal","image-keyboard-response","213","901588","0.0-6.0-4.29","2941583","co37795","norming","","","","","","",""
"null","../img/tt/1006tt.jpg","null","mooney2","image-keyboard-response","214","903593","0.0-6.0-5.29","2941583","co37795","norming","","","","","","",""
"2386.574999999604","","","post_reveal_questions","survey-likert","215","905981","0.0-6.0-6.29","2941583","co37795","norming","","","{""aha"":4}","[0]","../img/tt/1006tt.jpg","",""
"null","<div style=""font-size:60px;""> </div>","null","fixation","html-keyboard-response","216","906185","0.0-6.0-0.30","2941583","co37795","norming","","","","","","",""
"null","../img/tt/517tt.jpg","null","mooney1","image-keyboard-response","217","909186","0.0-6.0-1.30","2941583","co37795","norming","","","","","","",""
"5473.99000000034","","","post_mooney1_questions","survey-likert","218","914661","0.0-6.0-2.30","2941583","co37795","norming","","","{""curiosity"":5,""confidence"":5}","[0,1]","../img/tt/517tt.jpg","",""
"5213.7700000002515","","","recognition","survey-text","219","919877","0.0-6.0-3.30","2941583","co37795","norming","","","{""guess"":""panda in grot""}","","../img/tt/517tt.jpg","",""
"null","../img/gs/517gs.jpg","null","reveal","image-keyboard-response","220","921887","0.0-6.0-4.30","2941583","co37795","norming","","","","","","",""
"null","../img/tt/517tt.jpg","null","mooney2","image-keyboard-response","221","923894","0.0-6.0-5.30","2941583","co37795","norming","","","","","","",""
"2414.6049999999814","","","post_reveal_questions","survey-likert","222","926309","0.0-6.0-6.30","2941583","co37795","norming","","","{""aha"":2}","[0]","../img/tt/517tt.jpg","",""
"null","<div style=""font-size:60px;""> </div>","null","fixation","html-keyboard-response","223","926513","0.0-6.0-0.31","2941583","co37795","norming","","","","","","",""
"null","../img/tt/1087tt.jpg","null","mooney1","image-keyboard-response","224","929524","0.0-6.0-1.31","2941583","co37795","norming","","","","","","",""
"4920.244999999297","","","post_mooney1_questions","survey-likert","225","934446","0.0-6.0-2.31","2941583","co37795","norming","","","{""curiosity"":2,""confidence"":5}","[0,1]","../img/tt/1087tt.jpg","",""
"2797.7899999995716","","","recognition","survey-text","226","937245","0.0-6.0-3.31","2941583","co37795","norming","","","{""guess"":"" schapen""}","","../img/tt/1087tt.jpg","",""
"null","../img/gs/1087gs.jpg","null","reveal","image-keyboard-response","227","939248","0.0-6.0-4.31","2941583","co37795","norming","","","","","","",""
"null","../img/tt/1087tt.jpg","null","mooney2","image-keyboard-response","228","941249","0.0-6.0-5.31","2941583","co37795","norming","","","","","","",""
"1923.7700000003679","","","post_reveal_questions","survey-likert","229","943173","0.0-6.0-6.31","2941583","co37795","norming","","","{""aha"":0}","[0]","../img/tt/1087tt.jpg","",""
"null","<div style=""font-size:60px;""> </div>","null","fixation","html-keyboard-response","230","943380","0.0-6.0-0.32","2941583","co37795","norming","","","","","","",""
"null","../img/tt/307tt.jpg","null","mooney1","image-keyboard-response","231","946389","0.0-6.0-1.32","2941583","co37795","norming","","","","","","",""
"4631.129999999772","","","post_mooney1_questions","survey-likert","232","951014","0.0-6.0-2.32","2941583","co37795","norming","","","{""curiosity"":1,""confidence"":6}","[0,1]","../img/tt/307tt.jpg","",""
"2766.0499999992317","","","recognition","survey-text","233","953782","0.0-6.0-3.32","2941583","co37795","norming","","","{""guess"":""schildpad""}","","../img/tt/307tt.jpg","",""
"null","../img/gs/307gs.jpg","null","reveal","image-keyboard-response","234","955792","0.0-6.0-4.32","2941583","co37795","norming","","","","","","",""
"null","../img/tt/307tt.jpg","null","mooney2","image-keyboard-response","235","957797","0.0-6.0-5.32","2941583","co37795","norming","","","","","","",""
"2575.8750000004657","","","post_reveal_questions","survey-likert","236","960374","0.0-6.0-6.32","2941583","co37795","norming","","","{""aha"":0}","[0]","../img/tt/307tt.jpg","",""
"null","<div style=""font-size:60px;""> </div>","null","fixation","html-keyboard-response","237","960579","0.0-6.0-0.33","2941583","co37795","norming","","","","","","",""
"null","../img/tt/279tt.jpg","null","mooney1","image-keyboard-response","238","963587","0.0-6.0-1.33","2941583","co37795","norming","","","","","","",""
"4650.45000000007","","","post_mooney1_questions","survey-likert","239","968238","0.0-6.0-2.33","2941583","co37795","norming","","","{""curiosity"":0,""confidence"":6}","[0,1]","../img/tt/279tt.jpg","",""
"1718.1100000006845","","","recognition","survey-text","240","969958","0.0-6.0-3.33","2941583","co37795","norming","","","{""guess"":""koala""}","","../img/tt/279tt.jpg","",""
"null","../img/gs/279gs.jpg","null","reveal","image-keyboard-response","241","971964","0.0-6.0-4.33","2941583","co37795","norming","","","","","","",""
"null","../img/tt/279tt.jpg","null","mooney2","image-keyboard-response","242","973971","0.0-6.0-5.33","2941583","co37795","norming","","","","","","",""
"5481.7850000008475","","","post_reveal_questions","survey-likert","243","979454","0.0-6.0-6.33","2941583","co37795","norming","","","{""aha"":0}","[0]","../img/tt/279tt.jpg","",""
"null","<div style=""font-size:60px;""> </div>","null","fixation","html-keyboard-response","244","979657","0.0-6.0-0.34","2941583","co37795","norming","","","","","","",""
"null","../img/tt/084tt.jpg","null","mooney1","image-keyboard-response","245","982659","0.0-6.0-1.34","2941583","co37795","norming","","","","","","",""
"4697.624999999884","","","post_mooney1_questions","survey-likert","246","987358","0.0-6.0-2.34","2941583","co37795","norming","","","{""curiosity"":0,""confidence"":6}","[0,1]","../img/tt/084tt.jpg","",""
"1414.0550000001676","","","recognition","survey-text","247","988774","0.0-6.0-3.34","2941583","co37795","norming","","","{""guess"":""eend""}","","../img/tt/084tt.jpg","",""
"null","../img/gs/084gs.jpg","null","reveal","image-keyboard-response","248","990780","0.0-6.0-4.34","2941583","co37795","norming","","","","","","",""
"null","../img/tt/084tt.jpg","null","mooney2","image-keyboard-response","249","992780","0.0-6.0-5.34","2941583","co37795","norming","","","","","","",""
"1816.8500000002095","","","post_reveal_questions","survey-likert","250","994598","0.0-6.0-6.34","2941583","co37795","norming","","","{""aha"":1}","[0]","../img/tt/084tt.jpg","",""
"null","<div style=""font-size:60px;""> </div>","null","fixation","html-keyboard-response","251","994808","0.0-6.0-0.35","2941583","co37795","norming","","","","","","",""
"null","../img/tt/599tt.jpg","null","mooney1","image-keyboard-response","252","997818","0.0-6.0-1.35","2941583","co37795","norming","","","","","","",""
"4747.660000000033","","","post_mooney1_questions","survey-likert","253","1002566","0.0-6.0-2.35","2941583","co37795","norming","","","{""curiosity"":4,""confidence"":5}","[0,1]","../img/tt/599tt.jpg","",""
"1502.0999999996275","","","recognition","survey-text","254","1004070","0.0-6.0-3.35","2941583","co37795","norming","","","{""guess"":""uil""}","","../img/tt/599tt.jpg","",""
"null","../img/gs/599gs.jpg","null","reveal","image-keyboard-response","255","1006077","0.0-6.0-4.35","2941583","co37795","norming","","","","","","",""
"null","../img/tt/599tt.jpg","null","mooney2","image-keyboard-response","256","1008089","0.0-6.0-5.35","2941583","co37795","norming","","","","","","",""
"3036.24000000034","","","post_reveal_questions","survey-likert","257","1011127","0.0-6.0-6.35","2941583","co37795","norming","","","{""aha"":2}","[0]","../img/tt/599tt.jpg","",""
"null","<div style=""font-size:60px;""> </div>","null","fixation","html-keyboard-response","258","1011331","0.0-6.0-0.36","2941583","co37795","norming","","","","","","",""
"null","../img/tt/1040tt.jpg","null","mooney1","image-keyboard-response","259","1014342","0.0-6.0-1.36","2941583","co37795","norming","","","","","","",""
"4790.169999999343","","","post_mooney1_questions","survey-likert","260","1019135","0.0-6.0-2.36","2941583","co37795","norming","","","{""curiosity"":6,""confidence"":2}","[0,1]","../img/tt/1040tt.jpg","",""
"6366.105000000098","","","recognition","survey-text","261","1025503","0.0-6.0-3.36","2941583","co37795","norming","","","{""guess"":""persoon in pose""}","","../img/tt/1040tt.jpg","",""
"null","../img/gs/1040gs.jpg","null","reveal","image-keyboard-response","262","1027511","0.0-6.0-4.36","2941583","co37795","norming","","","","","","",""
"null","../img/tt/1040tt.jpg","null","mooney2","image-keyboard-response","263","1029514","0.0-6.0-5.36","2941583","co37795","norming","","","","","","",""
"1298.860000000801","","","post_reveal_questions","survey-likert","264","1030815","0.0-6.0-6.36","2941583","co37795","norming","","","{""aha"":6}","[0]","../img/tt/1040tt.jpg","",""
"null","<div style=""font-size:60px;""> </div>","null","fixation","html-keyboard-response","265","1031026","0.0-6.0-0.37","2941583","co37795","norming","","","","","","",""
"null","../img/tt/468tt.jpg","null","mooney1","image-keyboard-response","266","1034037","0.0-6.0-1.37","2941583","co37795","norming","","","","","","",""
"5599.664999999688","","","post_mooney1_questions","survey-likert","267","1039639","0.0-6.0-2.37","2941583","co37795","norming","","","{""curiosity"":6,""confidence"":1}","[0,1]","../img/tt/468tt.jpg","",""
"1829.9349999997066","","","recognition","survey-text","268","1041471","0.0-6.0-3.37","2941583","co37795","norming","","","{""guess"":""hoed""}","","../img/tt/468tt.jpg","",""
"null","../img/gs/468gs.jpg","null","reveal","image-keyboard-response","269","1043475","0.0-6.0-4.37","2941583","co37795","norming","","","","","","",""
"null","../img/tt/468tt.jpg","null","mooney2","image-keyboard-response","270","1045478","0.0-6.0-5.37","2941583","co37795","norming","","","","","","",""
"2302.595000000205","","","post_reveal_questions","survey-likert","271","1047783","0.0-6.0-6.37","2941583","co37795","norming","","","{""aha"":5}","[0]","../img/tt/468tt.jpg","",""
"null","<div style=""font-size:60px;""> </div>","null","fixation","html-keyboard-response","272","1047992","0.0-6.0-0.38","2941583","co37795","norming","","","","","","",""
"null","../img/tt/060tt.jpg","null","mooney1","image-keyboard-response","273","1050997","0.0-6.0-1.38","2941583","co37795","norming","","","","","","",""
"6598.324999999953","","","post_mooney1_questions","survey-likert","274","1057599","0.0-6.0-2.38","2941583","co37795","norming","","","{""curiosity"":5,""confidence"":0}","[0,1]","../img/tt/060tt.jpg","",""
"654.089999999851","","","recognition","survey-text","275","1058255","0.0-6.0-3.38","2941583","co37795","norming","","","{""guess"":""""}","","../img/tt/060tt.jpg","",""
"null","../img/gs/060gs.jpg","null","reveal","image-keyboard-response","276","1060257","0.0-6.0-4.38","2941583","co37795","norming","","","","","","",""
"null","../img/tt/060tt.jpg","null","mooney2","image-keyboard-response","277","1062259","0.0-6.0-5.38","2941583","co37795","norming","","","","","","",""
"2754.195000000531","","","post_reveal_questions","survey-likert","278","1065015","0.0-6.0-6.38","2941583","co37795","norming","","","{""aha"":4}","[0]","../img/tt/060tt.jpg","",""
"null","<div style=""font-size:60px;""> </div>","null","fixation","html-keyboard-response","279","1065216","0.0-6.0-0.39","2941583","co37795","norming","","","","","","",""
"null","../img/tt/1261tt.jpg","null","mooney1","image-keyboard-response","280","1068227","0.0-6.0-1.39","2941583","co37795","norming","","","","","","",""
"5890.074999999488","","","post_mooney1_questions","survey-likert","281","1074120","0.0-6.0-2.39","2941583","co37795","norming","","","{""curiosity"":4,""confidence"":4}","[0,1]","../img/tt/1261tt.jpg","",""
"8358.044999999925","","","recognition","survey-text","282","1082479","0.0-6.0-3.39","2941583","co37795","norming","","","{""guess"":""katachtige""}","","../img/tt/1261tt.jpg","",""
"null","../img/gs/1261gs.jpg","null","reveal","image-keyboard-response","283","1084489","0.0-6.0-4.39","2941583","co37795","norming","","","","","","",""
"null","../img/tt/1261tt.jpg","null","mooney2","image-keyboard-response","284","1086498","0.0-6.0-5.39","2941583","co37795","norming","","","","","","",""
"2947.1949999998324","","","post_reveal_questions","survey-likert","285","1089448","0.0-6.0-6.39","2941583","co37795","norming","","","{""aha"":5}","[0]","../img/tt/1261tt.jpg","",""
"null","<div style=""font-size:60px;""> </div>","null","fixation","html-keyboard-response","286","1089653","0.0-6.0-0.40","2941583","co37795","norming","","","","","","",""
"null","../img/tt/416tt.jpg","null","mooney1","image-keyboard-response","287","1092662","0.0-6.0-1.40","2941583","co37795","norming","","","","","","",""
"8463.340000000317","","","post_mooney1_questions","survey-likert","288","1101128","0.0-6.0-2.40","2941583","co37795","norming","","","{""curiosity"":3,""confidence"":4}","[0,1]","../img/tt/416tt.jpg","",""
"3862.1750000002794","","","recognition","survey-text","289","1104991","0.0-6.0-3.40","2941583","co37795","norming","","","{""guess"":""2 struisvogels""}","","../img/tt/416tt.jpg","",""
"null","../img/gs/416gs.jpg","null","reveal","image-keyboard-response","290","1106993","0.0-6.0-4.40","2941583","co37795","norming","","","","","","",""
"null","../img/tt/416tt.jpg","null","mooney2","image-keyboard-response","291","1108996","0.0-6.0-5.40","2941583","co37795","norming","","","","","","",""
"2809.5349999994505","","","post_reveal_questions","survey-likert","292","1111808","0.0-6.0-6.40","2941583","co37795","norming","","","{""aha"":0}","[0]","../img/tt/416tt.jpg","",""
"null","<div style=""font-size:60px;""> </div>","null","fixation","html-keyboard-response","293","1112018","0.0-6.0-0.41","2941583","co37795","norming","","","","","","",""
"null","../img/tt/1044tt.jpg","null","mooney1","image-keyboard-response","294","1115028","0.0-6.0-1.41","2941583","co37795","norming","","","","","","",""
"4096.4000000003725","","","post_mooney1_questions","survey-likert","295","1119128","0.0-6.0-2.41","2941583","co37795","norming","","","{""curiosity"":5,""confidence"":1}","[0,1]","../img/tt/1044tt.jpg","",""
"1590.1299999996554","","","recognition","survey-text","296","1120719","0.0-6.0-3.41","2941583","co37795","norming","","","{""guess"":""""}","","../img/tt/1044tt.jpg","",""
"null","../img/gs/1044gs.jpg","null","reveal","image-keyboard-response","297","1122727","0.0-6.0-4.41","2941583","co37795","norming","","","","","","",""
"null","../img/tt/1044tt.jpg","null","mooney2","image-keyboard-response","298","1124729","0.0-6.0-5.41","2941583","co37795","norming","","","","","","",""
"2668.2049999998417","","","post_reveal_questions","survey-likert","299","1127400","0.0-6.0-6.41","2941583","co37795","norming","","","{""aha"":6}","[0]","../img/tt/1044tt.jpg","",""
"null","<div style=""font-size:60px;""> </div>","null","fixation","html-keyboard-response","300","1127604","0.0-6.0-0.42","2941583","co37795","norming","","","","","","",""
"null","../img/tt/1268tt.jpg","null","mooney1","image-keyboard-response","301","1130611","0.0-6.0-1.42","2941583","co37795","norming","","","","","","",""
"3754.304999999469","","","post_mooney1_questions","survey-likert","302","1134368","0.0-6.0-2.42","2941583","co37795","norming","","","{""curiosity"":6,""confidence"":0}","[0,1]","../img/tt/1268tt.jpg","",""
"534.0949999999721","","","recognition","survey-text","303","1134904","0.0-6.0-3.42","2941583","co37795","norming","","","{""guess"":""""}","","../img/tt/1268tt.jpg","",""
"null","../img/gs/1268gs.jpg","null","reveal","image-keyboard-response","304","1136905","0.0-6.0-4.42","2941583","co37795","norming","","","","","","",""
"null","../img/tt/1268tt.jpg","null","mooney2","image-keyboard-response","305","1138914","0.0-6.0-5.42","2941583","co37795","norming","","","","","","",""
"2065.844999999972","","","post_reveal_questions","survey-likert","306","1140984","0.0-6.0-6.42","2941583","co37795","norming","","","{""aha"":5}","[0]","../img/tt/1268tt.jpg","",""
"null","<div style=""font-size:60px;""> </div>","null","fixation","html-keyboard-response","307","1141190","0.0-6.0-0.43","2941583","co37795","norming","","","","","","",""
"null","../img/tt/1002tt.jpg","null","mooney1","image-keyboard-response","308","1144193","0.0-6.0-1.43","2941583","co37795","norming","","","","","","",""
"3724.320000000298","","","post_mooney1_questions","survey-likert","309","1147920","0.0-6.0-2.43","2941583","co37795","norming","","","{""curiosity"":2,""confidence"":6}","[0,1]","../img/tt/1002tt.jpg","",""
"1742.0650000004098","","","recognition","survey-text","310","1149664","0.0-6.0-3.43","2941583","co37795","norming","","","{""guess"":""bear""}","","../img/tt/1002tt.jpg","",""
"null","../img/gs/1002gs.jpg","null","reveal","image-keyboard-response","311","1151665","0.0-6.0-4.43","2941583","co37795","norming","","","","","","",""
"null","../img/tt/1002tt.jpg","null","mooney2","image-keyboard-response","312","1153668","0.0-6.0-5.43","2941583","co37795","norming","","","","","","",""
"2369.614999999758","","","post_reveal_questions","survey-likert","313","1156040","0.0-6.0-6.43","2941583","co37795","norming","","","{""aha"":0}","[0]","../img/tt/1002tt.jpg","",""
"null","<div style=""font-size:60px;""> </div>","null","fixation","html-keyboard-response","314","1156248","0.0-6.0-0.44","2941583","co37795","norming","","","","","","",""
"null","../img/tt/194tt.jpg","null","mooney1","image-keyboard-response","315","1159255","0.0-6.0-1.44","2941583","co37795","norming","","","","","","",""
"5524.570000000531","","","post_mooney1_questions","survey-likert","316","1164784","0.0-6.0-2.44","2941583","co37795","norming","","","{""curiosity"":5,""confidence"":3}","[0,1]","../img/tt/194tt.jpg","",""
"7149.95999999973","","","recognition","survey-text","317","1171936","0.0-6.0-3.44","2941583","co37795","norming","","","{""guess"":""woman instrumnt""}","","../img/tt/194tt.jpg","",""
"null","../img/gs/194gs.jpg","null","reveal","image-keyboard-response","318","1173947","0.0-6.0-4.44","2941583","co37795","norming","","","","","","",""
"null","../img/tt/194tt.jpg","null","mooney2","image-keyboard-response","319","1175948","0.0-6.0-5.44","2941583","co37795","norming","","","","","","",""
"1794.60499999905","","","post_reveal_questions","survey-likert","320","1177744","0.0-6.0-6.44","2941583","co37795","norming","","","{""aha"":4}","[0]","../img/tt/194tt.jpg","",""
"null","<div style=""font-size:60px;""> </div>","null","fixation","html-keyboard-response","321","1177953","0.0-6.0-0.45","2941583","co37795","norming","","","","","","",""
"null","../img/tt/064tt.jpg","null","mooney1","image-keyboard-response","322","1180962","0.0-6.0-1.45","2941583","co37795","norming","","","","","","",""
"4842.800000000279","","","post_mooney1_questions","survey-likert","323","1185808","0.0-6.0-2.45","2941583","co37795","norming","","","{""curiosity"":5,""confidence"":2}","[0,1]","../img/tt/064tt.jpg","",""
"2558.1450000000186","","","recognition","survey-text","324","1188368","0.0-6.0-3.45","2941583","co37795","norming","","","{""guess"":""man tongue""}","","../img/tt/064tt.jpg","",""
"null","../img/gs/064gs.jpg","null","reveal","image-keyboard-response","325","1190379","0.0-6.0-4.45","2941583","co37795","norming","","","","","","",""
"null","../img/tt/064tt.jpg","null","mooney2","image-keyboard-response","326","1192382","0.0-6.0-5.45","2941583","co37795","norming","","","","","","",""
"2688.149999999907","","","post_reveal_questions","survey-likert","327","1195073","0.0-6.0-6.45","2941583","co37795","norming","","","{""aha"":6}","[0]","../img/tt/064tt.jpg","",""
"null","<div style=""font-size:60px;""> </div>","null","fixation","html-keyboard-response","328","1195277","0.0-6.0-0.46","2941583","co37795","norming","","","","","","",""
"null","../img/tt/040tt.jpg","null","mooney1","image-keyboard-response","329","1198286","0.0-6.0-1.46","2941583","co37795","norming","","","","","","",""
"3687.4250000000466","","","post_mooney1_questions","survey-likert","330","1201977","0.0-6.0-2.46","2941583","co37795","norming","","","{""curiosity"":4,""confidence"":4}","[0,1]","../img/tt/040tt.jpg","",""
"1686.2599999995437","","","recognition","survey-text","331","1203665","0.0-6.0-3.46","2941583","co37795","norming","","","{""guess"":""rabbit""}","","../img/tt/040tt.jpg","",""
"null","../img/gs/040gs.jpg","null","reveal","image-keyboard-response","332","1205669","0.0-6.0-4.46","2941583","co37795","norming","","","","","","",""
"null","../img/tt/040tt.jpg","null","mooney2","image-keyboard-response","333","1207671","0.0-6.0-5.46","2941583","co37795","norming","","","","","","",""
"2263.5499999998137","","","post_reveal_questions","survey-likert","334","1209937","0.0-6.0-6.46","2941583","co37795","norming","","","{""aha"":6}","[0]","../img/tt/040tt.jpg","",""
"null","<div style=""font-size:60px;""> </div>","null","fixation","html-keyboard-response","335","1210140","0.0-6.0-0.47","2941583","co37795","norming","","","","","","",""
"null","../img/tt/1307tt.jpg","null","mooney1","image-keyboard-response","336","1213151","0.0-6.0-1.47","2941583","co37795","norming","","","","","","",""
"7510.4300000004005","","","post_mooney1_questions","survey-likert","337","1220665","0.0-6.0-2.47","2941583","co37795","norming","","","{""curiosity"":4,""confidence"":4}","[0,1]","../img/tt/1307tt.jpg","",""
"1957.3400000000838","","","recognition","survey-text","338","1222625","0.0-6.0-3.47","2941583","co37795","norming","","","{""guess"":""wiel""}","","../img/tt/1307tt.jpg","",""
"null","../img/gs/1307gs.jpg","null","reveal","image-keyboard-response","339","1224627","0.0-6.0-4.47","2941583","co37795","norming","","","","","","",""
"null","../img/tt/1307tt.jpg","null","mooney2","image-keyboard-response","340","1226630","0.0-6.0-5.47","2941583","co37795","norming","","","","","","",""
"3400.359999999637","","","post_reveal_questions","survey-likert","341","1230033","0.0-6.0-6.47","2941583","co37795","norming","","","{""aha"":5}","[0]","../img/tt/1307tt.jpg","",""
"null","<div style=""font-size:60px;""> </div>","null","fixation","html-keyboard-response","342","1230237","0.0-6.0-0.48","2941583","co37795","norming","","","","","","",""
"null","../img/tt/010tt.jpg","null","mooney1","image-keyboard-response","343","1233244","0.0-6.0-1.48","2941583","co37795","norming","","","","","","",""
"7489.91500000027","","","post_mooney1_questions","survey-likert","344","1240737","0.0-6.0-2.48","2941583","co37795","norming","","","{""curiosity"":6,""confidence"":1}","[0,1]","../img/tt/010tt.jpg","",""
"3022.065000000177","","","recognition","survey-text","345","1243761","0.0-6.0-3.48","2941583","co37795","norming","","","{""guess"":""vis""}","","../img/tt/010tt.jpg","",""
"null","../img/gs/010gs.jpg","null","reveal","image-keyboard-response","346","1245769","0.0-6.0-4.48","2941583","co37795","norming","","","","","","",""
"null","../img/tt/010tt.jpg","null","mooney2","image-keyboard-response","347","1247776","0.0-6.0-5.48","2941583","co37795","norming","","","","","","",""
"2221.6899999992456","","","post_reveal_questions","survey-likert","348","1250001","0.0-6.0-6.48","2941583","co37795","norming","","","{""aha"":5}","[0]","../img/tt/010tt.jpg","",""
"null","<div style=""font-size:60px;""> </div>","null","fixation","html-keyboard-response","349","1250206","0.0-6.0-0.49","2941583","co37795","norming","","","","","","",""
"null","../img/tt/300tt.jpg","null","mooney1","image-keyboard-response","350","1253213","0.0-6.0-1.49","2941583","co37795","norming","","","","","","",""
"6553.0900000005495","","","post_mooney1_questions","survey-likert","351","1259769","0.0-6.0-2.49","2941583","co37795","norming","","","{""curiosity"":2,""confidence"":5}","[0,1]","../img/tt/300tt.jpg","",""
"7517.829999999609","","","recognition","survey-text","352","1267289","0.0-6.0-3.49","2941583","co37795","norming","","","{""guess"":""danser   danseres""}","","../img/tt/300tt.jpg","",""
"null","../img/gs/300gs.jpg","null","reveal","image-keyboard-response","353","1269297","0.0-6.0-4.49","2941583","co37795","norming","","","","","","",""
"null","../img/tt/300tt.jpg","null","mooney2","image-keyboard-response","354","1271306","0.0-6.0-5.49","2941583","co37795","norming","","","","","","",""
"3540.1399999998976","","","post_reveal_questions","survey-likert","355","1274849","0.0-6.0-6.49","2941583","co37795","norming","","","{""aha"":5}","[0]","../img/tt/300tt.jpg","",""
"null","<div style=""font-size:60px;""> </div>","null","fixation","html-keyboard-response","356","1275054","0.0-6.0-0.50","2941583","co37795","norming","","","","","","",""
"null","../img/tt/1202tt.jpg","null","mooney1","image-keyboard-response","357","1278061","0.0-6.0-1.50","2941583","co37795","norming","","","","","","",""
"4801.690000000177","","","post_mooney1_questions","survey-likert","358","1282865","0.0-6.0-2.50","2941583","co37795","norming","","","{""curiosity"":5,""confidence"":0}","[0,1]","../img/tt/1202tt.jpg","",""
"566.5399999998044","","","recognition","survey-text","359","1283433","0.0-6.0-3.50","2941583","co37795","norming","","","{""guess"":""""}","","../img/tt/1202tt.jpg","",""
"null","../img/gs/1202gs.jpg","null","reveal","image-keyboard-response","360","1285439","0.0-6.0-4.50","2941583","co37795","norming","","","","","","",""
"null","../img/tt/1202tt.jpg","null","mooney2","image-keyboard-response","361","1287449","0.0-6.0-5.50","2941583","co37795","norming","","","","","","",""
"2205.135000000242","","","post_reveal_questions","survey-likert","362","1289657","0.0-6.0-6.50","2941583","co37795","norming","","","{""aha"":5}","[0]","../img/tt/1202tt.jpg","",""
"null","<div style=""font-size:60px;""> </div>","null","fixation","html-keyboard-response","363","1289861","0.0-6.0-0.51","2941583","co37795","norming","","","","","","",""
"null","../img/tt/1130tt.jpg","null","mooney1","image-keyboard-response","364","1292864","0.0-6.0-1.51","2941583","co37795","norming","","","","","","",""
"6766.065000000643","","","post_mooney1_questions","survey-likert","365","1299633","0.0-6.0-2.51","2941583","co37795","norming","","","{""curiosity"":2,""confidence"":4}","[0,1]","../img/tt/1130tt.jpg","",""
"4702.264999999898","","","recognition","survey-text","366","1304337","0.0-6.0-3.51","2941583","co37795","norming","","","{""guess"":""soccer player""}","","../img/tt/1130tt.jpg","",""
"null","../img/gs/1130gs.jpg","null","reveal","image-keyboard-response","367","1306342","0.0-6.0-4.51","2941583","co37795","norming","","","","","","",""
"null","../img/tt/1130tt.jpg","null","mooney2","image-keyboard-response","368","1308344","0.0-6.0-5.51","2941583","co37795","norming","","","","","","",""
"3430.070000000531","","","post_reveal_questions","survey-likert","369","1311777","0.0-6.0-6.51","2941583","co37795","norming","","","{""aha"":4}","[0]","../img/tt/1130tt.jpg","",""
"null","<div style=""font-size:60px;""> </div>","null","fixation","html-keyboard-response","370","1311986","0.0-6.0-0.52","2941583","co37795","norming","","","","","","",""
"null","../img/tt/1143tt.jpg","null","mooney1","image-keyboard-response","371","1314993","0.0-6.0-1.52","2941583","co37795","norming","","","","","","",""
"5900.950000000186","","","post_mooney1_questions","survey-likert","372","1320897","0.0-6.0-2.52","2941583","co37795","norming","","","{""curiosity"":1,""confidence"":5}","[0,1]","../img/tt/1143tt.jpg","",""
"1854.2049999996088","","","recognition","survey-text","373","1322753","0.0-6.0-3.52","2941583","co37795","norming","","","{""guess"":""fitness""}","","../img/tt/1143tt.jpg","",""
"null","../img/gs/1143gs.jpg","null","reveal","image-keyboard-response","374","1324762","0.0-6.0-4.52","2941583","co37795","norming","","","","","","",""
"null","../img/tt/1143tt.jpg","null","mooney2","image-keyboard-response","375","1326771","0.0-6.0-5.52","2941583","co37795","norming","","","","","","",""
"2451.7299999997485","","","post_reveal_questions","survey-likert","376","1329225","0.0-6.0-6.52","2941583","co37795","norming","","","{""aha"":0}","[0]","../img/tt/1143tt.jpg","",""
"null","<div style=""font-size:60px;""> </div>","null","fixation","html-keyboard-response","377","1329430","0.0-6.0-0.53","2941583","co37795","norming","","","","","","",""
"null","../img/tt/098tt.jpg","null","mooney1","image-keyboard-response","378","1332433","0.0-6.0-1.53","2941583","co37795","norming","","","","","","",""
"5669.700000000186","","","post_mooney1_questions","survey-likert","379","1338105","0.0-6.0-2.53","2941583","co37795","norming","","","{""curiosity"":6,""confidence"":1}","[0,1]","../img/tt/098tt.jpg","",""
"1542.2150000003166","","","recognition","survey-text","380","1339649","0.0-6.0-3.53","2941583","co37795","norming","","","{""guess"":""wiel""}","","../img/tt/098tt.jpg","",""
"null","../img/gs/098gs.jpg","null","reveal","image-keyboard-response","381","1341659","0.0-6.0-4.53","2941583","co37795","norming","","","","","","",""
"null","../img/tt/098tt.jpg","null","mooney2","image-keyboard-response","382","1343667","0.0-6.0-5.53","2941583","co37795","norming","","","","","","",""
"2419.815000000177","","","post_reveal_questions","survey-likert","383","1346089","0.0-6.0-6.53","2941583","co37795","norming","","","{""aha"":4}","[0]","../img/tt/098tt.jpg","",""
"null","<div style=""font-size:60px;""> </div>","null","fixation","html-keyboard-response","384","1346293","0.0-6.0-0.54","2941583","co37795","norming","","","","","","",""
"null","../img/tt/1186tt.jpg","null","mooney1","image-keyboard-response","385","1349296","0.0-6.0-1.54","2941583","co37795","norming","","","","","","",""
"5917.835000000196","","","post_mooney1_questions","survey-likert","386","1355218","0.0-6.0-2.54","2941583","co37795","norming","","","{""curiosity"":4,""confidence"":4}","[0,1]","../img/tt/1186tt.jpg","",""
"4509.995000000345","","","recognition","survey-text","387","1359729","0.0-6.0-3.54","2941583","co37795","norming","","","{""guess"":""man on street""}","","../img/tt/1186tt.jpg","",""
"null","../img/gs/1186gs.jpg","null","reveal","image-keyboard-response","388","1361737","0.0-6.0-4.54","2941583","co37795","norming","","","","","","",""
"null","../img/tt/1186tt.jpg","null","mooney2","image-keyboard-response","389","1363744","0.0-6.0-5.54","2941583","co37795","norming","","","","","","",""
"3941.565000000177","","","post_reveal_questions","survey-likert","390","1367689","0.0-6.0-6.54","2941583","co37795","norming","","","{""aha"":4}","[0]","../img/tt/1186tt.jpg","",""
"null","<div style=""font-size:60px;""> </div>","null","fixation","html-keyboard-response","391","1367893","0.0-6.0-0.55","2941583","co37795","norming","","","","","","",""
"null","../img/tt/1199tt.jpg","null","mooney1","image-keyboard-response","392","1370904","0.0-6.0-1.55","2941583","co37795","norming","","","","","","",""
"8757.814999999944","","","post_mooney1_questions","survey-likert","393","1379665","0.0-6.0-2.55","2941583","co37795","norming","","","{""curiosity"":4,""confidence"":2}","[0,1]","../img/tt/1199tt.jpg","",""
"3374.2700000002515","","","recognition","survey-text","394","1383040","0.0-6.0-3.55","2941583","co37795","norming","","","{""guess"":""man on bed""}","","../img/tt/1199tt.jpg","",""
"null","../img/gs/1199gs.jpg","null","reveal","image-keyboard-response","395","1385051","0.0-6.0-4.55","2941583","co37795","norming","","","","","","",""
"null","../img/tt/1199tt.jpg","null","mooney2","image-keyboard-response","396","1387059","0.0-6.0-5.55","2941583","co37795","norming","","","","","","",""
"3419.0050000005867","","","post_reveal_questions","survey-likert","397","1390481","0.0-6.0-6.55","2941583","co37795","norming","","","{""aha"":6}","[0]","../img/tt/1199tt.jpg","",""
"null","<div style=""font-size:60px;""> </div>","null","fixation","html-keyboard-response","398","1390691","0.0-6.0-0.56","2941583","co37795","norming","","","","","","",""
"null","../img/tt/353tt.jpg","null","mooney1","image-keyboard-response","399","1393694","0.0-6.0-1.56","2941583","co37795","norming","","","","","","",""
"6974.81500000041","","","post_mooney1_questions","survey-likert","400","1400672","0.0-6.0-2.56","2941583","co37795","norming","","","{""curiosity"":6,""confidence"":1}","[0,1]","../img/tt/353tt.jpg","",""
"1326.154999999795","","","recognition","survey-text","401","1402001","0.0-6.0-3.56","2941583","co37795","norming","","","{""guess"":""bird""}","","../img/tt/353tt.jpg","",""
"null","../img/gs/353gs.jpg","null","reveal","image-keyboard-response","402","1404002","0.0-6.0-4.56","2941583","co37795","norming","","","","","","",""
"null","../img/tt/353tt.jpg","null","mooney2","image-keyboard-response","403","1406008","0.0-6.0-5.56","2941583","co37795","norming","","","","","","",""
"3606.095000000205","","","post_reveal_questions","survey-likert","404","1409616","0.0-6.0-6.56","2941583","co37795","norming","","","{""aha"":4}","[0]","../img/tt/353tt.jpg","",""
"null","<div style=""font-size:60px;""> </div>","null","fixation","html-keyboard-response","405","1409824","0.0-6.0-0.57","2941583","co37795","norming","","","","","","",""
"null","../img/tt/1262tt.jpg","null","mooney1","image-keyboard-response","406","1412834","0.0-6.0-1.57","2941583","co37795","norming","","","","","","",""
"7419.64000000013","","","post_mooney1_questions","survey-likert","407","1420257","0.0-6.0-2.57","2941583","co37795","norming","","","{""curiosity"":6,""confidence"":2}","[0,1]","../img/tt/1262tt.jpg","",""
"1582.1299999996554","","","recognition","survey-text","408","1421841","0.0-6.0-3.57","2941583","co37795","norming","","","{""guess"":""kat""}","","../img/tt/1262tt.jpg","",""
"null","../img/gs/1262gs.jpg","null","reveal","image-keyboard-response","409","1423843","0.0-6.0-4.57","2941583","co37795","norming","","","","","","",""
"null","../img/tt/1262tt.jpg","null","mooney2","image-keyboard-response","410","1425846","0.0-6.0-5.57","2941583","co37795","norming","","","","","","",""
"2735.6650000000373","","","post_reveal_questions","survey-likert","411","1428584","0.0-6.0-6.57","2941583","co37795","norming","","","{""aha"":1}","[0]","../img/tt/1262tt.jpg","",""
"null","<div style=""font-size:60px;""> </div>","null","fixation","html-keyboard-response","412","1428787","0.0-6.0-0.58","2941583","co37795","norming","","","","","","",""
"null","../img/tt/580tt.jpg","null","mooney1","image-keyboard-response","413","1431794","0.0-6.0-1.58","2941583","co37795","norming","","","","","","",""
"6443.405000000028","","","post_mooney1_questions","survey-likert","414","1438243","0.0-6.0-2.58","2941583","co37795","norming","","","{""curiosity"":4,""confidence"":4}","[0,1]","../img/tt/580tt.jpg","",""
"1918.1899999994785","","","recognition","survey-text","415","1440163","0.0-6.0-3.58","2941583","co37795","norming","","","{""guess"":""wasbeer""}","","../img/tt/580tt.jpg","",""
"null","../img/gs/580gs.jpg","null","reveal","image-keyboard-response","416","1442173","0.0-6.0-4.58","2941583","co37795","norming","","","","","","",""
"null","../img/tt/580tt.jpg","null","mooney2","image-keyboard-response","417","1444176","0.0-6.0-5.58","2941583","co37795","norming","","","","","","",""
"1600.1149999992922","","","post_reveal_questions","survey-likert","418","1445779","0.0-6.0-6.58","2941583","co37795","norming","","","{""aha"":6}","[0]","../img/tt/580tt.jpg","",""
"null","<div style=""font-size:60px;""> </div>","null","fixation","html-keyboard-response","419","1445985","0.0-6.0-0.59","2941583","co37795","norming","","","","","","",""
"null","../img/tt/123tt.jpg","null","mooney1","image-keyboard-response","420","1448988","0.0-6.0-1.59","2941583","co37795","norming","","","","","","",""
"5908.070000000531","","","post_mooney1_questions","survey-likert","421","1454899","0.0-6.0-2.59","2941583","co37795","norming","","","{""curiosity"":0,""confidence"":6}","[0,1]","../img/tt/123tt.jpg","",""
"3077.905000000028","","","recognition","survey-text","422","1457979","0.0-6.0-3.59","2941583","co37795","norming","","","{""guess"":""boekentas""}","","../img/tt/123tt.jpg","",""
"null","../img/gs/123gs.jpg","null","reveal","image-keyboard-response","423","1459983","0.0-6.0-4.59","2941583","co37795","norming","","","","","","",""
"null","../img/tt/123tt.jpg","null","mooney2","image-keyboard-response","424","1461987","0.0-6.0-5.59","2941583","co37795","norming","","","","","","",""
"2654.3650000002235","","","post_reveal_questions","survey-likert","425","1464643","0.0-6.0-6.59","2941583","co37795","norming","","","{""aha"":0}","[0]","../img/tt/123tt.jpg","",""
"null","<div style=""font-size:60px;""> </div>","null","fixation","html-keyboard-response","426","1464848","0.0-6.0-0.60","2941583","co37795","norming","","","","","","",""
"null","../img/tt/020tt.jpg","null","mooney1","image-keyboard-response","427","1467859","0.0-6.0-1.60","2941583","co37795","norming","","","","","","",""
"4910.630000000121","","","post_mooney1_questions","survey-likert","428","1472771","0.0-6.0-2.60","2941583","co37795","norming","","","{""curiosity"":6,""confidence"":1}","[0,1]","../img/tt/020tt.jpg","",""
"3438.049999999581","","","recognition","survey-text","429","1476211","0.0-6.0-3.60","2941583","co37795","norming","","","{""guess"":""monster""}","","../img/tt/020tt.jpg","",""
"null","../img/gs/020gs.jpg","null","reveal","image-keyboard-response","430","1478217","0.0-6.0-4.60","2941583","co37795","norming","","","","","","",""
"null","../img/tt/020tt.jpg","null","mooney2","image-keyboard-response","431","1480219","0.0-6.0-5.60","2941583","co37795","norming","","","","","","",""
"3541.655000000028","","","post_reveal_questions","survey-likert","432","1483763","0.0-6.0-6.60","2941583","co37795","norming","","","{""aha"":6}","[0]","../img/tt/020tt.jpg","",""
"null","<div style=""font-size:60px;""> </div>","null","fixation","html-keyboard-response","433","1483964","0.0-6.0-0.61","2941583","co37795","norming","","","","","","",""
"null","../img/tt/1127tt.jpg","null","mooney1","image-keyboard-response","434","1486972","0.0-6.0-1.61","2941583","co37795","norming","","","","","","",""
"6011.499999999534","","","post_mooney1_questions","survey-likert","435","1492987","0.0-6.0-2.61","2941583","co37795","norming","","","{""curiosity"":1,""confidence"":4}","[0,1]","../img/tt/1127tt.jpg","",""
"3958.0649999997113","","","recognition","survey-text","436","1496946","0.0-6.0-3.61","2941583","co37795","norming","","","{""guess"":""karate class""}","","../img/tt/1127tt.jpg","",""
"null","../img/gs/1127gs.jpg","null","reveal","image-keyboard-response","437","1498947","0.0-6.0-4.61","2941583","co37795","norming","","","","","","",""
"null","../img/tt/1127tt.jpg","null","mooney2","image-keyboard-response","438","1500950","0.0-6.0-5.61","2941583","co37795","norming","","","","","","",""
"3785.4500000001863","","","post_reveal_questions","survey-likert","439","1504738","0.0-6.0-6.61","2941583","co37795","norming","","","{""aha"":2}","[0]","../img/tt/1127tt.jpg","",""
"null","<div style=""font-size:60px;""> </div>","null","fixation","html-keyboard-response","440","1504945","0.0-6.0-0.62","2941583","co37795","norming","","","","","","",""
"null","../img/tt/052tt.jpg","null","mooney1","image-keyboard-response","441","1507957","0.0-6.0-1.62","2941583","co37795","norming","","","","","","",""
"4708.004999999423","","","post_mooney1_questions","survey-likert","442","1512666","0.0-6.0-2.62","2941583","co37795","norming","","","{""curiosity"":5,""confidence"":3}","[0,1]","../img/tt/052tt.jpg","",""
"3606.034999999916","","","recognition","survey-text","443","1516274","0.0-6.0-3.62","2941583","co37795","norming","","","{""guess"":""trommel""}","","../img/tt/052tt.jpg","",""
"null","../img/gs/052gs.jpg","null","reveal","image-keyboard-response","444","1518281","0.0-6.0-4.62","2941583","co37795","norming","","","","","","",""
"null","../img/tt/052tt.jpg","null","mooney2","image-keyboard-response","445","1520283","0.0-6.0-5.62","2941583","co37795","norming","","","","","","",""
"2675.9949999994133","","","post_reveal_questions","survey-likert","446","1522962","0.0-6.0-6.62","2941583","co37795","norming","","","{""aha"":1}","[0]","../img/tt/052tt.jpg","",""
"null","<div style=""font-size:60px;""> </div>","null","fixation","html-keyboard-response","447","1523169","0.0-6.0-0.63","2941583","co37795","norming","","","","","","",""
"null","../img/tt/406tt.jpg","null","mooney1","image-keyboard-response","448","1526173","0.0-6.0-1.63","2941583","co37795","norming","","","","","","",""
"5817.364999999991","","","post_mooney1_questions","survey-likert","449","1531994","0.0-6.0-2.63","2941583","co37795","norming","","","{""curiosity"":5,""confidence"":1}","[0,1]","../img/tt/406tt.jpg","",""
"1446.0500000005122","","","recognition","survey-text","450","1533442","0.0-6.0-3.63","2941583","co37795","norming","","","{""guess"":""plane""}","","../img/tt/406tt.jpg","",""
"null","../img/gs/406gs.jpg","null","reveal","image-keyboard-response","451","1535449","0.0-6.0-4.63","2941583","co37795","norming","","","","","","",""
"null","../img/tt/406tt.jpg","null","mooney2","image-keyboard-response","452","1537458","0.0-6.0-5.63","2941583","co37795","norming","","","","","","",""
"2276.4200000001583","","","post_reveal_questions","survey-likert","453","1539738","0.0-6.0-6.63","2941583","co37795","norming","","","{""aha"":5}","[0]","../img/tt/406tt.jpg","",""
"null","<div style=""font-size:60px;""> </div>","null","fixation","html-keyboard-response","454","1539944","0.0-6.0-0.64","2941583","co37795","norming","","","","","","",""
"null","../img/tt/1362tt.jpg","null","mooney1","image-keyboard-response","455","1542954","0.0-6.0-1.64","2941583","co37795","norming","","","","","","",""
"6060.924999999814","","","post_mooney1_questions","survey-likert","456","1549018","0.0-6.0-2.64","2941583","co37795","norming","","","{""curiosity"":2,""confidence"":4}","[0,1]","../img/tt/1362tt.jpg","",""
"4086.3349999999627","","","recognition","survey-text","457","1553106","0.0-6.0-3.64","2941583","co37795","norming","","","{""guess"":""borden en tas""}","","../img/tt/1362tt.jpg","",""
"null","../img/gs/1362gs.jpg","null","reveal","image-keyboard-response","458","1555117","0.0-6.0-4.64","2941583","co37795","norming","","","","","","",""
"null","../img/tt/1362tt.jpg","null","mooney2","image-keyboard-response","459","1557131","0.0-6.0-5.64","2941583","co37795","norming","","","","","","",""
"1875.1149999999907","","","post_reveal_questions","survey-likert","460","1559009","0.0-6.0-6.64","2941583","co37795","norming","","","{""aha"":4}","[0]","../img/tt/1362tt.jpg","",""
"null","<div style=""font-size:60px;""> </div>","null","fixation","html-keyboard-response","461","1559213","0.0-6.0-0.65","2941583","co37795","norming","","","","","","",""
"null","../img/tt/524tt.jpg","null","mooney1","image-keyboard-response","462","1562217","0.0-6.0-1.65","2941583","co37795","norming","","","","","","",""
"6292.964999999618","","","post_mooney1_questions","survey-likert","463","1568513","0.0-6.0-2.65","2941583","co37795","norming","","","{""curiosity"":4,""confidence"":4}","[0,1]","../img/tt/524tt.jpg","",""
"1254.049999999581","","","recognition","survey-text","464","1569769","0.0-6.0-3.65","2941583","co37795","norming","","","{""guess"":""koe""}","","../img/tt/524tt.jpg","",""
"null","../img/gs/524gs.jpg","null","reveal","image-keyboard-response","465","1571772","0.0-6.0-4.65","2941583","co37795","norming","","","","","","",""
"null","../img/tt/524tt.jpg","null","mooney2","image-keyboard-response","466","1573776","0.0-6.0-5.65","2941583","co37795","norming","","","","","","",""
"2870.045000000624","","","post_reveal_questions","survey-likert","467","1576648","0.0-6.0-6.65","2941583","co37795","norming","","","{""aha"":4}","[0]","../img/tt/524tt.jpg","",""
"null","<div style=""font-size:60px;""> </div>","null","fixation","html-keyboard-response","468","1576853","0.0-6.0-0.66","2941583","co37795","norming","","","","","","",""
"null","../img/tt/032tt.jpg","null","mooney1","image-keyboard-response","469","1579863","0.0-6.0-1.66","2941583","co37795","norming","","","","","","",""
"5150.489999999991","","","post_mooney1_questions","survey-likert","470","1585017","0.0-6.0-2.66","2941583","co37795","norming","","","{""curiosity"":4,""confidence"":4}","[0,1]","../img/tt/032tt.jpg","",""
"2637.949999999255","","","recognition","survey-text","471","1587657","0.0-6.0-3.66","2941583","co37795","norming","","","{""guess"":""buffel""}","","../img/tt/032tt.jpg","",""
"null","../img/gs/032gs.jpg","null","reveal","image-keyboard-response","472","1589663","0.0-6.0-4.66","2941583","co37795","norming","","","","","","",""
"null","../img/tt/032tt.jpg","null","mooney2","image-keyboard-response","473","1591665","0.0-6.0-5.66","2941583","co37795","norming","","","","","","",""
"2636.4849999998696","","","post_reveal_questions","survey-likert","474","1594304","0.0-6.0-6.66","2941583","co37795","norming","","","{""aha"":6}","[0]","../img/tt/032tt.jpg","",""
"null","<div style=""font-size:60px;""> </div>","null","fixation","html-keyboard-response","475","1594512","0.0-6.0-0.67","2941583","co37795","norming","","","","","","",""
"null","../img/tt/1012tt.jpg","null","mooney1","image-keyboard-response","476","1597520","0.0-6.0-1.67","2941583","co37795","norming","","","","","","",""
"3860.1899999994785","","","post_mooney1_questions","survey-likert","477","1601384","0.0-6.0-2.67","2941583","co37795","norming","","","{""curiosity"":4,""confidence"":0}","[0,1]","../img/tt/1012tt.jpg","",""
"894.4599999994971","","","recognition","survey-text","478","1602281","0.0-6.0-3.67","2941583","co37795","norming","","","{""guess"":""""}","","../img/tt/1012tt.jpg","",""
"null","../img/gs/1012gs.jpg","null","reveal","image-keyboard-response","479","1604287","0.0-6.0-4.67","2941583","co37795","norming","","","","","","",""
"null","../img/tt/1012tt.jpg","null","mooney2","image-keyboard-response","480","1606293","0.0-6.0-5.67","2941583","co37795","norming","","","","","","",""
"2672.850000000093","","","post_reveal_questions","survey-likert","481","1608969","0.0-6.0-6.67","2941583","co37795","norming","","","{""aha"":5}","[0]","../img/tt/1012tt.jpg","",""
"null","<div style=""font-size:60px;""> </div>","null","fixation","html-keyboard-response","482","1609177","0.0-6.0-0.68","2941583","co37795","norming","","","","","","",""
"null","../img/tt/1278tt.jpg","null","mooney1","image-keyboard-response","483","1612184","0.0-6.0-1.68","2941583","co37795","norming","","","","","","",""
"5205.33499999973","","","post_mooney1_questions","survey-likert","484","1617393","0.0-6.0-2.68","2941583","co37795","norming","","","{""curiosity"":6,""confidence"":1}","[0,1]","../img/tt/1278tt.jpg","",""
"1861.8099999993574","","","recognition","survey-text","485","1619256","0.0-6.0-3.68","2941583","co37795","norming","","","{""guess"":""monster""}","","../img/tt/1278tt.jpg","",""
"null","../img/gs/1278gs.jpg","null","reveal","image-keyboard-response","486","1621261","0.0-6.0-4.68","2941583","co37795","norming","","","","","","",""
"null","../img/tt/1278tt.jpg","null","mooney2","image-keyboard-response","487","1623272","0.0-6.0-5.68","2941583","co37795","norming","","","","","","",""
"2430.3549999995157","","","post_reveal_questions","survey-likert","488","1625705","0.0-6.0-6.68","2941583","co37795","norming","","","{""aha"":6}","[0]","../img/tt/1278tt.jpg","",""
"null","<div style=""font-size:60px;""> </div>","null","fixation","html-keyboard-response","489","1625913","0.0-6.0-0.69","2941583","co37795","norming","","","","","","",""
"null","../img/tt/1247tt.jpg","null","mooney1","image-keyboard-response","490","1628917","0.0-6.0-1.69","2941583","co37795","norming","","","","","","",""
"4063.8449999997392","","","post_mooney1_questions","survey-likert","491","1632985","0.0-6.0-2.69","2941583","co37795","norming","","","{""curiosity"":6,""confidence"":2}","[0,1]","../img/tt/1247tt.jpg","",""
"3421.9549999998417","","","recognition","survey-text","492","1636408","0.0-6.0-3.69","2941583","co37795","norming","","","{""guess"":""2 gezichten""}","","../img/tt/1247tt.jpg","",""
"null","../img/gs/1247gs.jpg","null","reveal","image-keyboard-response","493","1638412","0.0-6.0-4.69","2941583","co37795","norming","","","","","","",""
"null","../img/tt/1247tt.jpg","null","mooney2","image-keyboard-response","494","1640423","0.0-6.0-5.69","2941583","co37795","norming","","","","","","",""
"3486.5900000003166","","","post_reveal_questions","survey-likert","495","1643912","0.0-6.0-6.69","2941583","co37795","norming","","","{""aha"":0}","[0]","../img/tt/1247tt.jpg","",""
"null","<div style=""font-size:60px;""> </div>","null","fixation","html-keyboard-response","496","1644120","0.0-6.0-0.70","2941583","co37795","norming","","","","","","",""
"null","../img/tt/1190tt.jpg","null","mooney1","image-keyboard-response","497","1647125","0.0-6.0-1.70","2941583","co37795","norming","","","","","","",""
"9912.339999999851","","","post_mooney1_questions","survey-likert","498","1657041","0.0-6.0-2.70","2941583","co37795","norming","","","{""curiosity"":6,""confidence"":2}","[0,1]","../img/tt/1190tt.jpg","",""
"2517.929999999935","","","recognition","survey-text","499","1659561","0.0-6.0-3.70","2941583","co37795","norming","","","{""guess"":""gebukt dier""}","","../img/tt/1190tt.jpg","",""
"null","../img/gs/1190gs.jpg","null","reveal","image-keyboard-response","500","1661566","0.0-6.0-4.70","2941583","co37795","norming","","","","","","",""
"null","../img/tt/1190tt.jpg","null","mooney2","image-keyboard-response","501","1663578","0.0-6.0-5.70","2941583","co37795","norming","","","","","","",""
"4555.665000000969","","","post_reveal_questions","survey-likert","502","1668136","0.0-6.0-6.70","2941583","co37795","norming","","","{""aha"":5}","[0]","../img/tt/1190tt.jpg","",""
"null","<div style=""font-size:60px;""> </div>","null","fixation","html-keyboard-response","503","1668341","0.0-6.0-0.71","2941583","co37795","norming","","","","","","",""
"null","../img/tt/121tt.jpg","null","mooney1","image-keyboard-response","504","1671347","0.0-6.0-1.71","2941583","co37795","norming","","","","","","",""
"3482.969999999972","","","post_mooney1_questions","survey-likert","505","1674833","0.0-6.0-2.71","2941583","co37795","norming","","","{""curiosity"":0,""confidence"":6}","[0,1]","../img/tt/121tt.jpg","",""
"3494.1350000000093","","","recognition","survey-text","506","1678333","0.0-6.0-3.71","2941583","co37795","norming","","","{""guess"":""kangoeroe""}","","../img/tt/121tt.jpg","",""
"null","../img/gs/121gs.jpg","null","reveal","image-keyboard-response","507","1680334","0.0-6.0-4.71","2941583","co37795","norming","","","","","","",""
"null","../img/tt/121tt.jpg","null","mooney2","image-keyboard-response","508","1682344","0.0-6.0-5.71","2941583","co37795","norming","","","","","","",""
"2601.9449999993667","","","post_reveal_questions","survey-likert","509","1684949","0.0-6.0-6.71","2941583","co37795","norming","","","{""aha"":0}","[0]","../img/tt/121tt.jpg","",""
"null","<div style=""font-size:60px;""> </div>","null","fixation","html-keyboard-response","510","1685151","0.0-6.0-0.72","2941583","co37795","norming","","","","","","",""
"null","../img/tt/081tt.jpg","null","mooney1","image-keyboard-response","511","1688155","0.0-6.0-1.72","2941583","co37795","norming","","","","","","",""
"4246.030000000261","","","post_mooney1_questions","survey-likert","512","1692405","0.0-6.0-2.72","2941583","co37795","norming","","","{""curiosity"":1,""confidence"":6}","[0,1]","../img/tt/081tt.jpg","",""
"1781.83499999973","","","recognition","survey-text","513","1694188","0.0-6.0-3.72","2941583","co37795","norming","","","{""guess"":""kikker""}","","../img/tt/081tt.jpg","",""
"null","../img/gs/081gs.jpg","null","reveal","image-keyboard-response","514","1696191","0.0-6.0-4.72","2941583","co37795","norming","","","","","","",""
"null","../img/tt/081tt.jpg","null","mooney2","image-keyboard-response","515","1698200","0.0-6.0-5.72","2941583","co37795","norming","","","","","","",""
"1433.6900000008754","","","post_reveal_questions","survey-likert","516","1699637","0.0-6.0-6.72","2941583","co37795","norming","","","{""aha"":1}","[0]","../img/tt/081tt.jpg","",""
"null","<div style=""font-size:60px;""> </div>","null","fixation","html-keyboard-response","517","1699846","0.0-6.0-0.73","2941583","co37795","norming","","","","","","",""
"null","../img/tt/1211tt.jpg","null","mooney1","image-keyboard-response","518","1702858","0.0-6.0-1.73","2941583","co37795","norming","","","","","","",""
"4654.779999999795","","","post_mooney1_questions","survey-likert","519","1707517","0.0-6.0-2.73","2941583","co37795","norming","","","{""curiosity"":5,""confidence"":2}","[0,1]","../img/tt/1211tt.jpg","",""
"2397.685000000056","","","recognition","survey-text","520","1709916","0.0-6.0-3.73","2941583","co37795","norming","","","{""guess"":""surfer""}","","../img/tt/1211tt.jpg","",""
"null","../img/gs/1211gs.jpg","null","reveal","image-keyboard-response","521","1711918","0.0-6.0-4.73","2941583","co37795","norming","","","","","","",""
"null","../img/tt/1211tt.jpg","null","mooney2","image-keyboard-response","522","1713919","0.0-6.0-5.73","2941583","co37795","norming","","","","","","",""
"2437.024999999441","","","post_reveal_questions","survey-likert","523","1716357","0.0-6.0-6.73","2941583","co37795","norming","","","{""aha"":6}","[0]","../img/tt/1211tt.jpg","",""
"null","<div style=""font-size:60px;""> </div>","null","fixation","html-keyboard-response","524","1716561","0.0-6.0-0.74","2941583","co37795","norming","","","","","","",""
"null","../img/tt/584tt.jpg","null","mooney1","image-keyboard-response","525","1719567","0.0-6.0-1.74","2941583","co37795","norming","","","","","","",""
"4161.965000000317","","","post_mooney1_questions","survey-likert","526","1723733","0.0-6.0-2.74","2941583","co37795","norming","","","{""curiosity"":4,""confidence"":5}","[0,1]","../img/tt/584tt.jpg","",""
"1814.0450000001583","","","recognition","survey-text","527","1725549","0.0-6.0-3.74","2941583","co37795","norming","","","{""guess"":""flower""}","","../img/tt/584tt.jpg","",""
"null","../img/gs/584gs.jpg","null","reveal","image-keyboard-response","528","1727550","0.0-6.0-4.74","2941583","co37795","norming","","","","","","",""
"null","../img/tt/584tt.jpg","null","mooney2","image-keyboard-response","529","1729555","0.0-6.0-5.74","2941583","co37795","norming","","","","","","",""
"3511.994999999879","","","post_reveal_questions","survey-likert","530","1733068","0.0-6.0-6.74","2941583","co37795","norming","","","{""aha"":5}","[0]","../img/tt/584tt.jpg","",""
"null","<div style=""font-size:60px;""> </div>","null","fixation","html-keyboard-response","531","1733279","0.0-6.0-0.75","2941583","co37795","norming","","","","","","",""
"null","../img/tt/1270tt.jpg","null","mooney1","image-keyboard-response","532","1736288","0.0-6.0-1.75","2941583","co37795","norming","","","","","","",""
"7219.349999999395","","","post_mooney1_questions","survey-likert","533","1743507","0.0-6.0-2.75","2941583","co37795","norming","","","{""curiosity"":2,""confidence"":5}","[0,1]","../img/tt/1270tt.jpg","",""
"2149.9150000000373","","","recognition","survey-text","534","1745659","0.0-6.0-3.75","2941583","co37795","norming","","","{""guess"":""hamster""}","","../img/tt/1270tt.jpg","",""
"null","../img/gs/1270gs.jpg","null","reveal","image-keyboard-response","535","1747663","0.0-6.0-4.75","2941583","co37795","norming","","","","","","",""
"null","../img/tt/1270tt.jpg","null","mooney2","image-keyboard-response","536","1749665","0.0-6.0-5.75","2941583","co37795","norming","","","","","","",""
"1686.7750000001397","","","post_reveal_questions","survey-likert","537","1751355","0.0-6.0-6.75","2941583","co37795","norming","","","{""aha"":0}","[0]","../img/tt/1270tt.jpg","",""
"null","<div style=""font-size:60px;""> </div>","null","fixation","html-keyboard-response","538","1751556","0.0-6.0-0.76","2941583","co37795","norming","","","","","","",""
"null","../img/tt/273tt.jpg","null","mooney1","image-keyboard-response","539","1754561","0.0-6.0-1.76","2941583","co37795","norming","","","","","","",""
"3870.6750000000466","","","post_mooney1_questions","survey-likert","540","1758435","0.0-6.0-2.76","2941583","co37795","norming","","","{""curiosity"":0,""confidence"":6}","[0,1]","../img/tt/273tt.jpg","",""
"1877.7650000001304","","","recognition","survey-text","541","1760315","0.0-6.0-3.76","2941583","co37795","norming","","","{""guess"":""beugel""}","","../img/tt/273tt.jpg","",""
"null","../img/gs/273gs.jpg","null","reveal","image-keyboard-response","542","1762320","0.0-6.0-4.76","2941583","co37795","norming","","","","","","",""
"null","../img/tt/273tt.jpg","null","mooney2","image-keyboard-response","543","1764328","0.0-6.0-5.76","2941583","co37795","norming","","","","","","",""
"2577.9499999997206","","","post_reveal_questions","survey-likert","544","1766907","0.0-6.0-6.76","2941583","co37795","norming","","","{""aha"":0}","[0]","../img/tt/273tt.jpg","",""
"null","<div style=""font-size:60px;""> </div>","null","fixation","html-keyboard-response","545","1767114","0.0-6.0-0.77","2941583","co37795","norming","","","","","","",""
"null","../img/tt/1227tt.jpg","null","mooney1","image-keyboard-response","546","1770122","0.0-6.0-1.77","2941583","co37795","norming","","","","","","",""
"4847.120000000345","","","post_mooney1_questions","survey-likert","547","1774971","0.0-6.0-2.77","2941583","co37795","norming","","","{""curiosity"":4,""confidence"":4}","[0,1]","../img/tt/1227tt.jpg","",""
"2413.590000000084","","","recognition","survey-text","548","1777387","0.0-6.0-3.77","2941583","co37795","norming","","","{""guess"":""3  birds""}","","../img/tt/1227tt.jpg","",""
"null","../img/gs/1227gs.jpg","null","reveal","image-keyboard-response","549","1779393","0.0-6.0-4.77","2941583","co37795","norming","","","","","","",""
"null","../img/tt/1227tt.jpg","null","mooney2","image-keyboard-response","550","1781403","0.0-6.0-5.77","2941583","co37795","norming","","","","","","",""
"3029.109999999404","","","post_reveal_questions","survey-likert","551","1784435","0.0-6.0-6.77","2941583","co37795","norming","","","{""aha"":4}","[0]","../img/tt/1227tt.jpg","",""
