"rt","stimulus","key_press","test_part","trial_type","trial_index","time_elapsed","internal_node_id","totalTime","subject","experiment_name","button_pressed","success","responses","question_order","currentStim","old","correct"
"6914.949999999976","Welcome to the experiment. This is an online experiment so please don't close the tab/window until we say goodbye.  Press any key to begin.","75","instructions","html-keyboard-response","0","6928","0.0-0.0","2447341","co37576","norming","","","","","","",""
"27846.63499999999","<div style='word-wrap: break-word; width: 900px'><h3>Please consider this information carefully before deciding whether to participate in this research</h3><ul style='text-align: left; font-size: .8em;'><li><b>Purpose of the research</b>: To examine how people process images.</li><li><b>What you will do in this research</b>:  Stimuli (images) will be presented on the computer and you will be asked different questions about them.</li><li><b>Time required</b>: Participation will take between 45 and 60 minutes to complete.</li><li><b>Risks</b>:  There are no anticipated risks associated with participating in this study. The effects of participating should be comparable to those you would experience from viewing a computer monitor for 30 minutes and using a mouse or keyboard.</li><li><b>Benefits</b>:  This study provides no benefits to you individually except for the credit. The study provides important information about the nature of perception and learning.</li><li><b>Confidentiality</b>:  Your participation in this study will remain confidential. No personally identifiable information will be associated with your data. Your de-identified data may be shared with other researchers and used in future projects.</li><li><b>Participation and withdrawal</b>:  Your participation in this study is completely voluntary and you may refuse to participate or you may choose to withdraw at any time without penalty.</li><li><b>How to contact the researchers</b>: If you have questions or concerns about your participation or payment, or want to request a summary of research findings, please contact Sander Van de Cruys (KU Leuven), at sander.vandecruys@kuleuven.be.</li></ul><p>The nature and purpose of this research have been sufficiently explained and I agree to participate in this study.  I understand that I am free to withdraw at any time without incurring any penalty.</p><p>Please consent by clicking the button below to continue. Otherwise, please exit the study at this time.</p></div>","","instructions","html-button-response","1","34837","0.0-1.0","2447341","co37576","norming","0","","","","","",""
"","","","instructions","fullscreen","2","39394","0.0-2.0","2447341","co37576","norming","","true","","","","",""
"26802.44499999992","","","sona","survey-html-form","3","66198","0.0-3.0","2447341","co37576","norming","","","[{""name"":""sonaid"",""value"":""37576""},{""name"":""debrief"",""value"":""no""},{""name"":""datajoin"",""value"":""yes""}]","","","",""
"42563.550000000076","<div style='word-wrap: break-word; width: 900px'><h3>Instructions</h3><p>This experiment will have 3 parts. In the first part you will see a series of distorted images like the one below on the left. As you can see in the righthand image, the distorted images are derived from actual photographs. In what follows, you will <strong>briefly</strong> be presented with <strong>only</strong> the distorted image.</p> <div style='float: left; margin-right: 20px;'><img src='../img/018tt.jpg' height='250' width='250'></img></div><div style='float: right; margin-left: 20px;'><img src='../img/018gs.jpg' height='250' width='250'></img></div><p>Subsequently you will be asked a few questions about the image: One question on how <strong>curious</strong> you are about the solution and one on how <strong>confident</strong> you are that you know the solution.</p>Next, we ask you to make a guess on what is in the image. Note that it is OK to name just the <strong>basic level category</strong>. For example when you see a parrot in the image, 'parrot' will obviously be a correct answer but also correct is 'bird'. However, 'animal' will <strong>not</strong> be counted as a correct response. For the example above, 'rose' would be correct or 'flower', but not 'plant'. When soccer players are depicted, 'soccer', 'football', 'soccer players' will be correct, but not 'humans', 'outdoors', or 'sports'. You do not need to describe the image in full, just name the main object in it <strong>in one or two words</strong>. All images depict objects from one of the following broad level categories: animals, inanimate objects, plants, sports, vehicles, and food. Recognizing means knowing <strong>more</strong> than these broad labels for a given image. But we always encourage you to <strong>make a guess</strong> if you can. Note that you are allowed to use <strong>Dutch and English</strong> in your answers, whatever comes easiest for you.</p><p>Press any key to continue.</p></div>","75","instructions","html-keyboard-response","4","108761","0.0-4.0","2447341","co37576","norming","","","","","","",""
"20541.51000000001","<div style='word-wrap: break-word; width: 900px'><h3>Instructions</h3> <p>Next, the solution image will be revealed to you and you'll be asked to indicate how strong your <strong>aha-experience</strong> was after seeing the solution. This describes the positive feeling of the 'click' you sometimes experience, when the pieces of the 'puzzle' fall together and you suddenly have 'insight' in the image.</p><img src='aha.jpg' height='188' width='250'></img><p>Note that there are no right or wrong answers. We are interested in what <strong>you</strong> see in the image and how <strong>you</strong> feel about it.</p><p>Press any key to start the experiment.</p></div>","75","instructions","html-keyboard-response","5","129304","0.0-5.0","2447341","co37576","norming","","","","","","",""
"null","<div style=""font-size:60px;""> </div>","null","fixation","html-keyboard-response","6","129514","0.0-6.0-0.0","2447341","co37576","norming","","","","","","",""
"null","../img/tt/1024tt.jpg","null","mooney1","image-keyboard-response","7","132526","0.0-6.0-1.0","2447341","co37576","norming","","","","","","",""
"14375.969999999943","","","post_mooney1_questions","survey-likert","8","146905","0.0-6.0-2.0","2447341","co37576","norming","","","{""curiosity"":3,""confidence"":5}","[0,1]","../img/tt/1024tt.jpg","",""
"3917.5299999999406","","","recognition","survey-text","9","150824","0.0-6.0-3.0","2447341","co37576","norming","","","{""guess"":""""}","","../img/tt/1024tt.jpg","",""
"null","../img/gs/1024gs.jpg","null","reveal","image-keyboard-response","10","152832","0.0-6.0-4.0","2447341","co37576","norming","","","","","","",""
"null","../img/tt/1024tt.jpg","null","mooney2","image-keyboard-response","11","154840","0.0-6.0-5.0","2447341","co37576","norming","","","","","","",""
"6965.905000000028","","","post_reveal_questions","survey-likert","12","161808","0.0-6.0-6.0","2447341","co37576","norming","","","{""aha"":1}","[0]","../img/tt/1024tt.jpg","",""
"null","<div style=""font-size:60px;""> </div>","null","fixation","html-keyboard-response","13","162019","0.0-6.0-0.1","2447341","co37576","norming","","","","","","",""
"null","../img/tt/315tt.jpg","null","mooney1","image-keyboard-response","14","165025","0.0-6.0-1.1","2447341","co37576","norming","","","","","","",""
"6558.659999999916","","","post_mooney1_questions","survey-likert","15","171592","0.0-6.0-2.1","2447341","co37576","norming","","","{""curiosity"":6,""confidence"":0}","[0,1]","../img/tt/315tt.jpg","",""
"2222.040000000008","","","recognition","survey-text","16","173816","0.0-6.0-3.1","2447341","co37576","norming","","","{""guess"":""""}","","../img/tt/315tt.jpg","",""
"null","../img/gs/315gs.jpg","null","reveal","image-keyboard-response","17","175818","0.0-6.0-4.1","2447341","co37576","norming","","","","","","",""
"null","../img/tt/315tt.jpg","null","mooney2","image-keyboard-response","18","177820","0.0-6.0-5.1","2447341","co37576","norming","","","","","","",""
"4705.915000000008","","","post_reveal_questions","survey-likert","19","182528","0.0-6.0-6.1","2447341","co37576","norming","","","{""aha"":5}","[0]","../img/tt/315tt.jpg","",""
"null","<div style=""font-size:60px;""> </div>","null","fixation","html-keyboard-response","20","182734","0.0-6.0-0.2","2447341","co37576","norming","","","","","","",""
"null","../img/tt/1232tt.jpg","null","mooney1","image-keyboard-response","21","185739","0.0-6.0-1.2","2447341","co37576","norming","","","","","","",""
"12354.330000000016","","","post_mooney1_questions","survey-likert","22","198096","0.0-6.0-2.2","2447341","co37576","norming","","","{""curiosity"":6,""confidence"":0}","[0,1]","../img/tt/1232tt.jpg","",""
"28869.899999999936","","","recognition","survey-text","23","226968","0.0-6.0-3.2","2447341","co37576","norming","","","{""guess"":""tenniscourt""}","","../img/tt/1232tt.jpg","",""
"null","../img/gs/1232gs.jpg","null","reveal","image-keyboard-response","24","228971","0.0-6.0-4.2","2447341","co37576","norming","","","","","","",""
"null","../img/tt/1232tt.jpg","null","mooney2","image-keyboard-response","25","230980","0.0-6.0-5.2","2447341","co37576","norming","","","","","","",""
"3267.735000000015","","","post_reveal_questions","survey-likert","26","234249","0.0-6.0-6.2","2447341","co37576","norming","","","{""aha"":5}","[0]","../img/tt/1232tt.jpg","",""
"null","<div style=""font-size:60px;""> </div>","null","fixation","html-keyboard-response","27","234451","0.0-6.0-0.3","2447341","co37576","norming","","","","","","",""
"null","../img/tt/1128tt.jpg","null","mooney1","image-keyboard-response","28","237453","0.0-6.0-1.3","2447341","co37576","norming","","","","","","",""
"4568.845000000001","","","post_mooney1_questions","survey-likert","29","242025","0.0-6.0-2.3","2447341","co37576","norming","","","{""curiosity"":3,""confidence"":4}","[0,1]","../img/tt/1128tt.jpg","",""
"5877.870000000024","","","recognition","survey-text","30","247904","0.0-6.0-3.3","2447341","co37576","norming","","","{""guess"":""panda""}","","../img/tt/1128tt.jpg","",""
"null","../img/gs/1128gs.jpg","null","reveal","image-keyboard-response","31","249906","0.0-6.0-4.3","2447341","co37576","norming","","","","","","",""
"null","../img/tt/1128tt.jpg","null","mooney2","image-keyboard-response","32","251909","0.0-6.0-5.3","2447341","co37576","norming","","","","","","",""
"3385.3850000000675","","","post_reveal_questions","survey-likert","33","255297","0.0-6.0-6.3","2447341","co37576","norming","","","{""aha"":5}","[0]","../img/tt/1128tt.jpg","",""
"null","<div style=""font-size:60px;""> </div>","null","fixation","html-keyboard-response","34","255498","0.0-6.0-0.4","2447341","co37576","norming","","","","","","",""
"null","../img/tt/1227tt.jpg","null","mooney1","image-keyboard-response","35","258502","0.0-6.0-1.4","2447341","co37576","norming","","","","","","",""
"4545.479999999981","","","post_mooney1_questions","survey-likert","36","263049","0.0-6.0-2.4","2447341","co37576","norming","","","{""curiosity"":5,""confidence"":4}","[0,1]","../img/tt/1227tt.jpg","",""
"3430.1350000000675","","","recognition","survey-text","37","266481","0.0-6.0-3.4","2447341","co37576","norming","","","{""guess"":""chicken""}","","../img/tt/1227tt.jpg","",""
"null","../img/gs/1227gs.jpg","null","reveal","image-keyboard-response","38","268491","0.0-6.0-4.4","2447341","co37576","norming","","","","","","",""
"null","../img/tt/1227tt.jpg","null","mooney2","image-keyboard-response","39","270495","0.0-6.0-5.4","2447341","co37576","norming","","","","","","",""
"2200.759999999951","","","post_reveal_questions","survey-likert","40","272697","0.0-6.0-6.4","2447341","co37576","norming","","","{""aha"":3}","[0]","../img/tt/1227tt.jpg","",""
"null","<div style=""font-size:60px;""> </div>","null","fixation","html-keyboard-response","41","272903","0.0-6.0-0.5","2447341","co37576","norming","","","","","","",""
"null","../img/tt/1154tt.jpg","null","mooney1","image-keyboard-response","42","275904","0.0-6.0-1.5","2447341","co37576","norming","","","","","","",""
"4334.264999999956","","","post_mooney1_questions","survey-likert","43","280241","0.0-6.0-2.5","2447341","co37576","norming","","","{""curiosity"":6,""confidence"":0}","[0,1]","../img/tt/1154tt.jpg","",""
"733.8100000001141","","","recognition","survey-text","44","280976","0.0-6.0-3.5","2447341","co37576","norming","","","{""guess"":""""}","","../img/tt/1154tt.jpg","",""
"null","../img/gs/1154gs.jpg","null","reveal","image-keyboard-response","45","282979","0.0-6.0-4.5","2447341","co37576","norming","","","","","","",""
"null","../img/tt/1154tt.jpg","null","mooney2","image-keyboard-response","46","284980","0.0-6.0-5.5","2447341","co37576","norming","","","","","","",""
"1787.2700000000186","","","post_reveal_questions","survey-likert","47","286768","0.0-6.0-6.5","2447341","co37576","norming","","","{""aha"":5}","[0]","../img/tt/1154tt.jpg","",""
"null","<div style=""font-size:60px;""> </div>","null","fixation","html-keyboard-response","48","286977","0.0-6.0-0.6","2447341","co37576","norming","","","","","","",""
"null","../img/tt/046tt.jpg","null","mooney1","image-keyboard-response","49","289986","0.0-6.0-1.6","2447341","co37576","norming","","","","","","",""
"3532.030000000086","","","post_mooney1_questions","survey-likert","50","293521","0.0-6.0-2.6","2447341","co37576","norming","","","{""curiosity"":5,""confidence"":1}","[0,1]","../img/tt/046tt.jpg","",""
"2197.92499999993","","","recognition","survey-text","51","295721","0.0-6.0-3.6","2447341","co37576","norming","","","{""guess"":""face""}","","../img/tt/046tt.jpg","",""
"null","../img/gs/046gs.jpg","null","reveal","image-keyboard-response","52","297724","0.0-6.0-4.6","2447341","co37576","norming","","","","","","",""
"null","../img/tt/046tt.jpg","null","mooney2","image-keyboard-response","53","299732","0.0-6.0-5.6","2447341","co37576","norming","","","","","","",""
"3753.8349999999627","","","post_reveal_questions","survey-likert","54","303488","0.0-6.0-6.6","2447341","co37576","norming","","","{""aha"":4}","[0]","../img/tt/046tt.jpg","",""
"null","<div style=""font-size:60px;""> </div>","null","fixation","html-keyboard-response","55","303690","0.0-6.0-0.7","2447341","co37576","norming","","","","","","",""
"null","../img/tt/1146tt.jpg","null","mooney1","image-keyboard-response","56","306702","0.0-6.0-1.7","2447341","co37576","norming","","","","","","",""
"3584.344999999972","","","post_mooney1_questions","survey-likert","57","310289","0.0-6.0-2.7","2447341","co37576","norming","","","{""curiosity"":4,""confidence"":4}","[0,1]","../img/tt/1146tt.jpg","",""
"3310.1250000001164","","","recognition","survey-text","58","313601","0.0-6.0-3.7","2447341","co37576","norming","","","{""guess"":""bridge""}","","../img/tt/1146tt.jpg","",""
"null","../img/gs/1146gs.jpg","null","reveal","image-keyboard-response","59","315606","0.0-6.0-4.7","2447341","co37576","norming","","","","","","",""
"null","../img/tt/1146tt.jpg","null","mooney2","image-keyboard-response","60","317609","0.0-6.0-5.7","2447341","co37576","norming","","","","","","",""
"2901.1399999999558","","","post_reveal_questions","survey-likert","61","320513","0.0-6.0-6.7","2447341","co37576","norming","","","{""aha"":3}","[0]","../img/tt/1146tt.jpg","",""
"null","<div style=""font-size:60px;""> </div>","null","fixation","html-keyboard-response","62","320723","0.0-6.0-0.8","2447341","co37576","norming","","","","","","",""
"null","../img/tt/378tt.jpg","null","mooney1","image-keyboard-response","63","323731","0.0-6.0-1.8","2447341","co37576","norming","","","","","","",""
"4123.275000000023","","","post_mooney1_questions","survey-likert","64","327857","0.0-6.0-2.8","2447341","co37576","norming","","","{""curiosity"":3,""confidence"":3}","[0,1]","../img/tt/378tt.jpg","",""
"2286.070000000007","","","recognition","survey-text","65","330145","0.0-6.0-3.8","2447341","co37576","norming","","","{""guess"":""cow""}","","../img/tt/378tt.jpg","",""
"null","../img/gs/378gs.jpg","null","reveal","image-keyboard-response","66","332148","0.0-6.0-4.8","2447341","co37576","norming","","","","","","",""
"null","../img/tt/378tt.jpg","null","mooney2","image-keyboard-response","67","334156","0.0-6.0-5.8","2447341","co37576","norming","","","","","","",""
"1802.4000000000233","","","post_reveal_questions","survey-likert","68","335961","0.0-6.0-6.8","2447341","co37576","norming","","","{""aha"":5}","[0]","../img/tt/378tt.jpg","",""
"null","<div style=""font-size:60px;""> </div>","null","fixation","html-keyboard-response","69","336163","0.0-6.0-0.9","2447341","co37576","norming","","","","","","",""
"null","../img/tt/357tt.jpg","null","mooney1","image-keyboard-response","70","339167","0.0-6.0-1.9","2447341","co37576","norming","","","","","","",""
"4679.450000000012","","","post_mooney1_questions","survey-likert","71","343849","0.0-6.0-2.9","2447341","co37576","norming","","","{""curiosity"":6,""confidence"":0}","[0,1]","../img/tt/357tt.jpg","",""
"838.4050000000861","","","recognition","survey-text","72","344689","0.0-6.0-3.9","2447341","co37576","norming","","","{""guess"":""""}","","../img/tt/357tt.jpg","",""
"null","../img/gs/357gs.jpg","null","reveal","image-keyboard-response","73","346690","0.0-6.0-4.9","2447341","co37576","norming","","","","","","",""
"null","../img/tt/357tt.jpg","null","mooney2","image-keyboard-response","74","348692","0.0-6.0-5.9","2447341","co37576","norming","","","","","","",""
"2362.579999999958","","","post_reveal_questions","survey-likert","75","351056","0.0-6.0-6.9","2447341","co37576","norming","","","{""aha"":3}","[0]","../img/tt/357tt.jpg","",""
"null","<div style=""font-size:60px;""> </div>","null","fixation","html-keyboard-response","76","351263","0.0-6.0-0.10","2447341","co37576","norming","","","","","","",""
"null","../img/tt/1027tt.jpg","null","mooney1","image-keyboard-response","77","354268","0.0-6.0-1.10","2447341","co37576","norming","","","","","","",""
"2945.914999999979","","","post_mooney1_questions","survey-likert","78","357217","0.0-6.0-2.10","2447341","co37576","norming","","","{""curiosity"":4,""confidence"":4}","[0,1]","../img/tt/1027tt.jpg","",""
"2462.0499999999884","","","recognition","survey-text","79","359680","0.0-6.0-3.10","2447341","co37576","norming","","","{""guess"":""cow""}","","../img/tt/1027tt.jpg","",""
"null","../img/gs/1027gs.jpg","null","reveal","image-keyboard-response","80","361686","0.0-6.0-4.10","2447341","co37576","norming","","","","","","",""
"null","../img/tt/1027tt.jpg","null","mooney2","image-keyboard-response","81","363688","0.0-6.0-5.10","2447341","co37576","norming","","","","","","",""
"3654.405000000028","","","post_reveal_questions","survey-likert","82","367345","0.0-6.0-6.10","2447341","co37576","norming","","","{""aha"":3}","[0]","../img/tt/1027tt.jpg","",""
"null","<div style=""font-size:60px;""> </div>","null","fixation","html-keyboard-response","83","367550","0.0-6.0-0.11","2447341","co37576","norming","","","","","","",""
"null","../img/tt/118tt.jpg","null","mooney1","image-keyboard-response","84","370556","0.0-6.0-1.11","2447341","co37576","norming","","","","","","",""
"7801.825000000012","","","post_mooney1_questions","survey-likert","85","378360","0.0-6.0-2.11","2447341","co37576","norming","","","{""curiosity"":4,""confidence"":1}","[0,1]","../img/tt/118tt.jpg","",""
"2734.3250000000116","","","recognition","survey-text","86","381096","0.0-6.0-3.11","2447341","co37576","norming","","","{""guess"":""bed""}","","../img/tt/118tt.jpg","",""
"null","../img/gs/118gs.jpg","null","reveal","image-keyboard-response","87","383100","0.0-6.0-4.11","2447341","co37576","norming","","","","","","",""
"null","../img/tt/118tt.jpg","null","mooney2","image-keyboard-response","88","385107","0.0-6.0-5.11","2447341","co37576","norming","","","","","","",""
"2964.0100000000093","","","post_reveal_questions","survey-likert","89","388073","0.0-6.0-6.11","2447341","co37576","norming","","","{""aha"":5}","[0]","../img/tt/118tt.jpg","",""
"null","<div style=""font-size:60px;""> </div>","null","fixation","html-keyboard-response","90","388274","0.0-6.0-0.12","2447341","co37576","norming","","","","","","",""
"null","../img/tt/080tt.jpg","null","mooney1","image-keyboard-response","91","391278","0.0-6.0-1.12","2447341","co37576","norming","","","","","","",""
"2879.8950000000186","","","post_mooney1_questions","survey-likert","92","394161","0.0-6.0-2.12","2447341","co37576","norming","","","{""curiosity"":3,""confidence"":3}","[0,1]","../img/tt/080tt.jpg","",""
"3214.0499999999884","","","recognition","survey-text","93","397376","0.0-6.0-3.12","2447341","co37576","norming","","","{""guess"":""mountain""}","","../img/tt/080tt.jpg","",""
"null","../img/gs/080gs.jpg","null","reveal","image-keyboard-response","94","399380","0.0-6.0-4.12","2447341","co37576","norming","","","","","","",""
"null","../img/tt/080tt.jpg","null","mooney2","image-keyboard-response","95","401382","0.0-6.0-5.12","2447341","co37576","norming","","","","","","",""
"2328.3900000001304","","","post_reveal_questions","survey-likert","96","403712","0.0-6.0-6.12","2447341","co37576","norming","","","{""aha"":5}","[0]","../img/tt/080tt.jpg","",""
"null","<div style=""font-size:60px;""> </div>","null","fixation","html-keyboard-response","97","403921","0.0-6.0-0.13","2447341","co37576","norming","","","","","","",""
"null","../img/tt/1046tt.jpg","null","mooney1","image-keyboard-response","98","406924","0.0-6.0-1.13","2447341","co37576","norming","","","","","","",""
"4097.649999999907","","","post_mooney1_questions","survey-likert","99","411024","0.0-6.0-2.13","2447341","co37576","norming","","","{""curiosity"":4,""confidence"":4}","[0,1]","../img/tt/1046tt.jpg","",""
"2230.4200000001","","","recognition","survey-text","100","413256","0.0-6.0-3.13","2447341","co37576","norming","","","{""guess"":""duck""}","","../img/tt/1046tt.jpg","",""
"null","../img/gs/1046gs.jpg","null","reveal","image-keyboard-response","101","415264","0.0-6.0-4.13","2447341","co37576","norming","","","","","","",""
"null","../img/tt/1046tt.jpg","null","mooney2","image-keyboard-response","102","417266","0.0-6.0-5.13","2447341","co37576","norming","","","","","","",""
"3867.9400000001187","","","post_reveal_questions","survey-likert","103","421136","0.0-6.0-6.13","2447341","co37576","norming","","","{""aha"":6}","[0]","../img/tt/1046tt.jpg","",""
"null","<div style=""font-size:60px;""> </div>","null","fixation","html-keyboard-response","104","421339","0.0-6.0-0.14","2447341","co37576","norming","","","","","","",""
"null","../img/tt/1151tt.jpg","null","mooney1","image-keyboard-response","105","424346","0.0-6.0-1.14","2447341","co37576","norming","","","","","","",""
"3715.9500000000116","","","post_mooney1_questions","survey-likert","106","428065","0.0-6.0-2.14","2447341","co37576","norming","","","{""curiosity"":6,""confidence"":0}","[0,1]","../img/tt/1151tt.jpg","",""
"1078.070000000007","","","recognition","survey-text","107","429144","0.0-6.0-3.14","2447341","co37576","norming","","","{""guess"":""""}","","../img/tt/1151tt.jpg","",""
"null","../img/gs/1151gs.jpg","null","reveal","image-keyboard-response","108","431155","0.0-6.0-4.14","2447341","co37576","norming","","","","","","",""
"null","../img/tt/1151tt.jpg","null","mooney2","image-keyboard-response","109","433157","0.0-6.0-5.14","2447341","co37576","norming","","","","","","",""
"3025.2999999999884","","","post_reveal_questions","survey-likert","110","436185","0.0-6.0-6.14","2447341","co37576","norming","","","{""aha"":5}","[0]","../img/tt/1151tt.jpg","",""
"null","<div style=""font-size:60px;""> </div>","null","fixation","html-keyboard-response","111","436386","0.0-6.0-0.15","2447341","co37576","norming","","","","","","",""
"null","../img/tt/049tt.jpg","null","mooney1","image-keyboard-response","112","439396","0.0-6.0-1.15","2447341","co37576","norming","","","","","","",""
"3185.6399999999558","","","post_mooney1_questions","survey-likert","113","442585","0.0-6.0-2.15","2447341","co37576","norming","","","{""curiosity"":6,""confidence"":0}","[0,1]","../img/tt/049tt.jpg","",""
"958.105000000156","","","recognition","survey-text","114","443544","0.0-6.0-3.15","2447341","co37576","norming","","","{""guess"":""""}","","../img/tt/049tt.jpg","",""
"null","../img/gs/049gs.jpg","null","reveal","image-keyboard-response","115","445551","0.0-6.0-4.15","2447341","co37576","norming","","","","","","",""
"null","../img/tt/049tt.jpg","null","mooney2","image-keyboard-response","116","447560","0.0-6.0-5.15","2447341","co37576","norming","","","","","","",""
"2661.9650000000256","","","post_reveal_questions","survey-likert","117","450225","0.0-6.0-6.15","2447341","co37576","norming","","","{""aha"":4}","[0]","../img/tt/049tt.jpg","",""
"null","<div style=""font-size:60px;""> </div>","null","fixation","html-keyboard-response","118","450427","0.0-6.0-0.16","2447341","co37576","norming","","","","","","",""
"null","../img/tt/140tt.jpg","null","mooney1","image-keyboard-response","119","453434","0.0-6.0-1.16","2447341","co37576","norming","","","","","","",""
"4235.580000000016","","","post_mooney1_questions","survey-likert","120","457673","0.0-6.0-2.16","2447341","co37576","norming","","","{""curiosity"":4,""confidence"":4}","[0,1]","../img/tt/140tt.jpg","",""
"2389.630000000121","","","recognition","survey-text","121","460064","0.0-6.0-3.16","2447341","co37576","norming","","","{""guess"":""bird""}","","../img/tt/140tt.jpg","",""
"null","../img/gs/140gs.jpg","null","reveal","image-keyboard-response","122","462068","0.0-6.0-4.16","2447341","co37576","norming","","","","","","",""
"null","../img/tt/140tt.jpg","null","mooney2","image-keyboard-response","123","464077","0.0-6.0-5.16","2447341","co37576","norming","","","","","","",""
"2305.3549999999814","","","post_reveal_questions","survey-likert","124","466384","0.0-6.0-6.16","2447341","co37576","norming","","","{""aha"":5}","[0]","../img/tt/140tt.jpg","",""
"null","<div style=""font-size:60px;""> </div>","null","fixation","html-keyboard-response","125","466586","0.0-6.0-0.17","2447341","co37576","norming","","","","","","",""
"null","../img/tt/1126tt.jpg","null","mooney1","image-keyboard-response","126","469592","0.0-6.0-1.17","2447341","co37576","norming","","","","","","",""
"3486.034999999916","","","post_mooney1_questions","survey-likert","127","473080","0.0-6.0-2.17","2447341","co37576","norming","","","{""curiosity"":4,""confidence"":3}","[0,1]","../img/tt/1126tt.jpg","",""
"2158.3000000000466","","","recognition","survey-text","128","475240","0.0-6.0-3.17","2447341","co37576","norming","","","{""guess"":""bird""}","","../img/tt/1126tt.jpg","",""
"null","../img/gs/1126gs.jpg","null","reveal","image-keyboard-response","129","477245","0.0-6.0-4.17","2447341","co37576","norming","","","","","","",""
"null","../img/tt/1126tt.jpg","null","mooney2","image-keyboard-response","130","479255","0.0-6.0-5.17","2447341","co37576","norming","","","","","","",""
"2216.204999999958","","","post_reveal_questions","survey-likert","131","481473","0.0-6.0-6.17","2447341","co37576","norming","","","{""aha"":6}","[0]","../img/tt/1126tt.jpg","",""
"null","<div style=""font-size:60px;""> </div>","null","fixation","html-keyboard-response","132","481680","0.0-6.0-0.18","2447341","co37576","norming","","","","","","",""
"null","../img/tt/010tt.jpg","null","mooney1","image-keyboard-response","133","484684","0.0-6.0-1.18","2447341","co37576","norming","","","","","","",""
"7739.010000000009","","","post_mooney1_questions","survey-likert","134","492425","0.0-6.0-2.18","2447341","co37576","norming","","","{""curiosity"":3,""confidence"":0}","[0,1]","../img/tt/010tt.jpg","",""
"1126.4300000000512","","","recognition","survey-text","135","493553","0.0-6.0-3.18","2447341","co37576","norming","","","{""guess"":""""}","","../img/tt/010tt.jpg","",""
"null","../img/gs/010gs.jpg","null","reveal","image-keyboard-response","136","495554","0.0-6.0-4.18","2447341","co37576","norming","","","","","","",""
"null","../img/tt/010tt.jpg","null","mooney2","image-keyboard-response","137","497556","0.0-6.0-5.18","2447341","co37576","norming","","","","","","",""
"2067.1999999999534","","","post_reveal_questions","survey-likert","138","499625","0.0-6.0-6.18","2447341","co37576","norming","","","{""aha"":5}","[0]","../img/tt/010tt.jpg","",""
"null","<div style=""font-size:60px;""> </div>","null","fixation","html-keyboard-response","139","499831","0.0-6.0-0.19","2447341","co37576","norming","","","","","","",""
"null","../img/tt/1148tt.jpg","null","mooney1","image-keyboard-response","140","502836","0.0-6.0-1.19","2447341","co37576","norming","","","","","","",""
"6074.614999999991","","","post_mooney1_questions","survey-likert","141","508914","0.0-6.0-2.19","2447341","co37576","norming","","","{""curiosity"":4,""confidence"":2}","[0,1]","../img/tt/1148tt.jpg","",""
"4453.999999999942","","","recognition","survey-text","142","513369","0.0-6.0-3.19","2447341","co37576","norming","","","{""guess"":""human""}","","../img/tt/1148tt.jpg","",""
"null","../img/gs/1148gs.jpg","null","reveal","image-keyboard-response","143","515375","0.0-6.0-4.19","2447341","co37576","norming","","","","","","",""
"null","../img/tt/1148tt.jpg","null","mooney2","image-keyboard-response","144","517378","0.0-6.0-5.19","2447341","co37576","norming","","","","","","",""
"1940.5050000000629","","","post_reveal_questions","survey-likert","145","519321","0.0-6.0-6.19","2447341","co37576","norming","","","{""aha"":5}","[0]","../img/tt/1148tt.jpg","",""
"null","<div style=""font-size:60px;""> </div>","null","fixation","html-keyboard-response","146","519526","0.0-6.0-0.20","2447341","co37576","norming","","","","","","",""
"null","../img/tt/468tt.jpg","null","mooney1","image-keyboard-response","147","522536","0.0-6.0-1.20","2447341","co37576","norming","","","","","","",""
"5414.779999999853","","","post_mooney1_questions","survey-likert","148","527954","0.0-6.0-2.20","2447341","co37576","norming","","","{""curiosity"":4,""confidence"":3}","[0,1]","../img/tt/468tt.jpg","",""
"3870.04999999993","","","recognition","survey-text","149","531825","0.0-6.0-3.20","2447341","co37576","norming","","","{""guess"":""""}","","../img/tt/468tt.jpg","",""
"null","../img/gs/468gs.jpg","null","reveal","image-keyboard-response","150","533827","0.0-6.0-4.20","2447341","co37576","norming","","","","","","",""
"null","../img/tt/468tt.jpg","null","mooney2","image-keyboard-response","151","535831","0.0-6.0-5.20","2447341","co37576","norming","","","","","","",""
"4568","","","post_reveal_questions","survey-likert","152","540397","0.0-6.0-6.20","2447341","co37576","norming","","","{""aha"":3}","[0]","../img/tt/468tt.jpg","",""
"null","<div style=""font-size:60px;""> </div>","null","fixation","html-keyboard-response","153","540599","0.0-6.0-0.21","2447341","co37576","norming","","","","","","",""
"null","../img/tt/1260tt.jpg","null","mooney1","image-keyboard-response","154","543610","0.0-6.0-1.21","2447341","co37576","norming","","","","","","",""
"4336.244999999879","","","post_mooney1_questions","survey-likert","155","547949","0.0-6.0-2.21","2447341","co37576","norming","","","{""curiosity"":4,""confidence"":0}","[0,1]","../img/tt/1260tt.jpg","",""
"750.1700000000419","","","recognition","survey-text","156","548701","0.0-6.0-3.21","2447341","co37576","norming","","","{""guess"":""""}","","../img/tt/1260tt.jpg","",""
"null","../img/gs/1260gs.jpg","null","reveal","image-keyboard-response","157","550710","0.0-6.0-4.21","2447341","co37576","norming","","","","","","",""
"null","../img/tt/1260tt.jpg","null","mooney2","image-keyboard-response","158","552713","0.0-6.0-5.21","2447341","co37576","norming","","","","","","",""
"4985.730000000098","","","post_reveal_questions","survey-likert","159","557701","0.0-6.0-6.21","2447341","co37576","norming","","","{""aha"":3}","[0]","../img/tt/1260tt.jpg","",""
"null","<div style=""font-size:60px;""> </div>","null","fixation","html-keyboard-response","160","557905","0.0-6.0-0.22","2447341","co37576","norming","","","","","","",""
"null","../img/tt/1278tt.jpg","null","mooney1","image-keyboard-response","161","560912","0.0-6.0-1.22","2447341","co37576","norming","","","","","","",""
"3866.0299999999115","","","post_mooney1_questions","survey-likert","162","564781","0.0-6.0-2.22","2447341","co37576","norming","","","{""curiosity"":3,""confidence"":0}","[0,1]","../img/tt/1278tt.jpg","",""
"902.0400000000373","","","recognition","survey-text","163","565685","0.0-6.0-3.22","2447341","co37576","norming","","","{""guess"":""""}","","../img/tt/1278tt.jpg","",""
"null","../img/gs/1278gs.jpg","null","reveal","image-keyboard-response","164","567694","0.0-6.0-4.22","2447341","co37576","norming","","","","","","",""
"null","../img/tt/1278tt.jpg","null","mooney2","image-keyboard-response","165","569702","0.0-6.0-5.22","2447341","co37576","norming","","","","","","",""
"3724.7900000000373","","","post_reveal_questions","survey-likert","166","573429","0.0-6.0-6.22","2447341","co37576","norming","","","{""aha"":3}","[0]","../img/tt/1278tt.jpg","",""
"null","<div style=""font-size:60px;""> </div>","null","fixation","html-keyboard-response","167","573637","0.0-6.0-0.23","2447341","co37576","norming","","","","","","",""
"null","../img/tt/353tt.jpg","null","mooney1","image-keyboard-response","168","576649","0.0-6.0-1.23","2447341","co37576","norming","","","","","","",""
"3992.944999999949","","","post_mooney1_questions","survey-likert","169","580645","0.0-6.0-2.23","2447341","co37576","norming","","","{""curiosity"":4,""confidence"":2}","[0,1]","../img/tt/353tt.jpg","",""
"2774.1049999999814","","","recognition","survey-text","170","583421","0.0-6.0-3.23","2447341","co37576","norming","","","{""guess"":""fox""}","","../img/tt/353tt.jpg","",""
"null","../img/gs/353gs.jpg","null","reveal","image-keyboard-response","171","585425","0.0-6.0-4.23","2447341","co37576","norming","","","","","","",""
"null","../img/tt/353tt.jpg","null","mooney2","image-keyboard-response","172","587433","0.0-6.0-5.23","2447341","co37576","norming","","","","","","",""
"2259.245000000228","","","post_reveal_questions","survey-likert","173","589693","0.0-6.0-6.23","2447341","co37576","norming","","","{""aha"":4}","[0]","../img/tt/353tt.jpg","",""
"null","<div style=""font-size:60px;""> </div>","null","fixation","html-keyboard-response","174","589901","0.0-6.0-0.24","2447341","co37576","norming","","","","","","",""
"null","../img/tt/552tt.jpg","null","mooney1","image-keyboard-response","175","592904","0.0-6.0-1.24","2447341","co37576","norming","","","","","","",""
"5172.139999999898","","","post_mooney1_questions","survey-likert","176","598085","0.0-6.0-2.24","2447341","co37576","norming","","","{""curiosity"":4,""confidence"":4}","[0,1]","../img/tt/552tt.jpg","",""
"2701.7800000001444","","","recognition","survey-text","177","600788","0.0-6.0-3.24","2447341","co37576","norming","","","{""guess"":""rabbit""}","","../img/tt/552tt.jpg","",""
"null","../img/gs/552gs.jpg","null","reveal","image-keyboard-response","178","602798","0.0-6.0-4.24","2447341","co37576","norming","","","","","","",""
"null","../img/tt/552tt.jpg","null","mooney2","image-keyboard-response","179","604808","0.0-6.0-5.24","2447341","co37576","norming","","","","","","",""
"8292.140000000014","","","post_reveal_questions","survey-likert","180","613101","0.0-6.0-6.24","2447341","co37576","norming","","","{""aha"":4}","[0]","../img/tt/552tt.jpg","",""
"null","<div style=""font-size:60px;""> </div>","null","fixation","html-keyboard-response","181","613311","0.0-6.0-0.25","2447341","co37576","norming","","","","","","",""
"null","../img/tt/319tt.jpg","null","mooney1","image-keyboard-response","182","616312","0.0-6.0-1.25","2447341","co37576","norming","","","","","","",""
"5547.429999999818","","","post_mooney1_questions","survey-likert","183","621861","0.0-6.0-2.25","2447341","co37576","norming","","","{""curiosity"":1,""confidence"":6}","[0,1]","../img/tt/319tt.jpg","",""
"3093.759999999893","","","recognition","survey-text","184","624956","0.0-6.0-3.25","2447341","co37576","norming","","","{""guess"":""cow""}","","../img/tt/319tt.jpg","",""
"null","../img/gs/319gs.jpg","null","reveal","image-keyboard-response","185","626963","0.0-6.0-4.25","2447341","co37576","norming","","","","","","",""
"null","../img/tt/319tt.jpg","null","mooney2","image-keyboard-response","186","628973","0.0-6.0-5.25","2447341","co37576","norming","","","","","","",""
"2358.259999999893","","","post_reveal_questions","survey-likert","187","631333","0.0-6.0-6.25","2447341","co37576","norming","","","{""aha"":4}","[0]","../img/tt/319tt.jpg","",""
"null","<div style=""font-size:60px;""> </div>","null","fixation","html-keyboard-response","188","631535","0.0-6.0-0.26","2447341","co37576","norming","","","","","","",""
"null","../img/tt/094tt.jpg","null","mooney1","image-keyboard-response","189","634539","0.0-6.0-1.26","2447341","co37576","norming","","","","","","",""
"8520.490000000107","","","post_mooney1_questions","survey-likert","190","643061","0.0-6.0-2.26","2447341","co37576","norming","","","{""curiosity"":4,""confidence"":4}","[0,1]","../img/tt/094tt.jpg","",""
"2741.9000000000233","","","recognition","survey-text","191","645804","0.0-6.0-3.26","2447341","co37576","norming","","","{""guess"":""wolve""}","","../img/tt/094tt.jpg","",""
"null","../img/gs/094gs.jpg","null","reveal","image-keyboard-response","192","647810","0.0-6.0-4.26","2447341","co37576","norming","","","","","","",""
"null","../img/tt/094tt.jpg","null","mooney2","image-keyboard-response","193","649816","0.0-6.0-5.26","2447341","co37576","norming","","","","","","",""
"1411.7299999997485","","","post_reveal_questions","survey-likert","194","651229","0.0-6.0-6.26","2447341","co37576","norming","","","{""aha"":3}","[0]","../img/tt/094tt.jpg","",""
"null","<div style=""font-size:60px;""> </div>","null","fixation","html-keyboard-response","195","651438","0.0-6.0-0.27","2447341","co37576","norming","","","","","","",""
"null","../img/tt/112tt.jpg","null","mooney1","image-keyboard-response","196","654439","0.0-6.0-1.27","2447341","co37576","norming","","","","","","",""
"4124.619999999995","","","post_mooney1_questions","survey-likert","197","658566","0.0-6.0-2.27","2447341","co37576","norming","","","{""curiosity"":4,""confidence"":1}","[0,1]","../img/tt/112tt.jpg","",""
"2453.954999999958","","","recognition","survey-text","198","661022","0.0-6.0-3.27","2447341","co37576","norming","","","{""guess"":""knive""}","","../img/tt/112tt.jpg","",""
"null","../img/gs/112gs.jpg","null","reveal","image-keyboard-response","199","663030","0.0-6.0-4.27","2447341","co37576","norming","","","","","","",""
"null","../img/tt/112tt.jpg","null","mooney2","image-keyboard-response","200","665038","0.0-6.0-5.27","2447341","co37576","norming","","","","","","",""
"2511.2249999999767","","","post_reveal_questions","survey-likert","201","667550","0.0-6.0-6.27","2447341","co37576","norming","","","{""aha"":4}","[0]","../img/tt/112tt.jpg","",""
"null","<div style=""font-size:60px;""> </div>","null","fixation","html-keyboard-response","202","667755","0.0-6.0-0.28","2447341","co37576","norming","","","","","","",""
"null","../img/tt/076tt.jpg","null","mooney1","image-keyboard-response","203","670756","0.0-6.0-1.28","2447341","co37576","norming","","","","","","",""
"4433.829999999958","","","post_mooney1_questions","survey-likert","204","675191","0.0-6.0-2.28","2447341","co37576","norming","","","{""curiosity"":3,""confidence"":4}","[0,1]","../img/tt/076tt.jpg","",""
"4398.080000000191","","","recognition","survey-text","205","679591","0.0-6.0-3.28","2447341","co37576","norming","","","{""guess"":""rollerskates""}","","../img/tt/076tt.jpg","",""
"null","../img/gs/076gs.jpg","null","reveal","image-keyboard-response","206","681596","0.0-6.0-4.28","2447341","co37576","norming","","","","","","",""
"null","../img/tt/076tt.jpg","null","mooney2","image-keyboard-response","207","683603","0.0-6.0-5.28","2447341","co37576","norming","","","","","","",""
"1674.865000000107","","","post_reveal_questions","survey-likert","208","685279","0.0-6.0-6.28","2447341","co37576","norming","","","{""aha"":3}","[0]","../img/tt/076tt.jpg","",""
"null","<div style=""font-size:60px;""> </div>","null","fixation","html-keyboard-response","209","685488","0.0-6.0-0.29","2447341","co37576","norming","","","","","","",""
"null","../img/tt/1237tt.jpg","null","mooney1","image-keyboard-response","210","688489","0.0-6.0-1.29","2447341","co37576","norming","","","","","","",""
"3084.1999999999534","","","post_mooney1_questions","survey-likert","211","691574","0.0-6.0-2.29","2447341","co37576","norming","","","{""curiosity"":6,""confidence"":0}","[0,1]","../img/tt/1237tt.jpg","",""
"901.9499999999534","","","recognition","survey-text","212","692478","0.0-6.0-3.29","2447341","co37576","norming","","","{""guess"":""""}","","../img/tt/1237tt.jpg","",""
"null","../img/gs/1237gs.jpg","null","reveal","image-keyboard-response","213","694487","0.0-6.0-4.29","2447341","co37576","norming","","","","","","",""
"null","../img/tt/1237tt.jpg","null","mooney2","image-keyboard-response","214","696496","0.0-6.0-5.29","2447341","co37576","norming","","","","","","",""
"3549.1399999998976","","","post_reveal_questions","survey-likert","215","700046","0.0-6.0-6.29","2447341","co37576","norming","","","{""aha"":5}","[0]","../img/tt/1237tt.jpg","",""
"null","<div style=""font-size:60px;""> </div>","null","fixation","html-keyboard-response","216","700247","0.0-6.0-0.30","2447341","co37576","norming","","","","","","",""
"null","../img/tt/418tt.jpg","null","mooney1","image-keyboard-response","217","703250","0.0-6.0-1.30","2447341","co37576","norming","","","","","","",""
"6330.9349999999395","","","post_mooney1_questions","survey-likert","218","709582","0.0-6.0-2.30","2447341","co37576","norming","","","{""curiosity"":4,""confidence"":0}","[0,1]","../img/tt/418tt.jpg","",""
"661.5900000002002","","","recognition","survey-text","219","710246","0.0-6.0-3.30","2447341","co37576","norming","","","{""guess"":""""}","","../img/tt/418tt.jpg","",""
"null","../img/gs/418gs.jpg","null","reveal","image-keyboard-response","220","712252","0.0-6.0-4.30","2447341","co37576","norming","","","","","","",""
"null","../img/tt/418tt.jpg","null","mooney2","image-keyboard-response","221","714263","0.0-6.0-5.30","2447341","co37576","norming","","","","","","",""
"2750.7349999998696","","","post_reveal_questions","survey-likert","222","717014","0.0-6.0-6.30","2447341","co37576","norming","","","{""aha"":4}","[0]","../img/tt/418tt.jpg","",""
"null","<div style=""font-size:60px;""> </div>","null","fixation","html-keyboard-response","223","717218","0.0-6.0-0.31","2447341","co37576","norming","","","","","","",""
"null","../img/tt/1048tt.jpg","null","mooney1","image-keyboard-response","224","720228","0.0-6.0-1.31","2447341","co37576","norming","","","","","","",""
"5003.135000000126","","","post_mooney1_questions","survey-likert","225","725232","0.0-6.0-2.31","2447341","co37576","norming","","","{""curiosity"":3,""confidence"":1}","[0,1]","../img/tt/1048tt.jpg","",""
"2213.9000000000233","","","recognition","survey-text","226","727448","0.0-6.0-3.31","2447341","co37576","norming","","","{""guess"":""tree""}","","../img/tt/1048tt.jpg","",""
"null","../img/gs/1048gs.jpg","null","reveal","image-keyboard-response","227","729458","0.0-6.0-4.31","2447341","co37576","norming","","","","","","",""
"null","../img/tt/1048tt.jpg","null","mooney2","image-keyboard-response","228","731460","0.0-6.0-5.31","2447341","co37576","norming","","","","","","",""
"2993.5800000000745","","","post_reveal_questions","survey-likert","229","734456","0.0-6.0-6.31","2447341","co37576","norming","","","{""aha"":4}","[0]","../img/tt/1048tt.jpg","",""
"null","<div style=""font-size:60px;""> </div>","null","fixation","html-keyboard-response","230","734658","0.0-6.0-0.32","2447341","co37576","norming","","","","","","",""
"null","../img/tt/1072tt.jpg","null","mooney1","image-keyboard-response","231","737668","0.0-6.0-1.32","2447341","co37576","norming","","","","","","",""
"3105.634999999893","","","post_mooney1_questions","survey-likert","232","740777","0.0-6.0-2.32","2447341","co37576","norming","","","{""curiosity"":4,""confidence"":2}","[0,1]","../img/tt/1072tt.jpg","",""
"2517.554999999935","","","recognition","survey-text","233","743296","0.0-6.0-3.32","2447341","co37576","norming","","","{""guess"":""bench""}","","../img/tt/1072tt.jpg","",""
"null","../img/gs/1072gs.jpg","null","reveal","image-keyboard-response","234","745306","0.0-6.0-4.32","2447341","co37576","norming","","","","","","",""
"null","../img/tt/1072tt.jpg","null","mooney2","image-keyboard-response","235","747317","0.0-6.0-5.32","2447341","co37576","norming","","","","","","",""
"2570.314999999944","","","post_reveal_questions","survey-likert","236","749888","0.0-6.0-6.32","2447341","co37576","norming","","","{""aha"":4}","[0]","../img/tt/1072tt.jpg","",""
"null","<div style=""font-size:60px;""> </div>","null","fixation","html-keyboard-response","237","750089","0.0-6.0-0.33","2447341","co37576","norming","","","","","","",""
"null","../img/tt/1171tt.jpg","null","mooney1","image-keyboard-response","238","753099","0.0-6.0-1.33","2447341","co37576","norming","","","","","","",""
"3564.6699999999255","","","post_mooney1_questions","survey-likert","239","756665","0.0-6.0-2.33","2447341","co37576","norming","","","{""curiosity"":3,""confidence"":3}","[0,1]","../img/tt/1171tt.jpg","",""
"3077.939999999944","","","recognition","survey-text","240","759744","0.0-6.0-3.33","2447341","co37576","norming","","","{""guess"":""dog""}","","../img/tt/1171tt.jpg","",""
"null","../img/gs/1171gs.jpg","null","reveal","image-keyboard-response","241","761748","0.0-6.0-4.33","2447341","co37576","norming","","","","","","",""
"null","../img/tt/1171tt.jpg","null","mooney2","image-keyboard-response","242","763756","0.0-6.0-5.33","2447341","co37576","norming","","","","","","",""
"5482.160000000033","","","post_reveal_questions","survey-likert","243","769240","0.0-6.0-6.33","2447341","co37576","norming","","","{""aha"":1}","[0]","../img/tt/1171tt.jpg","",""
"null","<div style=""font-size:60px;""> </div>","null","fixation","html-keyboard-response","244","769445","0.0-6.0-0.34","2447341","co37576","norming","","","","","","",""
"null","../img/tt/1255tt.jpg","null","mooney1","image-keyboard-response","245","772448","0.0-6.0-1.34","2447341","co37576","norming","","","","","","",""
"4156.964999999851","","","post_mooney1_questions","survey-likert","246","776608","0.0-6.0-2.34","2447341","co37576","norming","","","{""curiosity"":3,""confidence"":0}","[0,1]","../img/tt/1255tt.jpg","",""
"654.015000000014","","","recognition","survey-text","247","777264","0.0-6.0-3.34","2447341","co37576","norming","","","{""guess"":""""}","","../img/tt/1255tt.jpg","",""
"null","../img/gs/1255gs.jpg","null","reveal","image-keyboard-response","248","779267","0.0-6.0-4.34","2447341","co37576","norming","","","","","","",""
"null","../img/tt/1255tt.jpg","null","mooney2","image-keyboard-response","249","781269","0.0-6.0-5.34","2447341","co37576","norming","","","","","","",""
"1361.5449999999255","","","post_reveal_questions","survey-likert","250","782633","0.0-6.0-6.34","2447341","co37576","norming","","","{""aha"":4}","[0]","../img/tt/1255tt.jpg","",""
"null","<div style=""font-size:60px;""> </div>","null","fixation","html-keyboard-response","251","782837","0.0-6.0-0.35","2447341","co37576","norming","","","","","","",""
"null","../img/tt/013tt.jpg","null","mooney1","image-keyboard-response","252","785847","0.0-6.0-1.35","2447341","co37576","norming","","","","","","",""
"5495.655000000028","","","post_mooney1_questions","survey-likert","253","791345","0.0-6.0-2.35","2447341","co37576","norming","","","{""curiosity"":4,""confidence"":3}","[0,1]","../img/tt/013tt.jpg","",""
"2614.064999999944","","","recognition","survey-text","254","793961","0.0-6.0-3.35","2447341","co37576","norming","","","{""guess"":""camel""}","","../img/tt/013tt.jpg","",""
"null","../img/gs/013gs.jpg","null","reveal","image-keyboard-response","255","795962","0.0-6.0-4.35","2447341","co37576","norming","","","","","","",""
"null","../img/tt/013tt.jpg","null","mooney2","image-keyboard-response","256","797964","0.0-6.0-5.35","2447341","co37576","norming","","","","","","",""
"6034.504999999772","","","post_reveal_questions","survey-likert","257","804001","0.0-6.0-6.35","2447341","co37576","norming","","","{""aha"":4}","[0]","../img/tt/013tt.jpg","",""
"null","<div style=""font-size:60px;""> </div>","null","fixation","html-keyboard-response","258","804208","0.0-6.0-0.36","2447341","co37576","norming","","","","","","",""
"null","../img/tt/1211tt.jpg","null","mooney1","image-keyboard-response","259","807216","0.0-6.0-1.36","2447341","co37576","norming","","","","","","",""
"2925.769999999786","","","post_mooney1_questions","survey-likert","260","810145","0.0-6.0-2.36","2447341","co37576","norming","","","{""curiosity"":4,""confidence"":3}","[0,1]","../img/tt/1211tt.jpg","",""
"5734.214999999851","","","recognition","survey-text","261","815881","0.0-6.0-3.36","2447341","co37576","norming","","","{""guess"":""icebear""}","","../img/tt/1211tt.jpg","",""
"null","../img/gs/1211gs.jpg","null","reveal","image-keyboard-response","262","817882","0.0-6.0-4.36","2447341","co37576","norming","","","","","","",""
"null","../img/tt/1211tt.jpg","null","mooney2","image-keyboard-response","263","819890","0.0-6.0-5.36","2447341","co37576","norming","","","","","","",""
"3196.5899999999674","","","post_reveal_questions","survey-likert","264","823089","0.0-6.0-6.36","2447341","co37576","norming","","","{""aha"":2}","[0]","../img/tt/1211tt.jpg","",""
"null","<div style=""font-size:60px;""> </div>","null","fixation","html-keyboard-response","265","823293","0.0-6.0-0.37","2447341","co37576","norming","","","","","","",""
"null","../img/tt/477tt.jpg","null","mooney1","image-keyboard-response","266","826298","0.0-6.0-1.37","2447341","co37576","norming","","","","","","",""
"4180.209999999963","","","post_mooney1_questions","survey-likert","267","830481","0.0-6.0-2.37","2447341","co37576","norming","","","{""curiosity"":5,""confidence"":0}","[0,1]","../img/tt/477tt.jpg","",""
"1254.1599999999162","","","recognition","survey-text","268","831737","0.0-6.0-3.37","2447341","co37576","norming","","","{""guess"":""""}","","../img/tt/477tt.jpg","",""
"null","../img/gs/477gs.jpg","null","reveal","image-keyboard-response","269","833738","0.0-6.0-4.37","2447341","co37576","norming","","","","","","",""
"null","../img/tt/477tt.jpg","null","mooney2","image-keyboard-response","270","835741","0.0-6.0-5.37","2447341","co37576","norming","","","","","","",""
"2569.144999999902","","","post_reveal_questions","survey-likert","271","838313","0.0-6.0-6.37","2447341","co37576","norming","","","{""aha"":3}","[0]","../img/tt/477tt.jpg","",""
"null","<div style=""font-size:60px;""> </div>","null","fixation","html-keyboard-response","272","838522","0.0-6.0-0.38","2447341","co37576","norming","","","","","","",""
"null","../img/tt/524tt.jpg","null","mooney1","image-keyboard-response","273","841528","0.0-6.0-1.38","2447341","co37576","norming","","","","","","",""
"5701.754999999888","","","post_mooney1_questions","survey-likert","274","847232","0.0-6.0-2.38","2447341","co37576","norming","","","{""curiosity"":3,""confidence"":0}","[0,1]","../img/tt/524tt.jpg","",""
"701.875","","","recognition","survey-text","275","847937","0.0-6.0-3.38","2447341","co37576","norming","","","{""guess"":""""}","","../img/tt/524tt.jpg","",""
"null","../img/gs/524gs.jpg","null","reveal","image-keyboard-response","276","849943","0.0-6.0-4.38","2447341","co37576","norming","","","","","","",""
"null","../img/tt/524tt.jpg","null","mooney2","image-keyboard-response","277","851954","0.0-6.0-5.38","2447341","co37576","norming","","","","","","",""
"1468.505000000121","","","post_reveal_questions","survey-likert","278","853425","0.0-6.0-6.38","2447341","co37576","norming","","","{""aha"":3}","[0]","../img/tt/524tt.jpg","",""
"null","<div style=""font-size:60px;""> </div>","null","fixation","html-keyboard-response","279","853628","0.0-6.0-0.39","2447341","co37576","norming","","","","","","",""
"null","../img/tt/301tt.jpg","null","mooney1","image-keyboard-response","280","856640","0.0-6.0-1.39","2447341","co37576","norming","","","","","","",""
"3101.9499999999534","","","post_mooney1_questions","survey-likert","281","859745","0.0-6.0-2.39","2447341","co37576","norming","","","{""curiosity"":4,""confidence"":0}","[0,1]","../img/tt/301tt.jpg","",""
"765.8249999999534","","","recognition","survey-text","282","860513","0.0-6.0-3.39","2447341","co37576","norming","","","{""guess"":""""}","","../img/tt/301tt.jpg","",""
"null","../img/gs/301gs.jpg","null","reveal","image-keyboard-response","283","862514","0.0-6.0-4.39","2447341","co37576","norming","","","","","","",""
"null","../img/tt/301tt.jpg","null","mooney2","image-keyboard-response","284","864516","0.0-6.0-5.39","2447341","co37576","norming","","","","","","",""
"14361.920000000042","","","post_reveal_questions","survey-likert","285","878881","0.0-6.0-6.39","2447341","co37576","norming","","","{""aha"":3}","[0]","../img/tt/301tt.jpg","",""
"null","<div style=""font-size:60px;""> </div>","null","fixation","html-keyboard-response","286","879082","0.0-6.0-0.40","2447341","co37576","norming","","","","","","",""
"null","../img/tt/1040tt.jpg","null","mooney1","image-keyboard-response","287","882085","0.0-6.0-1.40","2447341","co37576","norming","","","","","","",""
"3311.960000000079","","","post_mooney1_questions","survey-likert","288","885401","0.0-6.0-2.40","2447341","co37576","norming","","","{""curiosity"":3,""confidence"":0}","[0,1]","../img/tt/1040tt.jpg","",""
"846.1600000000326","","","recognition","survey-text","289","886249","0.0-6.0-3.40","2447341","co37576","norming","","","{""guess"":""""}","","../img/tt/1040tt.jpg","",""
"null","../img/gs/1040gs.jpg","null","reveal","image-keyboard-response","290","888254","0.0-6.0-4.40","2447341","co37576","norming","","","","","","",""
"null","../img/tt/1040tt.jpg","null","mooney2","image-keyboard-response","291","890256","0.0-6.0-5.40","2447341","co37576","norming","","","","","","",""
"2277.990000000107","","","post_reveal_questions","survey-likert","292","892537","0.0-6.0-6.40","2447341","co37576","norming","","","{""aha"":5}","[0]","../img/tt/1040tt.jpg","",""
"null","<div style=""font-size:60px;""> </div>","null","fixation","html-keyboard-response","293","892738","0.0-6.0-0.41","2447341","co37576","norming","","","","","","",""
"null","../img/tt/1228tt.jpg","null","mooney1","image-keyboard-response","294","895741","0.0-6.0-1.41","2447341","co37576","norming","","","","","","",""
"4280.359999999986","","","post_mooney1_questions","survey-likert","295","900025","0.0-6.0-2.41","2447341","co37576","norming","","","{""curiosity"":4,""confidence"":2}","[0,1]","../img/tt/1228tt.jpg","",""
"2645.9599999999627","","","recognition","survey-text","296","902663","0.0-6.0-3.41","2447341","co37576","norming","","","{""guess"":""bird""}","","../img/tt/1228tt.jpg","",""
"null","../img/gs/1228gs.jpg","null","reveal","image-keyboard-response","297","904669","0.0-6.0-4.41","2447341","co37576","norming","","","","","","",""
"null","../img/tt/1228tt.jpg","null","mooney2","image-keyboard-response","298","906678","0.0-6.0-5.41","2447341","co37576","norming","","","","","","",""
"2774.7600000000093","","","post_reveal_questions","survey-likert","299","909456","0.0-6.0-6.41","2447341","co37576","norming","","","{""aha"":4}","[0]","../img/tt/1228tt.jpg","",""
"null","<div style=""font-size:60px;""> </div>","null","fixation","html-keyboard-response","300","909657","0.0-6.0-0.42","2447341","co37576","norming","","","","","","",""
"null","../img/tt/1156tt.jpg","null","mooney1","image-keyboard-response","301","912666","0.0-6.0-1.42","2447341","co37576","norming","","","","","","",""
"2964.195000000065","","","post_mooney1_questions","survey-likert","302","915632","0.0-6.0-2.42","2447341","co37576","norming","","","{""curiosity"":3,""confidence"":2}","[0,1]","../img/tt/1156tt.jpg","",""
"8253.905000000144","","","recognition","survey-text","303","923887","0.0-6.0-3.42","2447341","co37576","norming","","","{""guess"":""crocodile""}","","../img/tt/1156tt.jpg","",""
"null","../img/gs/1156gs.jpg","null","reveal","image-keyboard-response","304","925893","0.0-6.0-4.42","2447341","co37576","norming","","","","","","",""
"null","../img/tt/1156tt.jpg","null","mooney2","image-keyboard-response","305","927900","0.0-6.0-5.42","2447341","co37576","norming","","","","","","",""
"2193.3349999999627","","","post_reveal_questions","survey-likert","306","930096","0.0-6.0-6.42","2447341","co37576","norming","","","{""aha"":4}","[0]","../img/tt/1156tt.jpg","",""
"null","<div style=""font-size:60px;""> </div>","null","fixation","html-keyboard-response","307","930297","0.0-6.0-0.43","2447341","co37576","norming","","","","","","",""
"null","../img/tt/1254tt.jpg","null","mooney1","image-keyboard-response","308","933307","0.0-6.0-1.43","2447341","co37576","norming","","","","","","",""
"2659.644999999902","","","post_mooney1_questions","survey-likert","309","935968","0.0-6.0-2.43","2447341","co37576","norming","","","{""curiosity"":4,""confidence"":2}","[0,1]","../img/tt/1254tt.jpg","",""
"2358.1500000000233","","","recognition","survey-text","310","938327","0.0-6.0-3.43","2447341","co37576","norming","","","{""guess"":""bird""}","","../img/tt/1254tt.jpg","",""
"null","../img/gs/1254gs.jpg","null","reveal","image-keyboard-response","311","940333","0.0-6.0-4.43","2447341","co37576","norming","","","","","","",""
"null","../img/tt/1254tt.jpg","null","mooney2","image-keyboard-response","312","942342","0.0-6.0-5.43","2447341","co37576","norming","","","","","","",""
"1639.6850000000559","","","post_reveal_questions","survey-likert","313","943984","0.0-6.0-6.43","2447341","co37576","norming","","","{""aha"":4}","[0]","../img/tt/1254tt.jpg","",""
"null","<div style=""font-size:60px;""> </div>","null","fixation","html-keyboard-response","314","944185","0.0-6.0-0.44","2447341","co37576","norming","","","","","","",""
"null","../img/tt/008tt.jpg","null","mooney1","image-keyboard-response","315","947191","0.0-6.0-1.44","2447341","co37576","norming","","","","","","",""
"3517.184999999823","","","post_mooney1_questions","survey-likert","316","950712","0.0-6.0-2.44","2447341","co37576","norming","","","{""curiosity"":4,""confidence"":3}","[0,1]","../img/tt/008tt.jpg","",""
"2798.0299999999115","","","recognition","survey-text","317","953511","0.0-6.0-3.44","2447341","co37576","norming","","","{""guess"":""chicken""}","","../img/tt/008tt.jpg","",""
"null","../img/gs/008gs.jpg","null","reveal","image-keyboard-response","318","955520","0.0-6.0-4.44","2447341","co37576","norming","","","","","","",""
"null","../img/tt/008tt.jpg","null","mooney2","image-keyboard-response","319","957531","0.0-6.0-5.44","2447341","co37576","norming","","","","","","",""
"1912.4799999999814","","","post_reveal_questions","survey-likert","320","959448","0.0-6.0-6.44","2447341","co37576","norming","","","{""aha"":3}","[0]","../img/tt/008tt.jpg","",""
"null","<div style=""font-size:60px;""> </div>","null","fixation","html-keyboard-response","321","959651","0.0-6.0-0.45","2447341","co37576","norming","","","","","","",""
"null","../img/tt/1053tt.jpg","null","mooney1","image-keyboard-response","322","962667","0.0-6.0-1.45","2447341","co37576","norming","","","","","","",""
"3634.6049999999814","","","post_mooney1_questions","survey-likert","323","966305","0.0-6.0-2.45","2447341","co37576","norming","","","{""curiosity"":3,""confidence"":0}","[0,1]","../img/tt/1053tt.jpg","",""
"709.8049999999348","","","recognition","survey-text","324","967016","0.0-6.0-3.45","2447341","co37576","norming","","","{""guess"":""""}","","../img/tt/1053tt.jpg","",""
"null","../img/gs/1053gs.jpg","null","reveal","image-keyboard-response","325","969018","0.0-6.0-4.45","2447341","co37576","norming","","","","","","",""
"null","../img/tt/1053tt.jpg","null","mooney2","image-keyboard-response","326","971021","0.0-6.0-5.45","2447341","co37576","norming","","","","","","",""
"2370.219999999972","","","post_reveal_questions","survey-likert","327","973393","0.0-6.0-6.45","2447341","co37576","norming","","","{""aha"":3}","[0]","../img/tt/1053tt.jpg","",""
"null","<div style=""font-size:60px;""> </div>","null","fixation","html-keyboard-response","328","973594","0.0-6.0-0.46","2447341","co37576","norming","","","","","","",""
"null","../img/tt/1175tt.jpg","null","mooney1","image-keyboard-response","329","976604","0.0-6.0-1.46","2447341","co37576","norming","","","","","","",""
"2504.765000000014","","","post_mooney1_questions","survey-likert","330","979113","0.0-6.0-2.46","2447341","co37576","norming","","","{""curiosity"":3,""confidence"":0}","[0,1]","../img/tt/1175tt.jpg","",""
"670.1450000000186","","","recognition","survey-text","331","979785","0.0-6.0-3.46","2447341","co37576","norming","","","{""guess"":""""}","","../img/tt/1175tt.jpg","",""
"null","../img/gs/1175gs.jpg","null","reveal","image-keyboard-response","332","981787","0.0-6.0-4.46","2447341","co37576","norming","","","","","","",""
"null","../img/tt/1175tt.jpg","null","mooney2","image-keyboard-response","333","983788","0.0-6.0-5.46","2447341","co37576","norming","","","","","","",""
"3385.7449999999953","","","post_reveal_questions","survey-likert","334","987177","0.0-6.0-6.46","2447341","co37576","norming","","","{""aha"":5}","[0]","../img/tt/1175tt.jpg","",""
"null","<div style=""font-size:60px;""> </div>","null","fixation","html-keyboard-response","335","987379","0.0-6.0-0.47","2447341","co37576","norming","","","","","","",""
"null","../img/tt/1069tt.jpg","null","mooney1","image-keyboard-response","336","990383","0.0-6.0-1.47","2447341","co37576","norming","","","","","","",""
"3357.9199999999255","","","post_mooney1_questions","survey-likert","337","993745","0.0-6.0-2.47","2447341","co37576","norming","","","{""curiosity"":5,""confidence"":1}","[0,1]","../img/tt/1069tt.jpg","",""
"2389.5300000001444","","","recognition","survey-text","338","996137","0.0-6.0-3.47","2447341","co37576","norming","","","{""guess"":""goat""}","","../img/tt/1069tt.jpg","",""
"null","../img/gs/1069gs.jpg","null","reveal","image-keyboard-response","339","998147","0.0-6.0-4.47","2447341","co37576","norming","","","","","","",""
"null","../img/tt/1069tt.jpg","null","mooney2","image-keyboard-response","340","1000150","0.0-6.0-5.47","2447341","co37576","norming","","","","","","",""
"2031.8350000000792","","","post_reveal_questions","survey-likert","341","1002184","0.0-6.0-6.47","2447341","co37576","norming","","","{""aha"":3}","[0]","../img/tt/1069tt.jpg","",""
"null","<div style=""font-size:60px;""> </div>","null","fixation","html-keyboard-response","342","1002393","0.0-6.0-0.48","2447341","co37576","norming","","","","","","",""
"null","../img/tt/1097tt.jpg","null","mooney1","image-keyboard-response","343","1005399","0.0-6.0-1.48","2447341","co37576","norming","","","","","","",""
"4422.775000000023","","","post_mooney1_questions","survey-likert","344","1009825","0.0-6.0-2.48","2447341","co37576","norming","","","{""curiosity"":4,""confidence"":2}","[0,1]","../img/tt/1097tt.jpg","",""
"10413.98999999999","","","recognition","survey-text","345","1020241","0.0-6.0-3.48","2447341","co37576","norming","","","{""guess"":""stand up paddling""}","","../img/tt/1097tt.jpg","",""
"null","../img/gs/1097gs.jpg","null","reveal","image-keyboard-response","346","1022250","0.0-6.0-4.48","2447341","co37576","norming","","","","","","",""
"null","../img/tt/1097tt.jpg","null","mooney2","image-keyboard-response","347","1024260","0.0-6.0-5.48","2447341","co37576","norming","","","","","","",""
"2490.365000000107","","","post_reveal_questions","survey-likert","348","1026753","0.0-6.0-6.48","2447341","co37576","norming","","","{""aha"":2}","[0]","../img/tt/1097tt.jpg","",""
"null","<div style=""font-size:60px;""> </div>","null","fixation","html-keyboard-response","349","1026956","0.0-6.0-0.49","2447341","co37576","norming","","","","","","",""
"null","../img/tt/318tt.jpg","null","mooney1","image-keyboard-response","350","1029959","0.0-6.0-1.49","2447341","co37576","norming","","","","","","",""
"2702.8999999997905","","","post_mooney1_questions","survey-likert","351","1032665","0.0-6.0-2.49","2447341","co37576","norming","","","{""curiosity"":2,""confidence"":5}","[0,1]","../img/tt/318tt.jpg","",""
"1174.0899999999674","","","recognition","survey-text","352","1033841","0.0-6.0-3.49","2447341","co37576","norming","","","{""guess"":""car""}","","../img/tt/318tt.jpg","",""
"null","../img/gs/318gs.jpg","null","reveal","image-keyboard-response","353","1035842","0.0-6.0-4.49","2447341","co37576","norming","","","","","","",""
"null","../img/tt/318tt.jpg","null","mooney2","image-keyboard-response","354","1037845","0.0-6.0-5.49","2447341","co37576","norming","","","","","","",""
"1584.969999999972","","","post_reveal_questions","survey-likert","355","1039433","0.0-6.0-6.49","2447341","co37576","norming","","","{""aha"":3}","[0]","../img/tt/318tt.jpg","",""
"null","<div style=""font-size:60px;""> </div>","null","fixation","html-keyboard-response","356","1039635","0.0-6.0-0.50","2447341","co37576","norming","","","","","","",""
"null","../img/tt/436tt.jpg","null","mooney1","image-keyboard-response","357","1042643","0.0-6.0-1.50","2447341","co37576","norming","","","","","","",""
"2704.5250000001397","","","post_mooney1_questions","survey-likert","358","1045353","0.0-6.0-2.50","2447341","co37576","norming","","","{""curiosity"":5,""confidence"":0}","[0,1]","../img/tt/436tt.jpg","",""
"702.2000000001863","","","recognition","survey-text","359","1046057","0.0-6.0-3.50","2447341","co37576","norming","","","{""guess"":""""}","","../img/tt/436tt.jpg","",""
"null","../img/gs/436gs.jpg","null","reveal","image-keyboard-response","360","1048058","0.0-6.0-4.50","2447341","co37576","norming","","","","","","",""
"null","../img/tt/436tt.jpg","null","mooney2","image-keyboard-response","361","1050068","0.0-6.0-5.50","2447341","co37576","norming","","","","","","",""
"3626.019999999553","","","post_reveal_questions","survey-likert","362","1053697","0.0-6.0-6.50","2447341","co37576","norming","","","{""aha"":2}","[0]","../img/tt/436tt.jpg","",""
"null","<div style=""font-size:60px;""> </div>","null","fixation","html-keyboard-response","363","1053899","0.0-6.0-0.51","2447341","co37576","norming","","","","","","",""
"null","../img/tt/1055tt.jpg","null","mooney1","image-keyboard-response","364","1056908","0.0-6.0-1.51","2447341","co37576","norming","","","","","","",""
"2553.5449999999255","","","post_mooney1_questions","survey-likert","365","1059465","0.0-6.0-2.51","2447341","co37576","norming","","","{""curiosity"":4,""confidence"":3}","[0,1]","../img/tt/1055tt.jpg","",""
"3062.1299999996554","","","recognition","survey-text","366","1062529","0.0-6.0-3.51","2447341","co37576","norming","","","{""guess"":""sailing""}","","../img/tt/1055tt.jpg","",""
"null","../img/gs/1055gs.jpg","null","reveal","image-keyboard-response","367","1064532","0.0-6.0-4.51","2447341","co37576","norming","","","","","","",""
"null","../img/tt/1055tt.jpg","null","mooney2","image-keyboard-response","368","1066536","0.0-6.0-5.51","2447341","co37576","norming","","","","","","",""
"1598.0549999999348","","","post_reveal_questions","survey-likert","369","1068137","0.0-6.0-6.51","2447341","co37576","norming","","","{""aha"":3}","[0]","../img/tt/1055tt.jpg","",""
"null","<div style=""font-size:60px;""> </div>","null","fixation","html-keyboard-response","370","1068339","0.0-6.0-0.52","2447341","co37576","norming","","","","","","",""
"null","../img/tt/1186tt.jpg","null","mooney1","image-keyboard-response","371","1071341","0.0-6.0-1.52","2447341","co37576","norming","","","","","","",""
"2880.7299999999814","","","post_mooney1_questions","survey-likert","372","1074225","0.0-6.0-2.52","2447341","co37576","norming","","","{""curiosity"":4,""confidence"":2}","[0,1]","../img/tt/1186tt.jpg","",""
"3870.179999999935","","","recognition","survey-text","373","1078097","0.0-6.0-3.52","2447341","co37576","norming","","","{""guess"":""snowboarding""}","","../img/tt/1186tt.jpg","",""
"null","../img/gs/1186gs.jpg","null","reveal","image-keyboard-response","374","1080104","0.0-6.0-4.52","2447341","co37576","norming","","","","","","",""
"null","../img/tt/1186tt.jpg","null","mooney2","image-keyboard-response","375","1082106","0.0-6.0-5.52","2447341","co37576","norming","","","","","","",""
"3893.25","","","post_reveal_questions","survey-likert","376","1086001","0.0-6.0-6.52","2447341","co37576","norming","","","{""aha"":4}","[0]","../img/tt/1186tt.jpg","",""
"null","<div style=""font-size:60px;""> </div>","null","fixation","html-keyboard-response","377","1086203","0.0-6.0-0.53","2447341","co37576","norming","","","","","","",""
"null","../img/tt/497tt.jpg","null","mooney1","image-keyboard-response","378","1089214","0.0-6.0-1.53","2447341","co37576","norming","","","","","","",""
"3231.6750000000466","","","post_mooney1_questions","survey-likert","379","1092449","0.0-6.0-2.53","2447341","co37576","norming","","","{""curiosity"":4,""confidence"":0}","[0,1]","../img/tt/497tt.jpg","",""
"1269.8700000001118","","","recognition","survey-text","380","1093721","0.0-6.0-3.53","2447341","co37576","norming","","","{""guess"":""""}","","../img/tt/497tt.jpg","",""
"null","../img/gs/497gs.jpg","null","reveal","image-keyboard-response","381","1095729","0.0-6.0-4.53","2447341","co37576","norming","","","","","","",""
"null","../img/tt/497tt.jpg","null","mooney2","image-keyboard-response","382","1097738","0.0-6.0-5.53","2447341","co37576","norming","","","","","","",""
"2243.899999999907","","","post_reveal_questions","survey-likert","383","1099985","0.0-6.0-6.53","2447341","co37576","norming","","","{""aha"":3}","[0]","../img/tt/497tt.jpg","",""
"null","<div style=""font-size:60px;""> </div>","null","fixation","html-keyboard-response","384","1100187","0.0-6.0-0.54","2447341","co37576","norming","","","","","","",""
"null","../img/tt/1091tt.jpg","null","mooney1","image-keyboard-response","385","1103195","0.0-6.0-1.54","2447341","co37576","norming","","","","","","",""
"3018.999999999767","","","post_mooney1_questions","survey-likert","386","1106217","0.0-6.0-2.54","2447341","co37576","norming","","","{""curiosity"":4,""confidence"":1}","[0,1]","../img/tt/1091tt.jpg","",""
"2046.0800000000745","","","recognition","survey-text","387","1108265","0.0-6.0-3.54","2447341","co37576","norming","","","{""guess"":""horse""}","","../img/tt/1091tt.jpg","",""
"null","../img/gs/1091gs.jpg","null","reveal","image-keyboard-response","388","1110267","0.0-6.0-4.54","2447341","co37576","norming","","","","","","",""
"null","../img/tt/1091tt.jpg","null","mooney2","image-keyboard-response","389","1112275","0.0-6.0-5.54","2447341","co37576","norming","","","","","","",""
"1499.1400000003632","","","post_reveal_questions","survey-likert","390","1113777","0.0-6.0-6.54","2447341","co37576","norming","","","{""aha"":4}","[0]","../img/tt/1091tt.jpg","",""
"null","<div style=""font-size:60px;""> </div>","null","fixation","html-keyboard-response","391","1113982","0.0-6.0-0.55","2447341","co37576","norming","","","","","","",""
"null","../img/tt/082tt.jpg","null","mooney1","image-keyboard-response","392","1116988","0.0-6.0-1.55","2447341","co37576","norming","","","","","","",""
"3011.0049999996554","","","post_mooney1_questions","survey-likert","393","1120001","0.0-6.0-2.55","2447341","co37576","norming","","","{""curiosity"":4,""confidence"":3}","[0,1]","../img/tt/082tt.jpg","",""
"2173.880000000121","","","recognition","survey-text","394","1122177","0.0-6.0-3.55","2447341","co37576","norming","","","{""guess"":""bird""}","","../img/tt/082tt.jpg","",""
"null","../img/gs/082gs.jpg","null","reveal","image-keyboard-response","395","1124178","0.0-6.0-4.55","2447341","co37576","norming","","","","","","",""
"null","../img/tt/082tt.jpg","null","mooney2","image-keyboard-response","396","1126189","0.0-6.0-5.55","2447341","co37576","norming","","","","","","",""
"1600.785000000149","","","post_reveal_questions","survey-likert","397","1127793","0.0-6.0-6.55","2447341","co37576","norming","","","{""aha"":3}","[0]","../img/tt/082tt.jpg","",""
"null","<div style=""font-size:60px;""> </div>","null","fixation","html-keyboard-response","398","1127997","0.0-6.0-0.56","2447341","co37576","norming","","","","","","",""
"null","../img/tt/1161tt.jpg","null","mooney1","image-keyboard-response","399","1131000","0.0-6.0-1.56","2447341","co37576","norming","","","","","","",""
"3118.3700000001118","","","post_mooney1_questions","survey-likert","400","1134121","0.0-6.0-2.56","2447341","co37576","norming","","","{""curiosity"":4,""confidence"":3}","[0,1]","../img/tt/1161tt.jpg","",""
"3158.095000000205","","","recognition","survey-text","401","1137281","0.0-6.0-3.56","2447341","co37576","norming","","","{""guess"":""climber""}","","../img/tt/1161tt.jpg","",""
"null","../img/gs/1161gs.jpg","null","reveal","image-keyboard-response","402","1139291","0.0-6.0-4.56","2447341","co37576","norming","","","","","","",""
"null","../img/tt/1161tt.jpg","null","mooney2","image-keyboard-response","403","1141292","0.0-6.0-5.56","2447341","co37576","norming","","","","","","",""
"1386.3350000001956","","","post_reveal_questions","survey-likert","404","1142681","0.0-6.0-6.56","2447341","co37576","norming","","","{""aha"":3}","[0]","../img/tt/1161tt.jpg","",""
"null","<div style=""font-size:60px;""> </div>","null","fixation","html-keyboard-response","405","1142884","0.0-6.0-0.57","2447341","co37576","norming","","","","","","",""
"null","../img/tt/1226tt.jpg","null","mooney1","image-keyboard-response","406","1145890","0.0-6.0-1.57","2447341","co37576","norming","","","","","","",""
"3427.7649999998976","","","post_mooney1_questions","survey-likert","407","1149321","0.0-6.0-2.57","2447341","co37576","norming","","","{""curiosity"":3,""confidence"":5}","[0,1]","../img/tt/1226tt.jpg","",""
"2374.2600000000093","","","recognition","survey-text","408","1151697","0.0-6.0-3.57","2447341","co37576","norming","","","{""guess"":""bird""}","","../img/tt/1226tt.jpg","",""
"null","../img/gs/1226gs.jpg","null","reveal","image-keyboard-response","409","1153700","0.0-6.0-4.57","2447341","co37576","norming","","","","","","",""
"null","../img/tt/1226tt.jpg","null","mooney2","image-keyboard-response","410","1155710","0.0-6.0-5.57","2447341","co37576","norming","","","","","","",""
"2832.1649999998044","","","post_reveal_questions","survey-likert","411","1158544","0.0-6.0-6.57","2447341","co37576","norming","","","{""aha"":3}","[0]","../img/tt/1226tt.jpg","",""
"null","<div style=""font-size:60px;""> </div>","null","fixation","html-keyboard-response","412","1158745","0.0-6.0-0.58","2447341","co37576","norming","","","","","","",""
"null","../img/tt/1283tt.jpg","null","mooney1","image-keyboard-response","413","1161748","0.0-6.0-1.58","2447341","co37576","norming","","","","","","",""
"3937.369999999646","","","post_mooney1_questions","survey-likert","414","1165689","0.0-6.0-2.58","2447341","co37576","norming","","","{""curiosity"":6,""confidence"":0}","[0,1]","../img/tt/1283tt.jpg","",""
"542.0050000003539","","","recognition","survey-text","415","1166233","0.0-6.0-3.58","2447341","co37576","norming","","","{""guess"":""""}","","../img/tt/1283tt.jpg","",""
"null","../img/gs/1283gs.jpg","null","reveal","image-keyboard-response","416","1168241","0.0-6.0-4.58","2447341","co37576","norming","","","","","","",""
"null","../img/tt/1283tt.jpg","null","mooney2","image-keyboard-response","417","1170242","0.0-6.0-5.58","2447341","co37576","norming","","","","","","",""
"1323.7099999999627","","","post_reveal_questions","survey-likert","418","1171569","0.0-6.0-6.58","2447341","co37576","norming","","","{""aha"":5}","[0]","../img/tt/1283tt.jpg","",""
"null","<div style=""font-size:60px;""> </div>","null","fixation","html-keyboard-response","419","1171771","0.0-6.0-0.59","2447341","co37576","norming","","","","","","",""
"null","../img/tt/599tt.jpg","null","mooney1","image-keyboard-response","420","1174781","0.0-6.0-1.59","2447341","co37576","norming","","","","","","",""
"3305.144999999786","","","post_mooney1_questions","survey-likert","421","1178089","0.0-6.0-2.59","2447341","co37576","norming","","","{""curiosity"":4,""confidence"":4}","[0,1]","../img/tt/599tt.jpg","",""
"2133.9200000001583","","","recognition","survey-text","422","1180225","0.0-6.0-3.59","2447341","co37576","norming","","","{""guess"":""owl""}","","../img/tt/599tt.jpg","",""
"null","../img/gs/599gs.jpg","null","reveal","image-keyboard-response","423","1182228","0.0-6.0-4.59","2447341","co37576","norming","","","","","","",""
"null","../img/tt/599tt.jpg","null","mooney2","image-keyboard-response","424","1184229","0.0-6.0-5.59","2447341","co37576","norming","","","","","","",""
"1490.4150000000373","","","post_reveal_questions","survey-likert","425","1185721","0.0-6.0-6.59","2447341","co37576","norming","","","{""aha"":3}","[0]","../img/tt/599tt.jpg","",""
"null","<div style=""font-size:60px;""> </div>","null","fixation","html-keyboard-response","426","1185924","0.0-6.0-0.60","2447341","co37576","norming","","","","","","",""
"null","../img/tt/085tt.jpg","null","mooney1","image-keyboard-response","427","1188933","0.0-6.0-1.60","2447341","co37576","norming","","","","","","",""
"3592.3050000001676","","","post_mooney1_questions","survey-likert","428","1192529","0.0-6.0-2.60","2447341","co37576","norming","","","{""curiosity"":5,""confidence"":3}","[0,1]","../img/tt/085tt.jpg","",""
"2749.8700000001118","","","recognition","survey-text","429","1195280","0.0-6.0-3.60","2447341","co37576","norming","","","{""guess"":""bird""}","","../img/tt/085tt.jpg","",""
"null","../img/gs/085gs.jpg","null","reveal","image-keyboard-response","430","1197287","0.0-6.0-4.60","2447341","co37576","norming","","","","","","",""
"null","../img/tt/085tt.jpg","null","mooney2","image-keyboard-response","431","1199297","0.0-6.0-5.60","2447341","co37576","norming","","","","","","",""
"1909.160000000149","","","post_reveal_questions","survey-likert","432","1201209","0.0-6.0-6.60","2447341","co37576","norming","","","{""aha"":3}","[0]","../img/tt/085tt.jpg","",""
"null","<div style=""font-size:60px;""> </div>","null","fixation","html-keyboard-response","433","1201416","0.0-6.0-0.61","2447341","co37576","norming","","","","","","",""
"null","../img/tt/1224tt.jpg","null","mooney1","image-keyboard-response","434","1204421","0.0-6.0-1.61","2447341","co37576","norming","","","","","","",""
"3240.5849999999627","","","post_mooney1_questions","survey-likert","435","1207664","0.0-6.0-2.61","2447341","co37576","norming","","","{""curiosity"":3,""confidence"":0}","[0,1]","../img/tt/1224tt.jpg","",""
"1757.6450000002515","","","recognition","survey-text","436","1209424","0.0-6.0-3.61","2447341","co37576","norming","","","{""guess"":""""}","","../img/tt/1224tt.jpg","",""
"null","../img/gs/1224gs.jpg","null","reveal","image-keyboard-response","437","1211431","0.0-6.0-4.61","2447341","co37576","norming","","","","","","",""
"null","../img/tt/1224tt.jpg","null","mooney2","image-keyboard-response","438","1213433","0.0-6.0-5.61","2447341","co37576","norming","","","","","","",""
"1884.469999999972","","","post_reveal_questions","survey-likert","439","1215320","0.0-6.0-6.61","2447341","co37576","norming","","","{""aha"":3}","[0]","../img/tt/1224tt.jpg","",""
"null","<div style=""font-size:60px;""> </div>","null","fixation","html-keyboard-response","440","1215528","0.0-6.0-0.62","2447341","co37576","norming","","","","","","",""
"null","../img/tt/279tt.jpg","null","mooney1","image-keyboard-response","441","1218532","0.0-6.0-1.62","2447341","co37576","norming","","","","","","",""
"3209.614999999758","","","post_mooney1_questions","survey-likert","442","1221744","0.0-6.0-2.62","2447341","co37576","norming","","","{""curiosity"":4,""confidence"":6}","[0,1]","../img/tt/279tt.jpg","",""
"2230.1150000002235","","","recognition","survey-text","443","1223976","0.0-6.0-3.62","2447341","co37576","norming","","","{""guess"":""koala""}","","../img/tt/279tt.jpg","",""
"null","../img/gs/279gs.jpg","null","reveal","image-keyboard-response","444","1225986","0.0-6.0-4.62","2447341","co37576","norming","","","","","","",""
"null","../img/tt/279tt.jpg","null","mooney2","image-keyboard-response","445","1227988","0.0-6.0-5.62","2447341","co37576","norming","","","","","","",""
"1481.5600000002887","","","post_reveal_questions","survey-likert","446","1229472","0.0-6.0-6.62","2447341","co37576","norming","","","{""aha"":1}","[0]","../img/tt/279tt.jpg","",""
"null","<div style=""font-size:60px;""> </div>","null","fixation","html-keyboard-response","447","1229676","0.0-6.0-0.63","2447341","co37576","norming","","","","","","",""
"null","../img/tt/040tt.jpg","null","mooney1","image-keyboard-response","448","1232680","0.0-6.0-1.63","2447341","co37576","norming","","","","","","",""
"2532.749999999767","","","post_mooney1_questions","survey-likert","449","1235216","0.0-6.0-2.63","2447341","co37576","norming","","","{""curiosity"":4,""confidence"":0}","[0,1]","../img/tt/040tt.jpg","",""
"710.1350000002421","","","recognition","survey-text","450","1235928","0.0-6.0-3.63","2447341","co37576","norming","","","{""guess"":""""}","","../img/tt/040tt.jpg","",""
"null","../img/gs/040gs.jpg","null","reveal","image-keyboard-response","451","1237930","0.0-6.0-4.63","2447341","co37576","norming","","","","","","",""
"null","../img/tt/040tt.jpg","null","mooney2","image-keyboard-response","452","1239933","0.0-6.0-5.63","2447341","co37576","norming","","","","","","",""
"4640.949999999953","","","post_reveal_questions","survey-likert","453","1244576","0.0-6.0-6.63","2447341","co37576","norming","","","{""aha"":3}","[0]","../img/tt/040tt.jpg","",""
"null","<div style=""font-size:60px;""> </div>","null","fixation","html-keyboard-response","454","1244782","0.0-6.0-0.64","2447341","co37576","norming","","","","","","",""
"null","../img/tt/406tt.jpg","null","mooney1","image-keyboard-response","455","1247785","0.0-6.0-1.64","2447341","co37576","norming","","","","","","",""
"4219.610000000102","","","post_mooney1_questions","survey-likert","456","1252008","0.0-6.0-2.64","2447341","co37576","norming","","","{""curiosity"":6,""confidence"":0}","[0,1]","../img/tt/406tt.jpg","",""
"605.9400000004098","","","recognition","survey-text","457","1252616","0.0-6.0-3.64","2447341","co37576","norming","","","{""guess"":""""}","","../img/tt/406tt.jpg","",""
"null","../img/gs/406gs.jpg","null","reveal","image-keyboard-response","458","1254620","0.0-6.0-4.64","2447341","co37576","norming","","","","","","",""
"null","../img/tt/406tt.jpg","null","mooney2","image-keyboard-response","459","1256621","0.0-6.0-5.64","2447341","co37576","norming","","","","","","",""
"3575.679999999935","","","post_reveal_questions","survey-likert","460","1260200","0.0-6.0-6.64","2447341","co37576","norming","","","{""aha"":4}","[0]","../img/tt/406tt.jpg","",""
"null","<div style=""font-size:60px;""> </div>","null","fixation","html-keyboard-response","461","1260408","0.0-6.0-0.65","2447341","co37576","norming","","","","","","",""
"null","../img/tt/440tt.jpg","null","mooney1","image-keyboard-response","462","1263420","0.0-6.0-1.65","2447341","co37576","norming","","","","","","",""
"3464.7049999998417","","","post_mooney1_questions","survey-likert","463","1266885","0.0-6.0-2.65","2447341","co37576","norming","","","{""curiosity"":3,""confidence"":2}","[0,1]","../img/tt/440tt.jpg","",""
"4373.915000000037","","","recognition","survey-text","464","1271261","0.0-6.0-3.65","2447341","co37576","norming","","","{""guess"":""elephant""}","","../img/tt/440tt.jpg","",""
"null","../img/gs/440gs.jpg","null","reveal","image-keyboard-response","465","1273263","0.0-6.0-4.65","2447341","co37576","norming","","","","","","",""
"null","../img/tt/440tt.jpg","null","mooney2","image-keyboard-response","466","1275274","0.0-6.0-5.65","2447341","co37576","norming","","","","","","",""
"2048.350000000093","","","post_reveal_questions","survey-likert","467","1277325","0.0-6.0-6.65","2447341","co37576","norming","","","{""aha"":3}","[0]","../img/tt/440tt.jpg","",""
"null","<div style=""font-size:60px;""> </div>","null","fixation","html-keyboard-response","468","1277535","0.0-6.0-0.66","2447341","co37576","norming","","","","","","",""
"null","../img/tt/1307tt.jpg","null","mooney1","image-keyboard-response","469","1280541","0.0-6.0-1.66","2447341","co37576","norming","","","","","","",""
"5004.695000000065","","","post_mooney1_questions","survey-likert","470","1285549","0.0-6.0-2.66","2447341","co37576","norming","","","{""curiosity"":4,""confidence"":0}","[0,1]","../img/tt/1307tt.jpg","",""
"645.8549999997485","","","recognition","survey-text","471","1286197","0.0-6.0-3.66","2447341","co37576","norming","","","{""guess"":""""}","","../img/tt/1307tt.jpg","",""
"null","../img/gs/1307gs.jpg","null","reveal","image-keyboard-response","472","1288207","0.0-6.0-4.66","2447341","co37576","norming","","","","","","",""
"null","../img/tt/1307tt.jpg","null","mooney2","image-keyboard-response","473","1290209","0.0-6.0-5.66","2447341","co37576","norming","","","","","","",""
"1993.4250000002794","","","post_reveal_questions","survey-likert","474","1292205","0.0-6.0-6.66","2447341","co37576","norming","","","{""aha"":3}","[0]","../img/tt/1307tt.jpg","",""
"null","<div style=""font-size:60px;""> </div>","null","fixation","html-keyboard-response","475","1292416","0.0-6.0-0.67","2447341","co37576","norming","","","","","","",""
"null","../img/tt/1127tt.jpg","null","mooney1","image-keyboard-response","476","1295419","0.0-6.0-1.67","2447341","co37576","norming","","","","","","",""
"5486.239999999758","","","post_mooney1_questions","survey-likert","477","1300909","0.0-6.0-2.67","2447341","co37576","norming","","","{""curiosity"":5,""confidence"":0}","[0,1]","../img/tt/1127tt.jpg","",""
"590.1749999998137","","","recognition","survey-text","478","1301501","0.0-6.0-3.67","2447341","co37576","norming","","","{""guess"":""""}","","../img/tt/1127tt.jpg","",""
"null","../img/gs/1127gs.jpg","null","reveal","image-keyboard-response","479","1303511","0.0-6.0-4.67","2447341","co37576","norming","","","","","","",""
"null","../img/tt/1127tt.jpg","null","mooney2","image-keyboard-response","480","1305515","0.0-6.0-5.67","2447341","co37576","norming","","","","","","",""
"2847.2750000001397","","","post_reveal_questions","survey-likert","481","1308365","0.0-6.0-6.67","2447341","co37576","norming","","","{""aha"":4}","[0]","../img/tt/1127tt.jpg","",""
"null","<div style=""font-size:60px;""> </div>","null","fixation","html-keyboard-response","482","1308566","0.0-6.0-0.68","2447341","co37576","norming","","","","","","",""
"null","../img/tt/036tt.jpg","null","mooney1","image-keyboard-response","483","1311569","0.0-6.0-1.68","2447341","co37576","norming","","","","","","",""
"3232.7350000001024","","","post_mooney1_questions","survey-likert","484","1314805","0.0-6.0-2.68","2447341","co37576","norming","","","{""curiosity"":4,""confidence"":0}","[0,1]","../img/tt/036tt.jpg","",""
"653.6950000000652","","","recognition","survey-text","485","1315461","0.0-6.0-3.68","2447341","co37576","norming","","","{""guess"":""""}","","../img/tt/036tt.jpg","",""
"null","../img/gs/036gs.jpg","null","reveal","image-keyboard-response","486","1317463","0.0-6.0-4.68","2447341","co37576","norming","","","","","","",""
"null","../img/tt/036tt.jpg","null","mooney2","image-keyboard-response","487","1319465","0.0-6.0-5.68","2447341","co37576","norming","","","","","","",""
"1497.0549999999348","","","post_reveal_questions","survey-likert","488","1320965","0.0-6.0-6.68","2447341","co37576","norming","","","{""aha"":4}","[0]","../img/tt/036tt.jpg","",""
"null","<div style=""font-size:60px;""> </div>","null","fixation","html-keyboard-response","489","1321175","0.0-6.0-0.69","2447341","co37576","norming","","","","","","",""
"null","../img/tt/1123tt.jpg","null","mooney1","image-keyboard-response","490","1324179","0.0-6.0-1.69","2447341","co37576","norming","","","","","","",""
"3174.3249999999534","","","post_mooney1_questions","survey-likert","491","1327360","0.0-6.0-2.69","2447341","co37576","norming","","","{""curiosity"":4,""confidence"":4}","[0,1]","../img/tt/1123tt.jpg","",""
"2934.320000000298","","","recognition","survey-text","492","1330296","0.0-6.0-3.69","2447341","co37576","norming","","","{""guess"":""volleybal""}","","../img/tt/1123tt.jpg","",""
"null","../img/gs/1123gs.jpg","null","reveal","image-keyboard-response","493","1332306","0.0-6.0-4.69","2447341","co37576","norming","","","","","","",""
"null","../img/tt/1123tt.jpg","null","mooney2","image-keyboard-response","494","1334316","0.0-6.0-5.69","2447341","co37576","norming","","","","","","",""
"1809.4699999997392","","","post_reveal_questions","survey-likert","495","1336129","0.0-6.0-6.69","2447341","co37576","norming","","","{""aha"":4}","[0]","../img/tt/1123tt.jpg","",""
"null","<div style=""font-size:60px;""> </div>","null","fixation","html-keyboard-response","496","1336334","0.0-6.0-0.70","2447341","co37576","norming","","","","","","",""
"null","../img/tt/108tt.jpg","null","mooney1","image-keyboard-response","497","1339345","0.0-6.0-1.70","2447341","co37576","norming","","","","","","",""
"3347.9250000000466","","","post_mooney1_questions","survey-likert","498","1342697","0.0-6.0-2.70","2447341","co37576","norming","","","{""curiosity"":3,""confidence"":0}","[0,1]","../img/tt/108tt.jpg","",""
"1053.8950000000186","","","recognition","survey-text","499","1343752","0.0-6.0-3.70","2447341","co37576","norming","","","{""guess"":""""}","","../img/tt/108tt.jpg","",""
"null","../img/gs/108gs.jpg","null","reveal","image-keyboard-response","500","1345760","0.0-6.0-4.70","2447341","co37576","norming","","","","","","",""
"null","../img/tt/108tt.jpg","null","mooney2","image-keyboard-response","501","1347762","0.0-6.0-5.70","2447341","co37576","norming","","","","","","",""
"2315.750000000233","","","post_reveal_questions","survey-likert","502","1350080","0.0-6.0-6.70","2447341","co37576","norming","","","{""aha"":3}","[0]","../img/tt/108tt.jpg","",""
"null","<div style=""font-size:60px;""> </div>","null","fixation","html-keyboard-response","503","1350288","0.0-6.0-0.71","2447341","co37576","norming","","","","","","",""
"null","../img/tt/126tt.jpg","null","mooney1","image-keyboard-response","504","1353299","0.0-6.0-1.71","2447341","co37576","norming","","","","","","",""
"2810.58499999973","","","post_mooney1_questions","survey-likert","505","1356113","0.0-6.0-2.71","2447341","co37576","norming","","","{""curiosity"":3,""confidence"":0}","[0,1]","../img/tt/126tt.jpg","",""
"862.1949999998324","","","recognition","survey-text","506","1356976","0.0-6.0-3.71","2447341","co37576","norming","","","{""guess"":""""}","","../img/tt/126tt.jpg","",""
"null","../img/gs/126gs.jpg","null","reveal","image-keyboard-response","507","1358986","0.0-6.0-4.71","2447341","co37576","norming","","","","","","",""
"null","../img/tt/126tt.jpg","null","mooney2","image-keyboard-response","508","1360988","0.0-6.0-5.71","2447341","co37576","norming","","","","","","",""
"2241.8600000001024","","","post_reveal_questions","survey-likert","509","1363233","0.0-6.0-6.71","2447341","co37576","norming","","","{""aha"":3}","[0]","../img/tt/126tt.jpg","",""
"null","<div style=""font-size:60px;""> </div>","null","fixation","html-keyboard-response","510","1363437","0.0-6.0-0.72","2447341","co37576","norming","","","","","","",""
"null","../img/tt/091tt.jpg","null","mooney1","image-keyboard-response","511","1366442","0.0-6.0-1.72","2447341","co37576","norming","","","","","","",""
"2627.3849999997765","","","post_mooney1_questions","survey-likert","512","1369072","0.0-6.0-2.72","2447341","co37576","norming","","","{""curiosity"":3,""confidence"":3}","[0,1]","../img/tt/091tt.jpg","",""
"3478.2100000001956","","","recognition","survey-text","513","1372552","0.0-6.0-3.72","2447341","co37576","norming","","","{""guess"":""crocodile""}","","../img/tt/091tt.jpg","",""
"null","../img/gs/091gs.jpg","null","reveal","image-keyboard-response","514","1374561","0.0-6.0-4.72","2447341","co37576","norming","","","","","","",""
"null","../img/tt/091tt.jpg","null","mooney2","image-keyboard-response","515","1376564","0.0-6.0-5.72","2447341","co37576","norming","","","","","","",""
"6233.624999999767","","","post_reveal_questions","survey-likert","516","1382801","0.0-6.0-6.72","2447341","co37576","norming","","","{""aha"":4}","[0]","../img/tt/091tt.jpg","",""
"null","<div style=""font-size:60px;""> </div>","null","fixation","html-keyboard-response","517","1383005","0.0-6.0-0.73","2447341","co37576","norming","","","","","","",""
"null","../img/tt/055tt.jpg","null","mooney1","image-keyboard-response","518","1386011","0.0-6.0-1.73","2447341","co37576","norming","","","","","","",""
"3987.1800000001676","","","post_mooney1_questions","survey-likert","519","1390001","0.0-6.0-2.73","2447341","co37576","norming","","","{""curiosity"":2,""confidence"":1}","[0,1]","../img/tt/055tt.jpg","",""
"3317.855000000214","","","recognition","survey-text","520","1393320","0.0-6.0-3.73","2447341","co37576","norming","","","{""guess"":""monkey""}","","../img/tt/055tt.jpg","",""
"null","../img/gs/055gs.jpg","null","reveal","image-keyboard-response","521","1395322","0.0-6.0-4.73","2447341","co37576","norming","","","","","","",""
"null","../img/tt/055tt.jpg","null","mooney2","image-keyboard-response","522","1397324","0.0-6.0-5.73","2447341","co37576","norming","","","","","","",""
"1681.4950000003446","","","post_reveal_questions","survey-likert","523","1399008","0.0-6.0-6.73","2447341","co37576","norming","","","{""aha"":3}","[0]","../img/tt/055tt.jpg","",""
"null","<div style=""font-size:60px;""> </div>","null","fixation","html-keyboard-response","524","1399210","0.0-6.0-0.74","2447341","co37576","norming","","","","","","",""
"null","../img/tt/307tt.jpg","null","mooney1","image-keyboard-response","525","1402214","0.0-6.0-1.74","2447341","co37576","norming","","","","","","",""
"2551.1699999996927","","","post_mooney1_questions","survey-likert","526","1404769","0.0-6.0-2.74","2447341","co37576","norming","","","{""curiosity"":2,""confidence"":0}","[0,1]","../img/tt/307tt.jpg","",""
"758.1200000005774","","","recognition","survey-text","527","1405528","0.0-6.0-3.74","2447341","co37576","norming","","","{""guess"":""""}","","../img/tt/307tt.jpg","",""
"null","../img/gs/307gs.jpg","null","reveal","image-keyboard-response","528","1407536","0.0-6.0-4.74","2447341","co37576","norming","","","","","","",""
"null","../img/tt/307tt.jpg","null","mooney2","image-keyboard-response","529","1409546","0.0-6.0-5.74","2447341","co37576","norming","","","","","","",""
"2011.6250000002328","","","post_reveal_questions","survey-likert","530","1411561","0.0-6.0-6.74","2447341","co37576","norming","","","{""aha"":2}","[0]","../img/tt/307tt.jpg","",""
"null","<div style=""font-size:60px;""> </div>","null","fixation","html-keyboard-response","531","1411766","0.0-6.0-0.75","2447341","co37576","norming","","","","","","",""
"null","../img/tt/044tt.jpg","null","mooney1","image-keyboard-response","532","1414772","0.0-6.0-1.75","2447341","co37576","norming","","","","","","",""
"5977.600000000093","","","post_mooney1_questions","survey-likert","533","1420753","0.0-6.0-2.75","2447341","co37576","norming","","","{""curiosity"":3,""confidence"":0}","[0,1]","../img/tt/044tt.jpg","",""
"661.8899999998976","","","recognition","survey-text","534","1421416","0.0-6.0-3.75","2447341","co37576","norming","","","{""guess"":""""}","","../img/tt/044tt.jpg","",""
"null","../img/gs/044gs.jpg","null","reveal","image-keyboard-response","535","1423424","0.0-6.0-4.75","2447341","co37576","norming","","","","","","",""
"null","../img/tt/044tt.jpg","null","mooney2","image-keyboard-response","536","1425428","0.0-6.0-5.75","2447341","co37576","norming","","","","","","",""
"3098.0399999998044","","","post_reveal_questions","survey-likert","537","1428529","0.0-6.0-6.75","2447341","co37576","norming","","","{""aha"":3}","[0]","../img/tt/044tt.jpg","",""
"null","<div style=""font-size:60px;""> </div>","null","fixation","html-keyboard-response","538","1428732","0.0-6.0-0.76","2447341","co37576","norming","","","","","","",""
"null","../img/tt/1239tt.jpg","null","mooney1","image-keyboard-response","539","1431735","0.0-6.0-1.76","2447341","co37576","norming","","","","","","",""
"2830.089999999851","","","post_mooney1_questions","survey-likert","540","1434569","0.0-6.0-2.76","2447341","co37576","norming","","","{""curiosity"":4,""confidence"":6}","[0,1]","../img/tt/1239tt.jpg","",""
"5190.185000000056","","","recognition","survey-text","541","1439760","0.0-6.0-3.76","2447341","co37576","norming","","","{""guess"":""dog""}","","../img/tt/1239tt.jpg","",""
"null","../img/gs/1239gs.jpg","null","reveal","image-keyboard-response","542","1441765","0.0-6.0-4.76","2447341","co37576","norming","","","","","","",""
"null","../img/tt/1239tt.jpg","null","mooney2","image-keyboard-response","543","1443767","0.0-6.0-5.76","2447341","co37576","norming","","","","","","",""
"3045.41500000027","","","post_reveal_questions","survey-likert","544","1446817","0.0-6.0-6.76","2447341","co37576","norming","","","{""aha"":2}","[0]","../img/tt/1239tt.jpg","",""
"null","<div style=""font-size:60px;""> </div>","null","fixation","html-keyboard-response","545","1447022","0.0-6.0-0.77","2447341","co37576","norming","","","","","","",""
"null","../img/tt/1279tt.jpg","null","mooney1","image-keyboard-response","546","1450029","0.0-6.0-1.77","2447341","co37576","norming","","","","","","",""
"4416.140000000363","","","post_mooney1_questions","survey-likert","547","1454449","0.0-6.0-2.77","2447341","co37576","norming","","","{""curiosity"":3,""confidence"":0}","[0,1]","../img/tt/1279tt.jpg","",""
"957.8950000000186","","","recognition","survey-text","548","1455408","0.0-6.0-3.77","2447341","co37576","norming","","","{""guess"":""""}","","../img/tt/1279tt.jpg","",""
"null","../img/gs/1279gs.jpg","null","reveal","image-keyboard-response","549","1457417","0.0-6.0-4.77","2447341","co37576","norming","","","","","","",""
"null","../img/tt/1279tt.jpg","null","mooney2","image-keyboard-response","550","1459425","0.0-6.0-5.77","2447341","co37576","norming","","","","","","",""
"2788.7450000001118","","","post_reveal_questions","survey-likert","551","1462217","0.0-6.0-6.77","2447341","co37576","norming","","","{""aha"":4}","[0]","../img/tt/1279tt.jpg","",""
"null","<div style=""font-size:60px;""> </div>","null","fixation","html-keyboard-response","552","1462421","0.0-6.0-0.78","2447341","co37576","norming","","","","","","",""
"null","../img/tt/603tt.jpg","null","mooney1","image-keyboard-response","553","1465430","0.0-6.0-1.78","2447341","co37576","norming","","","","","","",""
