"rt","stimulus","key_press","test_part","trial_type","trial_index","time_elapsed","internal_node_id","totalTime","subject","experiment_name","button_pressed","success","responses","question_order","currentStim","old","correct"
"9703.895000042394","Welcome to the experiment. This is an online experiment so please don't close the tab/window until we say goodbye.  Press any key to begin.","75","instructions","html-keyboard-response","0","9708","0.0-0.0","3007477","co37573","norming","","","","","","",""
"4044.5899999467656","<div style='word-wrap: break-word; width: 900px'><h3>Please consider this information carefully before deciding whether to participate in this research</h3><ul style='text-align: left; font-size: .8em;'><li><b>Purpose of the research</b>: To examine how people process images.</li><li><b>What you will do in this research</b>:  Stimuli (images) will be presented on the computer and you will be asked different questions about them.</li><li><b>Time required</b>: Participation will take between 45 and 60 minutes to complete.</li><li><b>Risks</b>:  There are no anticipated risks associated with participating in this study. The effects of participating should be comparable to those you would experience from viewing a computer monitor for 30 minutes and using a mouse or keyboard.</li><li><b>Benefits</b>:  This study provides no benefits to you individually except for the credit. The study provides important information about the nature of perception and learning.</li><li><b>Confidentiality</b>:  Your participation in this study will remain confidential. No personally identifiable information will be associated with your data. Your de-identified data may be shared with other researchers and used in future projects.</li><li><b>Participation and withdrawal</b>:  Your participation in this study is completely voluntary and you may refuse to participate or you may choose to withdraw at any time without penalty.</li><li><b>How to contact the researchers</b>: If you have questions or concerns about your participation or payment, or want to request a summary of research findings, please contact Sander Van de Cruys (KU Leuven), at sander.vandecruys@kuleuven.be.</li></ul><p>The nature and purpose of this research have been sufficiently explained and I agree to participate in this study.  I understand that I am free to withdraw at any time without incurring any penalty.</p><p>Please consent by clicking the button below to continue. Otherwise, please exit the study at this time.</p></div>","","instructions","html-button-response","1","13756","0.0-1.0","3007477","co37573","norming","0","","","","","",""
"","","","instructions","fullscreen","2","17602","0.0-2.0","3007477","co37573","norming","","true","","","","",""
"79281.62499994505","","","sona","survey-html-form","3","96890","0.0-3.0","3007477","co37573","norming","","","[{""name"":""sonaid"",""value"":""37573""},{""name"":""debrief"",""value"":""yes""},{""name"":""datajoin"",""value"":""yes""}]","","","",""
"42209.37000005506","<div style='word-wrap: break-word; width: 900px'><h3>Instructions</h3><p>This experiment will have 3 parts. In the first part you will see a series of distorted images like the one below on the left. As you can see in the righthand image, the distorted images are derived from actual photographs. In what follows, you will <strong>briefly</strong> be presented with <strong>only</strong> the distorted image.</p> <div style='float: left; margin-right: 20px;'><img src='../img/018tt.jpg' height='250' width='250'></img></div><div style='float: right; margin-left: 20px;'><img src='../img/018gs.jpg' height='250' width='250'></img></div><p>Subsequently you will be asked a few questions about the image: One question on how <strong>curious</strong> you are about the solution and one on how <strong>confident</strong> you are that you know the solution.</p>Next, we ask you to make a guess on what is in the image. Note that it is OK to name just the <strong>basic level category</strong>. For example when you see a parrot in the image, 'parrot' will obviously be a correct answer but also correct is 'bird'. However, 'animal' will <strong>not</strong> be counted as a correct response. For the example above, 'rose' would be correct or 'flower', but not 'plant'. When soccer players are depicted, 'soccer', 'football', 'soccer players' will be correct, but not 'humans', 'outdoors', or 'sports'. You do not need to describe the image in full, just name the main object in it <strong>in one or two words</strong>. All images depict objects from one of the following broad level categories: animals, inanimate objects, plants, sports, vehicles, and food. Recognizing means knowing <strong>more</strong> than these broad labels for a given image. But we always encourage you to <strong>make a guess</strong> if you can. Note that you are allowed to use <strong>Dutch and English</strong> in your answers, whatever comes easiest for you.</p><p>Press any key to continue.</p></div>","76","instructions","html-keyboard-response","4","139103","0.0-4.0","3007477","co37573","norming","","","","","","",""
"8775.664999964647","<div style='word-wrap: break-word; width: 900px'><h3>Instructions</h3> <p>Next, the solution image will be revealed to you and you'll be asked to indicate how strong your <strong>aha-experience</strong> was after seeing the solution. This describes the positive feeling of the 'click' you sometimes experience, when the pieces of the 'puzzle' fall together and you suddenly have 'insight' in the image.</p><img src='aha.jpg' height='188' width='250'></img><p>Note that there are no right or wrong answers. We are interested in what <strong>you</strong> see in the image and how <strong>you</strong> feel about it.</p><p>Press any key to start the experiment.</p></div>","74","instructions","html-keyboard-response","5","147881","0.0-5.0","3007477","co37573","norming","","","","","","",""
"null","<div style=""font-size:60px;""> </div>","null","fixation","html-keyboard-response","6","148088","0.0-6.0-0.0","3007477","co37573","norming","","","","","","",""
"null","../img/tt/435tt.jpg","null","mooney1","image-keyboard-response","7","151108","0.0-6.0-1.0","3007477","co37573","norming","","","","","","",""
"9253.405000083148","","","post_mooney1_questions","survey-likert","8","160367","0.0-6.0-2.0","3007477","co37573","norming","","","{""curiosity"":5,""confidence"":1}","[0,1]","../img/tt/435tt.jpg","",""
"6058.8149999966845","","","recognition","survey-text","9","166432","0.0-6.0-3.0","3007477","co37573","norming","","","{""guess"":""ninja""}","","../img/tt/435tt.jpg","",""
"null","../img/gs/435gs.jpg","null","reveal","image-keyboard-response","10","168437","0.0-6.0-4.0","3007477","co37573","norming","","","","","","",""
"null","../img/tt/435tt.jpg","null","mooney2","image-keyboard-response","11","170440","0.0-6.0-5.0","3007477","co37573","norming","","","","","","",""
"7516.529999906197","","","post_reveal_questions","survey-likert","12","177959","0.0-6.0-6.0","3007477","co37573","norming","","","{""aha"":5}","[0]","../img/tt/435tt.jpg","",""
"null","<div style=""font-size:60px;""> </div>","null","fixation","html-keyboard-response","13","178166","0.0-6.0-0.1","3007477","co37573","norming","","","","","","",""
"null","../img/tt/552tt.jpg","null","mooney1","image-keyboard-response","14","181168","0.0-6.0-1.1","3007477","co37573","norming","","","","","","",""
"7691.110000014305","","","post_mooney1_questions","survey-likert","15","188863","0.0-6.0-2.1","3007477","co37573","norming","","","{""curiosity"":5,""confidence"":0}","[0,1]","../img/tt/552tt.jpg","",""
"8076.770000043325","","","recognition","survey-text","16","196946","0.0-6.0-3.1","3007477","co37573","norming","","","{""guess"":""""}","","../img/tt/552tt.jpg","",""
"null","../img/gs/552gs.jpg","null","reveal","image-keyboard-response","17","198952","0.0-6.0-4.1","3007477","co37573","norming","","","","","","",""
"null","../img/tt/552tt.jpg","null","mooney2","image-keyboard-response","18","200953","0.0-6.0-5.1","3007477","co37573","norming","","","","","","",""
"5625.654999981634","","","post_reveal_questions","survey-likert","19","206582","0.0-6.0-6.1","3007477","co37573","norming","","","{""aha"":5}","[0]","../img/tt/552tt.jpg","",""
"null","<div style=""font-size:60px;""> </div>","null","fixation","html-keyboard-response","20","206786","0.0-6.0-0.2","3007477","co37573","norming","","","","","","",""
"null","../img/tt/1188tt.jpg","null","mooney1","image-keyboard-response","21","209795","0.0-6.0-1.2","3007477","co37573","norming","","","","","","",""
"12103.084999951534","","","post_mooney1_questions","survey-likert","22","221901","0.0-6.0-2.2","3007477","co37573","norming","","","{""curiosity"":5,""confidence"":5}","[0,1]","../img/tt/1188tt.jpg","",""
"4529.0599999716505","","","recognition","survey-text","23","226436","0.0-6.0-3.2","3007477","co37573","norming","","","{""guess"":""football""}","","../img/tt/1188tt.jpg","",""
"null","../img/gs/1188gs.jpg","null","reveal","image-keyboard-response","24","228442","0.0-6.0-4.2","3007477","co37573","norming","","","","","","",""
"null","../img/tt/1188tt.jpg","null","mooney2","image-keyboard-response","25","230445","0.0-6.0-5.2","3007477","co37573","norming","","","","","","",""
"2249.2050000000745","","","post_reveal_questions","survey-likert","26","232696","0.0-6.0-6.2","3007477","co37573","norming","","","{""aha"":5}","[0]","../img/tt/1188tt.jpg","",""
"null","<div style=""font-size:60px;""> </div>","null","fixation","html-keyboard-response","27","232909","0.0-6.0-0.3","3007477","co37573","norming","","","","","","",""
"null","../img/tt/1307tt.jpg","null","mooney1","image-keyboard-response","28","235915","0.0-6.0-1.3","3007477","co37573","norming","","","","","","",""
"6857.5849999906495","","","post_mooney1_questions","survey-likert","29","242776","0.0-6.0-2.3","3007477","co37573","norming","","","{""curiosity"":4,""confidence"":2}","[0,1]","../img/tt/1307tt.jpg","",""
"3033.3300000056624","","","recognition","survey-text","30","245814","0.0-6.0-3.3","3007477","co37573","norming","","","{""guess"":""kerk""}","","../img/tt/1307tt.jpg","",""
"null","../img/gs/1307gs.jpg","null","reveal","image-keyboard-response","31","247821","0.0-6.0-4.3","3007477","co37573","norming","","","","","","",""
"null","../img/tt/1307tt.jpg","null","mooney2","image-keyboard-response","32","249825","0.0-6.0-5.3","3007477","co37573","norming","","","","","","",""
"2484.4250000314787","","","post_reveal_questions","survey-likert","33","252312","0.0-6.0-6.3","3007477","co37573","norming","","","{""aha"":6}","[0]","../img/tt/1307tt.jpg","",""
"null","<div style=""font-size:60px;""> </div>","null","fixation","html-keyboard-response","34","252517","0.0-6.0-0.4","3007477","co37573","norming","","","","","","",""
"null","../img/tt/1130tt.jpg","null","mooney1","image-keyboard-response","35","255523","0.0-6.0-1.4","3007477","co37573","norming","","","","","","",""
"6135.664999950677","","","post_mooney1_questions","survey-likert","36","261662","0.0-6.0-2.4","3007477","co37573","norming","","","{""curiosity"":5,""confidence"":2}","[0,1]","../img/tt/1130tt.jpg","",""
"4080.2350000012666","","","recognition","survey-text","37","265748","0.0-6.0-3.4","3007477","co37573","norming","","","{""guess"":""fotograaf""}","","../img/tt/1130tt.jpg","",""
"null","../img/gs/1130gs.jpg","null","reveal","image-keyboard-response","38","267755","0.0-6.0-4.4","3007477","co37573","norming","","","","","","",""
"null","../img/tt/1130tt.jpg","null","mooney2","image-keyboard-response","39","269760","0.0-6.0-5.4","3007477","co37573","norming","","","","","","",""
"3479.0800000773743","","","post_reveal_questions","survey-likert","40","273242","0.0-6.0-6.4","3007477","co37573","norming","","","{""aha"":5}","[0]","../img/tt/1130tt.jpg","",""
"null","<div style=""font-size:60px;""> </div>","null","fixation","html-keyboard-response","41","273447","0.0-6.0-0.5","3007477","co37573","norming","","","","","","",""
"null","../img/tt/1004tt.jpg","null","mooney1","image-keyboard-response","42","276450","0.0-6.0-1.5","3007477","co37573","norming","","","","","","",""
"6495.92500005383","","","post_mooney1_questions","survey-likert","43","282949","0.0-6.0-2.5","3007477","co37573","norming","","","{""curiosity"":5,""confidence"":4}","[0,1]","../img/tt/1004tt.jpg","",""
"3720.0400000438094","","","recognition","survey-text","44","286674","0.0-6.0-3.5","3007477","co37573","norming","","","{""guess"":""geit""}","","../img/tt/1004tt.jpg","",""
"null","../img/gs/1004gs.jpg","null","reveal","image-keyboard-response","45","288678","0.0-6.0-4.5","3007477","co37573","norming","","","","","","",""
"null","../img/tt/1004tt.jpg","null","mooney2","image-keyboard-response","46","290684","0.0-6.0-5.5","3007477","co37573","norming","","","","","","",""
"77170.02499999944","","","post_reveal_questions","survey-likert","47","367857","0.0-6.0-6.5","3007477","co37573","norming","","","{""aha"":6}","[0]","../img/tt/1004tt.jpg","",""
"null","<div style=""font-size:60px;""> </div>","null","fixation","html-keyboard-response","48","368063","0.0-6.0-0.6","3007477","co37573","norming","","","","","","",""
"null","../img/tt/1087tt.jpg","null","mooney1","image-keyboard-response","49","371067","0.0-6.0-1.6","3007477","co37573","norming","","","","","","",""
"6405.70999996271","","","post_mooney1_questions","survey-likert","50","377476","0.0-6.0-2.6","3007477","co37573","norming","","","{""curiosity"":5,""confidence"":3}","[0,1]","../img/tt/1087tt.jpg","",""
"2230.9400000376627","","","recognition","survey-text","51","379713","0.0-6.0-3.6","3007477","co37573","norming","","","{""guess"":""kat""}","","../img/tt/1087tt.jpg","",""
"null","../img/gs/1087gs.jpg","null","reveal","image-keyboard-response","52","381718","0.0-6.0-4.6","3007477","co37573","norming","","","","","","",""
"null","../img/tt/1087tt.jpg","null","mooney2","image-keyboard-response","53","383721","0.0-6.0-5.6","3007477","co37573","norming","","","","","","",""
"2920.849999994971","","","post_reveal_questions","survey-likert","54","386645","0.0-6.0-6.6","3007477","co37573","norming","","","{""aha"":6}","[0]","../img/tt/1087tt.jpg","",""
"null","<div style=""font-size:60px;""> </div>","null","fixation","html-keyboard-response","55","386858","0.0-6.0-0.7","3007477","co37573","norming","","","","","","",""
"null","../img/tt/357tt.jpg","null","mooney1","image-keyboard-response","56","389863","0.0-6.0-1.7","3007477","co37573","norming","","","","","","",""
"4875.880000065081","","","post_mooney1_questions","survey-likert","57","394743","0.0-6.0-2.7","3007477","co37573","norming","","","{""curiosity"":5,""confidence"":0}","[0,1]","../img/tt/357tt.jpg","",""
"914.4749999977648","","","recognition","survey-text","58","395663","0.0-6.0-3.7","3007477","co37573","norming","","","{""guess"":""""}","","../img/tt/357tt.jpg","",""
"null","../img/gs/357gs.jpg","null","reveal","image-keyboard-response","59","397667","0.0-6.0-4.7","3007477","co37573","norming","","","","","","",""
"null","../img/tt/357tt.jpg","null","mooney2","image-keyboard-response","60","399670","0.0-6.0-5.7","3007477","co37573","norming","","","","","","",""
"2022.9050000198185","","","post_reveal_questions","survey-likert","61","401696","0.0-6.0-6.7","3007477","co37573","norming","","","{""aha"":0}","[0]","../img/tt/357tt.jpg","",""
"null","<div style=""font-size:60px;""> </div>","null","fixation","html-keyboard-response","62","401902","0.0-6.0-0.8","3007477","co37573","norming","","","","","","",""
"null","../img/tt/1024tt.jpg","null","mooney1","image-keyboard-response","63","404906","0.0-6.0-1.8","3007477","co37573","norming","","","","","","",""
"6040.199999930337","","","post_mooney1_questions","survey-likert","64","410950","0.0-6.0-2.8","3007477","co37573","norming","","","{""curiosity"":6,""confidence"":0}","[0,1]","../img/tt/1024tt.jpg","",""
"795.8399999188259","","","recognition","survey-text","65","411752","0.0-6.0-3.8","3007477","co37573","norming","","","{""guess"":""""}","","../img/tt/1024tt.jpg","",""
"null","../img/gs/1024gs.jpg","null","reveal","image-keyboard-response","66","413757","0.0-6.0-4.8","3007477","co37573","norming","","","","","","",""
"null","../img/tt/1024tt.jpg","null","mooney2","image-keyboard-response","67","415762","0.0-6.0-5.8","3007477","co37573","norming","","","","","","",""
"3156.775000039488","","","post_reveal_questions","survey-likert","68","418922","0.0-6.0-6.8","3007477","co37573","norming","","","{""aha"":0}","[0]","../img/tt/1024tt.jpg","",""
"null","<div style=""font-size:60px;""> </div>","null","fixation","html-keyboard-response","69","419126","0.0-6.0-0.9","3007477","co37573","norming","","","","","","",""
"null","../img/tt/1363tt.jpg","null","mooney1","image-keyboard-response","70","422132","0.0-6.0-1.9","3007477","co37573","norming","","","","","","",""
"9626.210000016727","","","post_mooney1_questions","survey-likert","71","431762","0.0-6.0-2.9","3007477","co37573","norming","","","{""curiosity"":5,""confidence"":3}","[0,1]","../img/tt/1363tt.jpg","",""
"3593.419999931939","","","recognition","survey-text","72","435361","0.0-6.0-3.9","3007477","co37573","norming","","","{""guess"":""lepel""}","","../img/tt/1363tt.jpg","",""
"null","../img/gs/1363gs.jpg","null","reveal","image-keyboard-response","73","437368","0.0-6.0-4.9","3007477","co37573","norming","","","","","","",""
"null","../img/tt/1363tt.jpg","null","mooney2","image-keyboard-response","74","439374","0.0-6.0-5.9","3007477","co37573","norming","","","","","","",""
"1592.5650000572205","","","post_reveal_questions","survey-likert","75","440969","0.0-6.0-6.9","3007477","co37573","norming","","","{""aha"":6}","[0]","../img/tt/1363tt.jpg","",""
"null","<div style=""font-size:60px;""> </div>","null","fixation","html-keyboard-response","76","441188","0.0-6.0-0.10","3007477","co37573","norming","","","","","","",""
"null","../img/tt/515tt.jpg","null","mooney1","image-keyboard-response","77","444193","0.0-6.0-1.10","3007477","co37573","norming","","","","","","",""
"4681.404999922961","","","post_mooney1_questions","survey-likert","78","448878","0.0-6.0-2.10","3007477","co37573","norming","","","{""curiosity"":5,""confidence"":3}","[0,1]","../img/tt/515tt.jpg","",""
"3802.1500000031665","","","recognition","survey-text","79","452692","0.0-6.0-3.10","3007477","co37573","norming","","","{""guess"":""zonnebril""}","","../img/tt/515tt.jpg","",""
"null","../img/gs/515gs.jpg","null","reveal","image-keyboard-response","80","454699","0.0-6.0-4.10","3007477","co37573","norming","","","","","","",""
"null","../img/tt/515tt.jpg","null","mooney2","image-keyboard-response","81","456702","0.0-6.0-5.10","3007477","co37573","norming","","","","","","",""
"3661.6650000214577","","","post_reveal_questions","survey-likert","82","460367","0.0-6.0-6.10","3007477","co37573","norming","","","{""aha"":4}","[0]","../img/tt/515tt.jpg","",""
"null","<div style=""font-size:60px;""> </div>","null","fixation","html-keyboard-response","83","460570","0.0-6.0-0.11","3007477","co37573","norming","","","","","","",""
"null","../img/tt/456tt.jpg","null","mooney1","image-keyboard-response","84","463576","0.0-6.0-1.11","3007477","co37573","norming","","","","","","",""
"4684.404999949038","","","post_mooney1_questions","survey-likert","85","468264","0.0-6.0-2.11","3007477","co37573","norming","","","{""curiosity"":5,""confidence"":0}","[0,1]","../img/tt/456tt.jpg","",""
"1162.0249999687076","","","recognition","survey-text","86","469434","0.0-6.0-3.11","3007477","co37573","norming","","","{""guess"":""""}","","../img/tt/456tt.jpg","",""
"null","../img/gs/456gs.jpg","null","reveal","image-keyboard-response","87","471438","0.0-6.0-4.11","3007477","co37573","norming","","","","","","",""
"null","../img/tt/456tt.jpg","null","mooney2","image-keyboard-response","88","473443","0.0-6.0-5.11","3007477","co37573","norming","","","","","","",""
"2138.329999987036","","","post_reveal_questions","survey-likert","89","475584","0.0-6.0-6.11","3007477","co37573","norming","","","{""aha"":5}","[0]","../img/tt/456tt.jpg","",""
"null","<div style=""font-size:60px;""> </div>","null","fixation","html-keyboard-response","90","475787","0.0-6.0-0.12","3007477","co37573","norming","","","","","","",""
"null","../img/tt/1353tt.jpg","null","mooney1","image-keyboard-response","91","478795","0.0-6.0-1.12","3007477","co37573","norming","","","","","","",""
"5956.080000032671","","","post_mooney1_questions","survey-likert","92","484755","0.0-6.0-2.12","3007477","co37573","norming","","","{""curiosity"":5,""confidence"":2}","[0,1]","../img/tt/1353tt.jpg","",""
"4710.465000011027","","","recognition","survey-text","93","489471","0.0-6.0-3.12","3007477","co37573","norming","","","{""guess"":""kat""}","","../img/tt/1353tt.jpg","",""
"null","../img/gs/1353gs.jpg","null","reveal","image-keyboard-response","94","491477","0.0-6.0-4.12","3007477","co37573","norming","","","","","","",""
"null","../img/tt/1353tt.jpg","null","mooney2","image-keyboard-response","95","493481","0.0-6.0-5.12","3007477","co37573","norming","","","","","","",""
"3643.0200000759214","","","post_reveal_questions","survey-likert","96","497127","0.0-6.0-6.12","3007477","co37573","norming","","","{""aha"":6}","[0]","../img/tt/1353tt.jpg","",""
"null","<div style=""font-size:60px;""> </div>","null","fixation","html-keyboard-response","97","497335","0.0-6.0-0.13","3007477","co37573","norming","","","","","","",""
"null","../img/tt/080tt.jpg","null","mooney1","image-keyboard-response","98","500339","0.0-6.0-1.13","3007477","co37573","norming","","","","","","",""
"6510.73500001803","","","post_mooney1_questions","survey-likert","99","506854","0.0-6.0-2.13","3007477","co37573","norming","","","{""curiosity"":6,""confidence"":2}","[0,1]","../img/tt/080tt.jpg","",""
"3304.1400000220165","","","recognition","survey-text","100","510163","0.0-6.0-3.13","3007477","co37573","norming","","","{""guess"":""ei""}","","../img/tt/080tt.jpg","",""
"null","../img/gs/080gs.jpg","null","reveal","image-keyboard-response","101","512173","0.0-6.0-4.13","3007477","co37573","norming","","","","","","",""
"null","../img/tt/080tt.jpg","null","mooney2","image-keyboard-response","102","514176","0.0-6.0-5.13","3007477","co37573","norming","","","","","","",""
"2496.2349999696016","","","post_reveal_questions","survey-likert","103","516675","0.0-6.0-6.13","3007477","co37573","norming","","","{""aha"":5}","[0]","../img/tt/080tt.jpg","",""
"null","<div style=""font-size:60px;""> </div>","null","fixation","html-keyboard-response","104","516877","0.0-6.0-0.14","3007477","co37573","norming","","","","","","",""
"null","../img/tt/1181tt.jpg","null","mooney1","image-keyboard-response","105","519881","0.0-6.0-1.14","3007477","co37573","norming","","","","","","",""
"5562.414999934845","","","post_mooney1_questions","survey-likert","106","525447","0.0-6.0-2.14","3007477","co37573","norming","","","{""curiosity"":6,""confidence"":4}","[0,1]","../img/tt/1181tt.jpg","",""
"9525.834999978542","","","recognition","survey-text","107","534978","0.0-6.0-3.14","3007477","co37573","norming","","","{""guess"":""tafel""}","","../img/tt/1181tt.jpg","",""
"null","../img/gs/1181gs.jpg","null","reveal","image-keyboard-response","108","536985","0.0-6.0-4.14","3007477","co37573","norming","","","","","","",""
"null","../img/tt/1181tt.jpg","null","mooney2","image-keyboard-response","109","538992","0.0-6.0-5.14","3007477","co37573","norming","","","","","","",""
"2676.4400000683963","","","post_reveal_questions","survey-likert","110","541671","0.0-6.0-6.14","3007477","co37573","norming","","","{""aha"":5}","[0]","../img/tt/1181tt.jpg","",""
"null","<div style=""font-size:60px;""> </div>","null","fixation","html-keyboard-response","111","541875","0.0-6.0-0.15","3007477","co37573","norming","","","","","","",""
"null","../img/tt/1126tt.jpg","null","mooney1","image-keyboard-response","112","544883","0.0-6.0-1.15","3007477","co37573","norming","","","","","","",""
"4212.485000025481","","","post_mooney1_questions","survey-likert","113","549099","0.0-6.0-2.15","3007477","co37573","norming","","","{""curiosity"":6,""confidence"":6}","[0,1]","../img/tt/1126tt.jpg","",""
"3374.2599999532104","","","recognition","survey-text","114","552478","0.0-6.0-3.15","3007477","co37573","norming","","","{""guess"":""klimmer""}","","../img/tt/1126tt.jpg","",""
"null","../img/gs/1126gs.jpg","null","reveal","image-keyboard-response","115","554482","0.0-6.0-4.15","3007477","co37573","norming","","","","","","",""
"null","../img/tt/1126tt.jpg","null","mooney2","image-keyboard-response","116","556491","0.0-6.0-5.15","3007477","co37573","norming","","","","","","",""
"2648.3249999582767","","","post_reveal_questions","survey-likert","117","559143","0.0-6.0-6.15","3007477","co37573","norming","","","{""aha"":0}","[0]","../img/tt/1126tt.jpg","",""
"null","<div style=""font-size:60px;""> </div>","null","fixation","html-keyboard-response","118","559350","0.0-6.0-0.16","3007477","co37573","norming","","","","","","",""
"null","../img/tt/044tt.jpg","null","mooney1","image-keyboard-response","119","562353","0.0-6.0-1.16","3007477","co37573","norming","","","","","","",""
"9520.200000028126","","","post_mooney1_questions","survey-likert","120","571877","0.0-6.0-2.16","3007477","co37573","norming","","","{""curiosity"":6,""confidence"":2}","[0,1]","../img/tt/044tt.jpg","",""
"3511.1200000392273","","","recognition","survey-text","121","575394","0.0-6.0-3.16","3007477","co37573","norming","","","{""guess"":""kistje""}","","../img/tt/044tt.jpg","",""
"null","../img/gs/044gs.jpg","null","reveal","image-keyboard-response","122","577401","0.0-6.0-4.16","3007477","co37573","norming","","","","","","",""
"null","../img/tt/044tt.jpg","null","mooney2","image-keyboard-response","123","579404","0.0-6.0-5.16","3007477","co37573","norming","","","","","","",""
"2679.6249999897555","","","post_reveal_questions","survey-likert","124","582087","0.0-6.0-6.16","3007477","co37573","norming","","","{""aha"":6}","[0]","../img/tt/044tt.jpg","",""
"null","<div style=""font-size:60px;""> </div>","null","fixation","html-keyboard-response","125","582292","0.0-6.0-0.17","3007477","co37573","norming","","","","","","",""
"null","../img/tt/163tt.jpg","null","mooney1","image-keyboard-response","126","585315","0.0-6.0-1.17","3007477","co37573","norming","","","","","","",""
"5345.00999993179","","","post_mooney1_questions","survey-likert","127","590663","0.0-6.0-2.17","3007477","co37573","norming","","","{""curiosity"":4,""confidence"":0}","[0,1]","../img/tt/163tt.jpg","",""
"1003.1850000377744","","","recognition","survey-text","128","591672","0.0-6.0-3.17","3007477","co37573","norming","","","{""guess"":""""}","","../img/tt/163tt.jpg","",""
"null","../img/gs/163gs.jpg","null","reveal","image-keyboard-response","129","593677","0.0-6.0-4.17","3007477","co37573","norming","","","","","","",""
"null","../img/tt/163tt.jpg","null","mooney2","image-keyboard-response","130","595681","0.0-6.0-5.17","3007477","co37573","norming","","","","","","",""
"2036.820000037551","","","post_reveal_questions","survey-likert","131","597720","0.0-6.0-6.17","3007477","co37573","norming","","","{""aha"":6}","[0]","../img/tt/163tt.jpg","",""
"null","<div style=""font-size:60px;""> </div>","null","fixation","html-keyboard-response","132","597929","0.0-6.0-0.18","3007477","co37573","norming","","","","","","",""
"null","../img/tt/078tt.jpg","null","mooney1","image-keyboard-response","133","600936","0.0-6.0-1.18","3007477","co37573","norming","","","","","","",""
"4291.545000043698","","","post_mooney1_questions","survey-likert","134","605231","0.0-6.0-2.18","3007477","co37573","norming","","","{""curiosity"":5,""confidence"":5}","[0,1]","../img/tt/078tt.jpg","",""
"3795.879999990575","","","recognition","survey-text","135","609032","0.0-6.0-3.18","3007477","co37573","norming","","","{""guess"":""druiven""}","","../img/tt/078tt.jpg","",""
"null","../img/gs/078gs.jpg","null","reveal","image-keyboard-response","136","611039","0.0-6.0-4.18","3007477","co37573","norming","","","","","","",""
"null","../img/tt/078tt.jpg","null","mooney2","image-keyboard-response","137","613042","0.0-6.0-5.18","3007477","co37573","norming","","","","","","",""
"5221.9249999616295","","","post_reveal_questions","survey-likert","138","618267","0.0-6.0-6.18","3007477","co37573","norming","","","{""aha"":0}","[0]","../img/tt/078tt.jpg","",""
"null","<div style=""font-size:60px;""> </div>","null","fixation","html-keyboard-response","139","618473","0.0-6.0-0.19","3007477","co37573","norming","","","","","","",""
"null","../img/tt/1156tt.jpg","null","mooney1","image-keyboard-response","140","621476","0.0-6.0-1.19","3007477","co37573","norming","","","","","","",""
"6374.784999992698","","","post_mooney1_questions","survey-likert","141","627855","0.0-6.0-2.19","3007477","co37573","norming","","","{""curiosity"":6,""confidence"":6}","[0,1]","../img/tt/1156tt.jpg","",""
"7088.15000008326","","","recognition","survey-text","142","634948","0.0-6.0-3.19","3007477","co37573","norming","","","{""guess"":""zonnebaden""}","","../img/tt/1156tt.jpg","",""
"null","../img/gs/1156gs.jpg","null","reveal","image-keyboard-response","143","636952","0.0-6.0-4.19","3007477","co37573","norming","","","","","","",""
"null","../img/tt/1156tt.jpg","null","mooney2","image-keyboard-response","144","638956","0.0-6.0-5.19","3007477","co37573","norming","","","","","","",""
"2495.4150000121444","","","post_reveal_questions","survey-likert","145","641454","0.0-6.0-6.19","3007477","co37573","norming","","","{""aha"":5}","[0]","../img/tt/1156tt.jpg","",""
"null","<div style=""font-size:60px;""> </div>","null","fixation","html-keyboard-response","146","641656","0.0-6.0-0.20","3007477","co37573","norming","","","","","","",""
"null","../img/tt/1143tt.jpg","null","mooney1","image-keyboard-response","147","644660","0.0-6.0-1.20","3007477","co37573","norming","","","","","","",""
"4239.4299999577925","","","post_mooney1_questions","survey-likert","148","648902","0.0-6.0-2.20","3007477","co37573","norming","","","{""curiosity"":5,""confidence"":6}","[0,1]","../img/tt/1143tt.jpg","",""
"6581.799999927171","","","recognition","survey-text","149","655489","0.0-6.0-3.20","3007477","co37573","norming","","","{""guess"":""fietsen ""}","","../img/tt/1143tt.jpg","",""
"null","../img/gs/1143gs.jpg","null","reveal","image-keyboard-response","150","657496","0.0-6.0-4.20","3007477","co37573","norming","","","","","","",""
"null","../img/tt/1143tt.jpg","null","mooney2","image-keyboard-response","151","659500","0.0-6.0-5.20","3007477","co37573","norming","","","","","","",""
"2937.0799999451265","","","post_reveal_questions","survey-likert","152","662439","0.0-6.0-6.20","3007477","co37573","norming","","","{""aha"":5}","[0]","../img/tt/1143tt.jpg","",""
"null","<div style=""font-size:60px;""> </div>","null","fixation","html-keyboard-response","153","662643","0.0-6.0-0.21","3007477","co37573","norming","","","","","","",""
"null","../img/tt/194tt.jpg","null","mooney1","image-keyboard-response","154","665648","0.0-6.0-1.21","3007477","co37573","norming","","","","","","",""
"3378.1550000421703","","","post_mooney1_questions","survey-likert","155","669029","0.0-6.0-2.21","3007477","co37573","norming","","","{""curiosity"":6,""confidence"":5}","[0,1]","../img/tt/194tt.jpg","",""
"3138.5599999921396","","","recognition","survey-text","156","672173","0.0-6.0-3.21","3007477","co37573","norming","","","{""guess"":""meisje""}","","../img/tt/194tt.jpg","",""
"null","../img/gs/194gs.jpg","null","reveal","image-keyboard-response","157","674182","0.0-6.0-4.21","3007477","co37573","norming","","","","","","",""
"null","../img/tt/194tt.jpg","null","mooney2","image-keyboard-response","158","676184","0.0-6.0-5.21","3007477","co37573","norming","","","","","","",""
"2934.349999995902","","","post_reveal_questions","survey-likert","159","679121","0.0-6.0-6.21","3007477","co37573","norming","","","{""aha"":6}","[0]","../img/tt/194tt.jpg","",""
"null","<div style=""font-size:60px;""> </div>","null","fixation","html-keyboard-response","160","679325","0.0-6.0-0.22","3007477","co37573","norming","","","","","","",""
"null","../img/tt/1125tt.jpg","null","mooney1","image-keyboard-response","161","682328","0.0-6.0-1.22","3007477","co37573","norming","","","","","","",""
"4480.790000059642","","","post_mooney1_questions","survey-likert","162","686812","0.0-6.0-2.22","3007477","co37573","norming","","","{""curiosity"":5,""confidence"":0}","[0,1]","../img/tt/1125tt.jpg","",""
"990.8049999503419","","","recognition","survey-text","163","687809","0.0-6.0-3.22","3007477","co37573","norming","","","{""guess"":""""}","","../img/tt/1125tt.jpg","",""
"null","../img/gs/1125gs.jpg","null","reveal","image-keyboard-response","164","689815","0.0-6.0-4.22","3007477","co37573","norming","","","","","","",""
"null","../img/tt/1125tt.jpg","null","mooney2","image-keyboard-response","165","691820","0.0-6.0-5.22","3007477","co37573","norming","","","","","","",""
"1966.6049999650568","","","post_reveal_questions","survey-likert","166","693789","0.0-6.0-6.22","3007477","co37573","norming","","","{""aha"":6}","[0]","../img/tt/1125tt.jpg","",""
"null","<div style=""font-size:60px;""> </div>","null","fixation","html-keyboard-response","167","693993","0.0-6.0-0.23","3007477","co37573","norming","","","","","","",""
"null","../img/tt/1217tt.jpg","null","mooney1","image-keyboard-response","168","696996","0.0-6.0-1.23","3007477","co37573","norming","","","","","","",""
"4833.635000046343","","","post_mooney1_questions","survey-likert","169","701833","0.0-6.0-2.23","3007477","co37573","norming","","","{""curiosity"":6,""confidence"":5}","[0,1]","../img/tt/1217tt.jpg","",""
"3560.810000053607","","","recognition","survey-text","170","705400","0.0-6.0-3.23","3007477","co37573","norming","","","{""guess"":""schapen""}","","../img/tt/1217tt.jpg","",""
"null","../img/gs/1217gs.jpg","null","reveal","image-keyboard-response","171","707406","0.0-6.0-4.23","3007477","co37573","norming","","","","","","",""
"null","../img/tt/1217tt.jpg","null","mooney2","image-keyboard-response","172","709412","0.0-6.0-5.23","3007477","co37573","norming","","","","","","",""
"2607.075000065379","","","post_reveal_questions","survey-likert","173","712022","0.0-6.0-6.23","3007477","co37573","norming","","","{""aha"":6}","[0]","../img/tt/1217tt.jpg","",""
"null","<div style=""font-size:60px;""> </div>","null","fixation","html-keyboard-response","174","712226","0.0-6.0-0.24","3007477","co37573","norming","","","","","","",""
"null","../img/tt/418tt.jpg","null","mooney1","image-keyboard-response","175","715229","0.0-6.0-1.24","3007477","co37573","norming","","","","","","",""
"5543.7599999131635","","","post_mooney1_questions","survey-likert","176","720775","0.0-6.0-2.24","3007477","co37573","norming","","","{""curiosity"":5,""confidence"":0}","[0,1]","../img/tt/418tt.jpg","",""
"868.9050000393763","","","recognition","survey-text","177","721648","0.0-6.0-3.24","3007477","co37573","norming","","","{""guess"":""""}","","../img/tt/418tt.jpg","",""
"null","../img/gs/418gs.jpg","null","reveal","image-keyboard-response","178","723653","0.0-6.0-4.24","3007477","co37573","norming","","","","","","",""
"null","../img/tt/418tt.jpg","null","mooney2","image-keyboard-response","179","725655","0.0-6.0-5.24","3007477","co37573","norming","","","","","","",""
"3543.4149999637157","","","post_reveal_questions","survey-likert","180","729200","0.0-6.0-6.24","3007477","co37573","norming","","","{""aha"":6}","[0]","../img/tt/418tt.jpg","",""
"null","<div style=""font-size:60px;""> </div>","null","fixation","html-keyboard-response","181","729403","0.0-6.0-0.25","3007477","co37573","norming","","","","","","",""
"null","../img/tt/1061tt.jpg","null","mooney1","image-keyboard-response","182","732411","0.0-6.0-1.25","3007477","co37573","norming","","","","","","",""
"4698.300000047311","","","post_mooney1_questions","survey-likert","183","737113","0.0-6.0-2.25","3007477","co37573","norming","","","{""curiosity"":6,""confidence"":6}","[0,1]","../img/tt/1061tt.jpg","",""
"3975.6300000008196","","","recognition","survey-text","184","741094","0.0-6.0-3.25","3007477","co37573","norming","","","{""guess"":""man loopt""}","","../img/tt/1061tt.jpg","",""
"null","../img/gs/1061gs.jpg","null","reveal","image-keyboard-response","185","743101","0.0-6.0-4.25","3007477","co37573","norming","","","","","","",""
"null","../img/tt/1061tt.jpg","null","mooney2","image-keyboard-response","186","745104","0.0-6.0-5.25","3007477","co37573","norming","","","","","","",""
"2463.6300000129268","","","post_reveal_questions","survey-likert","187","747571","0.0-6.0-6.25","3007477","co37573","norming","","","{""aha"":6}","[0]","../img/tt/1061tt.jpg","",""
"null","<div style=""font-size:60px;""> </div>","null","fixation","html-keyboard-response","188","747775","0.0-6.0-0.26","3007477","co37573","norming","","","","","","",""
"null","../img/tt/1272tt.jpg","null","mooney1","image-keyboard-response","189","750778","0.0-6.0-1.26","3007477","co37573","norming","","","","","","",""
"3703.5349999787286","","","post_mooney1_questions","survey-likert","190","754484","0.0-6.0-2.26","3007477","co37573","norming","","","{""curiosity"":6,""confidence"":5}","[0,1]","../img/tt/1272tt.jpg","",""
"4864.279999979772","","","recognition","survey-text","191","759352","0.0-6.0-3.26","3007477","co37573","norming","","","{""guess"":""volleybal""}","","../img/tt/1272tt.jpg","",""
"null","../img/gs/1272gs.jpg","null","reveal","image-keyboard-response","192","761356","0.0-6.0-4.26","3007477","co37573","norming","","","","","","",""
"null","../img/tt/1272tt.jpg","null","mooney2","image-keyboard-response","193","763360","0.0-6.0-5.26","3007477","co37573","norming","","","","","","",""
"2653.5649999277666","","","post_reveal_questions","survey-likert","194","766016","0.0-6.0-6.26","3007477","co37573","norming","","","{""aha"":6}","[0]","../img/tt/1272tt.jpg","",""
"null","<div style=""font-size:60px;""> </div>","null","fixation","html-keyboard-response","195","766222","0.0-6.0-0.27","3007477","co37573","norming","","","","","","",""
"null","../img/tt/1255tt.jpg","null","mooney1","image-keyboard-response","196","769230","0.0-6.0-1.27","3007477","co37573","norming","","","","","","",""
"6521.48999995552","","","post_mooney1_questions","survey-likert","197","775755","0.0-6.0-2.27","3007477","co37573","norming","","","{""curiosity"":6,""confidence"":3}","[0,1]","../img/tt/1255tt.jpg","",""
"3180.8299999684095","","","recognition","survey-text","198","778941","0.0-6.0-3.27","3007477","co37573","norming","","","{""guess"":""park""}","","../img/tt/1255tt.jpg","",""
"null","../img/gs/1255gs.jpg","null","reveal","image-keyboard-response","199","780946","0.0-6.0-4.27","3007477","co37573","norming","","","","","","",""
"null","../img/tt/1255tt.jpg","null","mooney2","image-keyboard-response","200","782949","0.0-6.0-5.27","3007477","co37573","norming","","","","","","",""
"4572.224999894388","","","post_reveal_questions","survey-likert","201","787524","0.0-6.0-6.27","3007477","co37573","norming","","","{""aha"":6}","[0]","../img/tt/1255tt.jpg","",""
"null","<div style=""font-size:60px;""> </div>","null","fixation","html-keyboard-response","202","787729","0.0-6.0-0.28","3007477","co37573","norming","","","","","","",""
"null","../img/tt/1241tt.jpg","null","mooney1","image-keyboard-response","203","790734","0.0-6.0-1.28","3007477","co37573","norming","","","","","","",""
"4684.88499999512","","","post_mooney1_questions","survey-likert","204","795422","0.0-6.0-2.28","3007477","co37573","norming","","","{""curiosity"":6,""confidence"":2}","[0,1]","../img/tt/1241tt.jpg","",""
"3324.69499995932","","","recognition","survey-text","205","798752","0.0-6.0-3.28","3007477","co37573","norming","","","{""guess"":""bank""}","","../img/tt/1241tt.jpg","",""
"null","../img/gs/1241gs.jpg","null","reveal","image-keyboard-response","206","800759","0.0-6.0-4.28","3007477","co37573","norming","","","","","","",""
"null","../img/tt/1241tt.jpg","null","mooney2","image-keyboard-response","207","802762","0.0-6.0-5.28","3007477","co37573","norming","","","","","","",""
"2305.4799999808893","","","post_reveal_questions","survey-likert","208","805070","0.0-6.0-6.28","3007477","co37573","norming","","","{""aha"":6}","[0]","../img/tt/1241tt.jpg","",""
"null","<div style=""font-size:60px;""> </div>","null","fixation","html-keyboard-response","209","805274","0.0-6.0-0.29","3007477","co37573","norming","","","","","","",""
"null","../img/tt/315tt.jpg","null","mooney1","image-keyboard-response","210","808280","0.0-6.0-1.29","3007477","co37573","norming","","","","","","",""
"4289.84500002116","","","post_mooney1_questions","survey-likert","211","812575","0.0-6.0-2.29","3007477","co37573","norming","","","{""curiosity"":5,""confidence"":0}","[0,1]","../img/tt/315tt.jpg","",""
"911.9400000199676","","","recognition","survey-text","212","813495","0.0-6.0-3.29","3007477","co37573","norming","","","{""guess"":""""}","","../img/tt/315tt.jpg","",""
"null","../img/gs/315gs.jpg","null","reveal","image-keyboard-response","213","815499","0.0-6.0-4.29","3007477","co37573","norming","","","","","","",""
"null","../img/tt/315tt.jpg","null","mooney2","image-keyboard-response","214","817511","0.0-6.0-5.29","3007477","co37573","norming","","","","","","",""
"2881.984999985434","","","post_reveal_questions","survey-likert","215","820396","0.0-6.0-6.29","3007477","co37573","norming","","","{""aha"":6}","[0]","../img/tt/315tt.jpg","",""
"null","<div style=""font-size:60px;""> </div>","null","fixation","html-keyboard-response","216","820599","0.0-6.0-0.30","3007477","co37573","norming","","","","","","",""
"null","../img/tt/307tt.jpg","null","mooney1","image-keyboard-response","217","823603","0.0-6.0-1.30","3007477","co37573","norming","","","","","","",""
"4747.484999941662","","","post_mooney1_questions","survey-likert","218","828355","0.0-6.0-2.30","3007477","co37573","norming","","","{""curiosity"":5,""confidence"":6}","[0,1]","../img/tt/307tt.jpg","",""
"4913.4300000732765","","","recognition","survey-text","219","833274","0.0-6.0-3.30","3007477","co37573","norming","","","{""guess"":""schildpad""}","","../img/tt/307tt.jpg","",""
"null","../img/gs/307gs.jpg","null","reveal","image-keyboard-response","220","835281","0.0-6.0-4.30","3007477","co37573","norming","","","","","","",""
"null","../img/tt/307tt.jpg","null","mooney2","image-keyboard-response","221","837285","0.0-6.0-5.30","3007477","co37573","norming","","","","","","",""
"4522.2000000067055","","","post_reveal_questions","survey-likert","222","841810","0.0-6.0-6.30","3007477","co37573","norming","","","{""aha"":0}","[0]","../img/tt/307tt.jpg","",""
"null","<div style=""font-size:60px;""> </div>","null","fixation","html-keyboard-response","223","842012","0.0-6.0-0.31","3007477","co37573","norming","","","","","","",""
"null","../img/tt/1205tt.jpg","null","mooney1","image-keyboard-response","224","845020","0.0-6.0-1.31","3007477","co37573","norming","","","","","","",""
"4406.760000041686","","","post_mooney1_questions","survey-likert","225","849431","0.0-6.0-2.31","3007477","co37573","norming","","","{""curiosity"":6,""confidence"":4}","[0,1]","../img/tt/1205tt.jpg","",""
"3047.454999992624","","","recognition","survey-text","226","852484","0.0-6.0-3.31","3007477","co37573","norming","","","{""guess"":""eieren""}","","../img/tt/1205tt.jpg","",""
"null","../img/gs/1205gs.jpg","null","reveal","image-keyboard-response","227","854488","0.0-6.0-4.31","3007477","co37573","norming","","","","","","",""
"null","../img/tt/1205tt.jpg","null","mooney2","image-keyboard-response","228","856494","0.0-6.0-5.31","3007477","co37573","norming","","","","","","",""
"2499.2449999554083","","","post_reveal_questions","survey-likert","229","858996","0.0-6.0-6.31","3007477","co37573","norming","","","{""aha"":6}","[0]","../img/tt/1205tt.jpg","",""
"null","<div style=""font-size:60px;""> </div>","null","fixation","html-keyboard-response","230","859199","0.0-6.0-0.32","3007477","co37573","norming","","","","","","",""
"null","../img/tt/121tt.jpg","null","mooney1","image-keyboard-response","231","862203","0.0-6.0-1.32","3007477","co37573","norming","","","","","","",""
"6873.935000039637","","","post_mooney1_questions","survey-likert","232","869081","0.0-6.0-2.32","3007477","co37573","norming","","","{""curiosity"":4,""confidence"":0}","[0,1]","../img/tt/121tt.jpg","",""
"1170.70000001695","","","recognition","survey-text","233","870257","0.0-6.0-3.32","3007477","co37573","norming","","","{""guess"":""""}","","../img/tt/121tt.jpg","",""
"null","../img/gs/121gs.jpg","null","reveal","image-keyboard-response","234","872262","0.0-6.0-4.32","3007477","co37573","norming","","","","","","",""
"null","../img/tt/121tt.jpg","null","mooney2","image-keyboard-response","235","874268","0.0-6.0-5.32","3007477","co37573","norming","","","","","","",""
"4292.264999938197","","","post_reveal_questions","survey-likert","236","878564","0.0-6.0-6.32","3007477","co37573","norming","","","{""aha"":3}","[0]","../img/tt/121tt.jpg","",""
"null","<div style=""font-size:60px;""> </div>","null","fixation","html-keyboard-response","237","878769","0.0-6.0-0.33","3007477","co37573","norming","","","","","","",""
"null","../img/tt/584tt.jpg","null","mooney1","image-keyboard-response","238","881773","0.0-6.0-1.33","3007477","co37573","norming","","","","","","",""
"4893.704999936745","","","post_mooney1_questions","survey-likert","239","886670","0.0-6.0-2.33","3007477","co37573","norming","","","{""curiosity"":6,""confidence"":5}","[0,1]","../img/tt/584tt.jpg","",""
"4219.039999996312","","","recognition","survey-text","240","890894","0.0-6.0-3.33","3007477","co37573","norming","","","{""guess"":""gereedschap""}","","../img/tt/584tt.jpg","",""
"null","../img/gs/584gs.jpg","null","reveal","image-keyboard-response","241","892900","0.0-6.0-4.33","3007477","co37573","norming","","","","","","",""
"null","../img/tt/584tt.jpg","null","mooney2","image-keyboard-response","242","894905","0.0-6.0-5.33","3007477","co37573","norming","","","","","","",""
"4729.33500004001","","","post_reveal_questions","survey-likert","243","899637","0.0-6.0-6.33","3007477","co37573","norming","","","{""aha"":0}","[0]","../img/tt/584tt.jpg","",""
"null","<div style=""font-size:60px;""> </div>","null","fixation","html-keyboard-response","244","899842","0.0-6.0-0.34","3007477","co37573","norming","","","","","","",""
"null","../img/tt/1199tt.jpg","null","mooney1","image-keyboard-response","245","902847","0.0-6.0-1.34","3007477","co37573","norming","","","","","","",""
"4485.615000012331","","","post_mooney1_questions","survey-likert","246","907336","0.0-6.0-2.34","3007477","co37573","norming","","","{""curiosity"":6,""confidence"":5}","[0,1]","../img/tt/1199tt.jpg","",""
"3089.0849999850616","","","recognition","survey-text","247","910431","0.0-6.0-3.34","3007477","co37573","norming","","","{""guess"":""meisje""}","","../img/tt/1199tt.jpg","",""
"null","../img/gs/1199gs.jpg","null","reveal","image-keyboard-response","248","912441","0.0-6.0-4.34","3007477","co37573","norming","","","","","","",""
"null","../img/tt/1199tt.jpg","null","mooney2","image-keyboard-response","249","914444","0.0-6.0-5.34","3007477","co37573","norming","","","","","","",""
"3508.335000020452","","","post_reveal_questions","survey-likert","250","917955","0.0-6.0-6.34","3007477","co37573","norming","","","{""aha"":6}","[0]","../img/tt/1199tt.jpg","",""
"null","<div style=""font-size:60px;""> </div>","null","fixation","html-keyboard-response","251","918159","0.0-6.0-0.35","3007477","co37573","norming","","","","","","",""
"null","../img/tt/468tt.jpg","null","mooney1","image-keyboard-response","252","921163","0.0-6.0-1.35","3007477","co37573","norming","","","","","","",""
"3744.1199999302626","","","post_mooney1_questions","survey-likert","253","924911","0.0-6.0-2.35","3007477","co37573","norming","","","{""curiosity"":6,""confidence"":6}","[0,1]","../img/tt/468tt.jpg","",""
"3303.814999992028","","","recognition","survey-text","254","928220","0.0-6.0-3.35","3007477","co37573","norming","","","{""guess"":""sushi""}","","../img/tt/468tt.jpg","",""
"null","../img/gs/468gs.jpg","null","reveal","image-keyboard-response","255","930223","0.0-6.0-4.35","3007477","co37573","norming","","","","","","",""
"null","../img/tt/468tt.jpg","null","mooney2","image-keyboard-response","256","932225","0.0-6.0-5.35","3007477","co37573","norming","","","","","","",""
"2088.5449999477714","","","post_reveal_questions","survey-likert","257","934316","0.0-6.0-6.35","3007477","co37573","norming","","","{""aha"":6}","[0]","../img/tt/468tt.jpg","",""
"null","<div style=""font-size:60px;""> </div>","null","fixation","html-keyboard-response","258","934520","0.0-6.0-0.36","3007477","co37573","norming","","","","","","",""
"null","../img/tt/438tt.jpg","null","mooney1","image-keyboard-response","259","937524","0.0-6.0-1.36","3007477","co37573","norming","","","","","","",""
"4729.555000085384","","","post_mooney1_questions","survey-likert","260","942257","0.0-6.0-2.36","3007477","co37573","norming","","","{""curiosity"":6,""confidence"":0}","[0,1]","../img/tt/438tt.jpg","",""
"927.9950000345707","","","recognition","survey-text","261","943191","0.0-6.0-3.36","3007477","co37573","norming","","","{""guess"":""""}","","../img/tt/438tt.jpg","",""
"null","../img/gs/438gs.jpg","null","reveal","image-keyboard-response","262","945197","0.0-6.0-4.36","3007477","co37573","norming","","","","","","",""
"null","../img/tt/438tt.jpg","null","mooney2","image-keyboard-response","263","947200","0.0-6.0-5.36","3007477","co37573","norming","","","","","","",""
"2196.6199999442324","","","post_reveal_questions","survey-likert","264","949400","0.0-6.0-6.36","3007477","co37573","norming","","","{""aha"":6}","[0]","../img/tt/438tt.jpg","",""
"null","<div style=""font-size:60px;""> </div>","null","fixation","html-keyboard-response","265","949606","0.0-6.0-0.37","3007477","co37573","norming","","","","","","",""
"null","../img/tt/1275tt.jpg","null","mooney1","image-keyboard-response","266","952609","0.0-6.0-1.37","3007477","co37573","norming","","","","","","",""
"3936.835000058636","","","post_mooney1_questions","survey-likert","267","956550","0.0-6.0-2.37","3007477","co37573","norming","","","{""curiosity"":6,""confidence"":0}","[0,1]","../img/tt/1275tt.jpg","",""
"831.5949999960139","","","recognition","survey-text","268","957386","0.0-6.0-3.37","3007477","co37573","norming","","","{""guess"":""""}","","../img/tt/1275tt.jpg","",""
"null","../img/gs/1275gs.jpg","null","reveal","image-keyboard-response","269","959390","0.0-6.0-4.37","3007477","co37573","norming","","","","","","",""
"null","../img/tt/1275tt.jpg","null","mooney2","image-keyboard-response","270","961393","0.0-6.0-5.37","3007477","co37573","norming","","","","","","",""
"3362.514999927953","","","post_reveal_questions","survey-likert","271","964758","0.0-6.0-6.37","3007477","co37573","norming","","","{""aha"":6}","[0]","../img/tt/1275tt.jpg","",""
"null","<div style=""font-size:60px;""> </div>","null","fixation","html-keyboard-response","272","964961","0.0-6.0-0.38","3007477","co37573","norming","","","","","","",""
"null","../img/tt/1046tt.jpg","null","mooney1","image-keyboard-response","273","967968","0.0-6.0-1.38","3007477","co37573","norming","","","","","","",""
"4463.0850000539795","","","post_mooney1_questions","survey-likert","274","972435","0.0-6.0-2.38","3007477","co37573","norming","","","{""curiosity"":6,""confidence"":4}","[0,1]","../img/tt/1046tt.jpg","",""
"10841.509999940172","","","recognition","survey-text","275","983282","0.0-6.0-3.38","3007477","co37573","norming","","","{""guess"":""schildpad""}","","../img/tt/1046tt.jpg","",""
"null","../img/gs/1046gs.jpg","null","reveal","image-keyboard-response","276","985290","0.0-6.0-4.38","3007477","co37573","norming","","","","","","",""
"null","../img/tt/1046tt.jpg","null","mooney2","image-keyboard-response","277","987294","0.0-6.0-5.38","3007477","co37573","norming","","","","","","",""
"3771.9649999635294","","","post_reveal_questions","survey-likert","278","991068","0.0-6.0-6.38","3007477","co37573","norming","","","{""aha"":1}","[0]","../img/tt/1046tt.jpg","",""
"null","<div style=""font-size:60px;""> </div>","null","fixation","html-keyboard-response","279","991272","0.0-6.0-0.39","3007477","co37573","norming","","","","","","",""
"null","../img/tt/1128tt.jpg","null","mooney1","image-keyboard-response","280","994276","0.0-6.0-1.39","3007477","co37573","norming","","","","","","",""
"3711.2850000848994","","","post_mooney1_questions","survey-likert","281","997991","0.0-6.0-2.39","3007477","co37573","norming","","","{""curiosity"":6,""confidence"":5}","[0,1]","../img/tt/1128tt.jpg","",""
"8867.009999928996","","","recognition","survey-text","282","1006864","0.0-6.0-3.39","3007477","co37573","norming","","","{""guess"":""bijtend beest""}","","../img/tt/1128tt.jpg","",""
"null","../img/gs/1128gs.jpg","null","reveal","image-keyboard-response","283","1008867","0.0-6.0-4.39","3007477","co37573","norming","","","","","","",""
"null","../img/tt/1128tt.jpg","null","mooney2","image-keyboard-response","284","1010872","0.0-6.0-5.39","3007477","co37573","norming","","","","","","",""
"3317.0399999944493","","","post_reveal_questions","survey-likert","285","1014193","0.0-6.0-6.39","3007477","co37573","norming","","","{""aha"":3}","[0]","../img/tt/1128tt.jpg","",""
"null","<div style=""font-size:60px;""> </div>","null","fixation","html-keyboard-response","286","1014400","0.0-6.0-0.40","3007477","co37573","norming","","","","","","",""
"null","../img/tt/378tt.jpg","null","mooney1","image-keyboard-response","287","1017405","0.0-6.0-1.40","3007477","co37573","norming","","","","","","",""
"5547.484999988228","","","post_mooney1_questions","survey-likert","288","1022956","0.0-6.0-2.40","3007477","co37573","norming","","","{""curiosity"":6,""confidence"":3}","[0,1]","../img/tt/378tt.jpg","",""
"2652.8999999864027","","","recognition","survey-text","289","1025614","0.0-6.0-3.40","3007477","co37573","norming","","","{""guess"":""mat""}","","../img/tt/378tt.jpg","",""
"null","../img/gs/378gs.jpg","null","reveal","image-keyboard-response","290","1027619","0.0-6.0-4.40","3007477","co37573","norming","","","","","","",""
"null","../img/tt/378tt.jpg","null","mooney2","image-keyboard-response","291","1029622","0.0-6.0-5.40","3007477","co37573","norming","","","","","","",""
"4870.770000037737","","","post_reveal_questions","survey-likert","292","1034496","0.0-6.0-6.40","3007477","co37573","norming","","","{""aha"":3}","[0]","../img/tt/378tt.jpg","",""
"null","<div style=""font-size:60px;""> </div>","null","fixation","html-keyboard-response","293","1034699","0.0-6.0-0.41","3007477","co37573","norming","","","","","","",""
"null","../img/tt/436tt.jpg","null","mooney1","image-keyboard-response","294","1037704","0.0-6.0-1.41","3007477","co37573","norming","","","","","","",""
"4408.4650001022965","","","post_mooney1_questions","survey-likert","295","1042116","0.0-6.0-2.41","3007477","co37573","norming","","","{""curiosity"":6,""confidence"":6}","[0,1]","../img/tt/436tt.jpg","",""
"5604.954999987967","","","recognition","survey-text","296","1047726","0.0-6.0-3.41","3007477","co37573","norming","","","{""guess"":""krokodil""}","","../img/tt/436tt.jpg","",""
"null","../img/gs/436gs.jpg","null","reveal","image-keyboard-response","297","1049731","0.0-6.0-4.41","3007477","co37573","norming","","","","","","",""
"null","../img/tt/436tt.jpg","null","mooney2","image-keyboard-response","298","1051736","0.0-6.0-5.41","3007477","co37573","norming","","","","","","",""
"2334.4100000103936","","","post_reveal_questions","survey-likert","299","1054073","0.0-6.0-6.41","3007477","co37573","norming","","","{""aha"":6}","[0]","../img/tt/436tt.jpg","",""
"null","<div style=""font-size:60px;""> </div>","null","fixation","html-keyboard-response","300","1054276","0.0-6.0-0.42","3007477","co37573","norming","","","","","","",""
"null","../img/tt/1148tt.jpg","null","mooney1","image-keyboard-response","301","1057281","0.0-6.0-1.42","3007477","co37573","norming","","","","","","",""
"4790.240000002086","","","post_mooney1_questions","survey-likert","302","1062075","0.0-6.0-2.42","3007477","co37573","norming","","","{""curiosity"":4,""confidence"":6}","[0,1]","../img/tt/1148tt.jpg","",""
"3484.8750000819564","","","recognition","survey-text","303","1065565","0.0-6.0-3.42","3007477","co37573","norming","","","{""guess"":""bureau""}","","../img/tt/1148tt.jpg","",""
"null","../img/gs/1148gs.jpg","null","reveal","image-keyboard-response","304","1067571","0.0-6.0-4.42","3007477","co37573","norming","","","","","","",""
"null","../img/tt/1148tt.jpg","null","mooney2","image-keyboard-response","305","1069574","0.0-6.0-5.42","3007477","co37573","norming","","","","","","",""
"4122.950000106357","","","post_reveal_questions","survey-likert","306","1073700","0.0-6.0-6.42","3007477","co37573","norming","","","{""aha"":6}","[0]","../img/tt/1148tt.jpg","",""
"null","<div style=""font-size:60px;""> </div>","null","fixation","html-keyboard-response","307","1073905","0.0-6.0-0.43","3007477","co37573","norming","","","","","","",""
"null","../img/tt/046tt.jpg","null","mooney1","image-keyboard-response","308","1076916","0.0-6.0-1.43","3007477","co37573","norming","","","","","","",""
"3557.105000014417","","","post_mooney1_questions","survey-likert","309","1080476","0.0-6.0-2.43","3007477","co37573","norming","","","{""curiosity"":6,""confidence"":6}","[0,1]","../img/tt/046tt.jpg","",""
"2751.2500000884756","","","recognition","survey-text","310","1083233","0.0-6.0-3.43","3007477","co37573","norming","","","{""guess"":""hond""}","","../img/tt/046tt.jpg","",""
"null","../img/gs/046gs.jpg","null","reveal","image-keyboard-response","311","1085238","0.0-6.0-4.43","3007477","co37573","norming","","","","","","",""
"null","../img/tt/046tt.jpg","null","mooney2","image-keyboard-response","312","1087241","0.0-6.0-5.43","3007477","co37573","norming","","","","","","",""
"3235.2500000270084","","","post_reveal_questions","survey-likert","313","1090480","0.0-6.0-6.43","3007477","co37573","norming","","","{""aha"":0}","[0]","../img/tt/046tt.jpg","",""
"null","<div style=""font-size:60px;""> </div>","null","fixation","html-keyboard-response","314","1090685","0.0-6.0-0.44","3007477","co37573","norming","","","","","","",""
"null","../img/tt/319tt.jpg","null","mooney1","image-keyboard-response","315","1093690","0.0-6.0-1.44","3007477","co37573","norming","","","","","","",""
"3771.145000006072","","","post_mooney1_questions","survey-likert","316","1097465","0.0-6.0-2.44","3007477","co37573","norming","","","{""curiosity"":6,""confidence"":6}","[0,1]","../img/tt/319tt.jpg","",""
"5273.234999971464","","","recognition","survey-text","317","1102743","0.0-6.0-3.44","3007477","co37573","norming","","","{""guess"":""koe""}","","../img/tt/319tt.jpg","",""
"null","../img/gs/319gs.jpg","null","reveal","image-keyboard-response","318","1104748","0.0-6.0-4.44","3007477","co37573","norming","","","","","","",""
"null","../img/tt/319tt.jpg","null","mooney2","image-keyboard-response","319","1106751","0.0-6.0-5.44","3007477","co37573","norming","","","","","","",""
"2178.0499999877065","","","post_reveal_questions","survey-likert","320","1108931","0.0-6.0-6.44","3007477","co37573","norming","","","{""aha"":6}","[0]","../img/tt/319tt.jpg","",""
"null","<div style=""font-size:60px;""> </div>","null","fixation","html-keyboard-response","321","1109136","0.0-6.0-0.45","3007477","co37573","norming","","","","","","",""
"null","../img/tt/056tt.jpg","null","mooney1","image-keyboard-response","322","1112141","0.0-6.0-1.45","3007477","co37573","norming","","","","","","",""
"6341.194999986328","","","post_mooney1_questions","survey-likert","323","1118486","0.0-6.0-2.45","3007477","co37573","norming","","","{""curiosity"":1,""confidence"":0}","[0,1]","../img/tt/056tt.jpg","",""
"1066.7999999132007","","","recognition","survey-text","324","1119558","0.0-6.0-3.45","3007477","co37573","norming","","","{""guess"":""""}","","../img/tt/056tt.jpg","",""
"null","../img/gs/056gs.jpg","null","reveal","image-keyboard-response","325","1121562","0.0-6.0-4.45","3007477","co37573","norming","","","","","","",""
"null","../img/tt/056tt.jpg","null","mooney2","image-keyboard-response","326","1123568","0.0-6.0-5.45","3007477","co37573","norming","","","","","","",""
"3173.384999972768","","","post_reveal_questions","survey-likert","327","1126745","0.0-6.0-6.45","3007477","co37573","norming","","","{""aha"":3}","[0]","../img/tt/056tt.jpg","",""
"null","<div style=""font-size:60px;""> </div>","null","fixation","html-keyboard-response","328","1126948","0.0-6.0-0.46","3007477","co37573","norming","","","","","","",""
"null","../img/tt/096tt.jpg","null","mooney1","image-keyboard-response","329","1129953","0.0-6.0-1.46","3007477","co37573","norming","","","","","","",""
"4545.404999982566","","","post_mooney1_questions","survey-likert","330","1134502","0.0-6.0-2.46","3007477","co37573","norming","","","{""curiosity"":6,""confidence"":6}","[0,1]","../img/tt/096tt.jpg","",""
"3237.554999999702","","","recognition","survey-text","331","1137745","0.0-6.0-3.46","3007477","co37573","norming","","","{""guess"":""piano""}","","../img/tt/096tt.jpg","",""
"null","../img/gs/096gs.jpg","null","reveal","image-keyboard-response","332","1139749","0.0-6.0-4.46","3007477","co37573","norming","","","","","","",""
"null","../img/tt/096tt.jpg","null","mooney2","image-keyboard-response","333","1141751","0.0-6.0-5.46","3007477","co37573","norming","","","","","","",""
"4016.8600000906736","","","post_reveal_questions","survey-likert","334","1145771","0.0-6.0-6.46","3007477","co37573","norming","","","{""aha"":0}","[0]","../img/tt/096tt.jpg","",""
"null","<div style=""font-size:60px;""> </div>","null","fixation","html-keyboard-response","335","1145977","0.0-6.0-0.47","3007477","co37573","norming","","","","","","",""
"null","../img/tt/126tt.jpg","null","mooney1","image-keyboard-response","336","1148985","0.0-6.0-1.47","3007477","co37573","norming","","","","","","",""
"4698.375000036322","","","post_mooney1_questions","survey-likert","337","1153687","0.0-6.0-2.47","3007477","co37573","norming","","","{""curiosity"":6,""confidence"":4}","[0,1]","../img/tt/126tt.jpg","",""
"2505.6499999482185","","","recognition","survey-text","338","1156198","0.0-6.0-3.47","3007477","co37573","norming","","","{""guess"":""koe""}","","../img/tt/126tt.jpg","",""
"null","../img/gs/126gs.jpg","null","reveal","image-keyboard-response","339","1158203","0.0-6.0-4.47","3007477","co37573","norming","","","","","","",""
"null","../img/tt/126tt.jpg","null","mooney2","image-keyboard-response","340","1160208","0.0-6.0-5.47","3007477","co37573","norming","","","","","","",""
"3637.5199999893084","","","post_reveal_questions","survey-likert","341","1163850","0.0-6.0-6.47","3007477","co37573","norming","","","{""aha"":3}","[0]","../img/tt/126tt.jpg","",""
"null","<div style=""font-size:60px;""> </div>","null","fixation","html-keyboard-response","342","1164054","0.0-6.0-0.48","3007477","co37573","norming","","","","","","",""
"null","../img/tt/105tt.jpg","null","mooney1","image-keyboard-response","343","1167061","0.0-6.0-1.48","3007477","co37573","norming","","","","","","",""
"4584.229999920353","","","post_mooney1_questions","survey-likert","344","1171652","0.0-6.0-2.48","3007477","co37573","norming","","","{""curiosity"":6,""confidence"":5}","[0,1]","../img/tt/105tt.jpg","",""
"6783.070000004955","","","recognition","survey-text","345","1178441","0.0-6.0-3.48","3007477","co37573","norming","","","{""guess"":""taart""}","","../img/tt/105tt.jpg","",""
"null","../img/gs/105gs.jpg","null","reveal","image-keyboard-response","346","1180444","0.0-6.0-4.48","3007477","co37573","norming","","","","","","",""
"null","../img/tt/105tt.jpg","null","mooney2","image-keyboard-response","347","1182450","0.0-6.0-5.48","3007477","co37573","norming","","","","","","",""
"2452.3099999642","","","post_reveal_questions","survey-likert","348","1184906","0.0-6.0-6.48","3007477","co37573","norming","","","{""aha"":6}","[0]","../img/tt/105tt.jpg","",""
"null","<div style=""font-size:60px;""> </div>","null","fixation","html-keyboard-response","349","1185111","0.0-6.0-0.49","3007477","co37573","norming","","","","","","",""
"null","../img/tt/559tt.jpg","null","mooney1","image-keyboard-response","350","1188116","0.0-6.0-1.49","3007477","co37573","norming","","","","","","",""
"4898.870000033639","","","post_mooney1_questions","survey-likert","351","1193018","0.0-6.0-2.49","3007477","co37573","norming","","","{""curiosity"":6,""confidence"":6}","[0,1]","../img/tt/559tt.jpg","",""
"5437.989999889396","","","recognition","survey-text","352","1198461","0.0-6.0-3.49","3007477","co37573","norming","","","{""guess"":""naaimachien""}","","../img/tt/559tt.jpg","",""
"null","../img/gs/559gs.jpg","null","reveal","image-keyboard-response","353","1200468","0.0-6.0-4.49","3007477","co37573","norming","","","","","","",""
"null","../img/tt/559tt.jpg","null","mooney2","image-keyboard-response","354","1202476","0.0-6.0-5.49","3007477","co37573","norming","","","","","","",""
"2812.9249999765307","","","post_reveal_questions","survey-likert","355","1205292","0.0-6.0-6.49","3007477","co37573","norming","","","{""aha"":6}","[0]","../img/tt/559tt.jpg","",""
"null","<div style=""font-size:60px;""> </div>","null","fixation","html-keyboard-response","356","1205494","0.0-6.0-0.50","3007477","co37573","norming","","","","","","",""
"null","../img/tt/1091tt.jpg","null","mooney1","image-keyboard-response","357","1208501","0.0-6.0-1.50","3007477","co37573","norming","","","","","","",""
"5009.979999973439","","","post_mooney1_questions","survey-likert","358","1213514","0.0-6.0-2.50","3007477","co37573","norming","","","{""curiosity"":2,""confidence"":6}","[0,1]","../img/tt/1091tt.jpg","",""
"2950.3650000551715","","","recognition","survey-text","359","1216470","0.0-6.0-3.50","3007477","co37573","norming","","","{""guess"":""paard""}","","../img/tt/1091tt.jpg","",""
"null","../img/gs/1091gs.jpg","null","reveal","image-keyboard-response","360","1218476","0.0-6.0-4.50","3007477","co37573","norming","","","","","","",""
"null","../img/tt/1091tt.jpg","null","mooney2","image-keyboard-response","361","1220481","0.0-6.0-5.50","3007477","co37573","norming","","","","","","",""
"2594.6250000270084","","","post_reveal_questions","survey-likert","362","1223079","0.0-6.0-6.50","3007477","co37573","norming","","","{""aha"":3}","[0]","../img/tt/1091tt.jpg","",""
"null","<div style=""font-size:60px;""> </div>","null","fixation","html-keyboard-response","363","1223284","0.0-6.0-0.51","3007477","co37573","norming","","","","","","",""
"null","../img/tt/1254tt.jpg","null","mooney1","image-keyboard-response","364","1226289","0.0-6.0-1.51","3007477","co37573","norming","","","","","","",""
"5986.819999990985","","","post_mooney1_questions","survey-likert","365","1232279","0.0-6.0-2.51","3007477","co37573","norming","","","{""curiosity"":1,""confidence"":6}","[0,1]","../img/tt/1254tt.jpg","",""
"3567.795000039041","","","recognition","survey-text","366","1235853","0.0-6.0-3.51","3007477","co37573","norming","","","{""guess"":""konijn""}","","../img/tt/1254tt.jpg","",""
"null","../img/gs/1254gs.jpg","null","reveal","image-keyboard-response","367","1237857","0.0-6.0-4.51","3007477","co37573","norming","","","","","","",""
"null","../img/tt/1254tt.jpg","null","mooney2","image-keyboard-response","368","1239859","0.0-6.0-5.51","3007477","co37573","norming","","","","","","",""
"4775.91499988921","","","post_reveal_questions","survey-likert","369","1244638","0.0-6.0-6.51","3007477","co37573","norming","","","{""aha"":3}","[0]","../img/tt/1254tt.jpg","",""
"null","<div style=""font-size:60px;""> </div>","null","fixation","html-keyboard-response","370","1244846","0.0-6.0-0.52","3007477","co37573","norming","","","","","","",""
"null","../img/tt/108tt.jpg","null","mooney1","image-keyboard-response","371","1247852","0.0-6.0-1.52","3007477","co37573","norming","","","","","","",""
"4554.81499992311","","","post_mooney1_questions","survey-likert","372","1252410","0.0-6.0-2.52","3007477","co37573","norming","","","{""curiosity"":0,""confidence"":0}","[0,1]","../img/tt/108tt.jpg","",""
"1199.0900000091642","","","recognition","survey-text","373","1253615","0.0-6.0-3.52","3007477","co37573","norming","","","{""guess"":""""}","","../img/tt/108tt.jpg","",""
"null","../img/gs/108gs.jpg","null","reveal","image-keyboard-response","374","1255619","0.0-6.0-4.52","3007477","co37573","norming","","","","","","",""
"null","../img/tt/108tt.jpg","null","mooney2","image-keyboard-response","375","1257621","0.0-6.0-5.52","3007477","co37573","norming","","","","","","",""
"3050.9900000179186","","","post_reveal_questions","survey-likert","376","1260675","0.0-6.0-6.52","3007477","co37573","norming","","","{""aha"":5}","[0]","../img/tt/108tt.jpg","",""
"null","<div style=""font-size:60px;""> </div>","null","fixation","html-keyboard-response","377","1260879","0.0-6.0-0.53","3007477","co37573","norming","","","","","","",""
"null","../img/tt/301tt.jpg","null","mooney1","image-keyboard-response","378","1263886","0.0-6.0-1.53","3007477","co37573","norming","","","","","","",""
"4608.265000046231","","","post_mooney1_questions","survey-likert","379","1268498","0.0-6.0-2.53","3007477","co37573","norming","","","{""curiosity"":1,""confidence"":6}","[0,1]","../img/tt/301tt.jpg","",""
"3573.644999996759","","","recognition","survey-text","380","1272077","0.0-6.0-3.53","3007477","co37573","norming","","","{""guess"":""cinema""}","","../img/tt/301tt.jpg","",""
"null","../img/gs/301gs.jpg","null","reveal","image-keyboard-response","381","1274082","0.0-6.0-4.53","3007477","co37573","norming","","","","","","",""
"null","../img/tt/301tt.jpg","null","mooney2","image-keyboard-response","382","1276086","0.0-6.0-5.53","3007477","co37573","norming","","","","","","",""
"3562.2199999634176","","","post_reveal_questions","survey-likert","383","1279651","0.0-6.0-6.53","3007477","co37573","norming","","","{""aha"":6}","[0]","../img/tt/301tt.jpg","",""
"null","<div style=""font-size:60px;""> </div>","null","fixation","html-keyboard-response","384","1279859","0.0-6.0-0.54","3007477","co37573","norming","","","","","","",""
"null","../img/tt/118tt.jpg","null","mooney1","image-keyboard-response","385","1282866","0.0-6.0-1.54","3007477","co37573","norming","","","","","","",""
"5627.929999958724","","","post_mooney1_questions","survey-likert","386","1288498","0.0-6.0-2.54","3007477","co37573","norming","","","{""curiosity"":0,""confidence"":4}","[0,1]","../img/tt/118tt.jpg","",""
"4364.185000071302","","","recognition","survey-text","387","1292868","0.0-6.0-3.54","3007477","co37573","norming","","","{""guess"":""zwembad""}","","../img/tt/118tt.jpg","",""
"null","../img/gs/118gs.jpg","null","reveal","image-keyboard-response","388","1294875","0.0-6.0-4.54","3007477","co37573","norming","","","","","","",""
"null","../img/tt/118tt.jpg","null","mooney2","image-keyboard-response","389","1296878","0.0-6.0-5.54","3007477","co37573","norming","","","","","","",""
"2417.159999953583","","","post_reveal_questions","survey-likert","390","1299298","0.0-6.0-6.54","3007477","co37573","norming","","","{""aha"":6}","[0]","../img/tt/118tt.jpg","",""
"null","<div style=""font-size:60px;""> </div>","null","fixation","html-keyboard-response","391","1299505","0.0-6.0-0.55","3007477","co37573","norming","","","","","","",""
"null","../img/tt/019tt.jpg","null","mooney1","image-keyboard-response","392","1302508","0.0-6.0-1.55","3007477","co37573","norming","","","","","","",""
"4351.705000037327","","","post_mooney1_questions","survey-likert","393","1306863","0.0-6.0-2.55","3007477","co37573","norming","","","{""curiosity"":5,""confidence"":1}","[0,1]","../img/tt/019tt.jpg","",""
"3352.9350000899285","","","recognition","survey-text","394","1310222","0.0-6.0-3.55","3007477","co37573","norming","","","{""guess"":""viool""}","","../img/tt/019tt.jpg","",""
"null","../img/gs/019gs.jpg","null","reveal","image-keyboard-response","395","1312227","0.0-6.0-4.55","3007477","co37573","norming","","","","","","",""
"null","../img/tt/019tt.jpg","null","mooney2","image-keyboard-response","396","1314230","0.0-6.0-5.55","3007477","co37573","norming","","","","","","",""
"3955.7899999199435","","","post_reveal_questions","survey-likert","397","1318189","0.0-6.0-6.55","3007477","co37573","norming","","","{""aha"":6}","[0]","../img/tt/019tt.jpg","",""
"null","<div style=""font-size:60px;""> </div>","null","fixation","html-keyboard-response","398","1318394","0.0-6.0-0.56","3007477","co37573","norming","","","","","","",""
"null","../img/tt/1309tt.jpg","null","mooney1","image-keyboard-response","399","1321404","0.0-6.0-1.56","3007477","co37573","norming","","","","","","",""
"5489.549999940209","","","post_mooney1_questions","survey-likert","400","1326898","0.0-6.0-2.56","3007477","co37573","norming","","","{""curiosity"":1,""confidence"":6}","[0,1]","../img/tt/1309tt.jpg","",""
"3789.680000045337","","","recognition","survey-text","401","1330693","0.0-6.0-3.56","3007477","co37573","norming","","","{""guess"":""jeep""}","","../img/tt/1309tt.jpg","",""
"null","../img/gs/1309gs.jpg","null","reveal","image-keyboard-response","402","1332699","0.0-6.0-4.56","3007477","co37573","norming","","","","","","",""
"null","../img/tt/1309tt.jpg","null","mooney2","image-keyboard-response","403","1334701","0.0-6.0-5.56","3007477","co37573","norming","","","","","","",""
"1753.3800000092015","","","post_reveal_questions","survey-likert","404","1336457","0.0-6.0-6.56","3007477","co37573","norming","","","{""aha"":3}","[0]","../img/tt/1309tt.jpg","",""
"null","<div style=""font-size:60px;""> </div>","null","fixation","html-keyboard-response","405","1336662","0.0-6.0-0.57","3007477","co37573","norming","","","","","","",""
"null","../img/tt/055tt.jpg","null","mooney1","image-keyboard-response","406","1339668","0.0-6.0-1.57","3007477","co37573","norming","","","","","","",""
"4683.665000018664","","","post_mooney1_questions","survey-likert","407","1344356","0.0-6.0-2.57","3007477","co37573","norming","","","{""curiosity"":1,""confidence"":5}","[0,1]","../img/tt/055tt.jpg","",""
"3610.4099999647588","","","recognition","survey-text","408","1347972","0.0-6.0-3.57","3007477","co37573","norming","","","{""guess"":""stoel""}","","../img/tt/055tt.jpg","",""
"null","../img/gs/055gs.jpg","null","reveal","image-keyboard-response","409","1349977","0.0-6.0-4.57","3007477","co37573","norming","","","","","","",""
"null","../img/tt/055tt.jpg","null","mooney2","image-keyboard-response","410","1351985","0.0-6.0-5.57","3007477","co37573","norming","","","","","","",""
"2094.6949999779463","","","post_reveal_questions","survey-likert","411","1354082","0.0-6.0-6.57","3007477","co37573","norming","","","{""aha"":6}","[0]","../img/tt/055tt.jpg","",""
"null","<div style=""font-size:60px;""> </div>","null","fixation","html-keyboard-response","412","1354286","0.0-6.0-0.58","3007477","co37573","norming","","","","","","",""
"null","../img/tt/318tt.jpg","null","mooney1","image-keyboard-response","413","1357293","0.0-6.0-1.58","3007477","co37573","norming","","","","","","",""
"5834.045000025071","","","post_mooney1_questions","survey-likert","414","1363131","0.0-6.0-2.58","3007477","co37573","norming","","","{""curiosity"":0,""confidence"":6}","[0,1]","../img/tt/318tt.jpg","",""
"6804.425000096671","","","recognition","survey-text","415","1369941","0.0-6.0-3.58","3007477","co37573","norming","","","{""guess"":""auto binnenkant""}","","../img/tt/318tt.jpg","",""
"null","../img/gs/318gs.jpg","null","reveal","image-keyboard-response","416","1371944","0.0-6.0-4.58","3007477","co37573","norming","","","","","","",""
"null","../img/tt/318tt.jpg","null","mooney2","image-keyboard-response","417","1373946","0.0-6.0-5.58","3007477","co37573","norming","","","","","","",""
"3114.6650000009686","","","post_reveal_questions","survey-likert","418","1377063","0.0-6.0-6.58","3007477","co37573","norming","","","{""aha"":0}","[0]","../img/tt/318tt.jpg","",""
"null","<div style=""font-size:60px;""> </div>","null","fixation","html-keyboard-response","419","1377266","0.0-6.0-0.59","3007477","co37573","norming","","","","","","",""
"null","../img/tt/032tt.jpg","null","mooney1","image-keyboard-response","420","1380270","0.0-6.0-1.59","3007477","co37573","norming","","","","","","",""
"4430.674999952316","","","post_mooney1_questions","survey-likert","421","1384704","0.0-6.0-2.59","3007477","co37573","norming","","","{""curiosity"":0,""confidence"":5}","[0,1]","../img/tt/032tt.jpg","",""
"5679.1400000220165","","","recognition","survey-text","422","1390388","0.0-6.0-3.59","3007477","co37573","norming","","","{""guess"":""brommer handvat""}","","../img/tt/032tt.jpg","",""
"null","../img/gs/032gs.jpg","null","reveal","image-keyboard-response","423","1392395","0.0-6.0-4.59","3007477","co37573","norming","","","","","","",""
"null","../img/tt/032tt.jpg","null","mooney2","image-keyboard-response","424","1394398","0.0-6.0-5.59","3007477","co37573","norming","","","","","","",""
"2339.339999947697","","","post_reveal_questions","survey-likert","425","1396740","0.0-6.0-6.59","3007477","co37573","norming","","","{""aha"":6}","[0]","../img/tt/032tt.jpg","",""
"null","<div style=""font-size:60px;""> </div>","null","fixation","html-keyboard-response","426","1396959","0.0-6.0-0.60","3007477","co37573","norming","","","","","","",""
"null","../img/tt/094tt.jpg","null","mooney1","image-keyboard-response","427","1399962","0.0-6.0-1.60","3007477","co37573","norming","","","","","","",""
"5377.985000028275","","","post_mooney1_questions","survey-likert","428","1405343","0.0-6.0-2.60","3007477","co37573","norming","","","{""curiosity"":0,""confidence"":0}","[0,1]","../img/tt/094tt.jpg","",""
"955.1750000100583","","","recognition","survey-text","429","1406304","0.0-6.0-3.60","3007477","co37573","norming","","","{""guess"":""""}","","../img/tt/094tt.jpg","",""
"null","../img/gs/094gs.jpg","null","reveal","image-keyboard-response","430","1408310","0.0-6.0-4.60","3007477","co37573","norming","","","","","","",""
"null","../img/tt/094tt.jpg","null","mooney2","image-keyboard-response","431","1410313","0.0-6.0-5.60","3007477","co37573","norming","","","","","","",""
"2451.3349999906495","","","post_reveal_questions","survey-likert","432","1412767","0.0-6.0-6.60","3007477","co37573","norming","","","{""aha"":0}","[0]","../img/tt/094tt.jpg","",""
"null","<div style=""font-size:60px;""> </div>","null","fixation","html-keyboard-response","433","1412971","0.0-6.0-0.61","3007477","co37573","norming","","","","","","",""
"null","../img/tt/064tt.jpg","null","mooney1","image-keyboard-response","434","1415974","0.0-6.0-1.61","3007477","co37573","norming","","","","","","",""
"10565.179999917746","","","post_mooney1_questions","survey-likert","435","1426543","0.0-6.0-2.61","3007477","co37573","norming","","","{""curiosity"":0,""confidence"":0}","[0,1]","../img/tt/064tt.jpg","",""
"16000.755000044592","","","recognition","survey-text","436","1442549","0.0-6.0-3.61","3007477","co37573","norming","","","{""guess"":""pannekoek""}","","../img/tt/064tt.jpg","",""
"null","../img/gs/064gs.jpg","null","reveal","image-keyboard-response","437","1444552","0.0-6.0-4.61","3007477","co37573","norming","","","","","","",""
"null","../img/tt/064tt.jpg","null","mooney2","image-keyboard-response","438","1446558","0.0-6.0-5.61","3007477","co37573","norming","","","","","","",""
"2590.169999981299","","","post_reveal_questions","survey-likert","439","1449151","0.0-6.0-6.61","3007477","co37573","norming","","","{""aha"":6}","[0]","../img/tt/064tt.jpg","",""
"null","<div style=""font-size:60px;""> </div>","null","fixation","html-keyboard-response","440","1449356","0.0-6.0-0.62","3007477","co37573","norming","","","","","","",""
"null","../img/tt/001tt.jpg","null","mooney1","image-keyboard-response","441","1452363","0.0-6.0-1.62","3007477","co37573","norming","","","","","","",""
"3857.799999997951","","","post_mooney1_questions","survey-likert","442","1456225","0.0-6.0-2.62","3007477","co37573","norming","","","{""curiosity"":0,""confidence"":0}","[0,1]","../img/tt/001tt.jpg","",""
"4656.399999978021","","","recognition","survey-text","443","1460886","0.0-6.0-3.62","3007477","co37573","norming","","","{""guess"":""fotokader""}","","../img/tt/001tt.jpg","",""
"null","../img/gs/001gs.jpg","null","reveal","image-keyboard-response","444","1462891","0.0-6.0-4.62","3007477","co37573","norming","","","","","","",""
"null","../img/tt/001tt.jpg","null","mooney2","image-keyboard-response","445","1464895","0.0-6.0-5.62","3007477","co37573","norming","","","","","","",""
"4282.035000040196","","","post_reveal_questions","survey-likert","446","1469180","0.0-6.0-6.62","3007477","co37573","norming","","","{""aha"":5}","[0]","../img/tt/001tt.jpg","",""
"null","<div style=""font-size:60px;""> </div>","null","fixation","html-keyboard-response","447","1469385","0.0-6.0-0.63","3007477","co37573","norming","","","","","","",""
"null","../img/tt/1122tt.jpg","null","mooney1","image-keyboard-response","448","1472388","0.0-6.0-1.63","3007477","co37573","norming","","","","","","",""
"7485.5599999427795","","","post_mooney1_questions","survey-likert","449","1479877","0.0-6.0-2.63","3007477","co37573","norming","","","{""curiosity"":0,""confidence"":6}","[0,1]","../img/tt/1122tt.jpg","",""
"4989.079999970272","","","recognition","survey-text","450","1484872","0.0-6.0-3.63","3007477","co37573","norming","","","{""guess"":""nachtwinkel""}","","../img/tt/1122tt.jpg","",""
"null","../img/gs/1122gs.jpg","null","reveal","image-keyboard-response","451","1486877","0.0-6.0-4.63","3007477","co37573","norming","","","","","","",""
"null","../img/tt/1122tt.jpg","null","mooney2","image-keyboard-response","452","1488879","0.0-6.0-5.63","3007477","co37573","norming","","","","","","",""
"4172.785000060685","","","post_reveal_questions","survey-likert","453","1493055","0.0-6.0-6.63","3007477","co37573","norming","","","{""aha"":6}","[0]","../img/tt/1122tt.jpg","",""
"null","<div style=""font-size:60px;""> </div>","null","fixation","html-keyboard-response","454","1493258","0.0-6.0-0.64","3007477","co37573","norming","","","","","","",""
"null","../img/tt/1224tt.jpg","null","mooney1","image-keyboard-response","455","1496265","0.0-6.0-1.64","3007477","co37573","norming","","","","","","",""
"6385.810000007041","","","post_mooney1_questions","survey-likert","456","1502655","0.0-6.0-2.64","3007477","co37573","norming","","","{""curiosity"":0,""confidence"":4}","[0,1]","../img/tt/1224tt.jpg","",""
"4011.8250000523403","","","recognition","survey-text","457","1506672","0.0-6.0-3.64","3007477","co37573","norming","","","{""guess"":""pedicure""}","","../img/tt/1224tt.jpg","",""
"null","../img/gs/1224gs.jpg","null","reveal","image-keyboard-response","458","1508680","0.0-6.0-4.64","3007477","co37573","norming","","","","","","",""
"null","../img/tt/1224tt.jpg","null","mooney2","image-keyboard-response","459","1510684","0.0-6.0-5.64","3007477","co37573","norming","","","","","","",""
"4271.24500006903","","","post_reveal_questions","survey-likert","460","1514958","0.0-6.0-6.64","3007477","co37573","norming","","","{""aha"":6}","[0]","../img/tt/1224tt.jpg","",""
"null","<div style=""font-size:60px;""> </div>","null","fixation","html-keyboard-response","461","1515163","0.0-6.0-0.65","3007477","co37573","norming","","","","","","",""
"null","../img/tt/1006tt.jpg","null","mooney1","image-keyboard-response","462","1518169","0.0-6.0-1.65","3007477","co37573","norming","","","","","","",""
"7431.64500000421","","","post_mooney1_questions","survey-likert","463","1525604","0.0-6.0-2.65","3007477","co37573","norming","","","{""curiosity"":1,""confidence"":0}","[0,1]","../img/tt/1006tt.jpg","",""
"5108.854999998584","","","recognition","survey-text","464","1530721","0.0-6.0-3.65","3007477","co37573","norming","","","{""guess"":""weide""}","","../img/tt/1006tt.jpg","",""
"null","../img/gs/1006gs.jpg","null","reveal","image-keyboard-response","465","1532727","0.0-6.0-4.65","3007477","co37573","norming","","","","","","",""
"null","../img/tt/1006tt.jpg","null","mooney2","image-keyboard-response","466","1534730","0.0-6.0-5.65","3007477","co37573","norming","","","","","","",""
"3455.409999936819","","","post_reveal_questions","survey-likert","467","1538188","0.0-6.0-6.65","3007477","co37573","norming","","","{""aha"":5}","[0]","../img/tt/1006tt.jpg","",""
"null","<div style=""font-size:60px;""> </div>","null","fixation","html-keyboard-response","468","1538391","0.0-6.0-0.66","3007477","co37573","norming","","","","","","",""
"null","../img/tt/020tt.jpg","null","mooney1","image-keyboard-response","469","1541395","0.0-6.0-1.66","3007477","co37573","norming","","","","","","",""
"4624.519999953918","","","post_mooney1_questions","survey-likert","470","1546024","0.0-6.0-2.66","3007477","co37573","norming","","","{""curiosity"":0,""confidence"":0}","[0,1]","../img/tt/020tt.jpg","",""
"1136.049999971874","","","recognition","survey-text","471","1547165","0.0-6.0-3.66","3007477","co37573","norming","","","{""guess"":""""}","","../img/tt/020tt.jpg","",""
"null","../img/gs/020gs.jpg","null","reveal","image-keyboard-response","472","1549170","0.0-6.0-4.66","3007477","co37573","norming","","","","","","",""
"null","../img/tt/020tt.jpg","null","mooney2","image-keyboard-response","473","1551175","0.0-6.0-5.66","3007477","co37573","norming","","","","","","",""
"2326.009999960661","","","post_reveal_questions","survey-likert","474","1553504","0.0-6.0-6.66","3007477","co37573","norming","","","{""aha"":3}","[0]","../img/tt/020tt.jpg","",""
"null","<div style=""font-size:60px;""> </div>","null","fixation","html-keyboard-response","475","1553711","0.0-6.0-0.67","3007477","co37573","norming","","","","","","",""
"null","../img/tt/522tt.jpg","null","mooney1","image-keyboard-response","476","1556722","0.0-6.0-1.67","3007477","co37573","norming","","","","","","",""
"5018.135000020266","","","post_mooney1_questions","survey-likert","477","1561743","0.0-6.0-2.67","3007477","co37573","norming","","","{""curiosity"":0,""confidence"":0}","[0,1]","../img/tt/522tt.jpg","",""
"1226.1249999282882","","","recognition","survey-text","478","1562976","0.0-6.0-3.67","3007477","co37573","norming","","","{""guess"":""""}","","../img/tt/522tt.jpg","",""
"null","../img/gs/522gs.jpg","null","reveal","image-keyboard-response","479","1564980","0.0-6.0-4.67","3007477","co37573","norming","","","","","","",""
"null","../img/tt/522tt.jpg","null","mooney2","image-keyboard-response","480","1566982","0.0-6.0-5.67","3007477","co37573","norming","","","","","","",""
"2255.310000036843","","","post_reveal_questions","survey-likert","481","1569240","0.0-6.0-6.67","3007477","co37573","norming","","","{""aha"":6}","[0]","../img/tt/522tt.jpg","",""
"null","<div style=""font-size:60px;""> </div>","null","fixation","html-keyboard-response","482","1569447","0.0-6.0-0.68","3007477","co37573","norming","","","","","","",""
"null","../img/tt/1270tt.jpg","null","mooney1","image-keyboard-response","483","1572454","0.0-6.0-1.68","3007477","co37573","norming","","","","","","",""
"4100.200000102632","","","post_mooney1_questions","survey-likert","484","1576558","0.0-6.0-2.68","3007477","co37573","norming","","","{""curiosity"":0,""confidence"":4}","[0,1]","../img/tt/1270tt.jpg","",""
"5729.279999970458","","","recognition","survey-text","485","1582293","0.0-6.0-3.68","3007477","co37573","norming","","","{""guess"":""bejaarde""}","","../img/tt/1270tt.jpg","",""
"null","../img/gs/1270gs.jpg","null","reveal","image-keyboard-response","486","1584302","0.0-6.0-4.68","3007477","co37573","norming","","","","","","",""
"null","../img/tt/1270tt.jpg","null","mooney2","image-keyboard-response","487","1586304","0.0-6.0-5.68","3007477","co37573","norming","","","","","","",""
"2836.5350000094622","","","post_reveal_questions","survey-likert","488","1589144","0.0-6.0-6.68","3007477","co37573","norming","","","{""aha"":6}","[0]","../img/tt/1270tt.jpg","",""
"null","<div style=""font-size:60px;""> </div>","null","fixation","html-keyboard-response","489","1589347","0.0-6.0-0.69","3007477","co37573","norming","","","","","","",""
"null","../img/tt/549tt.jpg","null","mooney1","image-keyboard-response","490","1592351","0.0-6.0-1.69","3007477","co37573","norming","","","","","","",""
"8193.010000046343","","","post_mooney1_questions","survey-likert","491","1600547","0.0-6.0-2.69","3007477","co37573","norming","","","{""curiosity"":0,""confidence"":5}","[0,1]","../img/tt/549tt.jpg","",""
"4572.799999965355","","","recognition","survey-text","492","1605126","0.0-6.0-3.69","3007477","co37573","norming","","","{""guess"":""hellikopter""}","","../img/tt/549tt.jpg","",""
"null","../img/gs/549gs.jpg","null","reveal","image-keyboard-response","493","1607133","0.0-6.0-4.69","3007477","co37573","norming","","","","","","",""
"null","../img/tt/549tt.jpg","null","mooney2","image-keyboard-response","494","1609136","0.0-6.0-5.69","3007477","co37573","norming","","","","","","",""
"2555.210000020452","","","post_reveal_questions","survey-likert","495","1611695","0.0-6.0-6.69","3007477","co37573","norming","","","{""aha"":5}","[0]","../img/tt/549tt.jpg","",""
"null","<div style=""font-size:60px;""> </div>","null","fixation","html-keyboard-response","496","1611902","0.0-6.0-0.70","3007477","co37573","norming","","","","","","",""
"null","../img/tt/1290tt.jpg","null","mooney1","image-keyboard-response","497","1614905","0.0-6.0-1.70","3007477","co37573","norming","","","","","","",""
"8638.099999981932","","","post_mooney1_questions","survey-likert","498","1623547","0.0-6.0-2.70","3007477","co37573","norming","","","{""curiosity"":0,""confidence"":5}","[0,1]","../img/tt/1290tt.jpg","",""
"4037.9549999488518","","","recognition","survey-text","499","1627590","0.0-6.0-3.70","3007477","co37573","norming","","","{""guess"":""lamp""}","","../img/tt/1290tt.jpg","",""
"null","../img/gs/1290gs.jpg","null","reveal","image-keyboard-response","500","1629594","0.0-6.0-4.70","3007477","co37573","norming","","","","","","",""
"null","../img/tt/1290tt.jpg","null","mooney2","image-keyboard-response","501","1631599","0.0-6.0-5.70","3007477","co37573","norming","","","","","","",""
"2238.7500000186265","","","post_reveal_questions","survey-likert","502","1633841","0.0-6.0-6.70","3007477","co37573","norming","","","{""aha"":6}","[0]","../img/tt/1290tt.jpg","",""
"null","<div style=""font-size:60px;""> </div>","null","fixation","html-keyboard-response","503","1634044","0.0-6.0-0.71","3007477","co37573","norming","","","","","","",""
"null","../img/tt/590tt.jpg","null","mooney1","image-keyboard-response","504","1637051","0.0-6.0-1.71","3007477","co37573","norming","","","","","","",""
"5323.704999987967","","","post_mooney1_questions","survey-likert","505","1642377","0.0-6.0-2.71","3007477","co37573","norming","","","{""curiosity"":0,""confidence"":3}","[0,1]","../img/tt/590tt.jpg","",""
"4428.55499999132","","","recognition","survey-text","506","1646812","0.0-6.0-3.71","3007477","co37573","norming","","","{""guess"":""vaas""}","","../img/tt/590tt.jpg","",""
"null","../img/gs/590gs.jpg","null","reveal","image-keyboard-response","507","1648815","0.0-6.0-4.71","3007477","co37573","norming","","","","","","",""
"null","../img/tt/590tt.jpg","null","mooney2","image-keyboard-response","508","1650822","0.0-6.0-5.71","3007477","co37573","norming","","","","","","",""
"2521.714999922551","","","post_reveal_questions","survey-likert","509","1653346","0.0-6.0-6.71","3007477","co37573","norming","","","{""aha"":6}","[0]","../img/tt/590tt.jpg","",""
"null","<div style=""font-size:60px;""> </div>","null","fixation","html-keyboard-response","510","1653550","0.0-6.0-0.72","3007477","co37573","norming","","","","","","",""
"null","../img/tt/497tt.jpg","null","mooney1","image-keyboard-response","511","1656552","0.0-6.0-1.72","3007477","co37573","norming","","","","","","",""
"4675.840000039898","","","post_mooney1_questions","survey-likert","512","1661231","0.0-6.0-2.72","3007477","co37573","norming","","","{""curiosity"":0,""confidence"":5}","[0,1]","../img/tt/497tt.jpg","",""
"2882.4299999978393","","","recognition","survey-text","513","1664119","0.0-6.0-3.72","3007477","co37573","norming","","","{""guess"":""wiel""}","","../img/tt/497tt.jpg","",""
"null","../img/gs/497gs.jpg","null","reveal","image-keyboard-response","514","1666124","0.0-6.0-4.72","3007477","co37573","norming","","","","","","",""
"null","../img/tt/497tt.jpg","null","mooney2","image-keyboard-response","515","1668127","0.0-6.0-5.72","3007477","co37573","norming","","","","","","",""
"2177.5899999774992","","","post_reveal_questions","survey-likert","516","1670307","0.0-6.0-6.72","3007477","co37573","norming","","","{""aha"":6}","[0]","../img/tt/497tt.jpg","",""
"null","<div style=""font-size:60px;""> </div>","null","fixation","html-keyboard-response","517","1670511","0.0-6.0-0.73","3007477","co37573","norming","","","","","","",""
"null","../img/tt/063tt.jpg","null","mooney1","image-keyboard-response","518","1673515","0.0-6.0-1.73","3007477","co37573","norming","","","","","","",""
"4105.734999990091","","","post_mooney1_questions","survey-likert","519","1677624","0.0-6.0-2.73","3007477","co37573","norming","","","{""curiosity"":0,""confidence"":6}","[0,1]","../img/tt/063tt.jpg","",""
"2585.1800000527874","","","recognition","survey-text","520","1680216","0.0-6.0-3.73","3007477","co37573","norming","","","{""guess"":""tv""}","","../img/tt/063tt.jpg","",""
"null","../img/gs/063gs.jpg","null","reveal","image-keyboard-response","521","1682222","0.0-6.0-4.73","3007477","co37573","norming","","","","","","",""
"null","../img/tt/063tt.jpg","null","mooney2","image-keyboard-response","522","1684225","0.0-6.0-5.73","3007477","co37573","norming","","","","","","",""
"2065.085000009276","","","post_reveal_questions","survey-likert","523","1686294","0.0-6.0-6.73","3007477","co37573","norming","","","{""aha"":6}","[0]","../img/tt/063tt.jpg","",""
"null","<div style=""font-size:60px;""> </div>","null","fixation","html-keyboard-response","524","1686500","0.0-6.0-0.74","3007477","co37573","norming","","","","","","",""
"null","../img/tt/598tt.jpg","null","mooney1","image-keyboard-response","525","1689504","0.0-6.0-1.74","3007477","co37573","norming","","","","","","",""
"5137.435000040568","","","post_mooney1_questions","survey-likert","526","1694645","0.0-6.0-2.74","3007477","co37573","norming","","","{""curiosity"":0,""confidence"":0}","[0,1]","../img/tt/598tt.jpg","",""
"8767.394999973476","","","recognition","survey-text","527","1703419","0.0-6.0-3.74","3007477","co37573","norming","","","{""guess"":""roker""}","","../img/tt/598tt.jpg","",""
"null","../img/gs/598gs.jpg","null","reveal","image-keyboard-response","528","1705436","0.0-6.0-4.74","3007477","co37573","norming","","","","","","",""
"null","../img/tt/598tt.jpg","null","mooney2","image-keyboard-response","529","1707445","0.0-6.0-5.74","3007477","co37573","norming","","","","","","",""
"3075.6299999775365","","","post_reveal_questions","survey-likert","530","1710523","0.0-6.0-6.74","3007477","co37573","norming","","","{""aha"":0}","[0]","../img/tt/598tt.jpg","",""
"null","<div style=""font-size:60px;""> </div>","null","fixation","html-keyboard-response","531","1710735","0.0-6.0-0.75","3007477","co37573","norming","","","","","","",""
"null","../img/tt/1232tt.jpg","null","mooney1","image-keyboard-response","532","1713744","0.0-6.0-1.75","3007477","co37573","norming","","","","","","",""
"5377.864999929443","","","post_mooney1_questions","survey-likert","533","1719125","0.0-6.0-2.75","3007477","co37573","norming","","","{""curiosity"":0,""confidence"":4}","[0,1]","../img/tt/1232tt.jpg","",""
"8358.554999926127","","","recognition","survey-text","534","1727490","0.0-6.0-3.75","3007477","co37573","norming","","","{""guess"":""maanlanding""}","","../img/tt/1232tt.jpg","",""
"null","../img/gs/1232gs.jpg","null","reveal","image-keyboard-response","535","1729493","0.0-6.0-4.75","3007477","co37573","norming","","","","","","",""
"null","../img/tt/1232tt.jpg","null","mooney2","image-keyboard-response","536","1731496","0.0-6.0-5.75","3007477","co37573","norming","","","","","","",""
"2464.2200000816956","","","post_reveal_questions","survey-likert","537","1733963","0.0-6.0-6.75","3007477","co37573","norming","","","{""aha"":0}","[0]","../img/tt/1232tt.jpg","",""
"null","<div style=""font-size:60px;""> </div>","null","fixation","html-keyboard-response","538","1734168","0.0-6.0-0.76","3007477","co37573","norming","","","","","","",""
"null","../img/tt/1040tt.jpg","null","mooney1","image-keyboard-response","539","1737175","0.0-6.0-1.76","3007477","co37573","norming","","","","","","",""
"4851.709999958985","","","post_mooney1_questions","survey-likert","540","1742030","0.0-6.0-2.76","3007477","co37573","norming","","","{""curiosity"":0,""confidence"":5}","[0,1]","../img/tt/1040tt.jpg","",""
"2827.76500005275","","","recognition","survey-text","541","1744864","0.0-6.0-3.76","3007477","co37573","norming","","","{""guess"":""aaien""}","","../img/tt/1040tt.jpg","",""
"null","../img/gs/1040gs.jpg","null","reveal","image-keyboard-response","542","1746867","0.0-6.0-4.76","3007477","co37573","norming","","","","","","",""
"null","../img/tt/1040tt.jpg","null","mooney2","image-keyboard-response","543","1748873","0.0-6.0-5.76","3007477","co37573","norming","","","","","","",""
"1989.560000016354","","","post_reveal_questions","survey-likert","544","1750866","0.0-6.0-6.76","3007477","co37573","norming","","","{""aha"":6}","[0]","../img/tt/1040tt.jpg","",""
"null","<div style=""font-size:60px;""> </div>","null","fixation","html-keyboard-response","545","1751070","0.0-6.0-0.77","3007477","co37573","norming","","","","","","",""
"null","../img/tt/1102tt.jpg","null","mooney1","image-keyboard-response","546","1754074","0.0-6.0-1.77","3007477","co37573","norming","","","","","","",""
"7494.345000013709","","","post_mooney1_questions","survey-likert","547","1761572","0.0-6.0-2.77","3007477","co37573","norming","","","{""curiosity"":0,""confidence"":0}","[0,1]","../img/tt/1102tt.jpg","",""
"6681.620000046678","","","recognition","survey-text","548","1768259","0.0-6.0-3.77","3007477","co37573","norming","","","{""guess"":""bib""}","","../img/tt/1102tt.jpg","",""
"null","../img/gs/1102gs.jpg","null","reveal","image-keyboard-response","549","1770268","0.0-6.0-4.77","3007477","co37573","norming","","","","","","",""
"null","../img/tt/1102tt.jpg","null","mooney2","image-keyboard-response","550","1772271","0.0-6.0-5.77","3007477","co37573","norming","","","","","","",""
"2799.0500000305474","","","post_reveal_questions","survey-likert","551","1775073","0.0-6.0-6.77","3007477","co37573","norming","","","{""aha"":6}","[0]","../img/tt/1102tt.jpg","",""
"null","<div style=""font-size:60px;""> </div>","null","fixation","html-keyboard-response","552","1775276","0.0-6.0-0.78","3007477","co37573","norming","","","","","","",""
