"rt","stimulus","key_press","test_part","trial_type","trial_index","time_elapsed","internal_node_id","totalTime","subject","experiment_name","button_pressed","success","responses","question_order","currentStim","old","correct"
"3573.8400000000183","Welcome to the experiment. This is an online experiment so please don't close the tab/window until we say goodbye.  Press any key to begin.","32","instructions","html-keyboard-response","0","3587","0.0-0.0","3452689","co37864","norming","","","","","","",""
"44214.53500000007","<div style='word-wrap: break-word; width: 900px'><h3>Please consider this information carefully before deciding whether to participate in this research</h3><ul style='text-align: left; font-size: .8em;'><li><b>Purpose of the research</b>: To examine how people process images.</li><li><b>What you will do in this research</b>:  Stimuli (images) will be presented on the computer and you will be asked different questions about them.</li><li><b>Time required</b>: Participation will take between 45 and 60 minutes to complete.</li><li><b>Risks</b>:  There are no anticipated risks associated with participating in this study. The effects of participating should be comparable to those you would experience from viewing a computer monitor for 30 minutes and using a mouse or keyboard.</li><li><b>Benefits</b>:  This study provides no benefits to you individually except for the credit. The study provides important information about the nature of perception and learning.</li><li><b>Confidentiality</b>:  Your participation in this study will remain confidential. No personally identifiable information will be associated with your data. Your de-identified data may be shared with other researchers and used in future projects.</li><li><b>Participation and withdrawal</b>:  Your participation in this study is completely voluntary and you may refuse to participate or you may choose to withdraw at any time without penalty.</li><li><b>How to contact the researchers</b>: If you have questions or concerns about your participation or payment, or want to request a summary of research findings, please contact Sander Van de Cruys (KU Leuven), at sander.vandecruys@kuleuven.be.</li></ul><p>The nature and purpose of this research have been sufficiently explained and I agree to participate in this study.  I understand that I am free to withdraw at any time without incurring any penalty.</p><p>Please consent by clicking the button below to continue. Otherwise, please exit the study at this time.</p></div>","","instructions","html-button-response","1","47796","0.0-1.0","3452689","co37864","norming","0","","","","","",""
"","","","instructions","fullscreen","2","53123","0.0-2.0","3452689","co37864","norming","","true","","","","",""
"55839.990000000056","","","sona","survey-html-form","3","108974","0.0-3.0","3452689","co37864","norming","","","[{""name"":""sonaid"",""value"":""37864""},{""name"":""debrief"",""value"":""yes""},{""name"":""datajoin"",""value"":""yes""}]","","","",""
"61075.38499999988","<div style='word-wrap: break-word; width: 900px'><h3>Instructions</h3><p>This experiment will have 3 parts. In the first part you will see a series of distorted images like the one below on the left. As you can see in the righthand image, the distorted images are derived from actual photographs. In what follows, you will <strong>briefly</strong> be presented with <strong>only</strong> the distorted image.</p> <div style='float: left; margin-right: 20px;'><img src='../img/018tt.jpg' height='250' width='250'></img></div><div style='float: right; margin-left: 20px;'><img src='../img/018gs.jpg' height='250' width='250'></img></div><p>Subsequently you will be asked a few questions about the image: One question on how <strong>curious</strong> you are about the solution and one on how <strong>confident</strong> you are that you know the solution.</p>Next, we ask you to make a guess on what is in the image. Note that it is OK to name just the <strong>basic level category</strong>. For example when you see a parrot in the image, 'parrot' will obviously be a correct answer but also correct is 'bird'. However, 'animal' will <strong>not</strong> be counted as a correct response. For the example above, 'rose' would be correct or 'flower', but not 'plant'. When soccer players are depicted, 'soccer', 'football', 'soccer players' will be correct, but not 'humans', 'outdoors', or 'sports'. You do not need to describe the image in full, just name the main object in it <strong>in one or two words</strong>. All images depict objects from one of the following broad level categories: animals, inanimate objects, plants, sports, vehicles, and food. Recognizing means knowing <strong>more</strong> than these broad labels for a given image. But we always encourage you to <strong>make a guess</strong> if you can. Note that you are allowed to use <strong>Dutch and English</strong> in your answers, whatever comes easiest for you.</p><p>Press any key to continue.</p></div>","32","instructions","html-keyboard-response","4","170047","0.0-4.0","3452689","co37864","norming","","","","","","",""
"13309.835000000021","<div style='word-wrap: break-word; width: 900px'><h3>Instructions</h3> <p>Next, the solution image will be revealed to you and you'll be asked to indicate how strong your <strong>aha-experience</strong> was after seeing the solution. This describes the positive feeling of the 'click' you sometimes experience, when the pieces of the 'puzzle' fall together and you suddenly have 'insight' in the image.</p><img src='aha.jpg' height='188' width='250'></img><p>Note that there are no right or wrong answers. We are interested in what <strong>you</strong> see in the image and how <strong>you</strong> feel about it.</p><p>Press any key to start the experiment.</p></div>","32","instructions","html-keyboard-response","5","183358","0.0-5.0","3452689","co37864","norming","","","","","","",""
"null","<div style=""font-size:60px;""> </div>","null","fixation","html-keyboard-response","6","183562","0.0-6.0-0.0","3452689","co37864","norming","","","","","","",""
"null","../img/tt/052tt.jpg","null","mooney1","image-keyboard-response","7","186569","0.0-6.0-1.0","3452689","co37864","norming","","","","","","",""
"10320.904999999795","","","post_mooney1_questions","survey-likert","8","196894","0.0-6.0-2.0","3452689","co37864","norming","","","{""curiosity"":5,""confidence"":2}","[0,1]","../img/tt/052tt.jpg","",""
"4462.234999999957","","","recognition","survey-text","9","201358","0.0-6.0-3.0","3452689","co37864","norming","","","{""guess"":""brood""}","","../img/tt/052tt.jpg","",""
"null","../img/gs/052gs.jpg","null","reveal","image-keyboard-response","10","203359","0.0-6.0-4.0","3452689","co37864","norming","","","","","","",""
"null","../img/tt/052tt.jpg","null","mooney2","image-keyboard-response","11","205362","0.0-6.0-5.0","3452689","co37864","norming","","","","","","",""
"7960.839999999967","","","post_reveal_questions","survey-likert","12","213325","0.0-6.0-6.0","3452689","co37864","norming","","","{""aha"":5}","[0]","../img/tt/052tt.jpg","",""
"null","<div style=""font-size:60px;""> </div>","null","fixation","html-keyboard-response","13","213532","0.0-6.0-0.1","3452689","co37864","norming","","","","","","",""
"null","../img/tt/307tt.jpg","null","mooney1","image-keyboard-response","14","216538","0.0-6.0-1.1","3452689","co37864","norming","","","","","","",""
"11152.479999999981","","","post_mooney1_questions","survey-likert","15","227693","0.0-6.0-2.1","3452689","co37864","norming","","","{""curiosity"":4,""confidence"":0}","[0,1]","../img/tt/307tt.jpg","",""
"7422.389999999956","","","recognition","survey-text","16","235117","0.0-6.0-3.1","3452689","co37864","norming","","","{""guess"":""pot""}","","../img/tt/307tt.jpg","",""
"null","../img/gs/307gs.jpg","null","reveal","image-keyboard-response","17","237127","0.0-6.0-4.1","3452689","co37864","norming","","","","","","",""
"null","../img/tt/307tt.jpg","null","mooney2","image-keyboard-response","18","239128","0.0-6.0-5.1","3452689","co37864","norming","","","","","","",""
"5329.944999999949","","","post_reveal_questions","survey-likert","19","244461","0.0-6.0-6.1","3452689","co37864","norming","","","{""aha"":5}","[0]","../img/tt/307tt.jpg","",""
"null","<div style=""font-size:60px;""> </div>","null","fixation","html-keyboard-response","20","244668","0.0-6.0-0.2","3452689","co37864","norming","","","","","","",""
"null","../img/tt/1254tt.jpg","null","mooney1","image-keyboard-response","21","247677","0.0-6.0-1.2","3452689","co37864","norming","","","","","","",""
"9629.325000000099","","","post_mooney1_questions","survey-likert","22","257309","0.0-6.0-2.2","3452689","co37864","norming","","","{""curiosity"":4,""confidence"":0}","[0,1]","../img/tt/1254tt.jpg","",""
"10429.825000000186","","","recognition","survey-text","23","267740","0.0-6.0-3.2","3452689","co37864","norming","","","{""guess"":""hond""}","","../img/tt/1254tt.jpg","",""
"null","../img/gs/1254gs.jpg","null","reveal","image-keyboard-response","24","269745","0.0-6.0-4.2","3452689","co37864","norming","","","","","","",""
"null","../img/tt/1254tt.jpg","null","mooney2","image-keyboard-response","25","271747","0.0-6.0-5.2","3452689","co37864","norming","","","","","","",""
"5295.1900000000605","","","post_reveal_questions","survey-likert","26","277044","0.0-6.0-6.2","3452689","co37864","norming","","","{""aha"":5}","[0]","../img/tt/1254tt.jpg","",""
"null","<div style=""font-size:60px;""> </div>","null","fixation","html-keyboard-response","27","277253","0.0-6.0-0.3","3452689","co37864","norming","","","","","","",""
"null","../img/tt/1101tt.jpg","null","mooney1","image-keyboard-response","28","280256","0.0-6.0-1.3","3452689","co37864","norming","","","","","","",""
"12186.66000000009","","","post_mooney1_questions","survey-likert","29","292445","0.0-6.0-2.3","3452689","co37864","norming","","","{""curiosity"":2,""confidence"":5}","[0,1]","../img/tt/1101tt.jpg","",""
"5694.134999999951","","","recognition","survey-text","30","298135","0.0-6.0-3.3","3452689","co37864","norming","","","{""guess"":""liggende mens""}","","../img/tt/1101tt.jpg","",""
"null","../img/gs/1101gs.jpg","null","reveal","image-keyboard-response","31","300141","0.0-6.0-4.3","3452689","co37864","norming","","","","","","",""
"null","../img/tt/1101tt.jpg","null","mooney2","image-keyboard-response","32","302147","0.0-6.0-5.3","3452689","co37864","norming","","","","","","",""
"5026.830000000016","","","post_reveal_questions","survey-likert","33","307175","0.0-6.0-6.3","3452689","co37864","norming","","","{""aha"":4}","[0]","../img/tt/1101tt.jpg","",""
"null","<div style=""font-size:60px;""> </div>","null","fixation","html-keyboard-response","34","307379","0.0-6.0-0.4","3452689","co37864","norming","","","","","","",""
"null","../img/tt/1227tt.jpg","null","mooney1","image-keyboard-response","35","310387","0.0-6.0-1.4","3452689","co37864","norming","","","","","","",""
"7051.829999999842","","","post_mooney1_questions","survey-likert","36","317439","0.0-6.0-2.4","3452689","co37864","norming","","","{""curiosity"":3,""confidence"":4}","[0,1]","../img/tt/1227tt.jpg","",""
"5653.769999999902","","","recognition","survey-text","37","323095","0.0-6.0-3.4","3452689","co37864","norming","","","{""guess"":""kippen""}","","../img/tt/1227tt.jpg","",""
"null","../img/gs/1227gs.jpg","null","reveal","image-keyboard-response","38","325096","0.0-6.0-4.4","3452689","co37864","norming","","","","","","",""
"null","../img/tt/1227tt.jpg","null","mooney2","image-keyboard-response","39","327100","0.0-6.0-5.4","3452689","co37864","norming","","","","","","",""
"6787.14499999996","","","post_reveal_questions","survey-likert","40","333888","0.0-6.0-6.4","3452689","co37864","norming","","","{""aha"":1}","[0]","../img/tt/1227tt.jpg","",""
"null","<div style=""font-size:60px;""> </div>","null","fixation","html-keyboard-response","41","334091","0.0-6.0-0.5","3452689","co37864","norming","","","","","","",""
"null","../img/tt/497tt.jpg","null","mooney1","image-keyboard-response","42","337100","0.0-6.0-1.5","3452689","co37864","norming","","","","","","",""
"13904.87999999983","","","post_mooney1_questions","survey-likert","43","351007","0.0-6.0-2.5","3452689","co37864","norming","","","{""curiosity"":4,""confidence"":2}","[0,1]","../img/tt/497tt.jpg","",""
"7445.875000000116","","","recognition","survey-text","44","358450","0.0-6.0-3.5","3452689","co37864","norming","","","{""guess"":""bord""}","","../img/tt/497tt.jpg","",""
"null","../img/gs/497gs.jpg","null","reveal","image-keyboard-response","45","360459","0.0-6.0-4.5","3452689","co37864","norming","","","","","","",""
"null","../img/tt/497tt.jpg","null","mooney2","image-keyboard-response","46","362468","0.0-6.0-5.5","3452689","co37864","norming","","","","","","",""
"6492.440000000002","","","post_reveal_questions","survey-likert","47","368961","0.0-6.0-6.5","3452689","co37864","norming","","","{""aha"":5}","[0]","../img/tt/497tt.jpg","",""
"null","<div style=""font-size:60px;""> </div>","null","fixation","html-keyboard-response","48","369166","0.0-6.0-0.6","3452689","co37864","norming","","","","","","",""
"null","../img/tt/319tt.jpg","null","mooney1","image-keyboard-response","49","372167","0.0-6.0-1.6","3452689","co37864","norming","","","","","","",""
"5993.8150000000605","","","post_mooney1_questions","survey-likert","50","378162","0.0-6.0-2.6","3452689","co37864","norming","","","{""curiosity"":4,""confidence"":3}","[0,1]","../img/tt/319tt.jpg","",""
"2509.859999999928","","","recognition","survey-text","51","380673","0.0-6.0-3.6","3452689","co37864","norming","","","{""guess"":""dier""}","","../img/tt/319tt.jpg","",""
"null","../img/gs/319gs.jpg","null","reveal","image-keyboard-response","52","382676","0.0-6.0-4.6","3452689","co37864","norming","","","","","","",""
"null","../img/tt/319tt.jpg","null","mooney2","image-keyboard-response","53","384676","0.0-6.0-5.6","3452689","co37864","norming","","","","","","",""
"2924.3899999998976","","","post_reveal_questions","survey-likert","54","387602","0.0-6.0-6.6","3452689","co37864","norming","","","{""aha"":4}","[0]","../img/tt/319tt.jpg","",""
"null","<div style=""font-size:60px;""> </div>","null","fixation","html-keyboard-response","55","387809","0.0-6.0-0.7","3452689","co37864","norming","","","","","","",""
"null","../img/tt/080tt.jpg","null","mooney1","image-keyboard-response","56","390817","0.0-6.0-1.7","3452689","co37864","norming","","","","","","",""
"14391.714999999967","","","post_mooney1_questions","survey-likert","57","405210","0.0-6.0-2.7","3452689","co37864","norming","","","{""curiosity"":4,""confidence"":1}","[0,1]","../img/tt/080tt.jpg","",""
"9782.21000000008","","","recognition","survey-text","58","414994","0.0-6.0-3.7","3452689","co37864","norming","","","{""guess"":""ei""}","","../img/tt/080tt.jpg","",""
"null","../img/gs/080gs.jpg","null","reveal","image-keyboard-response","59","417001","0.0-6.0-4.7","3452689","co37864","norming","","","","","","",""
"null","../img/tt/080tt.jpg","null","mooney2","image-keyboard-response","60","419002","0.0-6.0-5.7","3452689","co37864","norming","","","","","","",""
"3401.3599999998114","","","post_reveal_questions","survey-likert","61","422406","0.0-6.0-6.7","3452689","co37864","norming","","","{""aha"":6}","[0]","../img/tt/080tt.jpg","",""
"null","<div style=""font-size:60px;""> </div>","null","fixation","html-keyboard-response","62","422615","0.0-6.0-0.8","3452689","co37864","norming","","","","","","",""
"null","../img/tt/1241tt.jpg","null","mooney1","image-keyboard-response","63","425623","0.0-6.0-1.8","3452689","co37864","norming","","","","","","",""
"13164.669999999925","","","post_mooney1_questions","survey-likert","64","438790","0.0-6.0-2.8","3452689","co37864","norming","","","{""curiosity"":4,""confidence"":5}","[0,1]","../img/tt/1241tt.jpg","",""
"1718.219999999972","","","recognition","survey-text","65","440510","0.0-6.0-3.8","3452689","co37864","norming","","","{""guess"":""dier""}","","../img/tt/1241tt.jpg","",""
"null","../img/gs/1241gs.jpg","null","reveal","image-keyboard-response","66","442511","0.0-6.0-4.8","3452689","co37864","norming","","","","","","",""
"null","../img/tt/1241tt.jpg","null","mooney2","image-keyboard-response","67","444513","0.0-6.0-5.8","3452689","co37864","norming","","","","","","",""
"3082.820000000065","","","post_reveal_questions","survey-likert","68","447598","0.0-6.0-6.8","3452689","co37864","norming","","","{""aha"":4}","[0]","../img/tt/1241tt.jpg","",""
"null","<div style=""font-size:60px;""> </div>","null","fixation","html-keyboard-response","69","447802","0.0-6.0-0.9","3452689","co37864","norming","","","","","","",""
"null","../img/tt/357tt.jpg","null","mooney1","image-keyboard-response","70","450811","0.0-6.0-1.9","3452689","co37864","norming","","","","","","",""
"8465.67499999993","","","post_mooney1_questions","survey-likert","71","459278","0.0-6.0-2.9","3452689","co37864","norming","","","{""curiosity"":5,""confidence"":2}","[0,1]","../img/tt/357tt.jpg","",""
"5998.0800000000745","","","recognition","survey-text","72","465278","0.0-6.0-3.9","3452689","co37864","norming","","","{""guess"":""krokodil""}","","../img/tt/357tt.jpg","",""
"null","../img/gs/357gs.jpg","null","reveal","image-keyboard-response","73","467282","0.0-6.0-4.9","3452689","co37864","norming","","","","","","",""
"null","../img/tt/357tt.jpg","null","mooney2","image-keyboard-response","74","469284","0.0-6.0-5.9","3452689","co37864","norming","","","","","","",""
"2183.0850000001374","","","post_reveal_questions","survey-likert","75","471470","0.0-6.0-6.9","3452689","co37864","norming","","","{""aha"":5}","[0]","../img/tt/357tt.jpg","",""
"null","<div style=""font-size:60px;""> </div>","null","fixation","html-keyboard-response","76","471673","0.0-6.0-0.10","3452689","co37864","norming","","","","","","",""
"null","../img/tt/496tt.jpg","null","mooney1","image-keyboard-response","77","474682","0.0-6.0-1.10","3452689","co37864","norming","","","","","","",""
"8737.679999999935","","","post_mooney1_questions","survey-likert","78","483414","0.0-6.0-2.10","3452689","co37864","norming","","","{""curiosity"":4,""confidence"":1}","[0,1]","../img/tt/496tt.jpg","",""
"2734.185000000056","","","recognition","survey-text","79","486150","0.0-6.0-3.10","3452689","co37864","norming","","","{""guess"":""dier""}","","../img/tt/496tt.jpg","",""
"null","../img/gs/496gs.jpg","null","reveal","image-keyboard-response","80","488157","0.0-6.0-4.10","3452689","co37864","norming","","","","","","",""
"null","../img/tt/496tt.jpg","null","mooney2","image-keyboard-response","81","490165","0.0-6.0-5.10","3452689","co37864","norming","","","","","","",""
"2967.2000000000116","","","post_reveal_questions","survey-likert","82","493134","0.0-6.0-6.10","3452689","co37864","norming","","","{""aha"":5}","[0]","../img/tt/496tt.jpg","",""
"null","<div style=""font-size:60px;""> </div>","null","fixation","html-keyboard-response","83","493345","0.0-6.0-0.11","3452689","co37864","norming","","","","","","",""
"null","../img/tt/1002tt.jpg","null","mooney1","image-keyboard-response","84","496354","0.0-6.0-1.11","3452689","co37864","norming","","","","","","",""
"9753.780000000028","","","post_mooney1_questions","survey-likert","85","506111","0.0-6.0-2.11","3452689","co37864","norming","","","{""curiosity"":4,""confidence"":3}","[0,1]","../img/tt/1002tt.jpg","",""
"3141.564999999886","","","recognition","survey-text","86","509254","0.0-6.0-3.11","3452689","co37864","norming","","","{""guess"":""huisdier""}","","../img/tt/1002tt.jpg","",""
"null","../img/gs/1002gs.jpg","null","reveal","image-keyboard-response","87","511258","0.0-6.0-4.11","3452689","co37864","norming","","","","","","",""
"null","../img/tt/1002tt.jpg","null","mooney2","image-keyboard-response","88","513267","0.0-6.0-5.11","3452689","co37864","norming","","","","","","",""
"5024.7700000002515","","","post_reveal_questions","survey-likert","89","518294","0.0-6.0-6.11","3452689","co37864","norming","","","{""aha"":5}","[0]","../img/tt/1002tt.jpg","",""
"null","<div style=""font-size:60px;""> </div>","null","fixation","html-keyboard-response","90","518499","0.0-6.0-0.12","3452689","co37864","norming","","","","","","",""
"null","../img/tt/1046tt.jpg","null","mooney1","image-keyboard-response","91","521507","0.0-6.0-1.12","3452689","co37864","norming","","","","","","",""
"12184.084999999846","","","post_mooney1_questions","survey-likert","92","533694","0.0-6.0-2.12","3452689","co37864","norming","","","{""curiosity"":5,""confidence"":0}","[0,1]","../img/tt/1046tt.jpg","",""
"13029.959999999846","","","recognition","survey-text","93","546725","0.0-6.0-3.12","3452689","co37864","norming","","","{""guess"":""eten""}","","../img/tt/1046tt.jpg","",""
"null","../img/gs/1046gs.jpg","null","reveal","image-keyboard-response","94","548732","0.0-6.0-4.12","3452689","co37864","norming","","","","","","",""
"null","../img/tt/1046tt.jpg","null","mooney2","image-keyboard-response","95","550742","0.0-6.0-5.12","3452689","co37864","norming","","","","","","",""
"7598.980000000214","","","post_reveal_questions","survey-likert","96","558342","0.0-6.0-6.12","3452689","co37864","norming","","","{""aha"":4}","[0]","../img/tt/1046tt.jpg","",""
"null","<div style=""font-size:60px;""> </div>","null","fixation","html-keyboard-response","97","558552","0.0-6.0-0.13","3452689","co37864","norming","","","","","","",""
"null","../img/tt/1196tt.jpg","null","mooney1","image-keyboard-response","98","561554","0.0-6.0-1.13","3452689","co37864","norming","","","","","","",""
"6481","","","post_mooney1_questions","survey-likert","99","568038","0.0-6.0-2.13","3452689","co37864","norming","","","{""curiosity"":4,""confidence"":4}","[0,1]","../img/tt/1196tt.jpg","",""
"3694.1500000000233","","","recognition","survey-text","100","571734","0.0-6.0-3.13","3452689","co37864","norming","","","{""guess"":""mensen""}","","../img/tt/1196tt.jpg","",""
"null","../img/gs/1196gs.jpg","null","reveal","image-keyboard-response","101","573737","0.0-6.0-4.13","3452689","co37864","norming","","","","","","",""
"null","../img/tt/1196tt.jpg","null","mooney2","image-keyboard-response","102","575739","0.0-6.0-5.13","3452689","co37864","norming","","","","","","",""
"8664.719999999972","","","post_reveal_questions","survey-likert","103","584406","0.0-6.0-6.13","3452689","co37864","norming","","","{""aha"":3}","[0]","../img/tt/1196tt.jpg","",""
"null","<div style=""font-size:60px;""> </div>","null","fixation","html-keyboard-response","104","584610","0.0-6.0-0.14","3452689","co37864","norming","","","","","","",""
"null","../img/tt/517tt.jpg","null","mooney1","image-keyboard-response","105","587613","0.0-6.0-1.14","3452689","co37864","norming","","","","","","",""
"13926.205000000191","","","post_mooney1_questions","survey-likert","106","601542","0.0-6.0-2.14","3452689","co37864","norming","","","{""curiosity"":4,""confidence"":4}","[0,1]","../img/tt/517tt.jpg","",""
"3166.5","","","recognition","survey-text","107","604710","0.0-6.0-3.14","3452689","co37864","norming","","","{""guess"":""dier""}","","../img/tt/517tt.jpg","",""
"null","../img/gs/517gs.jpg","null","reveal","image-keyboard-response","108","606722","0.0-6.0-4.14","3452689","co37864","norming","","","","","","",""
"null","../img/tt/517tt.jpg","null","mooney2","image-keyboard-response","109","608729","0.0-6.0-5.14","3452689","co37864","norming","","","","","","",""
"3369.5150000001304","","","post_reveal_questions","survey-likert","110","612099","0.0-6.0-6.14","3452689","co37864","norming","","","{""aha"":5}","[0]","../img/tt/517tt.jpg","",""
"null","<div style=""font-size:60px;""> </div>","null","fixation","html-keyboard-response","111","612309","0.0-6.0-0.15","3452689","co37864","norming","","","","","","",""
"null","../img/tt/534tt.jpg","null","mooney1","image-keyboard-response","112","615317","0.0-6.0-1.15","3452689","co37864","norming","","","","","","",""
"10076.099999999977","","","post_mooney1_questions","survey-likert","113","625395","0.0-6.0-2.15","3452689","co37864","norming","","","{""curiosity"":4,""confidence"":2}","[0,1]","../img/tt/534tt.jpg","",""
"12214.079999999958","","","recognition","survey-text","114","637611","0.0-6.0-3.15","3452689","co37864","norming","","","{""guess"":""vleesetennde plant""}","","../img/tt/534tt.jpg","",""
"null","../img/gs/534gs.jpg","null","reveal","image-keyboard-response","115","639621","0.0-6.0-4.15","3452689","co37864","norming","","","","","","",""
"null","../img/tt/534tt.jpg","null","mooney2","image-keyboard-response","116","641623","0.0-6.0-5.15","3452689","co37864","norming","","","","","","",""
"5009.655000000028","","","post_reveal_questions","survey-likert","117","646635","0.0-6.0-6.15","3452689","co37864","norming","","","{""aha"":5}","[0]","../img/tt/534tt.jpg","",""
"null","<div style=""font-size:60px;""> </div>","null","fixation","html-keyboard-response","118","646837","0.0-6.0-0.16","3452689","co37864","norming","","","","","","",""
"null","../img/tt/549tt.jpg","null","mooney1","image-keyboard-response","119","649844","0.0-6.0-1.16","3452689","co37864","norming","","","","","","",""
"15924.740000000107","","","post_mooney1_questions","survey-likert","120","665771","0.0-6.0-2.16","3452689","co37864","norming","","","{""curiosity"":5,""confidence"":0}","[0,1]","../img/tt/549tt.jpg","",""
"20893.86499999999","","","recognition","survey-text","121","686666","0.0-6.0-3.16","3452689","co37864","norming","","","{""guess"":""""}","","../img/tt/549tt.jpg","",""
"null","../img/gs/549gs.jpg","null","reveal","image-keyboard-response","122","688668","0.0-6.0-4.16","3452689","co37864","norming","","","","","","",""
"null","../img/tt/549tt.jpg","null","mooney2","image-keyboard-response","123","690673","0.0-6.0-5.16","3452689","co37864","norming","","","","","","",""
"2775.4400000000605","","","post_reveal_questions","survey-likert","124","693450","0.0-6.0-6.16","3452689","co37864","norming","","","{""aha"":6}","[0]","../img/tt/549tt.jpg","",""
"null","<div style=""font-size:60px;""> </div>","null","fixation","html-keyboard-response","125","693655","0.0-6.0-0.17","3452689","co37864","norming","","","","","","",""
"null","../img/tt/163tt.jpg","null","mooney1","image-keyboard-response","126","696660","0.0-6.0-1.17","3452689","co37864","norming","","","","","","",""
"7667.64999999979","","","post_mooney1_questions","survey-likert","127","704330","0.0-6.0-2.17","3452689","co37864","norming","","","{""curiosity"":2,""confidence"":6}","[0,1]","../img/tt/163tt.jpg","",""
"2830.3599999998696","","","recognition","survey-text","128","707163","0.0-6.0-3.17","3452689","co37864","norming","","","{""guess"":""kikker""}","","../img/tt/163tt.jpg","",""
"null","../img/gs/163gs.jpg","null","reveal","image-keyboard-response","129","709164","0.0-6.0-4.17","3452689","co37864","norming","","","","","","",""
"null","../img/tt/163tt.jpg","null","mooney2","image-keyboard-response","130","711166","0.0-6.0-5.17","3452689","co37864","norming","","","","","","",""
"5706.265000000014","","","post_reveal_questions","survey-likert","131","716874","0.0-6.0-6.17","3452689","co37864","norming","","","{""aha"":0}","[0]","../img/tt/163tt.jpg","",""
"null","<div style=""font-size:60px;""> </div>","null","fixation","html-keyboard-response","132","717076","0.0-6.0-0.18","3452689","co37864","norming","","","","","","",""
"null","../img/tt/418tt.jpg","null","mooney1","image-keyboard-response","133","720086","0.0-6.0-1.18","3452689","co37864","norming","","","","","","",""
"8930.094999999972","","","post_mooney1_questions","survey-likert","134","729018","0.0-6.0-2.18","3452689","co37864","norming","","","{""curiosity"":5,""confidence"":1}","[0,1]","../img/tt/418tt.jpg","",""
"7934.25","","","recognition","survey-text","135","736954","0.0-6.0-3.18","3452689","co37864","norming","","","{""guess"":""dier""}","","../img/tt/418tt.jpg","",""
"null","../img/gs/418gs.jpg","null","reveal","image-keyboard-response","136","738957","0.0-6.0-4.18","3452689","co37864","norming","","","","","","",""
"null","../img/tt/418tt.jpg","null","mooney2","image-keyboard-response","137","740958","0.0-6.0-5.18","3452689","co37864","norming","","","","","","",""
"7873.979999999981","","","post_reveal_questions","survey-likert","138","748828","0.0-6.0-6.18","3452689","co37864","norming","","","{""aha"":6}","[0]","../img/tt/418tt.jpg","",""
"null","<div style=""font-size:60px;""> </div>","null","fixation","html-keyboard-response","139","749036","0.0-6.0-0.19","3452689","co37864","norming","","","","","","",""
"null","../img/tt/118tt.jpg","null","mooney1","image-keyboard-response","140","752042","0.0-6.0-1.19","3452689","co37864","norming","","","","","","",""
"9183.280000000028","","","post_mooney1_questions","survey-likert","141","761228","0.0-6.0-2.19","3452689","co37864","norming","","","{""curiosity"":6,""confidence"":1}","[0,1]","../img/tt/118tt.jpg","",""
"7078.050000000047","","","recognition","survey-text","142","768308","0.0-6.0-3.19","3452689","co37864","norming","","","{""guess"":""wiel""}","","../img/tt/118tt.jpg","",""
"null","../img/gs/118gs.jpg","null","reveal","image-keyboard-response","143","770312","0.0-6.0-4.19","3452689","co37864","norming","","","","","","",""
"null","../img/tt/118tt.jpg","null","mooney2","image-keyboard-response","144","772313","0.0-6.0-5.19","3452689","co37864","norming","","","","","","",""
"2944.435000000056","","","post_reveal_questions","survey-likert","145","775260","0.0-6.0-6.19","3452689","co37864","norming","","","{""aha"":6}","[0]","../img/tt/118tt.jpg","",""
"null","<div style=""font-size:60px;""> </div>","null","fixation","html-keyboard-response","146","775461","0.0-6.0-0.20","3452689","co37864","norming","","","","","","",""
"null","../img/tt/1148tt.jpg","null","mooney1","image-keyboard-response","147","778468","0.0-6.0-1.20","3452689","co37864","norming","","","","","","",""
"6701.530000000028","","","post_mooney1_questions","survey-likert","148","785172","0.0-6.0-2.20","3452689","co37864","norming","","","{""curiosity"":5,""confidence"":3}","[0,1]","../img/tt/1148tt.jpg","",""
"13198.204999999842","","","recognition","survey-text","149","798372","0.0-6.0-3.20","3452689","co37864","norming","","","{""guess"":""vervoersvoertuig""}","","../img/tt/1148tt.jpg","",""
"null","../img/gs/1148gs.jpg","null","reveal","image-keyboard-response","150","800382","0.0-6.0-4.20","3452689","co37864","norming","","","","","","",""
"null","../img/tt/1148tt.jpg","null","mooney2","image-keyboard-response","151","802384","0.0-6.0-5.20","3452689","co37864","norming","","","","","","",""
"2225.5200000000186","","","post_reveal_questions","survey-likert","152","804612","0.0-6.0-6.20","3452689","co37864","norming","","","{""aha"":6}","[0]","../img/tt/1148tt.jpg","",""
"null","<div style=""font-size:60px;""> </div>","null","fixation","html-keyboard-response","153","804816","0.0-6.0-0.21","3452689","co37864","norming","","","","","","",""
"null","../img/tt/1261tt.jpg","null","mooney1","image-keyboard-response","154","807825","0.0-6.0-1.21","3452689","co37864","norming","","","","","","",""
"11527.645000000135","","","post_mooney1_questions","survey-likert","155","819356","0.0-6.0-2.21","3452689","co37864","norming","","","{""curiosity"":5,""confidence"":3}","[0,1]","../img/tt/1261tt.jpg","",""
"15462.204999999842","","","recognition","survey-text","156","834820","0.0-6.0-3.21","3452689","co37864","norming","","","{""guess"":""klein dier""}","","../img/tt/1261tt.jpg","",""
"null","../img/gs/1261gs.jpg","null","reveal","image-keyboard-response","157","836822","0.0-6.0-4.21","3452689","co37864","norming","","","","","","",""
"null","../img/tt/1261tt.jpg","null","mooney2","image-keyboard-response","158","838823","0.0-6.0-5.21","3452689","co37864","norming","","","","","","",""
"5907.474999999977","","","post_reveal_questions","survey-likert","159","844732","0.0-6.0-6.21","3452689","co37864","norming","","","{""aha"":5}","[0]","../img/tt/1261tt.jpg","",""
"null","<div style=""font-size:60px;""> </div>","null","fixation","html-keyboard-response","160","844942","0.0-6.0-0.22","3452689","co37864","norming","","","","","","",""
"null","../img/tt/040tt.jpg","null","mooney1","image-keyboard-response","161","847950","0.0-6.0-1.22","3452689","co37864","norming","","","","","","",""
"4859.349999999977","","","post_mooney1_questions","survey-likert","162","852812","0.0-6.0-2.22","3452689","co37864","norming","","","{""curiosity"":4,""confidence"":3}","[0,1]","../img/tt/040tt.jpg","",""
"14102.145000000135","","","recognition","survey-text","163","866916","0.0-6.0-3.22","3452689","co37864","norming","","","{""guess"":""liggend huisdier""}","","../img/tt/040tt.jpg","",""
"null","../img/gs/040gs.jpg","null","reveal","image-keyboard-response","164","868918","0.0-6.0-4.22","3452689","co37864","norming","","","","","","",""
"null","../img/tt/040tt.jpg","null","mooney2","image-keyboard-response","165","870920","0.0-6.0-5.22","3452689","co37864","norming","","","","","","",""
"4137.569999999832","","","post_reveal_questions","survey-likert","166","875058","0.0-6.0-6.22","3452689","co37864","norming","","","{""aha"":6}","[0]","../img/tt/040tt.jpg","",""
"null","<div style=""font-size:60px;""> </div>","null","fixation","html-keyboard-response","167","875267","0.0-6.0-0.23","3452689","co37864","norming","","","","","","",""
"null","../img/tt/1171tt.jpg","null","mooney1","image-keyboard-response","168","878270","0.0-6.0-1.23","3452689","co37864","norming","","","","","","",""
"9081.905000000028","","","post_mooney1_questions","survey-likert","169","887354","0.0-6.0-2.23","3452689","co37864","norming","","","{""curiosity"":4,""confidence"":3}","[0,1]","../img/tt/1171tt.jpg","",""
"2630.1300000000047","","","recognition","survey-text","170","889986","0.0-6.0-3.23","3452689","co37864","norming","","","{""guess"":""beren""}","","../img/tt/1171tt.jpg","",""
"null","../img/gs/1171gs.jpg","null","reveal","image-keyboard-response","171","891997","0.0-6.0-4.23","3452689","co37864","norming","","","","","","",""
"null","../img/tt/1171tt.jpg","null","mooney2","image-keyboard-response","172","893998","0.0-6.0-5.23","3452689","co37864","norming","","","","","","",""
"6129.839999999967","","","post_reveal_questions","survey-likert","173","900130","0.0-6.0-6.23","3452689","co37864","norming","","","{""aha"":5}","[0]","../img/tt/1171tt.jpg","",""
"null","<div style=""font-size:60px;""> </div>","null","fixation","html-keyboard-response","174","900340","0.0-6.0-0.24","3452689","co37864","norming","","","","","","",""
"null","../img/tt/599tt.jpg","null","mooney1","image-keyboard-response","175","903346","0.0-6.0-1.24","3452689","co37864","norming","","","","","","",""
"5165.204999999958","","","post_mooney1_questions","survey-likert","176","908514","0.0-6.0-2.24","3452689","co37864","norming","","","{""curiosity"":4,""confidence"":3}","[0,1]","../img/tt/599tt.jpg","",""
"2494.265000000014","","","recognition","survey-text","177","911010","0.0-6.0-3.24","3452689","co37864","norming","","","{""guess"":""uilen""}","","../img/tt/599tt.jpg","",""
"null","../img/gs/599gs.jpg","null","reveal","image-keyboard-response","178","913016","0.0-6.0-4.24","3452689","co37864","norming","","","","","","",""
"null","../img/tt/599tt.jpg","null","mooney2","image-keyboard-response","179","915019","0.0-6.0-5.24","3452689","co37864","norming","","","","","","",""
"3508.3349999999627","","","post_reveal_questions","survey-likert","180","918530","0.0-6.0-6.24","3452689","co37864","norming","","","{""aha"":0}","[0]","../img/tt/599tt.jpg","",""
"null","<div style=""font-size:60px;""> </div>","null","fixation","html-keyboard-response","181","918739","0.0-6.0-0.25","3452689","co37864","norming","","","","","","",""
"null","../img/tt/032tt.jpg","null","mooney1","image-keyboard-response","182","921744","0.0-6.0-1.25","3452689","co37864","norming","","","","","","",""
"5585.285000000033","","","post_mooney1_questions","survey-likert","183","927330","0.0-6.0-2.25","3452689","co37864","norming","","","{""curiosity"":4,""confidence"":2}","[0,1]","../img/tt/032tt.jpg","",""
"7806.289999999921","","","recognition","survey-text","184","935146","0.0-6.0-3.25","3452689","co37864","norming","","","{""guess"":""weidier""}","","../img/tt/032tt.jpg","",""
"null","../img/gs/032gs.jpg","null","reveal","image-keyboard-response","185","937151","0.0-6.0-4.25","3452689","co37864","norming","","","","","","",""
"null","../img/tt/032tt.jpg","null","mooney2","image-keyboard-response","186","939155","0.0-6.0-5.25","3452689","co37864","norming","","","","","","",""
"3557.185000000056","","","post_reveal_questions","survey-likert","187","942714","0.0-6.0-6.25","3452689","co37864","norming","","","{""aha"":6}","[0]","../img/tt/032tt.jpg","",""
"null","<div style=""font-size:60px;""> </div>","null","fixation","html-keyboard-response","188","942919","0.0-6.0-0.26","3452689","co37864","norming","","","","","","",""
"null","../img/tt/1087tt.jpg","null","mooney1","image-keyboard-response","189","945925","0.0-6.0-1.26","3452689","co37864","norming","","","","","","",""
"12834.290000000037","","","post_mooney1_questions","survey-likert","190","958762","0.0-6.0-2.26","3452689","co37864","norming","","","{""curiosity"":4,""confidence"":5}","[0,1]","../img/tt/1087tt.jpg","",""
"25022.22999999998","","","recognition","survey-text","191","983786","0.0-6.0-3.26","3452689","co37864","norming","","","{""guess"":""liggend weidier""}","","../img/tt/1087tt.jpg","",""
"null","../img/gs/1087gs.jpg","null","reveal","image-keyboard-response","192","985796","0.0-6.0-4.26","3452689","co37864","norming","","","","","","",""
"null","../img/tt/1087tt.jpg","null","mooney2","image-keyboard-response","193","987798","0.0-6.0-5.26","3452689","co37864","norming","","","","","","",""
"3098.7200000000885","","","post_reveal_questions","survey-likert","194","990898","0.0-6.0-6.26","3452689","co37864","norming","","","{""aha"":4}","[0]","../img/tt/1087tt.jpg","",""
"null","<div style=""font-size:60px;""> </div>","null","fixation","html-keyboard-response","195","991101","0.0-6.0-0.27","3452689","co37864","norming","","","","","","",""
"null","../img/tt/524tt.jpg","null","mooney1","image-keyboard-response","196","994106","0.0-6.0-1.27","3452689","co37864","norming","","","","","","",""
"8117.40000000014","","","post_mooney1_questions","survey-likert","197","1002226","0.0-6.0-2.27","3452689","co37864","norming","","","{""curiosity"":5,""confidence"":1}","[0,1]","../img/tt/524tt.jpg","",""
"3350.1100000001024","","","recognition","survey-text","198","1005578","0.0-6.0-3.27","3452689","co37864","norming","","","{""guess"":""paard""}","","../img/tt/524tt.jpg","",""
"null","../img/gs/524gs.jpg","null","reveal","image-keyboard-response","199","1007583","0.0-6.0-4.27","3452689","co37864","norming","","","","","","",""
"null","../img/tt/524tt.jpg","null","mooney2","image-keyboard-response","200","1009585","0.0-6.0-5.27","3452689","co37864","norming","","","","","","",""
"4398.560000000056","","","post_reveal_questions","survey-likert","201","1013986","0.0-6.0-6.27","3452689","co37864","norming","","","{""aha"":6}","[0]","../img/tt/524tt.jpg","",""
"null","<div style=""font-size:60px;""> </div>","null","fixation","html-keyboard-response","202","1014191","0.0-6.0-0.28","3452689","co37864","norming","","","","","","",""
"null","../img/tt/270tt.jpg","null","mooney1","image-keyboard-response","203","1017203","0.0-6.0-1.28","3452689","co37864","norming","","","","","","",""
"11764.33500000008","","","post_mooney1_questions","survey-likert","204","1028970","0.0-6.0-2.28","3452689","co37864","norming","","","{""curiosity"":4,""confidence"":2}","[0,1]","../img/tt/270tt.jpg","",""
"18302.13500000001","","","recognition","survey-text","205","1047274","0.0-6.0-3.28","3452689","co37864","norming","","","{""guess"":""mensen bos""}","","../img/tt/270tt.jpg","",""
"null","../img/gs/270gs.jpg","null","reveal","image-keyboard-response","206","1049280","0.0-6.0-4.28","3452689","co37864","norming","","","","","","",""
"null","../img/tt/270tt.jpg","null","mooney2","image-keyboard-response","207","1051289","0.0-6.0-5.28","3452689","co37864","norming","","","","","","",""
"4367.25","","","post_reveal_questions","survey-likert","208","1055658","0.0-6.0-6.28","3452689","co37864","norming","","","{""aha"":5}","[0]","../img/tt/270tt.jpg","",""
"null","<div style=""font-size:60px;""> </div>","null","fixation","html-keyboard-response","209","1055862","0.0-6.0-0.29","3452689","co37864","norming","","","","","","",""
"null","../img/tt/603tt.jpg","null","mooney1","image-keyboard-response","210","1058870","0.0-6.0-1.29","3452689","co37864","norming","","","","","","",""
"7994.549999999814","","","post_mooney1_questions","survey-likert","211","1066866","0.0-6.0-2.29","3452689","co37864","norming","","","{""curiosity"":5,""confidence"":3}","[0,1]","../img/tt/603tt.jpg","",""
"2310.9950000001118","","","recognition","survey-text","212","1069179","0.0-6.0-3.29","3452689","co37864","norming","","","{""guess"":""kat""}","","../img/tt/603tt.jpg","",""
"null","../img/gs/603gs.jpg","null","reveal","image-keyboard-response","213","1071186","0.0-6.0-4.29","3452689","co37864","norming","","","","","","",""
"null","../img/tt/603tt.jpg","null","mooney2","image-keyboard-response","214","1073188","0.0-6.0-5.29","3452689","co37864","norming","","","","","","",""
"2828.874999999767","","","post_reveal_questions","survey-likert","215","1076019","0.0-6.0-6.29","3452689","co37864","norming","","","{""aha"":1}","[0]","../img/tt/603tt.jpg","",""
"null","<div style=""font-size:60px;""> </div>","null","fixation","html-keyboard-response","216","1076224","0.0-6.0-0.30","3452689","co37864","norming","","","","","","",""
"null","../img/tt/477tt.jpg","null","mooney1","image-keyboard-response","217","1079234","0.0-6.0-1.30","3452689","co37864","norming","","","","","","",""
"7710.114999999991","","","post_mooney1_questions","survey-likert","218","1086947","0.0-6.0-2.30","3452689","co37864","norming","","","{""curiosity"":3,""confidence"":5}","[0,1]","../img/tt/477tt.jpg","",""
"2310.0999999998603","","","recognition","survey-text","219","1089258","0.0-6.0-3.30","3452689","co37864","norming","","","{""guess"":""vis""}","","../img/tt/477tt.jpg","",""
"null","../img/gs/477gs.jpg","null","reveal","image-keyboard-response","220","1091260","0.0-6.0-4.30","3452689","co37864","norming","","","","","","",""
"null","../img/tt/477tt.jpg","null","mooney2","image-keyboard-response","221","1093271","0.0-6.0-5.30","3452689","co37864","norming","","","","","","",""
"4225.45999999973","","","post_reveal_questions","survey-likert","222","1097498","0.0-6.0-6.30","3452689","co37864","norming","","","{""aha"":0}","[0]","../img/tt/477tt.jpg","",""
"null","<div style=""font-size:60px;""> </div>","null","fixation","html-keyboard-response","223","1097700","0.0-6.0-0.31","3452689","co37864","norming","","","","","","",""
"null","../img/tt/1279tt.jpg","null","mooney1","image-keyboard-response","224","1100707","0.0-6.0-1.31","3452689","co37864","norming","","","","","","",""
"6588.145000000019","","","post_mooney1_questions","survey-likert","225","1107299","0.0-6.0-2.31","3452689","co37864","norming","","","{""curiosity"":5,""confidence"":2}","[0,1]","../img/tt/1279tt.jpg","",""
"4149.7949999999255","","","recognition","survey-text","226","1111450","0.0-6.0-3.31","3452689","co37864","norming","","","{""guess"":""mensen""}","","../img/tt/1279tt.jpg","",""
"null","../img/gs/1279gs.jpg","null","reveal","image-keyboard-response","227","1113456","0.0-6.0-4.31","3452689","co37864","norming","","","","","","",""
"null","../img/tt/1279tt.jpg","null","mooney2","image-keyboard-response","228","1115460","0.0-6.0-5.31","3452689","co37864","norming","","","","","","",""
"9219.899999999907","","","post_reveal_questions","survey-likert","229","1124674","0.0-6.0-6.31","3452689","co37864","norming","","","{""aha"":5}","[0]","../img/tt/1279tt.jpg","",""
"null","<div style=""font-size:60px;""> </div>","null","fixation","html-keyboard-response","230","1124876","0.0-6.0-0.32","3452689","co37864","norming","","","","","","",""
"null","../img/tt/1283tt.jpg","null","mooney1","image-keyboard-response","231","1127881","0.0-6.0-1.32","3452689","co37864","norming","","","","","","",""
"11671.25","","","post_mooney1_questions","survey-likert","232","1139555","0.0-6.0-2.32","3452689","co37864","norming","","","{""curiosity"":4,""confidence"":4}","[0,1]","../img/tt/1283tt.jpg","",""
"4061.8600000003353","","","recognition","survey-text","233","1143618","0.0-6.0-3.32","3452689","co37864","norming","","","{""guess"":""bosdier""}","","../img/tt/1283tt.jpg","",""
"null","../img/gs/1283gs.jpg","null","reveal","image-keyboard-response","234","1145622","0.0-6.0-4.32","3452689","co37864","norming","","","","","","",""
"null","../img/tt/1283tt.jpg","null","mooney2","image-keyboard-response","235","1147627","0.0-6.0-5.32","3452689","co37864","norming","","","","","","",""
"4973.309999999823","","","post_reveal_questions","survey-likert","236","1152602","0.0-6.0-6.32","3452689","co37864","norming","","","{""aha"":0}","[0]","../img/tt/1283tt.jpg","",""
"null","<div style=""font-size:60px;""> </div>","null","fixation","html-keyboard-response","237","1152809","0.0-6.0-0.33","3452689","co37864","norming","","","","","","",""
"null","../img/tt/1270tt.jpg","null","mooney1","image-keyboard-response","238","1155813","0.0-6.0-1.33","3452689","co37864","norming","","","","","","",""
"8146.8549999997485","","","post_mooney1_questions","survey-likert","239","1163962","0.0-6.0-2.33","3452689","co37864","norming","","","{""curiosity"":3,""confidence"":2}","[0,1]","../img/tt/1270tt.jpg","",""
"2662.5200000002515","","","recognition","survey-text","240","1166627","0.0-6.0-3.33","3452689","co37864","norming","","","{""guess"":""slang""}","","../img/tt/1270tt.jpg","",""
"null","../img/gs/1270gs.jpg","null","reveal","image-keyboard-response","241","1168629","0.0-6.0-4.33","3452689","co37864","norming","","","","","","",""
"null","../img/tt/1270tt.jpg","null","mooney2","image-keyboard-response","242","1170631","0.0-6.0-5.33","3452689","co37864","norming","","","","","","",""
"1609.0249999999069","","","post_reveal_questions","survey-likert","243","1172242","0.0-6.0-6.33","3452689","co37864","norming","","","{""aha"":5}","[0]","../img/tt/1270tt.jpg","",""
"null","<div style=""font-size:60px;""> </div>","null","fixation","html-keyboard-response","244","1172443","0.0-6.0-0.34","3452689","co37864","norming","","","","","","",""
"null","../img/tt/1125tt.jpg","null","mooney1","image-keyboard-response","245","1175453","0.0-6.0-1.34","3452689","co37864","norming","","","","","","",""
"11362.784999999683","","","post_mooney1_questions","survey-likert","246","1186819","0.0-6.0-2.34","3452689","co37864","norming","","","{""curiosity"":4,""confidence"":3}","[0,1]","../img/tt/1125tt.jpg","",""
"4702.300000000047","","","recognition","survey-text","247","1191523","0.0-6.0-3.34","3452689","co37864","norming","","","{""guess"":""mensenkind""}","","../img/tt/1125tt.jpg","",""
"null","../img/gs/1125gs.jpg","null","reveal","image-keyboard-response","248","1193532","0.0-6.0-4.34","3452689","co37864","norming","","","","","","",""
"null","../img/tt/1125tt.jpg","null","mooney2","image-keyboard-response","249","1195540","0.0-6.0-5.34","3452689","co37864","norming","","","","","","",""
"2484.535000000149","","","post_reveal_questions","survey-likert","250","1198027","0.0-6.0-6.34","3452689","co37864","norming","","","{""aha"":5}","[0]","../img/tt/1125tt.jpg","",""
"null","<div style=""font-size:60px;""> </div>","null","fixation","html-keyboard-response","251","1198237","0.0-6.0-0.35","3452689","co37864","norming","","","","","","",""
"null","../img/tt/567tt.jpg","null","mooney1","image-keyboard-response","252","1201241","0.0-6.0-1.35","3452689","co37864","norming","","","","","","",""
"9479.659999999916","","","post_mooney1_questions","survey-likert","253","1210723","0.0-6.0-2.35","3452689","co37864","norming","","","{""curiosity"":2,""confidence"":6}","[0,1]","../img/tt/567tt.jpg","",""
"6653.940000000177","","","recognition","survey-text","254","1217379","0.0-6.0-3.35","3452689","co37864","norming","","","{""guess"":""broodtoaster""}","","../img/tt/567tt.jpg","",""
"null","../img/gs/567gs.jpg","null","reveal","image-keyboard-response","255","1219384","0.0-6.0-4.35","3452689","co37864","norming","","","","","","",""
"null","../img/tt/567tt.jpg","null","mooney2","image-keyboard-response","256","1221386","0.0-6.0-5.35","3452689","co37864","norming","","","","","","",""
"1814.7199999997392","","","post_reveal_questions","survey-likert","257","1223203","0.0-6.0-6.35","3452689","co37864","norming","","","{""aha"":0}","[0]","../img/tt/567tt.jpg","",""
"null","<div style=""font-size:60px;""> </div>","null","fixation","html-keyboard-response","258","1223410","0.0-6.0-0.36","3452689","co37864","norming","","","","","","",""
"null","../img/tt/435tt.jpg","null","mooney1","image-keyboard-response","259","1226416","0.0-6.0-1.36","3452689","co37864","norming","","","","","","",""
"8128.75","","","post_mooney1_questions","survey-likert","260","1234547","0.0-6.0-2.36","3452689","co37864","norming","","","{""curiosity"":4,""confidence"":1}","[0,1]","../img/tt/435tt.jpg","",""
"20958.094999999972","","","recognition","survey-text","261","1255517","0.0-6.0-3.36","3452689","co37864","norming","","","{""guess"":""autoraam""}","","../img/tt/435tt.jpg","",""
"null","../img/gs/435gs.jpg","null","reveal","image-keyboard-response","262","1257520","0.0-6.0-4.36","3452689","co37864","norming","","","","","","",""
"null","../img/tt/435tt.jpg","null","mooney2","image-keyboard-response","263","1259523","0.0-6.0-5.36","3452689","co37864","norming","","","","","","",""
"2607.935000000056","","","post_reveal_questions","survey-likert","264","1262133","0.0-6.0-6.36","3452689","co37864","norming","","","{""aha"":6}","[0]","../img/tt/435tt.jpg","",""
"null","<div style=""font-size:60px;""> </div>","null","fixation","html-keyboard-response","265","1262343","0.0-6.0-0.37","3452689","co37864","norming","","","","","","",""
"null","../img/tt/1205tt.jpg","null","mooney1","image-keyboard-response","266","1265346","0.0-6.0-1.37","3452689","co37864","norming","","","","","","",""
"10665.195000000065","","","post_mooney1_questions","survey-likert","267","1276013","0.0-6.0-2.37","3452689","co37864","norming","","","{""curiosity"":4,""confidence"":1}","[0,1]","../img/tt/1205tt.jpg","",""
"11262.565000000177","","","recognition","survey-text","268","1287277","0.0-6.0-3.37","3452689","co37864","norming","","","{""guess"":""""}","","../img/tt/1205tt.jpg","",""
"null","../img/gs/1205gs.jpg","null","reveal","image-keyboard-response","269","1289283","0.0-6.0-4.37","3452689","co37864","norming","","","","","","",""
"null","../img/tt/1205tt.jpg","null","mooney2","image-keyboard-response","270","1291290","0.0-6.0-5.37","3452689","co37864","norming","","","","","","",""
"4566.934999999823","","","post_reveal_questions","survey-likert","271","1295861","0.0-6.0-6.37","3452689","co37864","norming","","","{""aha"":6}","[0]","../img/tt/1205tt.jpg","",""
"null","<div style=""font-size:60px;""> </div>","null","fixation","html-keyboard-response","272","1296064","0.0-6.0-0.38","3452689","co37864","norming","","","","","","",""
"null","../img/tt/194tt.jpg","null","mooney1","image-keyboard-response","273","1299073","0.0-6.0-1.38","3452689","co37864","norming","","","","","","",""
"4985.245000000345","","","post_mooney1_questions","survey-likert","274","1304061","0.0-6.0-2.38","3452689","co37864","norming","","","{""curiosity"":1,""confidence"":6}","[0,1]","../img/tt/194tt.jpg","",""
"29486.01000000001","","","recognition","survey-text","275","1333552","0.0-6.0-3.38","3452689","co37864","norming","","","{""guess"":""harp-beoefenaar""}","","../img/tt/194tt.jpg","",""
"null","../img/gs/194gs.jpg","null","reveal","image-keyboard-response","276","1335553","0.0-6.0-4.38","3452689","co37864","norming","","","","","","",""
"null","../img/tt/194tt.jpg","null","mooney2","image-keyboard-response","277","1337555","0.0-6.0-5.38","3452689","co37864","norming","","","","","","",""
"3914.054999999702","","","post_reveal_questions","survey-likert","278","1341472","0.0-6.0-6.38","3452689","co37864","norming","","","{""aha"":0}","[0]","../img/tt/194tt.jpg","",""
"null","<div style=""font-size:60px;""> </div>","null","fixation","html-keyboard-response","279","1341674","0.0-6.0-0.39","3452689","co37864","norming","","","","","","",""
"null","../img/tt/046tt.jpg","null","mooney1","image-keyboard-response","280","1344677","0.0-6.0-1.39","3452689","co37864","norming","","","","","","",""
"3935.880000000121","","","post_mooney1_questions","survey-likert","281","1348616","0.0-6.0-2.39","3452689","co37864","norming","","","{""curiosity"":1,""confidence"":6}","[0,1]","../img/tt/046tt.jpg","",""
"3302.1049999997485","","","recognition","survey-text","282","1351920","0.0-6.0-3.39","3452689","co37864","norming","","","{""guess"":""hond""}","","../img/tt/046tt.jpg","",""
"null","../img/gs/046gs.jpg","null","reveal","image-keyboard-response","283","1353927","0.0-6.0-4.39","3452689","co37864","norming","","","","","","",""
"null","../img/tt/046tt.jpg","null","mooney2","image-keyboard-response","284","1355929","0.0-6.0-5.39","3452689","co37864","norming","","","","","","",""
"1596.2049999998417","","","post_reveal_questions","survey-likert","285","1357528","0.0-6.0-6.39","3452689","co37864","norming","","","{""aha"":0}","[0]","../img/tt/046tt.jpg","",""
"null","<div style=""font-size:60px;""> </div>","null","fixation","html-keyboard-response","286","1357736","0.0-6.0-0.40","3452689","co37864","norming","","","","","","",""
"null","../img/tt/1173tt.jpg","null","mooney1","image-keyboard-response","287","1360742","0.0-6.0-1.40","3452689","co37864","norming","","","","","","",""
"10226.38500000001","","","post_mooney1_questions","survey-likert","288","1370974","0.0-6.0-2.40","3452689","co37864","norming","","","{""curiosity"":2,""confidence"":5}","[0,1]","../img/tt/1173tt.jpg","",""
"23613.945000000065","","","recognition","survey-text","289","1394590","0.0-6.0-3.40","3452689","co37864","norming","","","{""guess"":""sporters""}","","../img/tt/1173tt.jpg","",""
"null","../img/gs/1173gs.jpg","null","reveal","image-keyboard-response","290","1396597","0.0-6.0-4.40","3452689","co37864","norming","","","","","","",""
"null","../img/tt/1173tt.jpg","null","mooney2","image-keyboard-response","291","1398605","0.0-6.0-5.40","3452689","co37864","norming","","","","","","",""
"5581.98499999987","","","post_reveal_questions","survey-likert","292","1404190","0.0-6.0-6.40","3452689","co37864","norming","","","{""aha"":1}","[0]","../img/tt/1173tt.jpg","",""
"null","<div style=""font-size:60px;""> </div>","null","fixation","html-keyboard-response","293","1404399","0.0-6.0-0.41","3452689","co37864","norming","","","","","","",""
"null","../img/tt/140tt.jpg","null","mooney1","image-keyboard-response","294","1407408","0.0-6.0-1.41","3452689","co37864","norming","","","","","","",""
"7868.540000000037","","","post_mooney1_questions","survey-likert","295","1415278","0.0-6.0-2.41","3452689","co37864","norming","","","{""curiosity"":6,""confidence"":1}","[0,1]","../img/tt/140tt.jpg","",""
"7086.1800000004005","","","recognition","survey-text","296","1422366","0.0-6.0-3.41","3452689","co37864","norming","","","{""guess"":""haarspeld""}","","../img/tt/140tt.jpg","",""
"null","../img/gs/140gs.jpg","null","reveal","image-keyboard-response","297","1424371","0.0-6.0-4.41","3452689","co37864","norming","","","","","","",""
"null","../img/tt/140tt.jpg","null","mooney2","image-keyboard-response","298","1426387","0.0-6.0-5.41","3452689","co37864","norming","","","","","","",""
"5383.295000000158","","","post_reveal_questions","survey-likert","299","1431773","0.0-6.0-6.41","3452689","co37864","norming","","","{""aha"":6}","[0]","../img/tt/140tt.jpg","",""
"null","<div style=""font-size:60px;""> </div>","null","fixation","html-keyboard-response","300","1431979","0.0-6.0-0.42","3452689","co37864","norming","","","","","","",""
"null","../img/tt/094tt.jpg","null","mooney1","image-keyboard-response","301","1434986","0.0-6.0-1.42","3452689","co37864","norming","","","","","","",""
"5897.084999999963","","","post_mooney1_questions","survey-likert","302","1440886","0.0-6.0-2.42","3452689","co37864","norming","","","{""curiosity"":5,""confidence"":2}","[0,1]","../img/tt/094tt.jpg","",""
"1758.0450000001583","","","recognition","survey-text","303","1442645","0.0-6.0-3.42","3452689","co37864","norming","","","{""guess"":""beer""}","","../img/tt/094tt.jpg","",""
"null","../img/gs/094gs.jpg","null","reveal","image-keyboard-response","304","1444654","0.0-6.0-4.42","3452689","co37864","norming","","","","","","",""
"null","../img/tt/094tt.jpg","null","mooney2","image-keyboard-response","305","1446656","0.0-6.0-5.42","3452689","co37864","norming","","","","","","",""
"5465.614999999991","","","post_reveal_questions","survey-likert","306","1452125","0.0-6.0-6.42","3452689","co37864","norming","","","{""aha"":5}","[0]","../img/tt/094tt.jpg","",""
"null","<div style=""font-size:60px;""> </div>","null","fixation","html-keyboard-response","307","1452327","0.0-6.0-0.43","3452689","co37864","norming","","","","","","",""
"null","../img/tt/1191tt.jpg","null","mooney1","image-keyboard-response","308","1455337","0.0-6.0-1.43","3452689","co37864","norming","","","","","","",""
"6217.33499999973","","","post_mooney1_questions","survey-likert","309","1461557","0.0-6.0-2.43","3452689","co37864","norming","","","{""curiosity"":3,""confidence"":4}","[0,1]","../img/tt/1191tt.jpg","",""
"2190.170000000391","","","recognition","survey-text","310","1463749","0.0-6.0-3.43","3452689","co37864","norming","","","{""guess"":""paarden""}","","../img/tt/1191tt.jpg","",""
"null","../img/gs/1191gs.jpg","null","reveal","image-keyboard-response","311","1465751","0.0-6.0-4.43","3452689","co37864","norming","","","","","","",""
"null","../img/tt/1191tt.jpg","null","mooney2","image-keyboard-response","312","1467763","0.0-6.0-5.43","3452689","co37864","norming","","","","","","",""
"2807.7899999998044","","","post_reveal_questions","survey-likert","313","1470573","0.0-6.0-6.43","3452689","co37864","norming","","","{""aha"":5}","[0]","../img/tt/1191tt.jpg","",""
"null","<div style=""font-size:60px;""> </div>","null","fixation","html-keyboard-response","314","1470779","0.0-6.0-0.44","3452689","co37864","norming","","","","","","",""
"null","../img/tt/405tt.jpg","null","mooney1","image-keyboard-response","315","1473787","0.0-6.0-1.44","3452689","co37864","norming","","","","","","",""
"8063.370000000345","","","post_mooney1_questions","survey-likert","316","1481853","0.0-6.0-2.44","3452689","co37864","norming","","","{""curiosity"":4,""confidence"":3}","[0,1]","../img/tt/405tt.jpg","",""
"3206.1800000001676","","","recognition","survey-text","317","1485061","0.0-6.0-3.44","3452689","co37864","norming","","","{""guess"":""vogels""}","","../img/tt/405tt.jpg","",""
"null","../img/gs/405gs.jpg","null","reveal","image-keyboard-response","318","1487071","0.0-6.0-4.44","3452689","co37864","norming","","","","","","",""
"null","../img/tt/405tt.jpg","null","mooney2","image-keyboard-response","319","1489078","0.0-6.0-5.44","3452689","co37864","norming","","","","","","",""
"4767.174999999814","","","post_reveal_questions","survey-likert","320","1493848","0.0-6.0-6.44","3452689","co37864","norming","","","{""aha"":6}","[0]","../img/tt/405tt.jpg","",""
"null","<div style=""font-size:60px;""> </div>","null","fixation","html-keyboard-response","321","1494057","0.0-6.0-0.45","3452689","co37864","norming","","","","","","",""
"null","../img/tt/440tt.jpg","null","mooney1","image-keyboard-response","322","1497060","0.0-6.0-1.45","3452689","co37864","norming","","","","","","",""
"8066.850000000326","","","post_mooney1_questions","survey-likert","323","1505128","0.0-6.0-2.45","3452689","co37864","norming","","","{""curiosity"":4,""confidence"":1}","[0,1]","../img/tt/440tt.jpg","",""
"9182.235000000102","","","recognition","survey-text","324","1514312","0.0-6.0-3.45","3452689","co37864","norming","","","{""guess"":""paard""}","","../img/tt/440tt.jpg","",""
"null","../img/gs/440gs.jpg","null","reveal","image-keyboard-response","325","1516315","0.0-6.0-4.45","3452689","co37864","norming","","","","","","",""
"null","../img/tt/440tt.jpg","null","mooney2","image-keyboard-response","326","1518325","0.0-6.0-5.45","3452689","co37864","norming","","","","","","",""
"2832.2700000004843","","","post_reveal_questions","survey-likert","327","1521159","0.0-6.0-6.45","3452689","co37864","norming","","","{""aha"":5}","[0]","../img/tt/440tt.jpg","",""
"null","<div style=""font-size:60px;""> </div>","null","fixation","html-keyboard-response","328","1521361","0.0-6.0-0.46","3452689","co37864","norming","","","","","","",""
"null","../img/tt/1027tt.jpg","null","mooney1","image-keyboard-response","329","1524366","0.0-6.0-1.46","3452689","co37864","norming","","","","","","",""
"6695.064999999944","","","post_mooney1_questions","survey-likert","330","1531064","0.0-6.0-2.46","3452689","co37864","norming","","","{""curiosity"":4,""confidence"":3}","[0,1]","../img/tt/1027tt.jpg","",""
"4909.935000000056","","","recognition","survey-text","331","1535976","0.0-6.0-3.46","3452689","co37864","norming","","","{""guess"":""kameel""}","","../img/tt/1027tt.jpg","",""
"null","../img/gs/1027gs.jpg","null","reveal","image-keyboard-response","332","1537984","0.0-6.0-4.46","3452689","co37864","norming","","","","","","",""
"null","../img/tt/1027tt.jpg","null","mooney2","image-keyboard-response","333","1539985","0.0-6.0-5.46","3452689","co37864","norming","","","","","","",""
"3483.8649999999907","","","post_reveal_questions","survey-likert","334","1543472","0.0-6.0-6.46","3452689","co37864","norming","","","{""aha"":5}","[0]","../img/tt/1027tt.jpg","",""
"null","<div style=""font-size:60px;""> </div>","null","fixation","html-keyboard-response","335","1543674","0.0-6.0-0.47","3452689","co37864","norming","","","","","","",""
"null","../img/tt/1024tt.jpg","null","mooney1","image-keyboard-response","336","1546682","0.0-6.0-1.47","3452689","co37864","norming","","","","","","",""
"11602.89000000013","","","post_mooney1_questions","survey-likert","337","1558281","0.0-6.0-2.47","3452689","co37864","norming","","","{""curiosity"":4,""confidence"":1}","[0,1]","../img/tt/1024tt.jpg","",""
"10677.754999999655","","","recognition","survey-text","338","1568961","0.0-6.0-3.47","3452689","co37864","norming","","","{""guess"":""zittende persoon""}","","../img/tt/1024tt.jpg","",""
"null","../img/gs/1024gs.jpg","null","reveal","image-keyboard-response","339","1570967","0.0-6.0-4.47","3452689","co37864","norming","","","","","","",""
"null","../img/tt/1024tt.jpg","null","mooney2","image-keyboard-response","340","1572968","0.0-6.0-5.47","3452689","co37864","norming","","","","","","",""
"2966.434999999823","","","post_reveal_questions","survey-likert","341","1575937","0.0-6.0-6.47","3452689","co37864","norming","","","{""aha"":6}","[0]","../img/tt/1024tt.jpg","",""
"null","<div style=""font-size:60px;""> </div>","null","fixation","html-keyboard-response","342","1576142","0.0-6.0-0.48","3452689","co37864","norming","","","","","","",""
"null","../img/tt/1278tt.jpg","null","mooney1","image-keyboard-response","343","1579153","0.0-6.0-1.48","3452689","co37864","norming","","","","","","",""
"7565.9550000000745","","","post_mooney1_questions","survey-likert","344","1586722","0.0-6.0-2.48","3452689","co37864","norming","","","{""curiosity"":5,""confidence"":0}","[0,1]","../img/tt/1278tt.jpg","",""
"10894.085000000428","","","recognition","survey-text","345","1597618","0.0-6.0-3.48","3452689","co37864","norming","","","{""guess"":""""}","","../img/tt/1278tt.jpg","",""
"null","../img/gs/1278gs.jpg","null","reveal","image-keyboard-response","346","1599623","0.0-6.0-4.48","3452689","co37864","norming","","","","","","",""
"null","../img/tt/1278tt.jpg","null","mooney2","image-keyboard-response","347","1601626","0.0-6.0-5.48","3452689","co37864","norming","","","","","","",""
"2245.2000000001863","","","post_reveal_questions","survey-likert","348","1603873","0.0-6.0-6.48","3452689","co37864","norming","","","{""aha"":6}","[0]","../img/tt/1278tt.jpg","",""
"null","<div style=""font-size:60px;""> </div>","null","fixation","html-keyboard-response","349","1604076","0.0-6.0-0.49","3452689","co37864","norming","","","","","","",""
"null","../img/tt/013tt.jpg","null","mooney1","image-keyboard-response","350","1607086","0.0-6.0-1.49","3452689","co37864","norming","","","","","","",""
"9639.63500000001","","","post_mooney1_questions","survey-likert","351","1616733","0.0-6.0-2.49","3452689","co37864","norming","","","{""curiosity"":4,""confidence"":3}","[0,1]","../img/tt/013tt.jpg","",""
"5014.1349999997765","","","recognition","survey-text","352","1621748","0.0-6.0-3.49","3452689","co37864","norming","","","{""guess"":""paard ""}","","../img/tt/013tt.jpg","",""
"null","../img/gs/013gs.jpg","null","reveal","image-keyboard-response","353","1623751","0.0-6.0-4.49","3452689","co37864","norming","","","","","","",""
"null","../img/tt/013tt.jpg","null","mooney2","image-keyboard-response","354","1625753","0.0-6.0-5.49","3452689","co37864","norming","","","","","","",""
"3258.5500000000466","","","post_reveal_questions","survey-likert","355","1629012","0.0-6.0-6.49","3452689","co37864","norming","","","{""aha"":5}","[0]","../img/tt/013tt.jpg","",""
"null","<div style=""font-size:60px;""> </div>","null","fixation","html-keyboard-response","356","1629215","0.0-6.0-0.50","3452689","co37864","norming","","","","","","",""
"null","../img/tt/301tt.jpg","null","mooney1","image-keyboard-response","357","1632218","0.0-6.0-1.50","3452689","co37864","norming","","","","","","",""
"18336.02500000014","","","post_mooney1_questions","survey-likert","358","1650557","0.0-6.0-2.50","3452689","co37864","norming","","","{""curiosity"":5,""confidence"":2}","[0,1]","../img/tt/301tt.jpg","",""
"13269.900000000373","","","recognition","survey-text","359","1663828","0.0-6.0-3.50","3452689","co37864","norming","","","{""guess"":""revolver""}","","../img/tt/301tt.jpg","",""
"null","../img/gs/301gs.jpg","null","reveal","image-keyboard-response","360","1665835","0.0-6.0-4.50","3452689","co37864","norming","","","","","","",""
"null","../img/tt/301tt.jpg","null","mooney2","image-keyboard-response","361","1667839","0.0-6.0-5.50","3452689","co37864","norming","","","","","","",""
"2514.269999999553","","","post_reveal_questions","survey-likert","362","1670356","0.0-6.0-6.50","3452689","co37864","norming","","","{""aha"":6}","[0]","../img/tt/301tt.jpg","",""
"null","<div style=""font-size:60px;""> </div>","null","fixation","html-keyboard-response","363","1670566","0.0-6.0-0.51","3452689","co37864","norming","","","","","","",""
"null","../img/tt/1161tt.jpg","null","mooney1","image-keyboard-response","364","1673575","0.0-6.0-1.51","3452689","co37864","norming","","","","","","",""
"7437.684999999823","","","post_mooney1_questions","survey-likert","365","1681016","0.0-6.0-2.51","3452689","co37864","norming","","","{""curiosity"":4,""confidence"":2}","[0,1]","../img/tt/1161tt.jpg","",""
"11086.015000000363","","","recognition","survey-text","366","1692103","0.0-6.0-3.51","3452689","co37864","norming","","","{""guess"":""mens""}","","../img/tt/1161tt.jpg","",""
"null","../img/gs/1161gs.jpg","null","reveal","image-keyboard-response","367","1694112","0.0-6.0-4.51","3452689","co37864","norming","","","","","","",""
"null","../img/tt/1161tt.jpg","null","mooney2","image-keyboard-response","368","1696115","0.0-6.0-5.51","3452689","co37864","norming","","","","","","",""
"5969.5099999997765","","","post_reveal_questions","survey-likert","369","1702087","0.0-6.0-6.51","3452689","co37864","norming","","","{""aha"":4}","[0]","../img/tt/1161tt.jpg","",""
"null","<div style=""font-size:60px;""> </div>","null","fixation","html-keyboard-response","370","1702291","0.0-6.0-0.52","3452689","co37864","norming","","","","","","",""
"null","../img/tt/353tt.jpg","null","mooney1","image-keyboard-response","371","1705304","0.0-6.0-1.52","3452689","co37864","norming","","","","","","",""
"8828.635000000242","","","post_mooney1_questions","survey-likert","372","1714136","0.0-6.0-2.52","3452689","co37864","norming","","","{""curiosity"":5,""confidence"":1}","[0,1]","../img/tt/353tt.jpg","",""
"1790.0700000000652","","","recognition","survey-text","373","1715927","0.0-6.0-3.52","3452689","co37864","norming","","","{""guess"":""tent""}","","../img/tt/353tt.jpg","",""
"null","../img/gs/353gs.jpg","null","reveal","image-keyboard-response","374","1717934","0.0-6.0-4.52","3452689","co37864","norming","","","","","","",""
"null","../img/tt/353tt.jpg","null","mooney2","image-keyboard-response","375","1719940","0.0-6.0-5.52","3452689","co37864","norming","","","","","","",""
"2064.659999999916","","","post_reveal_questions","survey-likert","376","1722007","0.0-6.0-6.52","3452689","co37864","norming","","","{""aha"":6}","[0]","../img/tt/353tt.jpg","",""
"null","<div style=""font-size:60px;""> </div>","null","fixation","html-keyboard-response","377","1722209","0.0-6.0-0.53","3452689","co37864","norming","","","","","","",""
"null","../img/tt/1048tt.jpg","null","mooney1","image-keyboard-response","378","1725220","0.0-6.0-1.53","3452689","co37864","norming","","","","","","",""
"9193.664999999804","","","post_mooney1_questions","survey-likert","379","1734416","0.0-6.0-2.53","3452689","co37864","norming","","","{""curiosity"":4,""confidence"":2}","[0,1]","../img/tt/1048tt.jpg","",""
"15574.085000000196","","","recognition","survey-text","380","1749992","0.0-6.0-3.53","3452689","co37864","norming","","","{""guess"":""etend dier""}","","../img/tt/1048tt.jpg","",""
"null","../img/gs/1048gs.jpg","null","reveal","image-keyboard-response","381","1751993","0.0-6.0-4.53","3452689","co37864","norming","","","","","","",""
"null","../img/tt/1048tt.jpg","null","mooney2","image-keyboard-response","382","1753995","0.0-6.0-5.53","3452689","co37864","norming","","","","","","",""
"2785.4799999999814","","","post_reveal_questions","survey-likert","383","1756783","0.0-6.0-6.53","3452689","co37864","norming","","","{""aha"":6}","[0]","../img/tt/1048tt.jpg","",""
"null","<div style=""font-size:60px;""> </div>","null","fixation","html-keyboard-response","384","1756992","0.0-6.0-0.54","3452689","co37864","norming","","","","","","",""
"null","../img/tt/078tt.jpg","null","mooney1","image-keyboard-response","385","1760003","0.0-6.0-1.54","3452689","co37864","norming","","","","","","",""
"7801.570000000065","","","post_mooney1_questions","survey-likert","386","1767808","0.0-6.0-2.54","3452689","co37864","norming","","","{""curiosity"":4,""confidence"":1}","[0,1]","../img/tt/078tt.jpg","",""
"2565.5550000001676","","","recognition","survey-text","387","1770376","0.0-6.0-3.54","3452689","co37864","norming","","","{""guess"":""druif""}","","../img/tt/078tt.jpg","",""
"null","../img/gs/078gs.jpg","null","reveal","image-keyboard-response","388","1772384","0.0-6.0-4.54","3452689","co37864","norming","","","","","","",""
"null","../img/tt/078tt.jpg","null","mooney2","image-keyboard-response","389","1774389","0.0-6.0-5.54","3452689","co37864","norming","","","","","","",""
"6119.854999999981","","","post_reveal_questions","survey-likert","390","1780511","0.0-6.0-6.54","3452689","co37864","norming","","","{""aha"":1}","[0]","../img/tt/078tt.jpg","",""
"null","<div style=""font-size:60px;""> </div>","null","fixation","html-keyboard-response","391","1780721","0.0-6.0-0.55","3452689","co37864","norming","","","","","","",""
"null","../img/tt/1363tt.jpg","null","mooney1","image-keyboard-response","392","1783724","0.0-6.0-1.55","3452689","co37864","norming","","","","","","",""
"10232.570000000065","","","post_mooney1_questions","survey-likert","393","1793960","0.0-6.0-2.55","3452689","co37864","norming","","","{""curiosity"":3,""confidence"":3}","[0,1]","../img/tt/1363tt.jpg","",""
"1726.054999999702","","","recognition","survey-text","394","1795683","0.0-6.0-3.55","3452689","co37864","norming","","","{""guess"":""eten""}","","../img/tt/1363tt.jpg","",""
"null","../img/gs/1363gs.jpg","null","reveal","image-keyboard-response","395","1797692","0.0-6.0-4.55","3452689","co37864","norming","","","","","","",""
"null","../img/tt/1363tt.jpg","null","mooney2","image-keyboard-response","396","1799695","0.0-6.0-5.55","3452689","co37864","norming","","","","","","",""
"6073.419999999693","","","post_reveal_questions","survey-likert","397","1805771","0.0-6.0-6.55","3452689","co37864","norming","","","{""aha"":1}","[0]","../img/tt/1363tt.jpg","",""
"null","<div style=""font-size:60px;""> </div>","null","fixation","html-keyboard-response","398","1805979","0.0-6.0-0.56","3452689","co37864","norming","","","","","","",""
"null","../img/tt/1066tt.jpg","null","mooney1","image-keyboard-response","399","1808991","0.0-6.0-1.56","3452689","co37864","norming","","","","","","",""
"7839.975000000326","","","post_mooney1_questions","survey-likert","400","1816835","0.0-6.0-2.56","3452689","co37864","norming","","","{""curiosity"":3,""confidence"":4}","[0,1]","../img/tt/1066tt.jpg","",""
"5838.130000000121","","","recognition","survey-text","401","1822675","0.0-6.0-3.56","3452689","co37864","norming","","","{""guess"":""aanhangwagen""}","","../img/tt/1066tt.jpg","",""
"null","../img/gs/1066gs.jpg","null","reveal","image-keyboard-response","402","1824679","0.0-6.0-4.56","3452689","co37864","norming","","","","","","",""
"null","../img/tt/1066tt.jpg","null","mooney2","image-keyboard-response","403","1826681","0.0-6.0-5.56","3452689","co37864","norming","","","","","","",""
"2222.4149999998044","","","post_reveal_questions","survey-likert","404","1828906","0.0-6.0-6.56","3452689","co37864","norming","","","{""aha"":6}","[0]","../img/tt/1066tt.jpg","",""
"null","<div style=""font-size:60px;""> </div>","null","fixation","html-keyboard-response","405","1829117","0.0-6.0-0.57","3452689","co37864","norming","","","","","","",""
"null","../img/tt/1181tt.jpg","null","mooney1","image-keyboard-response","406","1832121","0.0-6.0-1.57","3452689","co37864","norming","","","","","","",""
"10238.565000000177","","","post_mooney1_questions","survey-likert","407","1842363","0.0-6.0-2.57","3452689","co37864","norming","","","{""curiosity"":4,""confidence"":4}","[0,1]","../img/tt/1181tt.jpg","",""
"4166.245000000345","","","recognition","survey-text","408","1846531","0.0-6.0-3.57","3452689","co37864","norming","","","{""guess"":""mens dier""}","","../img/tt/1181tt.jpg","",""
"null","../img/gs/1181gs.jpg","null","reveal","image-keyboard-response","409","1848532","0.0-6.0-4.57","3452689","co37864","norming","","","","","","",""
"null","../img/tt/1181tt.jpg","null","mooney2","image-keyboard-response","410","1850535","0.0-6.0-5.57","3452689","co37864","norming","","","","","","",""
"4560.495000000345","","","post_reveal_questions","survey-likert","411","1855103","0.0-6.0-6.57","3452689","co37864","norming","","","{""aha"":4}","[0]","../img/tt/1181tt.jpg","",""
"null","<div style=""font-size:60px;""> </div>","null","fixation","html-keyboard-response","412","1855314","0.0-6.0-0.58","3452689","co37864","norming","","","","","","",""
"null","../img/tt/1006tt.jpg","null","mooney1","image-keyboard-response","413","1858327","0.0-6.0-1.58","3452689","co37864","norming","","","","","","",""
"9453.434999999823","","","post_mooney1_questions","survey-likert","414","1867784","0.0-6.0-2.58","3452689","co37864","norming","","","{""curiosity"":2,""confidence"":5}","[0,1]","../img/tt/1006tt.jpg","",""
"2413.8549999997485","","","recognition","survey-text","415","1870200","0.0-6.0-3.58","3452689","co37864","norming","","","{""guess"":""schaap""}","","../img/tt/1006tt.jpg","",""
"null","../img/gs/1006gs.jpg","null","reveal","image-keyboard-response","416","1872207","0.0-6.0-4.58","3452689","co37864","norming","","","","","","",""
"null","../img/tt/1006tt.jpg","null","mooney2","image-keyboard-response","417","1874210","0.0-6.0-5.58","3452689","co37864","norming","","","","","","",""
"8803.25","","","post_reveal_questions","survey-likert","418","1883015","0.0-6.0-6.58","3452689","co37864","norming","","","{""aha"":0}","[0]","../img/tt/1006tt.jpg","",""
"null","<div style=""font-size:60px;""> </div>","null","fixation","html-keyboard-response","419","1883220","0.0-6.0-0.59","3452689","co37864","norming","","","","","","",""
"null","../img/tt/1237tt.jpg","null","mooney1","image-keyboard-response","420","1886224","0.0-6.0-1.59","3452689","co37864","norming","","","","","","",""
"6676.164999999804","","","post_mooney1_questions","survey-likert","421","1892904","0.0-6.0-2.59","3452689","co37864","norming","","","{""curiosity"":5,""confidence"":0}","[0,1]","../img/tt/1237tt.jpg","",""
"5245.739999999758","","","recognition","survey-text","422","1898151","0.0-6.0-3.59","3452689","co37864","norming","","","{""guess"":""op water""}","","../img/tt/1237tt.jpg","",""
"null","../img/gs/1237gs.jpg","null","reveal","image-keyboard-response","423","1900159","0.0-6.0-4.59","3452689","co37864","norming","","","","","","",""
"null","../img/tt/1237tt.jpg","null","mooney2","image-keyboard-response","424","1902160","0.0-6.0-5.59","3452689","co37864","norming","","","","","","",""
"2596.935000000056","","","post_reveal_questions","survey-likert","425","1904760","0.0-6.0-6.59","3452689","co37864","norming","","","{""aha"":5}","[0]","../img/tt/1237tt.jpg","",""
"null","<div style=""font-size:60px;""> </div>","null","fixation","html-keyboard-response","426","1904963","0.0-6.0-0.60","3452689","co37864","norming","","","","","","",""
"null","../img/tt/1130tt.jpg","null","mooney1","image-keyboard-response","427","1907974","0.0-6.0-1.60","3452689","co37864","norming","","","","","","",""
"7966.2400000002235","","","post_mooney1_questions","survey-likert","428","1915943","0.0-6.0-2.60","3452689","co37864","norming","","","{""curiosity"":4,""confidence"":2}","[0,1]","../img/tt/1130tt.jpg","",""
"9710.270000000019","","","recognition","survey-text","429","1925655","0.0-6.0-3.60","3452689","co37864","norming","","","{""guess"":""sportbeoefenaar""}","","../img/tt/1130tt.jpg","",""
"null","../img/gs/1130gs.jpg","null","reveal","image-keyboard-response","430","1927664","0.0-6.0-4.60","3452689","co37864","norming","","","","","","",""
"null","../img/tt/1130tt.jpg","null","mooney2","image-keyboard-response","431","1929666","0.0-6.0-5.60","3452689","co37864","norming","","","","","","",""
"3562.0550000001676","","","post_reveal_questions","survey-likert","432","1933231","0.0-6.0-6.60","3452689","co37864","norming","","","{""aha"":2}","[0]","../img/tt/1130tt.jpg","",""
"null","<div style=""font-size:60px;""> </div>","null","fixation","html-keyboard-response","433","1933441","0.0-6.0-0.61","3452689","co37864","norming","","","","","","",""
"null","../img/tt/438tt.jpg","null","mooney1","image-keyboard-response","434","1936444","0.0-6.0-1.61","3452689","co37864","norming","","","","","","",""
"3967.869999999879","","","post_mooney1_questions","survey-likert","435","1940415","0.0-6.0-2.61","3452689","co37864","norming","","","{""curiosity"":4,""confidence"":3}","[0,1]","../img/tt/438tt.jpg","",""
"4518.059999999823","","","recognition","survey-text","436","1944935","0.0-6.0-3.61","3452689","co37864","norming","","","{""guess"":""vogel""}","","../img/tt/438tt.jpg","",""
"null","../img/gs/438gs.jpg","null","reveal","image-keyboard-response","437","1946945","0.0-6.0-4.61","3452689","co37864","norming","","","","","","",""
"null","../img/tt/438tt.jpg","null","mooney2","image-keyboard-response","438","1948952","0.0-6.0-5.61","3452689","co37864","norming","","","","","","",""
"3092.3600000001024","","","post_reveal_questions","survey-likert","439","1952047","0.0-6.0-6.61","3452689","co37864","norming","","","{""aha"":5}","[0]","../img/tt/438tt.jpg","",""
"null","<div style=""font-size:60px;""> </div>","null","fixation","html-keyboard-response","440","1952249","0.0-6.0-0.62","3452689","co37864","norming","","","","","","",""
"null","../img/tt/552tt.jpg","null","mooney1","image-keyboard-response","441","1955257","0.0-6.0-1.62","3452689","co37864","norming","","","","","","",""
"4811.165000000037","","","post_mooney1_questions","survey-likert","442","1960071","0.0-6.0-2.62","3452689","co37864","norming","","","{""curiosity"":2,""confidence"":5}","[0,1]","../img/tt/552tt.jpg","",""
"3117.7750000001397","","","recognition","survey-text","443","1963191","0.0-6.0-3.62","3452689","co37864","norming","","","{""guess"":""stinkdier""}","","../img/tt/552tt.jpg","",""
"null","../img/gs/552gs.jpg","null","reveal","image-keyboard-response","444","1965194","0.0-6.0-4.62","3452689","co37864","norming","","","","","","",""
"null","../img/tt/552tt.jpg","null","mooney2","image-keyboard-response","445","1967197","0.0-6.0-5.62","3452689","co37864","norming","","","","","","",""
"1616.7549999998882","","","post_reveal_questions","survey-likert","446","1968815","0.0-6.0-6.62","3452689","co37864","norming","","","{""aha"":0}","[0]","../img/tt/552tt.jpg","",""
"null","<div style=""font-size:60px;""> </div>","null","fixation","html-keyboard-response","447","1969023","0.0-6.0-0.63","3452689","co37864","norming","","","","","","",""
"null","../img/tt/380tt.jpg","null","mooney1","image-keyboard-response","448","1972029","0.0-6.0-1.63","3452689","co37864","norming","","","","","","",""
"5150.6699999999255","","","post_mooney1_questions","survey-likert","449","1977179","0.0-6.0-2.63","3452689","co37864","norming","","","{""curiosity"":4,""confidence"":2}","[0,1]","../img/tt/380tt.jpg","",""
"1765.9799999999814","","","recognition","survey-text","450","1978947","0.0-6.0-3.63","3452689","co37864","norming","","","{""guess"":""dier""}","","../img/tt/380tt.jpg","",""
"null","../img/gs/380gs.jpg","null","reveal","image-keyboard-response","451","1980953","0.0-6.0-4.63","3452689","co37864","norming","","","","","","",""
"null","../img/tt/380tt.jpg","null","mooney2","image-keyboard-response","452","1982962","0.0-6.0-5.63","3452689","co37864","norming","","","","","","",""
"3741.9899999999907","","","post_reveal_questions","survey-likert","453","1986707","0.0-6.0-6.63","3452689","co37864","norming","","","{""aha"":6}","[0]","../img/tt/380tt.jpg","",""
"null","<div style=""font-size:60px;""> </div>","null","fixation","html-keyboard-response","454","1986909","0.0-6.0-0.64","3452689","co37864","norming","","","","","","",""
"null","../img/tt/081tt.jpg","null","mooney1","image-keyboard-response","455","1989916","0.0-6.0-1.64","3452689","co37864","norming","","","","","","",""
"3995.9499999999534","","","post_mooney1_questions","survey-likert","456","1993915","0.0-6.0-2.64","3452689","co37864","norming","","","{""curiosity"":4,""confidence"":3}","[0,1]","../img/tt/081tt.jpg","",""
"5126.0200000002515","","","recognition","survey-text","457","1999043","0.0-6.0-3.64","3452689","co37864","norming","","","{""guess"":""slang""}","","../img/tt/081tt.jpg","",""
"null","../img/gs/081gs.jpg","null","reveal","image-keyboard-response","458","2001044","0.0-6.0-4.64","3452689","co37864","norming","","","","","","",""
"null","../img/tt/081tt.jpg","null","mooney2","image-keyboard-response","459","2003046","0.0-6.0-5.64","3452689","co37864","norming","","","","","","",""
"3322.1450000000186","","","post_reveal_questions","survey-likert","460","2006371","0.0-6.0-6.64","3452689","co37864","norming","","","{""aha"":5}","[0]","../img/tt/081tt.jpg","",""
"null","<div style=""font-size:60px;""> </div>","null","fixation","html-keyboard-response","461","2006577","0.0-6.0-0.65","3452689","co37864","norming","","","","","","",""
"null","../img/tt/108tt.jpg","null","mooney1","image-keyboard-response","462","2009583","0.0-6.0-1.65","3452689","co37864","norming","","","","","","",""
"7672.465000000084","","","post_mooney1_questions","survey-likert","463","2017259","0.0-6.0-2.65","3452689","co37864","norming","","","{""curiosity"":4,""confidence"":3}","[0,1]","../img/tt/108tt.jpg","",""
"1350.5800000003073","","","recognition","survey-text","464","2018611","0.0-6.0-3.65","3452689","co37864","norming","","","{""guess"":""beer""}","","../img/tt/108tt.jpg","",""
"null","../img/gs/108gs.jpg","null","reveal","image-keyboard-response","465","2020614","0.0-6.0-4.65","3452689","co37864","norming","","","","","","",""
"null","../img/tt/108tt.jpg","null","mooney2","image-keyboard-response","466","2022616","0.0-6.0-5.65","3452689","co37864","norming","","","","","","",""
"3703.654999999795","","","post_reveal_questions","survey-likert","467","2026323","0.0-6.0-6.65","3452689","co37864","norming","","","{""aha"":5}","[0]","../img/tt/108tt.jpg","",""
"null","<div style=""font-size:60px;""> </div>","null","fixation","html-keyboard-response","468","2026529","0.0-6.0-0.66","3452689","co37864","norming","","","","","","",""
"null","../img/tt/1234tt.jpg","null","mooney1","image-keyboard-response","469","2029537","0.0-6.0-1.66","3452689","co37864","norming","","","","","","",""
"5295.799999999814","","","post_mooney1_questions","survey-likert","470","2034835","0.0-6.0-2.66","3452689","co37864","norming","","","{""curiosity"":5,""confidence"":2}","[0,1]","../img/tt/1234tt.jpg","",""
"1678.3299999998417","","","recognition","survey-text","471","2036513","0.0-6.0-3.66","3452689","co37864","norming","","","{""guess"":""boot""}","","../img/tt/1234tt.jpg","",""
"null","../img/gs/1234gs.jpg","null","reveal","image-keyboard-response","472","2038516","0.0-6.0-4.66","3452689","co37864","norming","","","","","","",""
"null","../img/tt/1234tt.jpg","null","mooney2","image-keyboard-response","473","2040519","0.0-6.0-5.66","3452689","co37864","norming","","","","","","",""
"2870.284999999916","","","post_reveal_questions","survey-likert","474","2043393","0.0-6.0-6.66","3452689","co37864","norming","","","{""aha"":5}","[0]","../img/tt/1234tt.jpg","",""
"null","<div style=""font-size:60px;""> </div>","null","fixation","html-keyboard-response","475","2043601","0.0-6.0-0.67","3452689","co37864","norming","","","","","","",""
"null","../img/tt/456tt.jpg","null","mooney1","image-keyboard-response","476","2046606","0.0-6.0-1.67","3452689","co37864","norming","","","","","","",""
"8703.219999999972","","","post_mooney1_questions","survey-likert","477","2055313","0.0-6.0-2.67","3452689","co37864","norming","","","{""curiosity"":4,""confidence"":3}","[0,1]","../img/tt/456tt.jpg","",""
"3341.965000000084","","","recognition","survey-text","478","2058657","0.0-6.0-3.67","3452689","co37864","norming","","","{""guess"":""liggend dier""}","","../img/tt/456tt.jpg","",""
"null","../img/gs/456gs.jpg","null","reveal","image-keyboard-response","479","2060663","0.0-6.0-4.67","3452689","co37864","norming","","","","","","",""
"null","../img/tt/456tt.jpg","null","mooney2","image-keyboard-response","480","2062669","0.0-6.0-5.67","3452689","co37864","norming","","","","","","",""
"5480.805000000168","","","post_reveal_questions","survey-likert","481","2068153","0.0-6.0-6.67","3452689","co37864","norming","","","{""aha"":4}","[0]","../img/tt/456tt.jpg","",""
"null","<div style=""font-size:60px;""> </div>","null","fixation","html-keyboard-response","482","2068357","0.0-6.0-0.68","3452689","co37864","norming","","","","","","",""
"null","../img/tt/1053tt.jpg","null","mooney1","image-keyboard-response","483","2071367","0.0-6.0-1.68","3452689","co37864","norming","","","","","","",""
"5822.310000000056","","","post_mooney1_questions","survey-likert","484","2077193","0.0-6.0-2.68","3452689","co37864","norming","","","{""curiosity"":2,""confidence"":4}","[0,1]","../img/tt/1053tt.jpg","",""
"1653.8700000001118","","","recognition","survey-text","485","2078848","0.0-6.0-3.68","3452689","co37864","norming","","","{""guess"":""koe""}","","../img/tt/1053tt.jpg","",""
"null","../img/gs/1053gs.jpg","null","reveal","image-keyboard-response","486","2080855","0.0-6.0-4.68","3452689","co37864","norming","","","","","","",""
"null","../img/tt/1053tt.jpg","null","mooney2","image-keyboard-response","487","2082862","0.0-6.0-5.68","3452689","co37864","norming","","","","","","",""
"6553.175000000047","","","post_reveal_questions","survey-likert","488","2089417","0.0-6.0-6.68","3452689","co37864","norming","","","{""aha"":0}","[0]","../img/tt/1053tt.jpg","",""
"null","<div style=""font-size:60px;""> </div>","null","fixation","html-keyboard-response","489","2089625","0.0-6.0-0.69","3452689","co37864","norming","","","","","","",""
"null","../img/tt/1102tt.jpg","null","mooney1","image-keyboard-response","490","2092629","0.0-6.0-1.69","3452689","co37864","norming","","","","","","",""
"8216.814999999944","","","post_mooney1_questions","survey-likert","491","2100856","0.0-6.0-2.69","3452689","co37864","norming","","","{""curiosity"":4,""confidence"":1}","[0,1]","../img/tt/1102tt.jpg","",""
"3677.8199999998324","","","recognition","survey-text","492","2104535","0.0-6.0-3.69","3452689","co37864","norming","","","{""guess"":""hangmat""}","","../img/tt/1102tt.jpg","",""
"null","../img/gs/1102gs.jpg","null","reveal","image-keyboard-response","493","2106545","0.0-6.0-4.69","3452689","co37864","norming","","","","","","",""
"null","../img/tt/1102tt.jpg","null","mooney2","image-keyboard-response","494","2108548","0.0-6.0-5.69","3452689","co37864","norming","","","","","","",""
"3130.209999999497","","","post_reveal_questions","survey-likert","495","2111687","0.0-6.0-6.69","3452689","co37864","norming","","","{""aha"":6}","[0]","../img/tt/1102tt.jpg","",""
"null","<div style=""font-size:60px;""> </div>","null","fixation","html-keyboard-response","496","2111893","0.0-6.0-0.70","3452689","co37864","norming","","","","","","",""
"null","../img/tt/598tt.jpg","null","mooney1","image-keyboard-response","497","2114897","0.0-6.0-1.70","3452689","co37864","norming","","","","","","",""
"8692.919999999925","","","post_mooney1_questions","survey-likert","498","2123592","0.0-6.0-2.70","3452689","co37864","norming","","","{""curiosity"":5,""confidence"":2}","[0,1]","../img/tt/598tt.jpg","",""
"10446.024999999907","","","recognition","survey-text","499","2134039","0.0-6.0-3.70","3452689","co37864","norming","","","{""guess"":""tak dier""}","","../img/tt/598tt.jpg","",""
"null","../img/gs/598gs.jpg","null","reveal","image-keyboard-response","500","2136045","0.0-6.0-4.70","3452689","co37864","norming","","","","","","",""
"null","../img/tt/598tt.jpg","null","mooney2","image-keyboard-response","501","2138049","0.0-6.0-5.70","3452689","co37864","norming","","","","","","",""
"1644.3200000007637","","","post_reveal_questions","survey-likert","502","2139695","0.0-6.0-6.70","3452689","co37864","norming","","","{""aha"":6}","[0]","../img/tt/598tt.jpg","",""
"null","<div style=""font-size:60px;""> </div>","null","fixation","html-keyboard-response","503","2139905","0.0-6.0-0.71","3452689","co37864","norming","","","","","","",""
"null","../img/tt/1232tt.jpg","null","mooney1","image-keyboard-response","504","2142912","0.0-6.0-1.71","3452689","co37864","norming","","","","","","",""
"10534.195000000298","","","post_mooney1_questions","survey-likert","505","2153448","0.0-6.0-2.71","3452689","co37864","norming","","","{""curiosity"":5,""confidence"":0}","[0,1]","../img/tt/1232tt.jpg","",""
"2638.1949999998324","","","recognition","survey-text","506","2156087","0.0-6.0-3.71","3452689","co37864","norming","","","{""guess"":""""}","","../img/tt/1232tt.jpg","",""
"null","../img/gs/1232gs.jpg","null","reveal","image-keyboard-response","507","2158092","0.0-6.0-4.71","3452689","co37864","norming","","","","","","",""
"null","../img/tt/1232tt.jpg","null","mooney2","image-keyboard-response","508","2160102","0.0-6.0-5.71","3452689","co37864","norming","","","","","","",""
"2758.739999999758","","","post_reveal_questions","survey-likert","509","2162863","0.0-6.0-6.71","3452689","co37864","norming","","","{""aha"":6}","[0]","../img/tt/1232tt.jpg","",""
"null","<div style=""font-size:60px;""> </div>","null","fixation","html-keyboard-response","510","2163066","0.0-6.0-0.72","3452689","co37864","norming","","","","","","",""
"null","../img/tt/001tt.jpg","null","mooney1","image-keyboard-response","511","2166079","0.0-6.0-1.72","3452689","co37864","norming","","","","","","",""
"4692.570000000298","","","post_mooney1_questions","survey-likert","512","2170775","0.0-6.0-2.72","3452689","co37864","norming","","","{""curiosity"":4,""confidence"":4}","[0,1]","../img/tt/001tt.jpg","",""
"2494.0550000001676","","","recognition","survey-text","513","2173271","0.0-6.0-3.72","3452689","co37864","norming","","","{""guess"":""vogel""}","","../img/tt/001tt.jpg","",""
"null","../img/gs/001gs.jpg","null","reveal","image-keyboard-response","514","2175278","0.0-6.0-4.72","3452689","co37864","norming","","","","","","",""
"null","../img/tt/001tt.jpg","null","mooney2","image-keyboard-response","515","2177287","0.0-6.0-5.72","3452689","co37864","norming","","","","","","",""
"1837.2549999998882","","","post_reveal_questions","survey-likert","516","2179127","0.0-6.0-6.72","3452689","co37864","norming","","","{""aha"":0}","[0]","../img/tt/001tt.jpg","",""
"null","<div style=""font-size:60px;""> </div>","null","fixation","html-keyboard-response","517","2179329","0.0-6.0-0.73","3452689","co37864","norming","","","","","","",""
"null","../img/tt/1242tt.jpg","null","mooney1","image-keyboard-response","518","2182340","0.0-6.0-1.73","3452689","co37864","norming","","","","","","",""
"10304.345000000205","","","post_mooney1_questions","survey-likert","519","2192647","0.0-6.0-2.73","3452689","co37864","norming","","","{""curiosity"":1,""confidence"":6}","[0,1]","../img/tt/1242tt.jpg","",""
"1038","","","recognition","survey-text","520","2193687","0.0-6.0-3.73","3452689","co37864","norming","","","{""guess"":""vos""}","","../img/tt/1242tt.jpg","",""
"null","../img/gs/1242gs.jpg","null","reveal","image-keyboard-response","521","2195689","0.0-6.0-4.73","3452689","co37864","norming","","","","","","",""
"null","../img/tt/1242tt.jpg","null","mooney2","image-keyboard-response","522","2197697","0.0-6.0-5.73","3452689","co37864","norming","","","","","","",""
"2851.975000000093","","","post_reveal_questions","survey-likert","523","2200551","0.0-6.0-6.73","3452689","co37864","norming","","","{""aha"":0}","[0]","../img/tt/1242tt.jpg","",""
"null","<div style=""font-size:60px;""> </div>","null","fixation","html-keyboard-response","524","2200756","0.0-6.0-0.74","3452689","co37864","norming","","","","","","",""
"null","../img/tt/105tt.jpg","null","mooney1","image-keyboard-response","525","2203759","0.0-6.0-1.74","3452689","co37864","norming","","","","","","",""
"4213.555000000168","","","post_mooney1_questions","survey-likert","526","2207975","0.0-6.0-2.74","3452689","co37864","norming","","","{""curiosity"":5,""confidence"":0}","[0,1]","../img/tt/105tt.jpg","",""
"446.0449999999255","","","recognition","survey-text","527","2208423","0.0-6.0-3.74","3452689","co37864","norming","","","{""guess"":""""}","","../img/tt/105tt.jpg","",""
"null","../img/gs/105gs.jpg","null","reveal","image-keyboard-response","528","2210432","0.0-6.0-4.74","3452689","co37864","norming","","","","","","",""
"null","../img/tt/105tt.jpg","null","mooney2","image-keyboard-response","529","2212441","0.0-6.0-5.74","3452689","co37864","norming","","","","","","",""
"3547.1150000002235","","","post_reveal_questions","survey-likert","530","2215991","0.0-6.0-6.74","3452689","co37864","norming","","","{""aha"":6}","[0]","../img/tt/105tt.jpg","",""
"null","<div style=""font-size:60px;""> </div>","null","fixation","html-keyboard-response","531","2216197","0.0-6.0-0.75","3452689","co37864","norming","","","","","","",""
"null","../img/tt/1063tt.jpg","null","mooney1","image-keyboard-response","532","2219203","0.0-6.0-1.75","3452689","co37864","norming","","","","","","",""
"4514.250000000466","","","post_mooney1_questions","survey-likert","533","2223720","0.0-6.0-2.75","3452689","co37864","norming","","","{""curiosity"":4,""confidence"":4}","[0,1]","../img/tt/1063tt.jpg","",""
"5741.714999999851","","","recognition","survey-text","534","2229464","0.0-6.0-3.75","3452689","co37864","norming","","","{""guess"":""weidier""}","","../img/tt/1063tt.jpg","",""
"null","../img/gs/1063gs.jpg","null","reveal","image-keyboard-response","535","2231465","0.0-6.0-4.75","3452689","co37864","norming","","","","","","",""
"null","../img/tt/1063tt.jpg","null","mooney2","image-keyboard-response","536","2233477","0.0-6.0-5.75","3452689","co37864","norming","","","","","","",""
"2920.489999999758","","","post_reveal_questions","survey-likert","537","2236400","0.0-6.0-6.75","3452689","co37864","norming","","","{""aha"":4}","[0]","../img/tt/1063tt.jpg","",""
"null","<div style=""font-size:60px;""> </div>","null","fixation","html-keyboard-response","538","2236609","0.0-6.0-0.76","3452689","co37864","norming","","","","","","",""
"null","../img/tt/1235tt.jpg","null","mooney1","image-keyboard-response","539","2239617","0.0-6.0-1.76","3452689","co37864","norming","","","","","","",""
"7707.14000000013","","","post_mooney1_questions","survey-likert","540","2247328","0.0-6.0-2.76","3452689","co37864","norming","","","{""curiosity"":5,""confidence"":3}","[0,1]","../img/tt/1235tt.jpg","",""
"2485.9550000000745","","","recognition","survey-text","541","2249816","0.0-6.0-3.76","3452689","co37864","norming","","","{""guess"":""dier""}","","../img/tt/1235tt.jpg","",""
"null","../img/gs/1235gs.jpg","null","reveal","image-keyboard-response","542","2251817","0.0-6.0-4.76","3452689","co37864","norming","","","","","","",""
"null","../img/tt/1235tt.jpg","null","mooney2","image-keyboard-response","543","2253828","0.0-6.0-5.76","3452689","co37864","norming","","","","","","",""
"2081.439999999944","","","post_reveal_questions","survey-likert","544","2255912","0.0-6.0-6.76","3452689","co37864","norming","","","{""aha"":6}","[0]","../img/tt/1235tt.jpg","",""
"null","<div style=""font-size:60px;""> </div>","null","fixation","html-keyboard-response","545","2256117","0.0-6.0-0.77","3452689","co37864","norming","","","","","","",""
"null","../img/tt/036tt.jpg","null","mooney1","image-keyboard-response","546","2259127","0.0-6.0-1.77","3452689","co37864","norming","","","","","","",""
"6389.2750000003725","","","post_mooney1_questions","survey-likert","547","2265520","0.0-6.0-2.77","3452689","co37864","norming","","","{""curiosity"":5,""confidence"":1}","[0,1]","../img/tt/036tt.jpg","",""
"5622.219999999739","","","recognition","survey-text","548","2271144","0.0-6.0-3.77","3452689","co37864","norming","","","{""guess"":""takken""}","","../img/tt/036tt.jpg","",""
"null","../img/gs/036gs.jpg","null","reveal","image-keyboard-response","549","2273150","0.0-6.0-4.77","3452689","co37864","norming","","","","","","",""
"null","../img/tt/036tt.jpg","null","mooney2","image-keyboard-response","550","2275154","0.0-6.0-5.77","3452689","co37864","norming","","","","","","",""
"3706.339999999851","","","post_reveal_questions","survey-likert","551","2278863","0.0-6.0-6.77","3452689","co37864","norming","","","{""aha"":6}","[0]","../img/tt/036tt.jpg","",""
