"rt","stimulus","key_press","test_part","trial_type","trial_index","time_elapsed","internal_node_id","totalTime","subject","experiment_name","button_pressed","success","responses","question_order","currentStim","old","correct"
"9976.100000000088","Welcome to the experiment. This is an online experiment so please don't close the tab/window until we say goodbye.  Press any key to begin.","32","instructions","html-keyboard-response","0","9991","0.0-0.0","2749896","co37720","norming","","","","","","",""
"19545.150000000038","<div style='word-wrap: break-word; width: 900px'><h3>Please consider this information carefully before deciding whether to participate in this research</h3><ul style='text-align: left; font-size: .8em;'><li><b>Purpose of the research</b>: To examine how people process images.</li><li><b>What you will do in this research</b>:  Stimuli (images) will be presented on the computer and you will be asked different questions about them.</li><li><b>Time required</b>: Participation will take between 45 and 60 minutes to complete.</li><li><b>Risks</b>:  There are no anticipated risks associated with participating in this study. The effects of participating should be comparable to those you would experience from viewing a computer monitor for 30 minutes and using a mouse or keyboard.</li><li><b>Benefits</b>:  This study provides no benefits to you individually except for the credit. The study provides important information about the nature of perception and learning.</li><li><b>Confidentiality</b>:  Your participation in this study will remain confidential. No personally identifiable information will be associated with your data. Your de-identified data may be shared with other researchers and used in future projects.</li><li><b>Participation and withdrawal</b>:  Your participation in this study is completely voluntary and you may refuse to participate or you may choose to withdraw at any time without penalty.</li><li><b>How to contact the researchers</b>: If you have questions or concerns about your participation or payment, or want to request a summary of research findings, please contact Sander Van de Cruys (KU Leuven), at sander.vandecruys@kuleuven.be.</li></ul><p>The nature and purpose of this research have been sufficiently explained and I agree to participate in this study.  I understand that I am free to withdraw at any time without incurring any penalty.</p><p>Please consent by clicking the button below to continue. Otherwise, please exit the study at this time.</p></div>","","instructions","html-button-response","1","29541","0.0-1.0","2749896","co37720","norming","0","","","","","",""
"","","","instructions","fullscreen","2","34561","0.0-2.0","2749896","co37720","norming","","true","","","","",""
"21000.210000000036","","","sona","survey-html-form","3","55564","0.0-3.0","2749896","co37720","norming","","","[{""name"":""sonaid"",""value"":""37720""},{""name"":""debrief"",""value"":""yes""},{""name"":""datajoin"",""value"":""yes""}]","","","",""
"103895.36500000009","<div style='word-wrap: break-word; width: 900px'><h3>Instructions</h3><p>This experiment will have 3 parts. In the first part you will see a series of distorted images like the one below on the left. As you can see in the righthand image, the distorted images are derived from actual photographs. In what follows, you will <strong>briefly</strong> be presented with <strong>only</strong> the distorted image.</p> <div style='float: left; margin-right: 20px;'><img src='../img/018tt.jpg' height='250' width='250'></img></div><div style='float: right; margin-left: 20px;'><img src='../img/018gs.jpg' height='250' width='250'></img></div><p>Subsequently you will be asked a few questions about the image: One question on how <strong>curious</strong> you are about the solution and one on how <strong>confident</strong> you are that you know the solution.</p>Next, we ask you to make a guess on what is in the image. Note that it is OK to name just the <strong>basic level category</strong>. For example when you see a parrot in the image, 'parrot' will obviously be a correct answer but also correct is 'bird'. However, 'animal' will <strong>not</strong> be counted as a correct response. For the example above, 'rose' would be correct or 'flower', but not 'plant'. When soccer players are depicted, 'soccer', 'football', 'soccer players' will be correct, but not 'humans', 'outdoors', or 'sports'. You do not need to describe the image in full, just name the main object in it <strong>in one or two words</strong>. All images depict objects from one of the following broad level categories: animals, inanimate objects, plants, sports, vehicles, and food. Recognizing means knowing <strong>more</strong> than these broad labels for a given image. But we always encourage you to <strong>make a guess</strong> if you can. Note that you are allowed to use <strong>Dutch and English</strong> in your answers, whatever comes easiest for you.</p><p>Press any key to continue.</p></div>","32","instructions","html-keyboard-response","4","159457","0.0-4.0","2749896","co37720","norming","","","","","","",""
"13070.400000000052","<div style='word-wrap: break-word; width: 900px'><h3>Instructions</h3> <p>Next, the solution image will be revealed to you and you'll be asked to indicate how strong your <strong>aha-experience</strong> was after seeing the solution. This describes the positive feeling of the 'click' you sometimes experience, when the pieces of the 'puzzle' fall together and you suddenly have 'insight' in the image.</p><img src='aha.jpg' height='188' width='250'></img><p>Note that there are no right or wrong answers. We are interested in what <strong>you</strong> see in the image and how <strong>you</strong> feel about it.</p><p>Press any key to start the experiment.</p></div>","32","instructions","html-keyboard-response","5","172529","0.0-5.0","2749896","co37720","norming","","","","","","",""
"null","<div style=""font-size:60px;""> </div>","null","fixation","html-keyboard-response","6","172734","0.0-6.0-0.0","2749896","co37720","norming","","","","","","",""
"null","../img/tt/010tt.jpg","null","mooney1","image-keyboard-response","7","175739","0.0-6.0-1.0","2749896","co37720","norming","","","","","","",""
"7754.07500000007","","","post_mooney1_questions","survey-likert","8","183496","0.0-6.0-2.0","2749896","co37720","norming","","","{""curiosity"":6,""confidence"":1}","[0,1]","../img/tt/010tt.jpg","",""
"3517.3750000001164","","","recognition","survey-text","9","187016","0.0-6.0-3.0","2749896","co37720","norming","","","{""guess"":""frog""}","","../img/tt/010tt.jpg","",""
"null","../img/gs/010gs.jpg","null","reveal","image-keyboard-response","10","189020","0.0-6.0-4.0","2749896","co37720","norming","","","","","","",""
"null","../img/tt/010tt.jpg","null","mooney2","image-keyboard-response","11","191025","0.0-6.0-5.0","2749896","co37720","norming","","","","","","",""
"3941.400000000169","","","post_reveal_questions","survey-likert","12","194968","0.0-6.0-6.0","2749896","co37720","norming","","","{""aha"":5}","[0]","../img/tt/010tt.jpg","",""
"null","<div style=""font-size:60px;""> </div>","null","fixation","html-keyboard-response","13","195179","0.0-6.0-0.1","2749896","co37720","norming","","","","","","",""
"null","../img/tt/044tt.jpg","null","mooney1","image-keyboard-response","14","198182","0.0-6.0-1.1","2749896","co37720","norming","","","","","","",""
"6943.589999999851","","","post_mooney1_questions","survey-likert","15","205128","0.0-6.0-2.1","2749896","co37720","norming","","","{""curiosity"":6,""confidence"":4}","[0,1]","../img/tt/044tt.jpg","",""
"4789.989999999962","","","recognition","survey-text","16","209920","0.0-6.0-3.1","2749896","co37720","norming","","","{""guess"":""desk""}","","../img/tt/044tt.jpg","",""
"null","../img/gs/044gs.jpg","null","reveal","image-keyboard-response","17","211926","0.0-6.0-4.1","2749896","co37720","norming","","","","","","",""
"null","../img/tt/044tt.jpg","null","mooney2","image-keyboard-response","18","213934","0.0-6.0-5.1","2749896","co37720","norming","","","","","","",""
"2287.3199999999197","","","post_reveal_questions","survey-likert","19","216224","0.0-6.0-6.1","2749896","co37720","norming","","","{""aha"":6}","[0]","../img/tt/044tt.jpg","",""
"null","<div style=""font-size:60px;""> </div>","null","fixation","html-keyboard-response","20","216425","0.0-6.0-0.2","2749896","co37720","norming","","","","","","",""
"null","../img/tt/1269tt.jpg","null","mooney1","image-keyboard-response","21","219445","0.0-6.0-1.2","2749896","co37720","norming","","","","","","",""
"5619.089999999909","","","post_mooney1_questions","survey-likert","22","225067","0.0-6.0-2.2","2749896","co37720","norming","","","{""curiosity"":4,""confidence"":5}","[0,1]","../img/tt/1269tt.jpg","",""
"3902.060000000114","","","recognition","survey-text","23","228970","0.0-6.0-3.2","2749896","co37720","norming","","","{""guess"":""squirrel""}","","../img/tt/1269tt.jpg","",""
"null","../img/gs/1269gs.jpg","null","reveal","image-keyboard-response","24","230972","0.0-6.0-4.2","2749896","co37720","norming","","","","","","",""
"null","../img/tt/1269tt.jpg","null","mooney2","image-keyboard-response","25","232978","0.0-6.0-5.2","2749896","co37720","norming","","","","","","",""
"3367.484999999986","","","post_reveal_questions","survey-likert","26","236347","0.0-6.0-6.2","2749896","co37720","norming","","","{""aha"":0}","[0]","../img/tt/1269tt.jpg","",""
"null","<div style=""font-size:60px;""> </div>","null","fixation","html-keyboard-response","27","236557","0.0-6.0-0.3","2749896","co37720","norming","","","","","","",""
"null","../img/tt/1069tt.jpg","null","mooney1","image-keyboard-response","28","239559","0.0-6.0-1.3","2749896","co37720","norming","","","","","","",""
"5800.95000000007","","","post_mooney1_questions","survey-likert","29","245363","0.0-6.0-2.3","2749896","co37720","norming","","","{""curiosity"":6,""confidence"":0}","[0,1]","../img/tt/1069tt.jpg","",""
"4310.085000000079","","","recognition","survey-text","30","249674","0.0-6.0-3.3","2749896","co37720","norming","","","{""guess"":""flower""}","","../img/tt/1069tt.jpg","",""
"null","../img/gs/1069gs.jpg","null","reveal","image-keyboard-response","31","251676","0.0-6.0-4.3","2749896","co37720","norming","","","","","","",""
"null","../img/tt/1069tt.jpg","null","mooney2","image-keyboard-response","32","253678","0.0-6.0-5.3","2749896","co37720","norming","","","","","","",""
"2066.70000000007","","","post_reveal_questions","survey-likert","33","255746","0.0-6.0-6.3","2749896","co37720","norming","","","{""aha"":6}","[0]","../img/tt/1069tt.jpg","",""
"null","<div style=""font-size:60px;""> </div>","null","fixation","html-keyboard-response","34","255957","0.0-6.0-0.4","2749896","co37720","norming","","","","","","",""
"null","../img/tt/052tt.jpg","null","mooney1","image-keyboard-response","35","258966","0.0-6.0-1.4","2749896","co37720","norming","","","","","","",""
"3635.6399999999558","","","post_mooney1_questions","survey-likert","36","262603","0.0-6.0-2.4","2749896","co37720","norming","","","{""curiosity"":6,""confidence"":1}","[0,1]","../img/tt/052tt.jpg","",""
"3902.2999999999884","","","recognition","survey-text","37","266507","0.0-6.0-3.4","2749896","co37720","norming","","","{""guess"":""trommel""}","","../img/tt/052tt.jpg","",""
"null","../img/gs/052gs.jpg","null","reveal","image-keyboard-response","38","268508","0.0-6.0-4.4","2749896","co37720","norming","","","","","","",""
"null","../img/tt/052tt.jpg","null","mooney2","image-keyboard-response","39","270512","0.0-6.0-5.4","2749896","co37720","norming","","","","","","",""
"4129.0450000001","","","post_reveal_questions","survey-likert","40","274643","0.0-6.0-6.4","2749896","co37720","norming","","","{""aha"":3}","[0]","../img/tt/052tt.jpg","",""
"null","<div style=""font-size:60px;""> </div>","null","fixation","html-keyboard-response","41","274852","0.0-6.0-0.5","2749896","co37720","norming","","","","","","",""
"null","../img/tt/1143tt.jpg","null","mooney1","image-keyboard-response","42","277853","0.0-6.0-1.5","2749896","co37720","norming","","","","","","",""
"6268.29999999993","","","post_mooney1_questions","survey-likert","43","284124","0.0-6.0-2.5","2749896","co37720","norming","","","{""curiosity"":6,""confidence"":1}","[0,1]","../img/tt/1143tt.jpg","",""
"5790.265000000072","","","recognition","survey-text","44","289916","0.0-6.0-3.5","2749896","co37720","norming","","","{""guess"":""fitness apparaat""}","","../img/tt/1143tt.jpg","",""
"null","../img/gs/1143gs.jpg","null","reveal","image-keyboard-response","45","291917","0.0-6.0-4.5","2749896","co37720","norming","","","","","","",""
"null","../img/tt/1143tt.jpg","null","mooney2","image-keyboard-response","46","293918","0.0-6.0-5.5","2749896","co37720","norming","","","","","","",""
"4644.984999999928","","","post_reveal_questions","survey-likert","47","298564","0.0-6.0-6.5","2749896","co37720","norming","","","{""aha"":4}","[0]","../img/tt/1143tt.jpg","",""
"null","<div style=""font-size:60px;""> </div>","null","fixation","html-keyboard-response","48","298770","0.0-6.0-0.6","2749896","co37720","norming","","","","","","",""
"null","../img/tt/1154tt.jpg","null","mooney1","image-keyboard-response","49","301773","0.0-6.0-1.6","2749896","co37720","norming","","","","","","",""
"6517.834999999846","","","post_mooney1_questions","survey-likert","50","308292","0.0-6.0-2.6","2749896","co37720","norming","","","{""curiosity"":5,""confidence"":0}","[0,1]","../img/tt/1154tt.jpg","",""
"5509.84500000003","","","recognition","survey-text","51","313804","0.0-6.0-3.6","2749896","co37720","norming","","","{""guess"":""bloem""}","","../img/tt/1154tt.jpg","",""
"null","../img/gs/1154gs.jpg","null","reveal","image-keyboard-response","52","315806","0.0-6.0-4.6","2749896","co37720","norming","","","","","","",""
"null","../img/tt/1154tt.jpg","null","mooney2","image-keyboard-response","53","317808","0.0-6.0-5.6","2749896","co37720","norming","","","","","","",""
"4010.9199999999837","","","post_reveal_questions","survey-likert","54","321820","0.0-6.0-6.6","2749896","co37720","norming","","","{""aha"":5}","[0]","../img/tt/1154tt.jpg","",""
"null","<div style=""font-size:60px;""> </div>","null","fixation","html-keyboard-response","55","322022","0.0-6.0-0.7","2749896","co37720","norming","","","","","","",""
"null","../img/tt/046tt.jpg","null","mooney1","image-keyboard-response","56","325025","0.0-6.0-1.7","2749896","co37720","norming","","","","","","",""
"4321.945000000182","","","post_mooney1_questions","survey-likert","57","329348","0.0-6.0-2.7","2749896","co37720","norming","","","{""curiosity"":1,""confidence"":6}","[0,1]","../img/tt/046tt.jpg","",""
"2341.9000000001397","","","recognition","survey-text","58","331692","0.0-6.0-3.7","2749896","co37720","norming","","","{""guess"":""dog""}","","../img/tt/046tt.jpg","",""
"null","../img/gs/046gs.jpg","null","reveal","image-keyboard-response","59","333699","0.0-6.0-4.7","2749896","co37720","norming","","","","","","",""
"null","../img/tt/046tt.jpg","null","mooney2","image-keyboard-response","60","335706","0.0-6.0-5.7","2749896","co37720","norming","","","","","","",""
"5425.229999999807","","","post_reveal_questions","survey-likert","61","341131","0.0-6.0-6.7","2749896","co37720","norming","","","{""aha"":0}","[0]","../img/tt/046tt.jpg","",""
"null","<div style=""font-size:60px;""> </div>","null","fixation","html-keyboard-response","62","341333","0.0-6.0-0.8","2749896","co37720","norming","","","","","","",""
"null","../img/tt/468tt.jpg","null","mooney1","image-keyboard-response","63","344334","0.0-6.0-1.8","2749896","co37720","norming","","","","","","",""
"5715.905000000028","","","post_mooney1_questions","survey-likert","64","350051","0.0-6.0-2.8","2749896","co37720","norming","","","{""curiosity"":6,""confidence"":0}","[0,1]","../img/tt/468tt.jpg","",""
"2437.8699999999953","","","recognition","survey-text","65","352491","0.0-6.0-3.8","2749896","co37720","norming","","","{""guess"":""man""}","","../img/tt/468tt.jpg","",""
"null","../img/gs/468gs.jpg","null","reveal","image-keyboard-response","66","354496","0.0-6.0-4.8","2749896","co37720","norming","","","","","","",""
"null","../img/tt/468tt.jpg","null","mooney2","image-keyboard-response","67","356498","0.0-6.0-5.8","2749896","co37720","norming","","","","","","",""
"2159.689999999944","","","post_reveal_questions","survey-likert","68","358659","0.0-6.0-6.8","2749896","co37720","norming","","","{""aha"":6}","[0]","../img/tt/468tt.jpg","",""
"null","<div style=""font-size:60px;""> </div>","null","fixation","html-keyboard-response","69","358861","0.0-6.0-0.9","2749896","co37720","norming","","","","","","",""
"null","../img/tt/019tt.jpg","null","mooney1","image-keyboard-response","70","361871","0.0-6.0-1.9","2749896","co37720","norming","","","","","","",""
"6155.195000000007","","","post_mooney1_questions","survey-likert","71","368028","0.0-6.0-2.9","2749896","co37720","norming","","","{""curiosity"":6,""confidence"":3}","[0,1]","../img/tt/019tt.jpg","",""
"3437.8950000000186","","","recognition","survey-text","72","371467","0.0-6.0-3.9","2749896","co37720","norming","","","{""guess"":""kniptang""}","","../img/tt/019tt.jpg","",""
"null","../img/gs/019gs.jpg","null","reveal","image-keyboard-response","73","373468","0.0-6.0-4.9","2749896","co37720","norming","","","","","","",""
"null","../img/tt/019tt.jpg","null","mooney2","image-keyboard-response","74","375471","0.0-6.0-5.9","2749896","co37720","norming","","","","","","",""
"3802.374999999942","","","post_reveal_questions","survey-likert","75","379275","0.0-6.0-6.9","2749896","co37720","norming","","","{""aha"":0}","[0]","../img/tt/019tt.jpg","",""
"null","<div style=""font-size:60px;""> </div>","null","fixation","html-keyboard-response","76","379482","0.0-6.0-0.10","2749896","co37720","norming","","","","","","",""
"null","../img/tt/1027tt.jpg","null","mooney1","image-keyboard-response","77","382487","0.0-6.0-1.10","2749896","co37720","norming","","","","","","",""
"4411.445000000007","","","post_mooney1_questions","survey-likert","78","386901","0.0-6.0-2.10","2749896","co37720","norming","","","{""curiosity"":1,""confidence"":6}","[0,1]","../img/tt/1027tt.jpg","",""
"3188.674999999872","","","recognition","survey-text","79","390091","0.0-6.0-3.10","2749896","co37720","norming","","","{""guess"":""koe""}","","../img/tt/1027tt.jpg","",""
"null","../img/gs/1027gs.jpg","null","reveal","image-keyboard-response","80","392100","0.0-6.0-4.10","2749896","co37720","norming","","","","","","",""
"null","../img/tt/1027tt.jpg","null","mooney2","image-keyboard-response","81","394101","0.0-6.0-5.10","2749896","co37720","norming","","","","","","",""
"3107.9300000001094","","","post_reveal_questions","survey-likert","82","397211","0.0-6.0-6.10","2749896","co37720","norming","","","{""aha"":0}","[0]","../img/tt/1027tt.jpg","",""
"null","<div style=""font-size:60px;""> </div>","null","fixation","html-keyboard-response","83","397419","0.0-6.0-0.11","2749896","co37720","norming","","","","","","",""
"null","../img/tt/1261tt.jpg","null","mooney1","image-keyboard-response","84","400428","0.0-6.0-1.11","2749896","co37720","norming","","","","","","",""
"7135.775000000198","","","post_mooney1_questions","survey-likert","85","407567","0.0-6.0-2.11","2749896","co37720","norming","","","{""curiosity"":6,""confidence"":1}","[0,1]","../img/tt/1261tt.jpg","",""
"3230.289999999979","","","recognition","survey-text","86","410799","0.0-6.0-3.11","2749896","co37720","norming","","","{""guess"":""lammetje""}","","../img/tt/1261tt.jpg","",""
"null","../img/gs/1261gs.jpg","null","reveal","image-keyboard-response","87","412805","0.0-6.0-4.11","2749896","co37720","norming","","","","","","",""
"null","../img/tt/1261tt.jpg","null","mooney2","image-keyboard-response","88","414807","0.0-6.0-5.11","2749896","co37720","norming","","","","","","",""
"4254.120000000054","","","post_reveal_questions","survey-likert","89","419063","0.0-6.0-6.11","2749896","co37720","norming","","","{""aha"":5}","[0]","../img/tt/1261tt.jpg","",""
"null","<div style=""font-size:60px;""> </div>","null","fixation","html-keyboard-response","90","419273","0.0-6.0-0.12","2749896","co37720","norming","","","","","","",""
"null","../img/tt/1097tt.jpg","null","mooney1","image-keyboard-response","91","422281","0.0-6.0-1.12","2749896","co37720","norming","","","","","","",""
"5604.7799999999115","","","post_mooney1_questions","survey-likert","92","427887","0.0-6.0-2.12","2749896","co37720","norming","","","{""curiosity"":5,""confidence"":0}","[0,1]","../img/tt/1097tt.jpg","",""
"3102.105000000156","","","recognition","survey-text","93","430991","0.0-6.0-3.12","2749896","co37720","norming","","","{""guess"":""veld""}","","../img/tt/1097tt.jpg","",""
"null","../img/gs/1097gs.jpg","null","reveal","image-keyboard-response","94","432993","0.0-6.0-4.12","2749896","co37720","norming","","","","","","",""
"null","../img/tt/1097tt.jpg","null","mooney2","image-keyboard-response","95","434995","0.0-6.0-5.12","2749896","co37720","norming","","","","","","",""
"3034.0550000001094","","","post_reveal_questions","survey-likert","96","438031","0.0-6.0-6.12","2749896","co37720","norming","","","{""aha"":4}","[0]","../img/tt/1097tt.jpg","",""
"null","<div style=""font-size:60px;""> </div>","null","fixation","html-keyboard-response","97","438233","0.0-6.0-0.13","2749896","co37720","norming","","","","","","",""
"null","../img/tt/1078tt.jpg","null","mooney1","image-keyboard-response","98","441235","0.0-6.0-1.13","2749896","co37720","norming","","","","","","",""
"4401.980000000098","","","post_mooney1_questions","survey-likert","99","445639","0.0-6.0-2.13","2749896","co37720","norming","","","{""curiosity"":4,""confidence"":5}","[0,1]","../img/tt/1078tt.jpg","",""
"4726.130000000005","","","recognition","survey-text","100","450367","0.0-6.0-3.13","2749896","co37720","norming","","","{""guess"":""restaurant""}","","../img/tt/1078tt.jpg","",""
"null","../img/gs/1078gs.jpg","null","reveal","image-keyboard-response","101","452369","0.0-6.0-4.13","2749896","co37720","norming","","","","","","",""
"null","../img/tt/1078tt.jpg","null","mooney2","image-keyboard-response","102","454372","0.0-6.0-5.13","2749896","co37720","norming","","","","","","",""
"3936.4650000000256","","","post_reveal_questions","survey-likert","103","458311","0.0-6.0-6.13","2749896","co37720","norming","","","{""aha"":6}","[0]","../img/tt/1078tt.jpg","",""
"null","<div style=""font-size:60px;""> </div>","null","fixation","html-keyboard-response","104","458512","0.0-6.0-0.14","2749896","co37720","norming","","","","","","",""
"null","../img/tt/1161tt.jpg","null","mooney1","image-keyboard-response","105","461515","0.0-6.0-1.14","2749896","co37720","norming","","","","","","",""
"5001.0950000000885","","","post_mooney1_questions","survey-likert","106","466520","0.0-6.0-2.14","2749896","co37720","norming","","","{""curiosity"":6,""confidence"":4}","[0,1]","../img/tt/1161tt.jpg","",""
"3958.0599999999395","","","recognition","survey-text","107","470480","0.0-6.0-3.14","2749896","co37720","norming","","","{""guess"":""bergklimmen""}","","../img/tt/1161tt.jpg","",""
"null","../img/gs/1161gs.jpg","null","reveal","image-keyboard-response","108","472487","0.0-6.0-4.14","2749896","co37720","norming","","","","","","",""
"null","../img/tt/1161tt.jpg","null","mooney2","image-keyboard-response","109","474494","0.0-6.0-5.14","2749896","co37720","norming","","","","","","",""
"2943.8049999998766","","","post_reveal_questions","survey-likert","110","477440","0.0-6.0-6.14","2749896","co37720","norming","","","{""aha"":5}","[0]","../img/tt/1161tt.jpg","",""
"null","<div style=""font-size:60px;""> </div>","null","fixation","html-keyboard-response","111","477641","0.0-6.0-0.15","2749896","co37720","norming","","","","","","",""
"null","../img/tt/318tt.jpg","null","mooney1","image-keyboard-response","112","480644","0.0-6.0-1.15","2749896","co37720","norming","","","","","","",""
"6171.02999999997","","","post_mooney1_questions","survey-likert","113","486816","0.0-6.0-2.15","2749896","co37720","norming","","","{""curiosity"":6,""confidence"":0}","[0,1]","../img/tt/318tt.jpg","",""
"1990.1699999999837","","","recognition","survey-text","114","488808","0.0-6.0-3.15","2749896","co37720","norming","","","{""guess"":""""}","","../img/tt/318tt.jpg","",""
"null","../img/gs/318gs.jpg","null","reveal","image-keyboard-response","115","490809","0.0-6.0-4.15","2749896","co37720","norming","","","","","","",""
"null","../img/tt/318tt.jpg","null","mooney2","image-keyboard-response","116","492813","0.0-6.0-5.15","2749896","co37720","norming","","","","","","",""
"1889.8550000000978","","","post_reveal_questions","survey-likert","117","494704","0.0-6.0-6.15","2749896","co37720","norming","","","{""aha"":6}","[0]","../img/tt/318tt.jpg","",""
"null","<div style=""font-size:60px;""> </div>","null","fixation","html-keyboard-response","118","494911","0.0-6.0-0.16","2749896","co37720","norming","","","","","","",""
"null","../img/tt/055tt.jpg","null","mooney1","image-keyboard-response","119","497913","0.0-6.0-1.16","2749896","co37720","norming","","","","","","",""
"3724.4550000000163","","","post_mooney1_questions","survey-likert","120","501640","0.0-6.0-2.16","2749896","co37720","norming","","","{""curiosity"":6,""confidence"":1}","[0,1]","../img/tt/055tt.jpg","",""
"2070.009999999893","","","recognition","survey-text","121","503712","0.0-6.0-3.16","2749896","co37720","norming","","","{""guess"":""paard""}","","../img/tt/055tt.jpg","",""
"null","../img/gs/055gs.jpg","null","reveal","image-keyboard-response","122","505714","0.0-6.0-4.16","2749896","co37720","norming","","","","","","",""
"null","../img/tt/055tt.jpg","null","mooney2","image-keyboard-response","123","507715","0.0-6.0-5.16","2749896","co37720","norming","","","","","","",""
"2259.1900000000023","","","post_reveal_questions","survey-likert","124","509976","0.0-6.0-6.16","2749896","co37720","norming","","","{""aha"":4}","[0]","../img/tt/055tt.jpg","",""
"null","<div style=""font-size:60px;""> </div>","null","fixation","html-keyboard-response","125","510181","0.0-6.0-0.17","2749896","co37720","norming","","","","","","",""
"null","../img/tt/329tt.jpg","null","mooney1","image-keyboard-response","126","513184","0.0-6.0-1.17","2749896","co37720","norming","","","","","","",""
"9693.499999999825","","","post_mooney1_questions","survey-likert","127","522875","0.0-6.0-2.17","2749896","co37720","norming","","","{""curiosity"":6,""confidence"":0}","[0,1]","../img/tt/329tt.jpg","",""
"1350.155000000028","","","recognition","survey-text","128","524227","0.0-6.0-3.17","2749896","co37720","norming","","","{""guess"":""""}","","../img/tt/329tt.jpg","",""
"null","../img/gs/329gs.jpg","null","reveal","image-keyboard-response","129","526234","0.0-6.0-4.17","2749896","co37720","norming","","","","","","",""
"null","../img/tt/329tt.jpg","null","mooney2","image-keyboard-response","130","528235","0.0-6.0-5.17","2749896","co37720","norming","","","","","","",""
"3118.9150000000373","","","post_reveal_questions","survey-likert","131","531356","0.0-6.0-6.17","2749896","co37720","norming","","","{""aha"":5}","[0]","../img/tt/329tt.jpg","",""
"null","<div style=""font-size:60px;""> </div>","null","fixation","html-keyboard-response","132","531560","0.0-6.0-0.18","2749896","co37720","norming","","","","","","",""
"null","../img/tt/1290tt.jpg","null","mooney1","image-keyboard-response","133","534566","0.0-6.0-1.18","2749896","co37720","norming","","","","","","",""
"5034.645000000019","","","post_mooney1_questions","survey-likert","134","539603","0.0-6.0-2.18","2749896","co37720","norming","","","{""curiosity"":2,""confidence"":6}","[0,1]","../img/tt/1290tt.jpg","",""
"3237.929999999935","","","recognition","survey-text","135","542843","0.0-6.0-3.18","2749896","co37720","norming","","","{""guess"":""skilift""}","","../img/tt/1290tt.jpg","",""
"null","../img/gs/1290gs.jpg","null","reveal","image-keyboard-response","136","544846","0.0-6.0-4.18","2749896","co37720","norming","","","","","","",""
"null","../img/tt/1290tt.jpg","null","mooney2","image-keyboard-response","137","546847","0.0-6.0-5.18","2749896","co37720","norming","","","","","","",""
"2354.0849999999627","","","post_reveal_questions","survey-likert","138","549203","0.0-6.0-6.18","2749896","co37720","norming","","","{""aha"":0}","[0]","../img/tt/1290tt.jpg","",""
"null","<div style=""font-size:60px;""> </div>","null","fixation","html-keyboard-response","139","549404","0.0-6.0-0.19","2749896","co37720","norming","","","","","","",""
"null","../img/tt/598tt.jpg","null","mooney1","image-keyboard-response","140","552416","0.0-6.0-1.19","2749896","co37720","norming","","","","","","",""
"4624.745000000112","","","post_mooney1_questions","survey-likert","141","557044","0.0-6.0-2.19","2749896","co37720","norming","","","{""curiosity"":6,""confidence"":0}","[0,1]","../img/tt/598tt.jpg","",""
"1014.015000000014","","","recognition","survey-text","142","558059","0.0-6.0-3.19","2749896","co37720","norming","","","{""guess"":""""}","","../img/tt/598tt.jpg","",""
"null","../img/gs/598gs.jpg","null","reveal","image-keyboard-response","143","560061","0.0-6.0-4.19","2749896","co37720","norming","","","","","","",""
"null","../img/tt/598tt.jpg","null","mooney2","image-keyboard-response","144","562064","0.0-6.0-5.19","2749896","co37720","norming","","","","","","",""
"2145.125","","","post_reveal_questions","survey-likert","145","564211","0.0-6.0-6.19","2749896","co37720","norming","","","{""aha"":6}","[0]","../img/tt/598tt.jpg","",""
"null","<div style=""font-size:60px;""> </div>","null","fixation","html-keyboard-response","146","564415","0.0-6.0-0.20","2749896","co37720","norming","","","","","","",""
"null","../img/tt/1130tt.jpg","null","mooney1","image-keyboard-response","147","567420","0.0-6.0-1.20","2749896","co37720","norming","","","","","","",""
"4044.815000000177","","","post_mooney1_questions","survey-likert","148","571467","0.0-6.0-2.20","2749896","co37720","norming","","","{""curiosity"":6,""confidence"":6}","[0,1]","../img/tt/1130tt.jpg","",""
"3806.059999999823","","","recognition","survey-text","149","575275","0.0-6.0-3.20","2749896","co37720","norming","","","{""guess"":""wielrenner""}","","../img/tt/1130tt.jpg","",""
"null","../img/gs/1130gs.jpg","null","reveal","image-keyboard-response","150","577276","0.0-6.0-4.20","2749896","co37720","norming","","","","","","",""
"null","../img/tt/1130tt.jpg","null","mooney2","image-keyboard-response","151","579278","0.0-6.0-5.20","2749896","co37720","norming","","","","","","",""
"2819.015000000014","","","post_reveal_questions","survey-likert","152","582099","0.0-6.0-6.20","2749896","co37720","norming","","","{""aha"":0}","[0]","../img/tt/1130tt.jpg","",""
"null","<div style=""font-size:60px;""> </div>","null","fixation","html-keyboard-response","153","582300","0.0-6.0-0.21","2749896","co37720","norming","","","","","","",""
"null","../img/tt/603tt.jpg","null","mooney1","image-keyboard-response","154","585317","0.0-6.0-1.21","2749896","co37720","norming","","","","","","",""
"4809.020000000135","","","post_mooney1_questions","survey-likert","155","590128","0.0-6.0-2.21","2749896","co37720","norming","","","{""curiosity"":4,""confidence"":6}","[0,1]","../img/tt/603tt.jpg","",""
"2526.344999999972","","","recognition","survey-text","156","592656","0.0-6.0-3.21","2749896","co37720","norming","","","{""guess"":""poes""}","","../img/tt/603tt.jpg","",""
"null","../img/gs/603gs.jpg","null","reveal","image-keyboard-response","157","594660","0.0-6.0-4.21","2749896","co37720","norming","","","","","","",""
"null","../img/tt/603tt.jpg","null","mooney2","image-keyboard-response","158","596662","0.0-6.0-5.21","2749896","co37720","norming","","","","","","",""
"2088.129999999772","","","post_reveal_questions","survey-likert","159","598752","0.0-6.0-6.21","2749896","co37720","norming","","","{""aha"":0}","[0]","../img/tt/603tt.jpg","",""
"null","<div style=""font-size:60px;""> </div>","null","fixation","html-keyboard-response","160","598955","0.0-6.0-0.22","2749896","co37720","norming","","","","","","",""
"null","../img/tt/1276tt.jpg","null","mooney1","image-keyboard-response","161","601964","0.0-6.0-1.22","2749896","co37720","norming","","","","","","",""
"4890.125000000116","","","post_mooney1_questions","survey-likert","162","606856","0.0-6.0-2.22","2749896","co37720","norming","","","{""curiosity"":5,""confidence"":5}","[0,1]","../img/tt/1276tt.jpg","",""
"2918.2750000000233","","","recognition","survey-text","163","609776","0.0-6.0-3.22","2749896","co37720","norming","","","{""guess"":""hond""}","","../img/tt/1276tt.jpg","",""
"null","../img/gs/1276gs.jpg","null","reveal","image-keyboard-response","164","611778","0.0-6.0-4.22","2749896","co37720","norming","","","","","","",""
"null","../img/tt/1276tt.jpg","null","mooney2","image-keyboard-response","165","613782","0.0-6.0-5.22","2749896","co37720","norming","","","","","","",""
"1992.545000000042","","","post_reveal_questions","survey-likert","166","615776","0.0-6.0-6.22","2749896","co37720","norming","","","{""aha"":5}","[0]","../img/tt/1276tt.jpg","",""
"null","<div style=""font-size:60px;""> </div>","null","fixation","html-keyboard-response","167","615984","0.0-6.0-0.23","2749896","co37720","norming","","","","","","",""
"null","../img/tt/118tt.jpg","null","mooney1","image-keyboard-response","168","618996","0.0-6.0-1.23","2749896","co37720","norming","","","","","","",""
"6395.354999999865","","","post_mooney1_questions","survey-likert","169","625392","0.0-6.0-2.23","2749896","co37720","norming","","","{""curiosity"":6,""confidence"":0}","[0,1]","../img/tt/118tt.jpg","",""
"902.2249999998603","","","recognition","survey-text","170","626296","0.0-6.0-3.23","2749896","co37720","norming","","","{""guess"":""""}","","../img/tt/118tt.jpg","",""
"null","../img/gs/118gs.jpg","null","reveal","image-keyboard-response","171","628305","0.0-6.0-4.23","2749896","co37720","norming","","","","","","",""
"null","../img/tt/118tt.jpg","null","mooney2","image-keyboard-response","172","630307","0.0-6.0-5.23","2749896","co37720","norming","","","","","","",""
"3642.75","","","post_reveal_questions","survey-likert","173","633952","0.0-6.0-6.23","2749896","co37720","norming","","","{""aha"":6}","[0]","../img/tt/118tt.jpg","",""
"null","<div style=""font-size:60px;""> </div>","null","fixation","html-keyboard-response","174","634159","0.0-6.0-0.24","2749896","co37720","norming","","","","","","",""
"null","../img/tt/307tt.jpg","null","mooney1","image-keyboard-response","175","637166","0.0-6.0-1.24","2749896","co37720","norming","","","","","","",""
"6080.144999999902","","","post_mooney1_questions","survey-likert","176","643249","0.0-6.0-2.24","2749896","co37720","norming","","","{""curiosity"":5,""confidence"":0}","[0,1]","../img/tt/307tt.jpg","",""
"4781.885000000126","","","recognition","survey-text","177","648030","0.0-6.0-3.24","2749896","co37720","norming","","","{""guess"":""""}","","../img/tt/307tt.jpg","",""
"null","../img/gs/307gs.jpg","null","reveal","image-keyboard-response","178","650031","0.0-6.0-4.24","2749896","co37720","norming","","","","","","",""
"null","../img/tt/307tt.jpg","null","mooney2","image-keyboard-response","179","652034","0.0-6.0-5.24","2749896","co37720","norming","","","","","","",""
"1978.5","","","post_reveal_questions","survey-likert","180","654014","0.0-6.0-6.24","2749896","co37720","norming","","","{""aha"":6}","[0]","../img/tt/307tt.jpg","",""
"null","<div style=""font-size:60px;""> </div>","null","fixation","html-keyboard-response","181","654219","0.0-6.0-0.25","2749896","co37720","norming","","","","","","",""
"null","../img/tt/1255tt.jpg","null","mooney1","image-keyboard-response","182","657225","0.0-6.0-1.25","2749896","co37720","norming","","","","","","",""
"3068.3399999999674","","","post_mooney1_questions","survey-likert","183","660295","0.0-6.0-2.25","2749896","co37720","norming","","","{""curiosity"":6,""confidence"":1}","[0,1]","../img/tt/1255tt.jpg","",""
"3782.0899999999674","","","recognition","survey-text","184","664078","0.0-6.0-3.25","2749896","co37720","norming","","","{""guess"":""konijn ""}","","../img/tt/1255tt.jpg","",""
"null","../img/gs/1255gs.jpg","null","reveal","image-keyboard-response","185","666083","0.0-6.0-4.25","2749896","co37720","norming","","","","","","",""
"null","../img/tt/1255tt.jpg","null","mooney2","image-keyboard-response","186","668086","0.0-6.0-5.25","2749896","co37720","norming","","","","","","",""
"3079.70000000007","","","post_reveal_questions","survey-likert","187","671166","0.0-6.0-6.25","2749896","co37720","norming","","","{""aha"":5}","[0]","../img/tt/1255tt.jpg","",""
"null","<div style=""font-size:60px;""> </div>","null","fixation","html-keyboard-response","188","671370","0.0-6.0-0.26","2749896","co37720","norming","","","","","","",""
"null","../img/tt/1278tt.jpg","null","mooney1","image-keyboard-response","189","674382","0.0-6.0-1.26","2749896","co37720","norming","","","","","","",""
"3806.0250000001397","","","post_mooney1_questions","survey-likert","190","678190","0.0-6.0-2.26","2749896","co37720","norming","","","{""curiosity"":6,""confidence"":0}","[0,1]","../img/tt/1278tt.jpg","",""
"693.9199999999255","","","recognition","survey-text","191","678886","0.0-6.0-3.26","2749896","co37720","norming","","","{""guess"":""""}","","../img/tt/1278tt.jpg","",""
"null","../img/gs/1278gs.jpg","null","reveal","image-keyboard-response","192","680890","0.0-6.0-4.26","2749896","co37720","norming","","","","","","",""
"null","../img/tt/1278tt.jpg","null","mooney2","image-keyboard-response","193","682896","0.0-6.0-5.26","2749896","co37720","norming","","","","","","",""
"2701.2550000000047","","","post_reveal_questions","survey-likert","194","685598","0.0-6.0-6.26","2749896","co37720","norming","","","{""aha"":6}","[0]","../img/tt/1278tt.jpg","",""
"null","<div style=""font-size:60px;""> </div>","null","fixation","html-keyboard-response","195","685799","0.0-6.0-0.27","2749896","co37720","norming","","","","","","",""
"null","../img/tt/108tt.jpg","null","mooney1","image-keyboard-response","196","688812","0.0-6.0-1.27","2749896","co37720","norming","","","","","","",""
"5856.199999999953","","","post_mooney1_questions","survey-likert","197","694670","0.0-6.0-2.27","2749896","co37720","norming","","","{""curiosity"":6,""confidence"":1}","[0,1]","../img/tt/108tt.jpg","",""
"3246.140000000014","","","recognition","survey-text","198","697918","0.0-6.0-3.27","2749896","co37720","norming","","","{""guess"":""vos""}","","../img/tt/108tt.jpg","",""
"null","../img/gs/108gs.jpg","null","reveal","image-keyboard-response","199","699921","0.0-6.0-4.27","2749896","co37720","norming","","","","","","",""
"null","../img/tt/108tt.jpg","null","mooney2","image-keyboard-response","200","701923","0.0-6.0-5.27","2749896","co37720","norming","","","","","","",""
"2377.3850000000093","","","post_reveal_questions","survey-likert","201","704302","0.0-6.0-6.27","2749896","co37720","norming","","","{""aha"":6}","[0]","../img/tt/108tt.jpg","",""
"null","<div style=""font-size:60px;""> </div>","null","fixation","html-keyboard-response","202","704511","0.0-6.0-0.28","2749896","co37720","norming","","","","","","",""
"null","../img/tt/1024tt.jpg","null","mooney1","image-keyboard-response","203","707521","0.0-6.0-1.28","2749896","co37720","norming","","","","","","",""
"4683.054999999935","","","post_mooney1_questions","survey-likert","204","712199","0.0-6.0-2.28","2749896","co37720","norming","","","{""curiosity"":5,""confidence"":0}","[0,1]","../img/tt/1024tt.jpg","",""
"622.214999999851","","","recognition","survey-text","205","712823","0.0-6.0-3.28","2749896","co37720","norming","","","{""guess"":""""}","","../img/tt/1024tt.jpg","",""
"null","../img/gs/1024gs.jpg","null","reveal","image-keyboard-response","206","714825","0.0-6.0-4.28","2749896","co37720","norming","","","","","","",""
"null","../img/tt/1024tt.jpg","null","mooney2","image-keyboard-response","207","716832","0.0-6.0-5.28","2749896","co37720","norming","","","","","","",""
"3332.4649999999674","","","post_reveal_questions","survey-likert","208","720167","0.0-6.0-6.28","2749896","co37720","norming","","","{""aha"":6}","[0]","../img/tt/1024tt.jpg","",""
"null","<div style=""font-size:60px;""> </div>","null","fixation","html-keyboard-response","209","720375","0.0-6.0-0.29","2749896","co37720","norming","","","","","","",""
"null","../img/tt/1053tt.jpg","null","mooney1","image-keyboard-response","210","723379","0.0-6.0-1.29","2749896","co37720","norming","","","","","","",""
"5609.22499999986","","","post_mooney1_questions","survey-likert","211","728991","0.0-6.0-2.29","2749896","co37720","norming","","","{""curiosity"":6,""confidence"":1}","[0,1]","../img/tt/1053tt.jpg","",""
"2630.189999999944","","","recognition","survey-text","212","731623","0.0-6.0-3.29","2749896","co37720","norming","","","{""guess"":""wolf""}","","../img/tt/1053tt.jpg","",""
"null","../img/gs/1053gs.jpg","null","reveal","image-keyboard-response","213","733624","0.0-6.0-4.29","2749896","co37720","norming","","","","","","",""
"null","../img/tt/1053tt.jpg","null","mooney2","image-keyboard-response","214","735635","0.0-6.0-5.29","2749896","co37720","norming","","","","","","",""
"3305.585000000079","","","post_reveal_questions","survey-likert","215","738943","0.0-6.0-6.29","2749896","co37720","norming","","","{""aha"":6}","[0]","../img/tt/1053tt.jpg","",""
"null","<div style=""font-size:60px;""> </div>","null","fixation","html-keyboard-response","216","739146","0.0-6.0-0.30","2749896","co37720","norming","","","","","","",""
"null","../img/tt/105tt.jpg","null","mooney1","image-keyboard-response","217","742149","0.0-6.0-1.30","2749896","co37720","norming","","","","","","",""
"3807.70000000007","","","post_mooney1_questions","survey-likert","218","745959","0.0-6.0-2.30","2749896","co37720","norming","","","{""curiosity"":6,""confidence"":3}","[0,1]","../img/tt/105tt.jpg","",""
"2318.064999999944","","","recognition","survey-text","219","748279","0.0-6.0-3.30","2749896","co37720","norming","","","{""guess"":""vlinder""}","","../img/tt/105tt.jpg","",""
"null","../img/gs/105gs.jpg","null","reveal","image-keyboard-response","220","750285","0.0-6.0-4.30","2749896","co37720","norming","","","","","","",""
"null","../img/tt/105tt.jpg","null","mooney2","image-keyboard-response","221","752287","0.0-6.0-5.30","2749896","co37720","norming","","","","","","",""
"1901.5549999999348","","","post_reveal_questions","survey-likert","222","754191","0.0-6.0-6.30","2749896","co37720","norming","","","{""aha"":6}","[0]","../img/tt/105tt.jpg","",""
"null","<div style=""font-size:60px;""> </div>","null","fixation","html-keyboard-response","223","754392","0.0-6.0-0.31","2749896","co37720","norming","","","","","","",""
"null","../img/tt/273tt.jpg","null","mooney1","image-keyboard-response","224","757397","0.0-6.0-1.31","2749896","co37720","norming","","","","","","",""
"9079.065000000177","","","post_mooney1_questions","survey-likert","225","766479","0.0-6.0-2.31","2749896","co37720","norming","","","{""curiosity"":6,""confidence"":4}","[0,1]","../img/tt/273tt.jpg","",""
"6805.935000000056","","","recognition","survey-text","226","773294","0.0-6.0-3.31","2749896","co37720","norming","","","{""guess"":""etende man""}","","../img/tt/273tt.jpg","",""
"null","../img/gs/273gs.jpg","null","reveal","image-keyboard-response","227","775295","0.0-6.0-4.31","2749896","co37720","norming","","","","","","",""
"null","../img/tt/273tt.jpg","null","mooney2","image-keyboard-response","228","777298","0.0-6.0-5.31","2749896","co37720","norming","","","","","","",""
"4161.990000000107","","","post_reveal_questions","survey-likert","229","781462","0.0-6.0-6.31","2749896","co37720","norming","","","{""aha"":1}","[0]","../img/tt/273tt.jpg","",""
"null","<div style=""font-size:60px;""> </div>","null","fixation","html-keyboard-response","230","781666","0.0-6.0-0.32","2749896","co37720","norming","","","","","","",""
"null","../img/tt/1146tt.jpg","null","mooney1","image-keyboard-response","231","784675","0.0-6.0-1.32","2749896","co37720","norming","","","","","","",""
"4391.9550000000745","","","post_mooney1_questions","survey-likert","232","789070","0.0-6.0-2.32","2749896","co37720","norming","","","{""curiosity"":6,""confidence"":1}","[0,1]","../img/tt/1146tt.jpg","",""
"4158.235000000102","","","recognition","survey-text","233","793230","0.0-6.0-3.32","2749896","co37720","norming","","","{""guess"":""treinreiziger""}","","../img/tt/1146tt.jpg","",""
"null","../img/gs/1146gs.jpg","null","reveal","image-keyboard-response","234","795231","0.0-6.0-4.32","2749896","co37720","norming","","","","","","",""
"null","../img/tt/1146tt.jpg","null","mooney2","image-keyboard-response","235","797238","0.0-6.0-5.32","2749896","co37720","norming","","","","","","",""
"2725.8499999999767","","","post_reveal_questions","survey-likert","236","799966","0.0-6.0-6.32","2749896","co37720","norming","","","{""aha"":6}","[0]","../img/tt/1146tt.jpg","",""
"null","<div style=""font-size:60px;""> </div>","null","fixation","html-keyboard-response","237","800168","0.0-6.0-0.33","2749896","co37720","norming","","","","","","",""
"null","../img/tt/567tt.jpg","null","mooney1","image-keyboard-response","238","803174","0.0-6.0-1.33","2749896","co37720","norming","","","","","","",""
"4989.5950000000885","","","post_mooney1_questions","survey-likert","239","808166","0.0-6.0-2.33","2749896","co37720","norming","","","{""curiosity"":1,""confidence"":6}","[0,1]","../img/tt/567tt.jpg","",""
"8038.129999999888","","","recognition","survey-text","240","816206","0.0-6.0-3.33","2749896","co37720","norming","","","{""guess"":""broodrooster""}","","../img/tt/567tt.jpg","",""
"null","../img/gs/567gs.jpg","null","reveal","image-keyboard-response","241","818211","0.0-6.0-4.33","2749896","co37720","norming","","","","","","",""
"null","../img/tt/567tt.jpg","null","mooney2","image-keyboard-response","242","820217","0.0-6.0-5.33","2749896","co37720","norming","","","","","","",""
"3538.600000000093","","","post_reveal_questions","survey-likert","243","823758","0.0-6.0-6.33","2749896","co37720","norming","","","{""aha"":0}","[0]","../img/tt/567tt.jpg","",""
"null","<div style=""font-size:60px;""> </div>","null","fixation","html-keyboard-response","244","823968","0.0-6.0-0.34","2749896","co37720","norming","","","","","","",""
"null","../img/tt/1055tt.jpg","null","mooney1","image-keyboard-response","245","826976","0.0-6.0-1.34","2749896","co37720","norming","","","","","","",""
"7012.800000000047","","","post_mooney1_questions","survey-likert","246","833992","0.0-6.0-2.34","2749896","co37720","norming","","","{""curiosity"":6,""confidence"":2}","[0,1]","../img/tt/1055tt.jpg","",""
"4277.925000000047","","","recognition","survey-text","247","838272","0.0-6.0-3.34","2749896","co37720","norming","","","{""guess"":""water grot""}","","../img/tt/1055tt.jpg","",""
"null","../img/gs/1055gs.jpg","null","reveal","image-keyboard-response","248","840273","0.0-6.0-4.34","2749896","co37720","norming","","","","","","",""
"null","../img/tt/1055tt.jpg","null","mooney2","image-keyboard-response","249","842282","0.0-6.0-5.34","2749896","co37720","norming","","","","","","",""
"3563.1900000000605","","","post_reveal_questions","survey-likert","250","845848","0.0-6.0-6.34","2749896","co37720","norming","","","{""aha"":5}","[0]","../img/tt/1055tt.jpg","",""
"null","<div style=""font-size:60px;""> </div>","null","fixation","html-keyboard-response","251","846055","0.0-6.0-0.35","2749896","co37720","norming","","","","","","",""
"null","../img/tt/1084tt.jpg","null","mooney1","image-keyboard-response","252","849060","0.0-6.0-1.35","2749896","co37720","norming","","","","","","",""
"8145.275000000023","","","post_mooney1_questions","survey-likert","253","857208","0.0-6.0-2.35","2749896","co37720","norming","","","{""curiosity"":6,""confidence"":0}","[0,1]","../img/tt/1084tt.jpg","",""
"1157.8750000001164","","","recognition","survey-text","254","858368","0.0-6.0-3.35","2749896","co37720","norming","","","{""guess"":""""}","","../img/tt/1084tt.jpg","",""
"null","../img/gs/1084gs.jpg","null","reveal","image-keyboard-response","255","860369","0.0-6.0-4.35","2749896","co37720","norming","","","","","","",""
"null","../img/tt/1084tt.jpg","null","mooney2","image-keyboard-response","256","862377","0.0-6.0-5.35","2749896","co37720","norming","","","","","","",""
"2596.6300000000047","","","post_reveal_questions","survey-likert","257","864976","0.0-6.0-6.35","2749896","co37720","norming","","","{""aha"":6}","[0]","../img/tt/1084tt.jpg","",""
"null","<div style=""font-size:60px;""> </div>","null","fixation","html-keyboard-response","258","865182","0.0-6.0-0.36","2749896","co37720","norming","","","","","","",""
"null","../img/tt/1247tt.jpg","null","mooney1","image-keyboard-response","259","868191","0.0-6.0-1.36","2749896","co37720","norming","","","","","","",""
"4886.4049999999115","","","post_mooney1_questions","survey-likert","260","873080","0.0-6.0-2.36","2749896","co37720","norming","","","{""curiosity"":6,""confidence"":4}","[0,1]","../img/tt/1247tt.jpg","",""
"2854.094999999972","","","recognition","survey-text","261","875936","0.0-6.0-3.36","2749896","co37720","norming","","","{""guess"":""tijger""}","","../img/tt/1247tt.jpg","",""
"null","../img/gs/1247gs.jpg","null","reveal","image-keyboard-response","262","877940","0.0-6.0-4.36","2749896","co37720","norming","","","","","","",""
"null","../img/tt/1247tt.jpg","null","mooney2","image-keyboard-response","263","879941","0.0-6.0-5.36","2749896","co37720","norming","","","","","","",""
"3016.980000000098","","","post_reveal_questions","survey-likert","264","882960","0.0-6.0-6.36","2749896","co37720","norming","","","{""aha"":5}","[0]","../img/tt/1247tt.jpg","",""
"null","<div style=""font-size:60px;""> </div>","null","fixation","html-keyboard-response","265","883167","0.0-6.0-0.37","2749896","co37720","norming","","","","","","",""
"null","../img/tt/1037tt.jpg","null","mooney1","image-keyboard-response","266","886173","0.0-6.0-1.37","2749896","co37720","norming","","","","","","",""
"5656.135000000009","","","post_mooney1_questions","survey-likert","267","891825","0.0-6.0-2.37","2749896","co37720","norming","","","{""curiosity"":6,""confidence"":4}","[0,1]","../img/tt/1037tt.jpg","",""
"2277.894999999902","","","recognition","survey-text","268","894105","0.0-6.0-3.37","2749896","co37720","norming","","","{""guess"":""hond""}","","../img/tt/1037tt.jpg","",""
"null","../img/gs/1037gs.jpg","null","reveal","image-keyboard-response","269","896115","0.0-6.0-4.37","2749896","co37720","norming","","","","","","",""
"null","../img/tt/1037tt.jpg","null","mooney2","image-keyboard-response","270","898117","0.0-6.0-5.37","2749896","co37720","norming","","","","","","",""
"1921.5600000000559","","","post_reveal_questions","survey-likert","271","900040","0.0-6.0-6.37","2749896","co37720","norming","","","{""aha"":4}","[0]","../img/tt/1037tt.jpg","",""
"null","<div style=""font-size:60px;""> </div>","null","fixation","html-keyboard-response","272","900243","0.0-6.0-0.38","2749896","co37720","norming","","","","","","",""
"null","../img/tt/436tt.jpg","null","mooney1","image-keyboard-response","273","903247","0.0-6.0-1.38","2749896","co37720","norming","","","","","","",""
"8319.055000000168","","","post_mooney1_questions","survey-likert","274","911569","0.0-6.0-2.38","2749896","co37720","norming","","","{""curiosity"":6,""confidence"":5}","[0,1]","../img/tt/436tt.jpg","",""
"5717.760000000009","","","recognition","survey-text","275","917289","0.0-6.0-3.38","2749896","co37720","norming","","","{""guess"":""amfibie""}","","../img/tt/436tt.jpg","",""
"null","../img/gs/436gs.jpg","null","reveal","image-keyboard-response","276","919297","0.0-6.0-4.38","2749896","co37720","norming","","","","","","",""
"null","../img/tt/436tt.jpg","null","mooney2","image-keyboard-response","277","921300","0.0-6.0-5.38","2749896","co37720","norming","","","","","","",""
"4106.8150000000605","","","post_reveal_questions","survey-likert","278","925409","0.0-6.0-6.38","2749896","co37720","norming","","","{""aha"":1}","[0]","../img/tt/436tt.jpg","",""
"null","<div style=""font-size:60px;""> </div>","null","fixation","html-keyboard-response","279","925614","0.0-6.0-0.39","2749896","co37720","norming","","","","","","",""
"null","../img/tt/189tt.jpg","null","mooney1","image-keyboard-response","280","928624","0.0-6.0-1.39","2749896","co37720","norming","","","","","","",""
"4462.449999999953","","","post_mooney1_questions","survey-likert","281","933089","0.0-6.0-2.39","2749896","co37720","norming","","","{""curiosity"":6,""confidence"":4}","[0,1]","../img/tt/189tt.jpg","",""
"5302.204999999958","","","recognition","survey-text","282","938393","0.0-6.0-3.39","2749896","co37720","norming","","","{""guess"":""roofvogel""}","","../img/tt/189tt.jpg","",""
"null","../img/gs/189gs.jpg","null","reveal","image-keyboard-response","283","940396","0.0-6.0-4.39","2749896","co37720","norming","","","","","","",""
"null","../img/tt/189tt.jpg","null","mooney2","image-keyboard-response","284","942398","0.0-6.0-5.39","2749896","co37720","norming","","","","","","",""
"3232.92499999993","","","post_reveal_questions","survey-likert","285","945633","0.0-6.0-6.39","2749896","co37720","norming","","","{""aha"":6}","[0]","../img/tt/189tt.jpg","",""
"null","<div style=""font-size:60px;""> </div>","null","fixation","html-keyboard-response","286","945838","0.0-6.0-0.40","2749896","co37720","norming","","","","","","",""
"null","../img/tt/1309tt.jpg","null","mooney1","image-keyboard-response","287","948844","0.0-6.0-1.40","2749896","co37720","norming","","","","","","",""
"5146.255000000121","","","post_mooney1_questions","survey-likert","288","953992","0.0-6.0-2.40","2749896","co37720","norming","","","{""curiosity"":5,""confidence"":3}","[0,1]","../img/tt/1309tt.jpg","",""
"1949.744999999879","","","recognition","survey-text","289","955944","0.0-6.0-3.40","2749896","co37720","norming","","","{""guess"":""bos""}","","../img/tt/1309tt.jpg","",""
"null","../img/gs/1309gs.jpg","null","reveal","image-keyboard-response","290","957949","0.0-6.0-4.40","2749896","co37720","norming","","","","","","",""
"null","../img/tt/1309tt.jpg","null","mooney2","image-keyboard-response","291","959958","0.0-6.0-5.40","2749896","co37720","norming","","","","","","",""
"4806.3650000002235","","","post_reveal_questions","survey-likert","292","964768","0.0-6.0-6.40","2749896","co37720","norming","","","{""aha"":2}","[0]","../img/tt/1309tt.jpg","",""
"null","<div style=""font-size:60px;""> </div>","null","fixation","html-keyboard-response","293","964976","0.0-6.0-0.41","2749896","co37720","norming","","","","","","",""
"null","../img/tt/534tt.jpg","null","mooney1","image-keyboard-response","294","967985","0.0-6.0-1.41","2749896","co37720","norming","","","","","","",""
"6156.299999999814","","","post_mooney1_questions","survey-likert","295","974144","0.0-6.0-2.41","2749896","co37720","norming","","","{""curiosity"":6,""confidence"":4}","[0,1]","../img/tt/534tt.jpg","",""
"2662.155000000028","","","recognition","survey-text","296","976808","0.0-6.0-3.41","2749896","co37720","norming","","","{""guess"":""cactus""}","","../img/tt/534tt.jpg","",""
"null","../img/gs/534gs.jpg","null","reveal","image-keyboard-response","297","978811","0.0-6.0-4.41","2749896","co37720","norming","","","","","","",""
"null","../img/tt/534tt.jpg","null","mooney2","image-keyboard-response","298","980813","0.0-6.0-5.41","2749896","co37720","norming","","","","","","",""
"2657.024999999907","","","post_reveal_questions","survey-likert","299","983472","0.0-6.0-6.41","2749896","co37720","norming","","","{""aha"":1}","[0]","../img/tt/534tt.jpg","",""
"null","<div style=""font-size:60px;""> </div>","null","fixation","html-keyboard-response","300","983674","0.0-6.0-0.42","2749896","co37720","norming","","","","","","",""
"null","../img/tt/1272tt.jpg","null","mooney1","image-keyboard-response","301","986682","0.0-6.0-1.42","2749896","co37720","norming","","","","","","",""
"7116.905000000144","","","post_mooney1_questions","survey-likert","302","993800","0.0-6.0-2.42","2749896","co37720","norming","","","{""curiosity"":5,""confidence"":1}","[0,1]","../img/tt/1272tt.jpg","",""
"3374.109999999986","","","recognition","survey-text","303","997176","0.0-6.0-3.42","2749896","co37720","norming","","","{""guess"":""slang""}","","../img/tt/1272tt.jpg","",""
"null","../img/gs/1272gs.jpg","null","reveal","image-keyboard-response","304","999177","0.0-6.0-4.42","2749896","co37720","norming","","","","","","",""
"null","../img/tt/1272tt.jpg","null","mooney2","image-keyboard-response","305","1001179","0.0-6.0-5.42","2749896","co37720","norming","","","","","","",""
"2311.680000000051","","","post_reveal_questions","survey-likert","306","1003496","0.0-6.0-6.42","2749896","co37720","norming","","","{""aha"":6}","[0]","../img/tt/1272tt.jpg","",""
"null","<div style=""font-size:60px;""> </div>","null","fixation","html-keyboard-response","307","1003701","0.0-6.0-0.43","2749896","co37720","norming","","","","","","",""
"null","../img/tt/315tt.jpg","null","mooney1","image-keyboard-response","308","1006711","0.0-6.0-1.43","2749896","co37720","norming","","","","","","",""
"3965.315000000177","","","post_mooney1_questions","survey-likert","309","1010680","0.0-6.0-2.43","2749896","co37720","norming","","","{""curiosity"":6,""confidence"":0}","[0,1]","../img/tt/315tt.jpg","",""
"902.1150000001071","","","recognition","survey-text","310","1011584","0.0-6.0-3.43","2749896","co37720","norming","","","{""guess"":""""}","","../img/tt/315tt.jpg","",""
"null","../img/gs/315gs.jpg","null","reveal","image-keyboard-response","311","1013599","0.0-6.0-4.43","2749896","co37720","norming","","","","","","",""
"null","../img/tt/315tt.jpg","null","mooney2","image-keyboard-response","312","1015605","0.0-6.0-5.43","2749896","co37720","norming","","","","","","",""
"2658.2600000001257","","","post_reveal_questions","survey-likert","313","1018264","0.0-6.0-6.43","2749896","co37720","norming","","","{""aha"":6}","[0]","../img/tt/315tt.jpg","",""
"null","<div style=""font-size:60px;""> </div>","null","fixation","html-keyboard-response","314","1018466","0.0-6.0-0.44","2749896","co37720","norming","","","","","","",""
"null","../img/tt/296tt.jpg","null","mooney1","image-keyboard-response","315","1021475","0.0-6.0-1.44","2749896","co37720","norming","","","","","","",""
"6394.444999999949","","","post_mooney1_questions","survey-likert","316","1027872","0.0-6.0-2.44","2749896","co37720","norming","","","{""curiosity"":5,""confidence"":4}","[0,1]","../img/tt/296tt.jpg","",""
"3069.909999999916","","","recognition","survey-text","317","1030944","0.0-6.0-3.44","2749896","co37720","norming","","","{""guess"":""ziekenbed""}","","../img/tt/296tt.jpg","",""
"null","../img/gs/296gs.jpg","null","reveal","image-keyboard-response","318","1032945","0.0-6.0-4.44","2749896","co37720","norming","","","","","","",""
"null","../img/tt/296tt.jpg","null","mooney2","image-keyboard-response","319","1034951","0.0-6.0-5.44","2749896","co37720","norming","","","","","","",""
"5624.665000000037","","","post_reveal_questions","survey-likert","320","1040576","0.0-6.0-6.44","2749896","co37720","norming","","","{""aha"":2}","[0]","../img/tt/296tt.jpg","",""
"null","<div style=""font-size:60px;""> </div>","null","fixation","html-keyboard-response","321","1040781","0.0-6.0-0.45","2749896","co37720","norming","","","","","","",""
"null","../img/tt/1254tt.jpg","null","mooney1","image-keyboard-response","322","1043784","0.0-6.0-1.45","2749896","co37720","norming","","","","","","",""
"6077.445000000065","","","post_mooney1_questions","survey-likert","323","1049865","0.0-6.0-2.45","2749896","co37720","norming","","","{""curiosity"":0,""confidence"":6}","[0,1]","../img/tt/1254tt.jpg","",""
"2534.274999999907","","","recognition","survey-text","324","1052400","0.0-6.0-3.45","2749896","co37720","norming","","","{""guess"":""konijn""}","","../img/tt/1254tt.jpg","",""
"null","../img/gs/1254gs.jpg","null","reveal","image-keyboard-response","325","1054402","0.0-6.0-4.45","2749896","co37720","norming","","","","","","",""
"null","../img/tt/1254tt.jpg","null","mooney2","image-keyboard-response","326","1056403","0.0-6.0-5.45","2749896","co37720","norming","","","","","","",""
"1506.6400000001304","","","post_reveal_questions","survey-likert","327","1057912","0.0-6.0-6.45","2749896","co37720","norming","","","{""aha"":0}","[0]","../img/tt/1254tt.jpg","",""
"null","<div style=""font-size:60px;""> </div>","null","fixation","html-keyboard-response","328","1058114","0.0-6.0-0.46","2749896","co37720","norming","","","","","","",""
"null","../img/tt/1196tt.jpg","null","mooney1","image-keyboard-response","329","1061125","0.0-6.0-1.46","2749896","co37720","norming","","","","","","",""
"3488.969999999972","","","post_mooney1_questions","survey-likert","330","1064617","0.0-6.0-2.46","2749896","co37720","norming","","","{""curiosity"":6,""confidence"":0}","[0,1]","../img/tt/1196tt.jpg","",""
"949.9850000001024","","","recognition","survey-text","331","1065568","0.0-6.0-3.46","2749896","co37720","norming","","","{""guess"":""""}","","../img/tt/1196tt.jpg","",""
"null","../img/gs/1196gs.jpg","null","reveal","image-keyboard-response","332","1067575","0.0-6.0-4.46","2749896","co37720","norming","","","","","","",""
"null","../img/tt/1196tt.jpg","null","mooney2","image-keyboard-response","333","1069576","0.0-6.0-5.46","2749896","co37720","norming","","","","","","",""
"2405.564999999944","","","post_reveal_questions","survey-likert","334","1071984","0.0-6.0-6.46","2749896","co37720","norming","","","{""aha"":6}","[0]","../img/tt/1196tt.jpg","",""
"null","<div style=""font-size:60px;""> </div>","null","fixation","html-keyboard-response","335","1072186","0.0-6.0-0.47","2749896","co37720","norming","","","","","","",""
"null","../img/tt/053tt.jpg","null","mooney1","image-keyboard-response","336","1075193","0.0-6.0-1.47","2749896","co37720","norming","","","","","","",""
"4420.045000000158","","","post_mooney1_questions","survey-likert","337","1079616","0.0-6.0-2.47","2749896","co37720","norming","","","{""curiosity"":6,""confidence"":1}","[0,1]","../img/tt/053tt.jpg","",""
"10189.625","","","recognition","survey-text","338","1089808","0.0-6.0-3.47","2749896","co37720","norming","","","{""guess"":""zee golven""}","","../img/tt/053tt.jpg","",""
"null","../img/gs/053gs.jpg","null","reveal","image-keyboard-response","339","1091816","0.0-6.0-4.47","2749896","co37720","norming","","","","","","",""
"null","../img/tt/053tt.jpg","null","mooney2","image-keyboard-response","340","1093827","0.0-6.0-5.47","2749896","co37720","norming","","","","","","",""
"3898.4950000001118","","","post_reveal_questions","survey-likert","341","1097728","0.0-6.0-6.47","2749896","co37720","norming","","","{""aha"":6}","[0]","../img/tt/053tt.jpg","",""
"null","<div style=""font-size:60px;""> </div>","null","fixation","html-keyboard-response","342","1097937","0.0-6.0-0.48","2749896","co37720","norming","","","","","","",""
"null","../img/tt/076tt.jpg","null","mooney1","image-keyboard-response","343","1100946","0.0-6.0-1.48","2749896","co37720","norming","","","","","","",""
"3133.4200000001583","","","post_mooney1_questions","survey-likert","344","1104080","0.0-6.0-2.48","2749896","co37720","norming","","","{""curiosity"":6,""confidence"":2}","[0,1]","../img/tt/076tt.jpg","",""
"3966.25","","","recognition","survey-text","345","1108048","0.0-6.0-3.48","2749896","co37720","norming","","","{""guess"":""rolschaatsen""}","","../img/tt/076tt.jpg","",""
"null","../img/gs/076gs.jpg","null","reveal","image-keyboard-response","346","1110059","0.0-6.0-4.48","2749896","co37720","norming","","","","","","",""
"null","../img/tt/076tt.jpg","null","mooney2","image-keyboard-response","347","1112068","0.0-6.0-5.48","2749896","co37720","norming","","","","","","",""
"1778.190000000177","","","post_reveal_questions","survey-likert","348","1113848","0.0-6.0-6.48","2749896","co37720","norming","","","{""aha"":0}","[0]","../img/tt/076tt.jpg","",""
"null","<div style=""font-size:60px;""> </div>","null","fixation","html-keyboard-response","349","1114053","0.0-6.0-0.49","2749896","co37720","norming","","","","","","",""
"null","../img/tt/1063tt.jpg","null","mooney1","image-keyboard-response","350","1117064","0.0-6.0-1.49","2749896","co37720","norming","","","","","","",""
"6270.170000000391","","","post_mooney1_questions","survey-likert","351","1123336","0.0-6.0-2.49","2749896","co37720","norming","","","{""curiosity"":1,""confidence"":6}","[0,1]","../img/tt/1063tt.jpg","",""
"2886.035000000149","","","recognition","survey-text","352","1126224","0.0-6.0-3.49","2749896","co37720","norming","","","{""guess"":""paarden""}","","../img/tt/1063tt.jpg","",""
"null","../img/gs/1063gs.jpg","null","reveal","image-keyboard-response","353","1128230","0.0-6.0-4.49","2749896","co37720","norming","","","","","","",""
"null","../img/tt/1063tt.jpg","null","mooney2","image-keyboard-response","354","1130232","0.0-6.0-5.49","2749896","co37720","norming","","","","","","",""
"2501.454999999609","","","post_reveal_questions","survey-likert","355","1132736","0.0-6.0-6.49","2749896","co37720","norming","","","{""aha"":0}","[0]","../img/tt/1063tt.jpg","",""
"null","<div style=""font-size:60px;""> </div>","null","fixation","html-keyboard-response","356","1132938","0.0-6.0-0.50","2749896","co37720","norming","","","","","","",""
"null","../img/tt/007tt.jpg","null","mooney1","image-keyboard-response","357","1135940","0.0-6.0-1.50","2749896","co37720","norming","","","","","","",""
"3977.975000000326","","","post_mooney1_questions","survey-likert","358","1139921","0.0-6.0-2.50","2749896","co37720","norming","","","{""curiosity"":6,""confidence"":0}","[0,1]","../img/tt/007tt.jpg","",""
"1134.1799999999348","","","recognition","survey-text","359","1141056","0.0-6.0-3.50","2749896","co37720","norming","","","{""guess"":""""}","","../img/tt/007tt.jpg","",""
"null","../img/gs/007gs.jpg","null","reveal","image-keyboard-response","360","1143059","0.0-6.0-4.50","2749896","co37720","norming","","","","","","",""
"null","../img/tt/007tt.jpg","null","mooney2","image-keyboard-response","361","1145060","0.0-6.0-5.50","2749896","co37720","norming","","","","","","",""
"3162.440000000177","","","post_reveal_questions","survey-likert","362","1148224","0.0-6.0-6.50","2749896","co37720","norming","","","{""aha"":6}","[0]","../img/tt/007tt.jpg","",""
"null","<div style=""font-size:60px;""> </div>","null","fixation","html-keyboard-response","363","1148427","0.0-6.0-0.51","2749896","co37720","norming","","","","","","",""
"null","../img/tt/517tt.jpg","null","mooney1","image-keyboard-response","364","1151433","0.0-6.0-1.51","2749896","co37720","norming","","","","","","",""
"6036.824999999721","","","post_mooney1_questions","survey-likert","365","1157473","0.0-6.0-2.51","2749896","co37720","norming","","","{""curiosity"":6,""confidence"":1}","[0,1]","../img/tt/517tt.jpg","",""
"1774.1399999998976","","","recognition","survey-text","366","1159248","0.0-6.0-3.51","2749896","co37720","norming","","","{""guess"":""dier""}","","../img/tt/517tt.jpg","",""
"null","../img/gs/517gs.jpg","null","reveal","image-keyboard-response","367","1161258","0.0-6.0-4.51","2749896","co37720","norming","","","","","","",""
"null","../img/tt/517tt.jpg","null","mooney2","image-keyboard-response","368","1163268","0.0-6.0-5.51","2749896","co37720","norming","","","","","","",""
"4696.495000000112","","","post_reveal_questions","survey-likert","369","1167968","0.0-6.0-6.51","2749896","co37720","norming","","","{""aha"":6}","[0]","../img/tt/517tt.jpg","",""
"null","<div style=""font-size:60px;""> </div>","null","fixation","html-keyboard-response","370","1168170","0.0-6.0-0.52","2749896","co37720","norming","","","","","","",""
"null","../img/tt/1251tt.jpg","null","mooney1","image-keyboard-response","371","1171179","0.0-6.0-1.52","2749896","co37720","norming","","","","","","",""
"4554.085000000428","","","post_mooney1_questions","survey-likert","372","1175737","0.0-6.0-2.52","2749896","co37720","norming","","","{""curiosity"":6,""confidence"":2}","[0,1]","../img/tt/1251tt.jpg","",""
"1990.1149999999907","","","recognition","survey-text","373","1177728","0.0-6.0-3.52","2749896","co37720","norming","","","{""guess"":""beer""}","","../img/tt/1251tt.jpg","",""
"null","../img/gs/1251gs.jpg","null","reveal","image-keyboard-response","374","1179740","0.0-6.0-4.52","2749896","co37720","norming","","","","","","",""
"null","../img/tt/1251tt.jpg","null","mooney2","image-keyboard-response","375","1181749","0.0-6.0-5.52","2749896","co37720","norming","","","","","","",""
"2434.7150000003166","","","post_reveal_questions","survey-likert","376","1184184","0.0-6.0-6.52","2749896","co37720","norming","","","{""aha"":5}","[0]","../img/tt/1251tt.jpg","",""
"null","<div style=""font-size:60px;""> </div>","null","fixation","html-keyboard-response","377","1184385","0.0-6.0-0.53","2749896","co37720","norming","","","","","","",""
"null","../img/tt/1004tt.jpg","null","mooney1","image-keyboard-response","378","1187392","0.0-6.0-1.53","2749896","co37720","norming","","","","","","",""
"3941.2299999999814","","","post_mooney1_questions","survey-likert","379","1191337","0.0-6.0-2.53","2749896","co37720","norming","","","{""curiosity"":6,""confidence"":0}","[0,1]","../img/tt/1004tt.jpg","",""
"1158.0149999998976","","","recognition","survey-text","380","1192496","0.0-6.0-3.53","2749896","co37720","norming","","","{""guess"":""""}","","../img/tt/1004tt.jpg","",""
"null","../img/gs/1004gs.jpg","null","reveal","image-keyboard-response","381","1194499","0.0-6.0-4.53","2749896","co37720","norming","","","","","","",""
"null","../img/tt/1004tt.jpg","null","mooney2","image-keyboard-response","382","1196501","0.0-6.0-5.53","2749896","co37720","norming","","","","","","",""
"2115.2000000001863","","","post_reveal_questions","survey-likert","383","1198617","0.0-6.0-6.53","2749896","co37720","norming","","","{""aha"":6}","[0]","../img/tt/1004tt.jpg","",""
"null","<div style=""font-size:60px;""> </div>","null","fixation","html-keyboard-response","384","1198827","0.0-6.0-0.54","2749896","co37720","norming","","","","","","",""
"null","../img/tt/135tt.jpg","null","mooney1","image-keyboard-response","385","1201830","0.0-6.0-1.54","2749896","co37720","norming","","","","","","",""
"4104.625","","","post_mooney1_questions","survey-likert","386","1205937","0.0-6.0-2.54","2749896","co37720","norming","","","{""curiosity"":0,""confidence"":6}","[0,1]","../img/tt/135tt.jpg","",""
"1886.280000000028","","","recognition","survey-text","387","1207825","0.0-6.0-3.54","2749896","co37720","norming","","","{""guess"":""wc""}","","../img/tt/135tt.jpg","",""
"null","../img/gs/135gs.jpg","null","reveal","image-keyboard-response","388","1209835","0.0-6.0-4.54","2749896","co37720","norming","","","","","","",""
"null","../img/tt/135tt.jpg","null","mooney2","image-keyboard-response","389","1211837","0.0-6.0-5.54","2749896","co37720","norming","","","","","","",""
"2361.7899999998044","","","post_reveal_questions","survey-likert","390","1214201","0.0-6.0-6.54","2749896","co37720","norming","","","{""aha"":0}","[0]","../img/tt/135tt.jpg","",""
"null","<div style=""font-size:60px;""> </div>","null","fixation","html-keyboard-response","391","1214412","0.0-6.0-0.55","2749896","co37720","norming","","","","","","",""
"null","../img/tt/456tt.jpg","null","mooney1","image-keyboard-response","392","1217414","0.0-6.0-1.55","2749896","co37720","norming","","","","","","",""
"4487.744999999879","","","post_mooney1_questions","survey-likert","393","1221905","0.0-6.0-2.55","2749896","co37720","norming","","","{""curiosity"":5,""confidence"":6}","[0,1]","../img/tt/456tt.jpg","",""
"2398.2900000000373","","","recognition","survey-text","394","1224305","0.0-6.0-3.55","2749896","co37720","norming","","","{""guess"":""ijsbeer""}","","../img/tt/456tt.jpg","",""
"null","../img/gs/456gs.jpg","null","reveal","image-keyboard-response","395","1226313","0.0-6.0-4.55","2749896","co37720","norming","","","","","","",""
"null","../img/tt/456tt.jpg","null","mooney2","image-keyboard-response","396","1228314","0.0-6.0-5.55","2749896","co37720","norming","","","","","","",""
"1692.5600000000559","","","post_reveal_questions","survey-likert","397","1230009","0.0-6.0-6.55","2749896","co37720","norming","","","{""aha"":0}","[0]","../img/tt/456tt.jpg","",""
"null","<div style=""font-size:60px;""> </div>","null","fixation","html-keyboard-response","398","1230217","0.0-6.0-0.56","2749896","co37720","norming","","","","","","",""
"null","../img/tt/1232tt.jpg","null","mooney1","image-keyboard-response","399","1233221","0.0-6.0-1.56","2749896","co37720","norming","","","","","","",""
"4384.930000000168","","","post_mooney1_questions","survey-likert","400","1237609","0.0-6.0-2.56","2749896","co37720","norming","","","{""curiosity"":6,""confidence"":1}","[0,1]","../img/tt/1232tt.jpg","",""
"1638.059999999823","","","recognition","survey-text","401","1239249","0.0-6.0-3.56","2749896","co37720","norming","","","{""guess"":""eend""}","","../img/tt/1232tt.jpg","",""
"null","../img/gs/1232gs.jpg","null","reveal","image-keyboard-response","402","1241255","0.0-6.0-4.56","2749896","co37720","norming","","","","","","",""
"null","../img/tt/1232tt.jpg","null","mooney2","image-keyboard-response","403","1243257","0.0-6.0-5.56","2749896","co37720","norming","","","","","","",""
"2804.6049999997485","","","post_reveal_questions","survey-likert","404","1246065","0.0-6.0-6.56","2749896","co37720","norming","","","{""aha"":5}","[0]","../img/tt/1232tt.jpg","",""
"null","<div style=""font-size:60px;""> </div>","null","fixation","html-keyboard-response","405","1246268","0.0-6.0-0.57","2749896","co37720","norming","","","","","","",""
"null","../img/tt/031tt.jpg","null","mooney1","image-keyboard-response","406","1249276","0.0-6.0-1.57","2749896","co37720","norming","","","","","","",""
"4762.545000000158","","","post_mooney1_questions","survey-likert","407","1254041","0.0-6.0-2.57","2749896","co37720","norming","","","{""curiosity"":4,""confidence"":6}","[0,1]","../img/tt/031tt.jpg","",""
"1814.155000000028","","","recognition","survey-text","408","1255857","0.0-6.0-3.57","2749896","co37720","norming","","","{""guess"":""beer""}","","../img/tt/031tt.jpg","",""
"null","../img/gs/031gs.jpg","null","reveal","image-keyboard-response","409","1257861","0.0-6.0-4.57","2749896","co37720","norming","","","","","","",""
"null","../img/tt/031tt.jpg","null","mooney2","image-keyboard-response","410","1259863","0.0-6.0-5.57","2749896","co37720","norming","","","","","","",""
"2384.994999999879","","","post_reveal_questions","survey-likert","411","1262250","0.0-6.0-6.57","2749896","co37720","norming","","","{""aha"":1}","[0]","../img/tt/031tt.jpg","",""
"null","<div style=""font-size:60px;""> </div>","null","fixation","html-keyboard-response","412","1262451","0.0-6.0-0.58","2749896","co37720","norming","","","","","","",""
"null","../img/tt/1260tt.jpg","null","mooney1","image-keyboard-response","413","1265454","0.0-6.0-1.58","2749896","co37720","norming","","","","","","",""
"5704.600000000093","","","post_mooney1_questions","survey-likert","414","1271163","0.0-6.0-2.58","2749896","co37720","norming","","","{""curiosity"":6,""confidence"":0}","[0,1]","../img/tt/1260tt.jpg","",""
"821.8649999997579","","","recognition","survey-text","415","1271986","0.0-6.0-3.58","2749896","co37720","norming","","","{""guess"":""""}","","../img/tt/1260tt.jpg","",""
"null","../img/gs/1260gs.jpg","null","reveal","image-keyboard-response","416","1273991","0.0-6.0-4.58","2749896","co37720","norming","","","","","","",""
"null","../img/tt/1260tt.jpg","null","mooney2","image-keyboard-response","417","1275997","0.0-6.0-5.58","2749896","co37720","norming","","","","","","",""
"2578.994999999879","","","post_reveal_questions","survey-likert","418","1278579","0.0-6.0-6.58","2749896","co37720","norming","","","{""aha"":6}","[0]","../img/tt/1260tt.jpg","",""
"null","<div style=""font-size:60px;""> </div>","null","fixation","html-keyboard-response","419","1278787","0.0-6.0-0.59","2749896","co37720","norming","","","","","","",""
"null","../img/tt/590tt.jpg","null","mooney1","image-keyboard-response","420","1281791","0.0-6.0-1.59","2749896","co37720","norming","","","","","","",""
"4367.830000000307","","","post_mooney1_questions","survey-likert","421","1286162","0.0-6.0-2.59","2749896","co37720","norming","","","{""curiosity"":6,""confidence"":0}","[0,1]","../img/tt/590tt.jpg","",""
"805.9699999999721","","","recognition","survey-text","422","1286970","0.0-6.0-3.59","2749896","co37720","norming","","","{""guess"":""""}","","../img/tt/590tt.jpg","",""
"null","../img/gs/590gs.jpg","null","reveal","image-keyboard-response","423","1288972","0.0-6.0-4.59","2749896","co37720","norming","","","","","","",""
"null","../img/tt/590tt.jpg","null","mooney2","image-keyboard-response","424","1290973","0.0-6.0-5.59","2749896","co37720","norming","","","","","","",""
"2508.374999999767","","","post_reveal_questions","survey-likert","425","1293482","0.0-6.0-6.59","2749896","co37720","norming","","","{""aha"":6}","[0]","../img/tt/590tt.jpg","",""
"null","<div style=""font-size:60px;""> </div>","null","fixation","html-keyboard-response","426","1293690","0.0-6.0-0.60","2749896","co37720","norming","","","","","","",""
"null","../img/tt/1118tt.jpg","null","mooney1","image-keyboard-response","427","1296698","0.0-6.0-1.60","2749896","co37720","norming","","","","","","",""
"4821.685000000289","","","post_mooney1_questions","survey-likert","428","1301523","0.0-6.0-2.60","2749896","co37720","norming","","","{""curiosity"":6,""confidence"":1}","[0,1]","../img/tt/1118tt.jpg","",""
"1886.029999999795","","","recognition","survey-text","429","1303410","0.0-6.0-3.60","2749896","co37720","norming","","","{""guess"":""auto""}","","../img/tt/1118tt.jpg","",""
"null","../img/gs/1118gs.jpg","null","reveal","image-keyboard-response","430","1305414","0.0-6.0-4.60","2749896","co37720","norming","","","","","","",""
"null","../img/tt/1118tt.jpg","null","mooney2","image-keyboard-response","431","1307416","0.0-6.0-5.60","2749896","co37720","norming","","","","","","",""
"2280.0100000000093","","","post_reveal_questions","survey-likert","432","1309698","0.0-6.0-6.60","2749896","co37720","norming","","","{""aha"":6}","[0]","../img/tt/1118tt.jpg","",""
"null","<div style=""font-size:60px;""> </div>","null","fixation","html-keyboard-response","433","1309903","0.0-6.0-0.61","2749896","co37720","norming","","","","","","",""
"null","../img/tt/1087tt.jpg","null","mooney1","image-keyboard-response","434","1312905","0.0-6.0-1.61","2749896","co37720","norming","","","","","","",""
"3552.4599999999627","","","post_mooney1_questions","survey-likert","435","1316459","0.0-6.0-2.61","2749896","co37720","norming","","","{""curiosity"":6,""confidence"":0}","[0,1]","../img/tt/1087tt.jpg","",""
"1301.5399999998044","","","recognition","survey-text","436","1317762","0.0-6.0-3.61","2749896","co37720","norming","","","{""guess"":""""}","","../img/tt/1087tt.jpg","",""
"null","../img/gs/1087gs.jpg","null","reveal","image-keyboard-response","437","1319766","0.0-6.0-4.61","2749896","co37720","norming","","","","","","",""
"null","../img/tt/1087tt.jpg","null","mooney2","image-keyboard-response","438","1321768","0.0-6.0-5.61","2749896","co37720","norming","","","","","","",""
"1913.9850000001024","","","post_reveal_questions","survey-likert","439","1323684","0.0-6.0-6.61","2749896","co37720","norming","","","{""aha"":5}","[0]","../img/tt/1087tt.jpg","",""
"null","<div style=""font-size:60px;""> </div>","null","fixation","html-keyboard-response","440","1323886","0.0-6.0-0.62","2749896","co37720","norming","","","","","","",""
"null","../img/tt/1243tt.jpg","null","mooney1","image-keyboard-response","441","1326887","0.0-6.0-1.62","2749896","co37720","norming","","","","","","",""
"3946.5749999999534","","","post_mooney1_questions","survey-likert","442","1330836","0.0-6.0-2.62","2749896","co37720","norming","","","{""curiosity"":6,""confidence"":1}","[0,1]","../img/tt/1243tt.jpg","",""
"2334.189999999944","","","recognition","survey-text","443","1333172","0.0-6.0-3.62","2749896","co37720","norming","","","{""guess"":""aapjes""}","","../img/tt/1243tt.jpg","",""
"null","../img/gs/1243gs.jpg","null","reveal","image-keyboard-response","444","1335178","0.0-6.0-4.62","2749896","co37720","norming","","","","","","",""
"null","../img/tt/1243tt.jpg","null","mooney2","image-keyboard-response","445","1337179","0.0-6.0-5.62","2749896","co37720","norming","","","","","","",""
"2038.6000000000931","","","post_reveal_questions","survey-likert","446","1339220","0.0-6.0-6.62","2749896","co37720","norming","","","{""aha"":6}","[0]","../img/tt/1243tt.jpg","",""
"null","<div style=""font-size:60px;""> </div>","null","fixation","html-keyboard-response","447","1339426","0.0-6.0-0.63","2749896","co37720","norming","","","","","","",""
"null","../img/tt/1205tt.jpg","null","mooney1","image-keyboard-response","448","1342436","0.0-6.0-1.63","2749896","co37720","norming","","","","","","",""
"6556.744999999879","","","post_mooney1_questions","survey-likert","449","1348996","0.0-6.0-2.63","2749896","co37720","norming","","","{""curiosity"":5,""confidence"":5}","[0,1]","../img/tt/1205tt.jpg","",""
"2302.179999999935","","","recognition","survey-text","450","1351300","0.0-6.0-3.63","2749896","co37720","norming","","","{""guess"":""dansers""}","","../img/tt/1205tt.jpg","",""
"null","../img/gs/1205gs.jpg","null","reveal","image-keyboard-response","451","1353305","0.0-6.0-4.63","2749896","co37720","norming","","","","","","",""
"null","../img/tt/1205tt.jpg","null","mooney2","image-keyboard-response","452","1355307","0.0-6.0-5.63","2749896","co37720","norming","","","","","","",""
"3302.3300000000745","","","post_reveal_questions","survey-likert","453","1358612","0.0-6.0-6.63","2749896","co37720","norming","","","{""aha"":6}","[0]","../img/tt/1205tt.jpg","",""
"null","<div style=""font-size:60px;""> </div>","null","fixation","html-keyboard-response","454","1358815","0.0-6.0-0.64","2749896","co37720","norming","","","","","","",""
"null","../img/tt/552tt.jpg","null","mooney1","image-keyboard-response","455","1361818","0.0-6.0-1.64","2749896","co37720","norming","","","","","","",""
"7423.489999999991","","","post_mooney1_questions","survey-likert","456","1369244","0.0-6.0-2.64","2749896","co37720","norming","","","{""curiosity"":3,""confidence"":6}","[0,1]","../img/tt/552tt.jpg","",""
"3013.875","","","recognition","survey-text","457","1372260","0.0-6.0-3.64","2749896","co37720","norming","","","{""guess"":""stinkdier""}","","../img/tt/552tt.jpg","",""
"null","../img/gs/552gs.jpg","null","reveal","image-keyboard-response","458","1374261","0.0-6.0-4.64","2749896","co37720","norming","","","","","","",""
"null","../img/tt/552tt.jpg","null","mooney2","image-keyboard-response","459","1376266","0.0-6.0-5.64","2749896","co37720","norming","","","","","","",""
"1783.4599999999627","","","post_reveal_questions","survey-likert","460","1378052","0.0-6.0-6.64","2749896","co37720","norming","","","{""aha"":0}","[0]","../img/tt/552tt.jpg","",""
"null","<div style=""font-size:60px;""> </div>","null","fixation","html-keyboard-response","461","1378255","0.0-6.0-0.65","2749896","co37720","norming","","","","","","",""
"null","../img/tt/084tt.jpg","null","mooney1","image-keyboard-response","462","1381268","0.0-6.0-1.65","2749896","co37720","norming","","","","","","",""
"4823.26500000013","","","post_mooney1_questions","survey-likert","463","1386094","0.0-6.0-2.65","2749896","co37720","norming","","","{""curiosity"":6,""confidence"":1}","[0,1]","../img/tt/084tt.jpg","",""
"1766.0249999999069","","","recognition","survey-text","464","1387862","0.0-6.0-3.65","2749896","co37720","norming","","","{""guess"":""duif""}","","../img/tt/084tt.jpg","",""
"null","../img/gs/084gs.jpg","null","reveal","image-keyboard-response","465","1389870","0.0-6.0-4.65","2749896","co37720","norming","","","","","","",""
"null","../img/tt/084tt.jpg","null","mooney2","image-keyboard-response","466","1391871","0.0-6.0-5.65","2749896","co37720","norming","","","","","","",""
"1867.780000000028","","","post_reveal_questions","survey-likert","467","1393742","0.0-6.0-6.65","2749896","co37720","norming","","","{""aha"":6}","[0]","../img/tt/084tt.jpg","",""
"null","<div style=""font-size:60px;""> </div>","null","fixation","html-keyboard-response","468","1393949","0.0-6.0-0.66","2749896","co37720","norming","","","","","","",""
"null","../img/tt/1125tt.jpg","null","mooney1","image-keyboard-response","469","1396960","0.0-6.0-1.66","2749896","co37720","norming","","","","","","",""
"5493.065000000177","","","post_mooney1_questions","survey-likert","470","1402454","0.0-6.0-2.66","2749896","co37720","norming","","","{""curiosity"":6,""confidence"":0}","[0,1]","../img/tt/1125tt.jpg","",""
"741.8800000001211","","","recognition","survey-text","471","1403198","0.0-6.0-3.66","2749896","co37720","norming","","","{""guess"":""""}","","../img/tt/1125tt.jpg","",""
"null","../img/gs/1125gs.jpg","null","reveal","image-keyboard-response","472","1405205","0.0-6.0-4.66","2749896","co37720","norming","","","","","","",""
"null","../img/tt/1125tt.jpg","null","mooney2","image-keyboard-response","473","1407209","0.0-6.0-5.66","2749896","co37720","norming","","","","","","",""
"2714.3599999998696","","","post_reveal_questions","survey-likert","474","1409926","0.0-6.0-6.66","2749896","co37720","norming","","","{""aha"":6}","[0]","../img/tt/1125tt.jpg","",""
"null","<div style=""font-size:60px;""> </div>","null","fixation","html-keyboard-response","475","1410127","0.0-6.0-0.67","2749896","co37720","norming","","","","","","",""
"null","../img/tt/418tt.jpg","null","mooney1","image-keyboard-response","476","1413130","0.0-6.0-1.67","2749896","co37720","norming","","","","","","",""
"5289.0200000002515","","","post_mooney1_questions","survey-likert","477","1418422","0.0-6.0-2.67","2749896","co37720","norming","","","{""curiosity"":6,""confidence"":1}","[0,1]","../img/tt/418tt.jpg","",""
"1901.6549999995623","","","recognition","survey-text","478","1420325","0.0-6.0-3.67","2749896","co37720","norming","","","{""guess"":""vlees""}","","../img/tt/418tt.jpg","",""
"null","../img/gs/418gs.jpg","null","reveal","image-keyboard-response","479","1422331","0.0-6.0-4.67","2749896","co37720","norming","","","","","","",""
"null","../img/tt/418tt.jpg","null","mooney2","image-keyboard-response","480","1424336","0.0-6.0-5.67","2749896","co37720","norming","","","","","","",""
"2970.7899999998044","","","post_reveal_questions","survey-likert","481","1427310","0.0-6.0-6.67","2749896","co37720","norming","","","{""aha"":5}","[0]","../img/tt/418tt.jpg","",""
"null","<div style=""font-size:60px;""> </div>","null","fixation","html-keyboard-response","482","1427515","0.0-6.0-0.68","2749896","co37720","norming","","","","","","",""
"null","../img/tt/1175tt.jpg","null","mooney1","image-keyboard-response","483","1430518","0.0-6.0-1.68","2749896","co37720","norming","","","","","","",""
"4260.264999999898","","","post_mooney1_questions","survey-likert","484","1434782","0.0-6.0-2.68","2749896","co37720","norming","","","{""curiosity"":6,""confidence"":1}","[0,1]","../img/tt/1175tt.jpg","",""
"4213.9900000002235","","","recognition","survey-text","485","1438998","0.0-6.0-3.68","2749896","co37720","norming","","","{""guess"":""mensen hoeden""}","","../img/tt/1175tt.jpg","",""
"null","../img/gs/1175gs.jpg","null","reveal","image-keyboard-response","486","1441000","0.0-6.0-4.68","2749896","co37720","norming","","","","","","",""
"null","../img/tt/1175tt.jpg","null","mooney2","image-keyboard-response","487","1443008","0.0-6.0-5.68","2749896","co37720","norming","","","","","","",""
"2950.690000000177","","","post_reveal_questions","survey-likert","488","1445959","0.0-6.0-6.68","2749896","co37720","norming","","","{""aha"":6}","[0]","../img/tt/1175tt.jpg","",""
"null","<div style=""font-size:60px;""> </div>","null","fixation","html-keyboard-response","489","1446164","0.0-6.0-0.69","2749896","co37720","norming","","","","","","",""
"null","../img/tt/584tt.jpg","null","mooney1","image-keyboard-response","490","1449170","0.0-6.0-1.69","2749896","co37720","norming","","","","","","",""
"4626.114999999991","","","post_mooney1_questions","survey-likert","491","1453799","0.0-6.0-2.69","2749896","co37720","norming","","","{""curiosity"":6,""confidence"":1}","[0,1]","../img/tt/584tt.jpg","",""
"2414.314999999944","","","recognition","survey-text","492","1456215","0.0-6.0-3.69","2749896","co37720","norming","","","{""guess"":""muizen""}","","../img/tt/584tt.jpg","",""
"null","../img/gs/584gs.jpg","null","reveal","image-keyboard-response","493","1458217","0.0-6.0-4.69","2749896","co37720","norming","","","","","","",""
"null","../img/tt/584tt.jpg","null","mooney2","image-keyboard-response","494","1460219","0.0-6.0-5.69","2749896","co37720","norming","","","","","","",""
"2209.934999999823","","","post_reveal_questions","survey-likert","495","1462432","0.0-6.0-6.69","2749896","co37720","norming","","","{""aha"":6}","[0]","../img/tt/584tt.jpg","",""
"null","<div style=""font-size:60px;""> </div>","null","fixation","html-keyboard-response","496","1462634","0.0-6.0-0.70","2749896","co37720","norming","","","","","","",""
"null","../img/tt/440tt.jpg","null","mooney1","image-keyboard-response","497","1465642","0.0-6.0-1.70","2749896","co37720","norming","","","","","","",""
"4346.864999999991","","","post_mooney1_questions","survey-likert","498","1469991","0.0-6.0-2.70","2749896","co37720","norming","","","{""curiosity"":6,""confidence"":1}","[0,1]","../img/tt/440tt.jpg","",""
"3102.345000000205","","","recognition","survey-text","499","1473095","0.0-6.0-3.70","2749896","co37720","norming","","","{""guess"":""hek""}","","../img/tt/440tt.jpg","",""
"null","../img/gs/440gs.jpg","null","reveal","image-keyboard-response","500","1475104","0.0-6.0-4.70","2749896","co37720","norming","","","","","","",""
"null","../img/tt/440tt.jpg","null","mooney2","image-keyboard-response","501","1477106","0.0-6.0-5.70","2749896","co37720","norming","","","","","","",""
"3163.070000000065","","","post_reveal_questions","survey-likert","502","1480272","0.0-6.0-6.70","2749896","co37720","norming","","","{""aha"":5}","[0]","../img/tt/440tt.jpg","",""
"null","<div style=""font-size:60px;""> </div>","null","fixation","html-keyboard-response","503","1480474","0.0-6.0-0.71","2749896","co37720","norming","","","","","","",""
"null","../img/tt/515tt.jpg","null","mooney1","image-keyboard-response","504","1483478","0.0-6.0-1.71","2749896","co37720","norming","","","","","","",""
"4230.395000000019","","","post_mooney1_questions","survey-likert","505","1487712","0.0-6.0-2.71","2749896","co37720","norming","","","{""curiosity"":6,""confidence"":1}","[0,1]","../img/tt/515tt.jpg","",""
"2758.230000000447","","","recognition","survey-text","506","1490471","0.0-6.0-3.71","2749896","co37720","norming","","","{""guess"":""vogel""}","","../img/tt/515tt.jpg","",""
"null","../img/gs/515gs.jpg","null","reveal","image-keyboard-response","507","1492473","0.0-6.0-4.71","2749896","co37720","norming","","","","","","",""
"null","../img/tt/515tt.jpg","null","mooney2","image-keyboard-response","508","1494476","0.0-6.0-5.71","2749896","co37720","norming","","","","","","",""
"2321.3000000002794","","","post_reveal_questions","survey-likert","509","1496799","0.0-6.0-6.71","2749896","co37720","norming","","","{""aha"":5}","[0]","../img/tt/515tt.jpg","",""
"null","<div style=""font-size:60px;""> </div>","null","fixation","html-keyboard-response","510","1497001","0.0-6.0-0.72","2749896","co37720","norming","","","","","","",""
"null","../img/tt/1044tt.jpg","null","mooney1","image-keyboard-response","511","1500003","0.0-6.0-1.72","2749896","co37720","norming","","","","","","",""
"4536.950000000186","","","post_mooney1_questions","survey-likert","512","1504542","0.0-6.0-2.72","2749896","co37720","norming","","","{""curiosity"":1,""confidence"":6}","[0,1]","../img/tt/1044tt.jpg","",""
"2262.0150000001304","","","recognition","survey-text","513","1506806","0.0-6.0-3.72","2749896","co37720","norming","","","{""guess"":""giraf""}","","../img/tt/1044tt.jpg","",""
"null","../img/gs/1044gs.jpg","null","reveal","image-keyboard-response","514","1508815","0.0-6.0-4.72","2749896","co37720","norming","","","","","","",""
"null","../img/tt/1044tt.jpg","null","mooney2","image-keyboard-response","515","1510822","0.0-6.0-5.72","2749896","co37720","norming","","","","","","",""
"2565.135000000242","","","post_reveal_questions","survey-likert","516","1513390","0.0-6.0-6.72","2749896","co37720","norming","","","{""aha"":0}","[0]","../img/tt/1044tt.jpg","",""
"null","<div style=""font-size:60px;""> </div>","null","fixation","html-keyboard-response","517","1513598","0.0-6.0-0.73","2749896","co37720","norming","","","","","","",""
"null","../img/tt/405tt.jpg","null","mooney1","image-keyboard-response","518","1516602","0.0-6.0-1.73","2749896","co37720","norming","","","","","","",""
"3697.119999999879","","","post_mooney1_questions","survey-likert","519","1520302","0.0-6.0-2.73","2749896","co37720","norming","","","{""curiosity"":0,""confidence"":6}","[0,1]","../img/tt/405tt.jpg","",""
"2838.1399999996647","","","recognition","survey-text","520","1523142","0.0-6.0-3.73","2749896","co37720","norming","","","{""guess"":""koala""}","","../img/tt/405tt.jpg","",""
"null","../img/gs/405gs.jpg","null","reveal","image-keyboard-response","521","1525148","0.0-6.0-4.73","2749896","co37720","norming","","","","","","",""
"null","../img/tt/405tt.jpg","null","mooney2","image-keyboard-response","522","1527152","0.0-6.0-5.73","2749896","co37720","norming","","","","","","",""
"2554.5449999999255","","","post_reveal_questions","survey-likert","523","1529710","0.0-6.0-6.73","2749896","co37720","norming","","","{""aha"":0}","[0]","../img/tt/405tt.jpg","",""
"null","<div style=""font-size:60px;""> </div>","null","fixation","html-keyboard-response","524","1529911","0.0-6.0-0.74","2749896","co37720","norming","","","","","","",""
"null","../img/tt/319tt.jpg","null","mooney1","image-keyboard-response","525","1532915","0.0-6.0-1.74","2749896","co37720","norming","","","","","","",""
"4654.980000000447","","","post_mooney1_questions","survey-likert","526","1537574","0.0-6.0-2.74","2749896","co37720","norming","","","{""curiosity"":5,""confidence"":5}","[0,1]","../img/tt/319tt.jpg","",""
"2558.3000000000466","","","recognition","survey-text","527","1540134","0.0-6.0-3.74","2749896","co37720","norming","","","{""guess"":""ezels""}","","../img/tt/319tt.jpg","",""
"null","../img/gs/319gs.jpg","null","reveal","image-keyboard-response","528","1542136","0.0-6.0-4.74","2749896","co37720","norming","","","","","","",""
"null","../img/tt/319tt.jpg","null","mooney2","image-keyboard-response","529","1544141","0.0-6.0-5.74","2749896","co37720","norming","","","","","","",""
"2373.9749999998603","","","post_reveal_questions","survey-likert","530","1546518","0.0-6.0-6.74","2749896","co37720","norming","","","{""aha"":0}","[0]","../img/tt/319tt.jpg","",""
"null","<div style=""font-size:60px;""> </div>","null","fixation","html-keyboard-response","531","1546721","0.0-6.0-0.75","2749896","co37720","norming","","","","","","",""
"null","../img/tt/1096tt.jpg","null","mooney1","image-keyboard-response","532","1549728","0.0-6.0-1.75","2749896","co37720","norming","","","","","","",""
"3859.1999999999534","","","post_mooney1_questions","survey-likert","533","1553590","0.0-6.0-2.75","2749896","co37720","norming","","","{""curiosity"":6,""confidence"":3}","[0,1]","../img/tt/1096tt.jpg","",""
"4590.074999999953","","","recognition","survey-text","534","1558181","0.0-6.0-3.75","2749896","co37720","norming","","","{""guess"":""caf""}","","../img/tt/1096tt.jpg","",""
"null","../img/gs/1096gs.jpg","null","reveal","image-keyboard-response","535","1560184","0.0-6.0-4.75","2749896","co37720","norming","","","","","","",""
"null","../img/tt/1096tt.jpg","null","mooney2","image-keyboard-response","536","1562186","0.0-6.0-5.75","2749896","co37720","norming","","","","","","",""
"1817.1800000001676","","","post_reveal_questions","survey-likert","537","1564007","0.0-6.0-6.75","2749896","co37720","norming","","","{""aha"":6}","[0]","../img/tt/1096tt.jpg","",""
"null","<div style=""font-size:60px;""> </div>","null","fixation","html-keyboard-response","538","1564216","0.0-6.0-0.76","2749896","co37720","norming","","","","","","",""
"null","../img/tt/1236tt.jpg","null","mooney1","image-keyboard-response","539","1567219","0.0-6.0-1.76","2749896","co37720","norming","","","","","","",""
"5433.2599999997765","","","post_mooney1_questions","survey-likert","540","1572655","0.0-6.0-2.76","2749896","co37720","norming","","","{""curiosity"":6,""confidence"":4}","[0,1]","../img/tt/1236tt.jpg","",""
"2006.0849999999627","","","recognition","survey-text","541","1574663","0.0-6.0-3.76","2749896","co37720","norming","","","{""guess"":""eend""}","","../img/tt/1236tt.jpg","",""
"null","../img/gs/1236gs.jpg","null","reveal","image-keyboard-response","542","1576666","0.0-6.0-4.76","2749896","co37720","norming","","","","","","",""
"null","../img/tt/1236tt.jpg","null","mooney2","image-keyboard-response","543","1578667","0.0-6.0-5.76","2749896","co37720","norming","","","","","","",""
"2089.5200000000186","","","post_reveal_questions","survey-likert","544","1580759","0.0-6.0-6.76","2749896","co37720","norming","","","{""aha"":2}","[0]","../img/tt/1236tt.jpg","",""
"null","<div style=""font-size:60px;""> </div>","null","fixation","html-keyboard-response","545","1580963","0.0-6.0-0.77","2749896","co37720","norming","","","","","","",""
"null","../img/tt/1353tt.jpg","null","mooney1","image-keyboard-response","546","1583965","0.0-6.0-1.77","2749896","co37720","norming","","","","","","",""
"3838.850000000093","","","post_mooney1_questions","survey-likert","547","1587807","0.0-6.0-2.77","2749896","co37720","norming","","","{""curiosity"":6,""confidence"":0}","[0,1]","../img/tt/1353tt.jpg","",""
"1101.7699999997858","","","recognition","survey-text","548","1588911","0.0-6.0-3.77","2749896","co37720","norming","","","{""guess"":""""}","","../img/tt/1353tt.jpg","",""
"null","../img/gs/1353gs.jpg","null","reveal","image-keyboard-response","549","1590912","0.0-6.0-4.77","2749896","co37720","norming","","","","","","",""
"null","../img/tt/1353tt.jpg","null","mooney2","image-keyboard-response","550","1592923","0.0-6.0-5.77","2749896","co37720","norming","","","","","","",""
"2826.5999999998603","","","post_reveal_questions","survey-likert","551","1595751","0.0-6.0-6.77","2749896","co37720","norming","","","{""aha"":5}","[0]","../img/tt/1353tt.jpg","",""
"null","<div style=""font-size:60px;""> </div>","null","fixation","html-keyboard-response","552","1595954","0.0-6.0-0.78","2749896","co37720","norming","","","","","","",""
