"rt","stimulus","key_press","test_part","trial_type","trial_index","time_elapsed","internal_node_id","totalTime","subject","experiment_name","button_pressed","success","responses","question_order","currentStim","old","correct"
"5287.9549999997835","Welcome to the experiment. This is an online experiment so please don't close the tab/window until we say goodbye.  Press any key to begin.","68","instructions","html-keyboard-response","0","5303","0.0-0.0","2627040","co37540","norming","","","","","","",""
"37004.15500000054","<div style='word-wrap: break-word; width: 900px'><h3>Please consider this information carefully before deciding whether to participate in this research</h3><ul style='text-align: left; font-size: .8em;'><li><b>Purpose of the research</b>: To examine how people process images.</li><li><b>What you will do in this research</b>:  Stimuli (images) will be presented on the computer and you will be asked different questions about them.</li><li><b>Time required</b>: Participation will take between 45 and 60 minutes to complete.</li><li><b>Risks</b>:  There are no anticipated risks associated with participating in this study. The effects of participating should be comparable to those you would experience from viewing a computer monitor for 30 minutes and using a mouse or keyboard.</li><li><b>Benefits</b>:  This study provides no benefits to you individually except for the credit. The study provides important information about the nature of perception and learning.</li><li><b>Confidentiality</b>:  Your participation in this study will remain confidential. No personally identifiable information will be associated with your data. Your de-identified data may be shared with other researchers and used in future projects.</li><li><b>Participation and withdrawal</b>:  Your participation in this study is completely voluntary and you may refuse to participate or you may choose to withdraw at any time without penalty.</li><li><b>How to contact the researchers</b>: If you have questions or concerns about your participation or payment, or want to request a summary of research findings, please contact Sander Van de Cruys (KU Leuven), at sander.vandecruys@kuleuven.be.</li></ul><p>The nature and purpose of this research have been sufficiently explained and I agree to participate in this study.  I understand that I am free to withdraw at any time without incurring any penalty.</p><p>Please consent by clicking the button below to continue. Otherwise, please exit the study at this time.</p></div>","","instructions","html-button-response","1","42303","0.0-1.0","2627040","co37540","norming","0","","","","","",""
"","","","instructions","fullscreen","2","51353","0.0-2.0","2627040","co37540","norming","","true","","","","",""
"28314.760000001115","","","sona","survey-html-form","3","79674","0.0-3.0","2627040","co37540","norming","","","[{""name"":""sonaid"",""value"":""37540""},{""name"":""debrief"",""value"":""yes""},{""name"":""datajoin"",""value"":""yes""}]","","","",""
"68930.76999999904","<div style='word-wrap: break-word; width: 900px'><h3>Instructions</h3><p>This experiment will have 3 parts. In the first part you will see a series of distorted images like the one below on the left. As you can see in the righthand image, the distorted images are derived from actual photographs. In what follows, you will <strong>briefly</strong> be presented with <strong>only</strong> the distorted image.</p> <div style='float: left; margin-right: 20px;'><img src='../img/018tt.jpg' height='250' width='250'></img></div><div style='float: right; margin-left: 20px;'><img src='../img/018gs.jpg' height='250' width='250'></img></div><p>Subsequently you will be asked a few questions about the image: One question on how <strong>curious</strong> you are about the solution and one on how <strong>confident</strong> you are that you know the solution.</p>Next, we ask you to make a guess on what is in the image. Note that it is OK to name just the <strong>basic level category</strong>. For example when you see a parrot in the image, 'parrot' will obviously be a correct answer but also correct is 'bird'. However, 'animal' will <strong>not</strong> be counted as a correct response. For the example above, 'rose' would be correct or 'flower', but not 'plant'. When soccer players are depicted, 'soccer', 'football', 'soccer players' will be correct, but not 'humans', 'outdoors', or 'sports'. You do not need to describe the image in full, just name the main object in it <strong>in one or two words</strong>. All images depict objects from one of the following broad level categories: animals, inanimate objects, plants, sports, vehicles, and food. Recognizing means knowing <strong>more</strong> than these broad labels for a given image. But we always encourage you to <strong>make a guess</strong> if you can. Note that you are allowed to use <strong>Dutch and English</strong> in your answers, whatever comes easiest for you.</p><p>Press any key to continue.</p></div>","32","instructions","html-keyboard-response","4","148608","0.0-4.0","2627040","co37540","norming","","","","","","",""
"101616.40000000081","<div style='word-wrap: break-word; width: 900px'><h3>Instructions</h3> <p>Next, the solution image will be revealed to you and you'll be asked to indicate how strong your <strong>aha-experience</strong> was after seeing the solution. This describes the positive feeling of the 'click' you sometimes experience, when the pieces of the 'puzzle' fall together and you suddenly have 'insight' in the image.</p><img src='aha.jpg' height='188' width='250'></img><p>Note that there are no right or wrong answers. We are interested in what <strong>you</strong> see in the image and how <strong>you</strong> feel about it.</p><p>Press any key to start the experiment.</p></div>","32","instructions","html-keyboard-response","5","250234","0.0-5.0","2627040","co37540","norming","","","","","","",""
"null","<div style=""font-size:60px;""> </div>","null","fixation","html-keyboard-response","6","250442","0.0-6.0-0.0","2627040","co37540","norming","","","","","","",""
"null","../img/tt/194tt.jpg","null","mooney1","image-keyboard-response","7","253450","0.0-6.0-1.0","2627040","co37540","norming","","","","","","",""
"15988.170000000566","","","post_mooney1_questions","survey-likert","8","269442","0.0-6.0-2.0","2627040","co37540","norming","","","{""curiosity"":5,""confidence"":1}","[0,1]","../img/tt/194tt.jpg","",""
"9165.095000000321","","","recognition","survey-text","9","278609","0.0-6.0-3.0","2627040","co37540","norming","","","{""guess"":""een zwerver""}","","../img/tt/194tt.jpg","",""
"null","../img/gs/194gs.jpg","null","reveal","image-keyboard-response","10","280617","0.0-6.0-4.0","2627040","co37540","norming","","","","","","",""
"null","../img/tt/194tt.jpg","null","mooney2","image-keyboard-response","11","282623","0.0-6.0-5.0","2627040","co37540","norming","","","","","","",""
"6065.280000000726","","","post_reveal_questions","survey-likert","12","288689","0.0-6.0-6.0","2627040","co37540","norming","","","{""aha"":4}","[0]","../img/tt/194tt.jpg","",""
"null","<div style=""font-size:60px;""> </div>","null","fixation","html-keyboard-response","13","288897","0.0-6.0-0.1","2627040","co37540","norming","","","","","","",""
"null","../img/tt/1024tt.jpg","null","mooney1","image-keyboard-response","14","291908","0.0-6.0-1.1","2627040","co37540","norming","","","","","","",""
"3819.419999999809","","","post_mooney1_questions","survey-likert","15","295730","0.0-6.0-2.1","2627040","co37540","norming","","","{""curiosity"":4,""confidence"":3}","[0,1]","../img/tt/1024tt.jpg","",""
"4165.810000000405","","","recognition","survey-text","16","299897","0.0-6.0-3.1","2627040","co37540","norming","","","{""guess"":""fietser""}","","../img/tt/1024tt.jpg","",""
"null","../img/gs/1024gs.jpg","null","reveal","image-keyboard-response","17","301899","0.0-6.0-4.1","2627040","co37540","norming","","","","","","",""
"null","../img/tt/1024tt.jpg","null","mooney2","image-keyboard-response","18","303902","0.0-6.0-5.1","2627040","co37540","norming","","","","","","",""
"1825.210000000894","","","post_reveal_questions","survey-likert","19","305729","0.0-6.0-6.1","2627040","co37540","norming","","","{""aha"":2}","[0]","../img/tt/1024tt.jpg","",""
"null","<div style=""font-size:60px;""> </div>","null","fixation","html-keyboard-response","20","305937","0.0-6.0-0.2","2627040","co37540","norming","","","","","","",""
"null","../img/tt/405tt.jpg","null","mooney1","image-keyboard-response","21","308945","0.0-6.0-1.2","2627040","co37540","norming","","","","","","",""
"4910.1050000008545","","","post_mooney1_questions","survey-likert","22","313853","0.0-6.0-2.2","2627040","co37540","norming","","","{""curiosity"":4,""confidence"":2}","[0,1]","../img/tt/405tt.jpg","",""
"2381.9349999994156","","","recognition","survey-text","23","316237","0.0-6.0-3.2","2627040","co37540","norming","","","{""guess"":""hond""}","","../img/tt/405tt.jpg","",""
"null","../img/gs/405gs.jpg","null","reveal","image-keyboard-response","24","318245","0.0-6.0-4.2","2627040","co37540","norming","","","","","","",""
"null","../img/tt/405tt.jpg","null","mooney2","image-keyboard-response","25","320256","0.0-6.0-5.2","2627040","co37540","norming","","","","","","",""
"2266.340000000142","","","post_reveal_questions","survey-likert","26","322525","0.0-6.0-6.2","2627040","co37540","norming","","","{""aha"":4}","[0]","../img/tt/405tt.jpg","",""
"null","<div style=""font-size:60px;""> </div>","null","fixation","html-keyboard-response","27","322735","0.0-6.0-0.3","2627040","co37540","norming","","","","","","",""
"null","../img/tt/412tt.jpg","null","mooney1","image-keyboard-response","28","325743","0.0-6.0-1.3","2627040","co37540","norming","","","","","","",""
"3995.1450000007753","","","post_mooney1_questions","survey-likert","29","329741","0.0-6.0-2.3","2627040","co37540","norming","","","{""curiosity"":4,""confidence"":1}","[0,1]","../img/tt/412tt.jpg","",""
"3509.939999999886","","","recognition","survey-text","30","333252","0.0-6.0-3.3","2627040","co37540","norming","","","{""guess"":""""}","","../img/tt/412tt.jpg","",""
"null","../img/gs/412gs.jpg","null","reveal","image-keyboard-response","31","335254","0.0-6.0-4.3","2627040","co37540","norming","","","","","","",""
"null","../img/tt/412tt.jpg","null","mooney2","image-keyboard-response","32","337255","0.0-6.0-5.3","2627040","co37540","norming","","","","","","",""
"1595.355000001262","","","post_reveal_questions","survey-likert","33","338853","0.0-6.0-6.3","2627040","co37540","norming","","","{""aha"":2}","[0]","../img/tt/412tt.jpg","",""
"null","<div style=""font-size:60px;""> </div>","null","fixation","html-keyboard-response","34","339058","0.0-6.0-0.4","2627040","co37540","norming","","","","","","",""
"null","../img/tt/1268tt.jpg","null","mooney1","image-keyboard-response","35","342069","0.0-6.0-1.4","2627040","co37540","norming","","","","","","",""
"3381.2749999997322","","","post_mooney1_questions","survey-likert","36","345453","0.0-6.0-2.4","2627040","co37540","norming","","","{""curiosity"":5,""confidence"":1}","[0,1]","../img/tt/1268tt.jpg","",""
"3718.0200000002515","","","recognition","survey-text","37","349172","0.0-6.0-3.4","2627040","co37540","norming","","","{""guess"":""""}","","../img/tt/1268tt.jpg","",""
"null","../img/gs/1268gs.jpg","null","reveal","image-keyboard-response","38","351174","0.0-6.0-4.4","2627040","co37540","norming","","","","","","",""
"null","../img/tt/1268tt.jpg","null","mooney2","image-keyboard-response","39","353188","0.0-6.0-5.4","2627040","co37540","norming","","","","","","",""
"1934.6199999999953","","","post_reveal_questions","survey-likert","40","355125","0.0-6.0-6.4","2627040","co37540","norming","","","{""aha"":4}","[0]","../img/tt/1268tt.jpg","",""
"null","<div style=""font-size:60px;""> </div>","null","fixation","html-keyboard-response","41","355330","0.0-6.0-0.5","2627040","co37540","norming","","","","","","",""
"null","../img/tt/1128tt.jpg","null","mooney1","image-keyboard-response","42","358335","0.0-6.0-1.5","2627040","co37540","norming","","","","","","",""
"3323.8650000002817","","","post_mooney1_questions","survey-likert","43","361661","0.0-6.0-2.5","2627040","co37540","norming","","","{""curiosity"":5,""confidence"":3}","[0,1]","../img/tt/1128tt.jpg","",""
"2389.325000000128","","","recognition","survey-text","44","364053","0.0-6.0-3.5","2627040","co37540","norming","","","{""guess"":""beer""}","","../img/tt/1128tt.jpg","",""
"null","../img/gs/1128gs.jpg","null","reveal","image-keyboard-response","45","366058","0.0-6.0-4.5","2627040","co37540","norming","","","","","","",""
"null","../img/tt/1128tt.jpg","null","mooney2","image-keyboard-response","46","368061","0.0-6.0-5.5","2627040","co37540","norming","","","","","","",""
"1613.1350000014063","","","post_reveal_questions","survey-likert","47","369677","0.0-6.0-6.5","2627040","co37540","norming","","","{""aha"":4}","[0]","../img/tt/1128tt.jpg","",""
"null","<div style=""font-size:60px;""> </div>","null","fixation","html-keyboard-response","48","369885","0.0-6.0-0.6","2627040","co37540","norming","","","","","","",""
"null","../img/tt/1362tt.jpg","null","mooney1","image-keyboard-response","49","372900","0.0-6.0-1.6","2627040","co37540","norming","","","","","","",""
"4215.969999999332","","","post_mooney1_questions","survey-likert","50","377119","0.0-6.0-2.6","2627040","co37540","norming","","","{""curiosity"":4,""confidence"":2}","[0,1]","../img/tt/1362tt.jpg","",""
"4805.885000001581","","","recognition","survey-text","51","381926","0.0-6.0-3.6","2627040","co37540","norming","","","{""guess"":""confituurpot""}","","../img/tt/1362tt.jpg","",""
"null","../img/gs/1362gs.jpg","null","reveal","image-keyboard-response","52","383928","0.0-6.0-4.6","2627040","co37540","norming","","","","","","",""
"null","../img/tt/1362tt.jpg","null","mooney2","image-keyboard-response","53","385934","0.0-6.0-5.6","2627040","co37540","norming","","","","","","",""
"2846.365000001213","","","post_reveal_questions","survey-likert","54","388782","0.0-6.0-6.6","2627040","co37540","norming","","","{""aha"":5}","[0]","../img/tt/1362tt.jpg","",""
"null","<div style=""font-size:60px;""> </div>","null","fixation","html-keyboard-response","55","388984","0.0-6.0-0.7","2627040","co37540","norming","","","","","","",""
"null","../img/tt/063tt.jpg","null","mooney1","image-keyboard-response","56","391993","0.0-6.0-1.7","2627040","co37540","norming","","","","","","",""
"3538.55499999912","","","post_mooney1_questions","survey-likert","57","395535","0.0-6.0-2.7","2627040","co37540","norming","","","{""curiosity"":5,""confidence"":4}","[0,1]","../img/tt/063tt.jpg","",""
"6118.139999998675","","","recognition","survey-text","58","401654","0.0-6.0-3.7","2627040","co37540","norming","","","{""guess"":""typewriter""}","","../img/tt/063tt.jpg","",""
"null","../img/gs/063gs.jpg","null","reveal","image-keyboard-response","59","403661","0.0-6.0-4.7","2627040","co37540","norming","","","","","","",""
"null","../img/tt/063tt.jpg","null","mooney2","image-keyboard-response","60","405664","0.0-6.0-5.7","2627040","co37540","norming","","","","","","",""
"1628.4449999984936","","","post_reveal_questions","survey-likert","61","407294","0.0-6.0-6.7","2627040","co37540","norming","","","{""aha"":5}","[0]","../img/tt/063tt.jpg","",""
"null","<div style=""font-size:60px;""> </div>","null","fixation","html-keyboard-response","62","407501","0.0-6.0-0.8","2627040","co37540","norming","","","","","","",""
"null","../img/tt/1148tt.jpg","null","mooney1","image-keyboard-response","63","410507","0.0-6.0-1.8","2627040","co37540","norming","","","","","","",""
"4496.245000000286","","","post_mooney1_questions","survey-likert","64","415006","0.0-6.0-2.8","2627040","co37540","norming","","","{""curiosity"":5,""confidence"":1}","[0,1]","../img/tt/1148tt.jpg","",""
"1029.6249999992433","","","recognition","survey-text","65","416038","0.0-6.0-3.8","2627040","co37540","norming","","","{""guess"":""""}","","../img/tt/1148tt.jpg","",""
"null","../img/gs/1148gs.jpg","null","reveal","image-keyboard-response","66","418043","0.0-6.0-4.8","2627040","co37540","norming","","","","","","",""
"null","../img/tt/1148tt.jpg","null","mooney2","image-keyboard-response","67","420046","0.0-6.0-5.8","2627040","co37540","norming","","","","","","",""
"1854.020000000659","","","post_reveal_questions","survey-likert","68","421902","0.0-6.0-6.8","2627040","co37540","norming","","","{""aha"":4}","[0]","../img/tt/1148tt.jpg","",""
"null","<div style=""font-size:60px;""> </div>","null","fixation","html-keyboard-response","69","422106","0.0-6.0-0.9","2627040","co37540","norming","","","","","","",""
"null","../img/tt/126tt.jpg","null","mooney1","image-keyboard-response","70","425116","0.0-6.0-1.9","2627040","co37540","norming","","","","","","",""
"4471.290000001318","","","post_mooney1_questions","survey-likert","71","429590","0.0-6.0-2.9","2627040","co37540","norming","","","{""curiosity"":5,""confidence"":2}","[0,1]","../img/tt/126tt.jpg","",""
"3142.11499999871","","","recognition","survey-text","72","432734","0.0-6.0-3.9","2627040","co37540","norming","","","{""guess"":""golven""}","","../img/tt/126tt.jpg","",""
"null","../img/gs/126gs.jpg","null","reveal","image-keyboard-response","73","434739","0.0-6.0-4.9","2627040","co37540","norming","","","","","","",""
"null","../img/tt/126tt.jpg","null","mooney2","image-keyboard-response","74","436749","0.0-6.0-5.9","2627040","co37540","norming","","","","","","",""
"2521.260000001348","","","post_reveal_questions","survey-likert","75","439273","0.0-6.0-6.9","2627040","co37540","norming","","","{""aha"":3}","[0]","../img/tt/126tt.jpg","",""
"null","<div style=""font-size:60px;""> </div>","null","fixation","html-keyboard-response","76","439474","0.0-6.0-0.10","2627040","co37540","norming","","","","","","",""
"null","../img/tt/1243tt.jpg","null","mooney1","image-keyboard-response","77","442478","0.0-6.0-1.10","2627040","co37540","norming","","","","","","",""
"4513.824999999953","","","post_mooney1_questions","survey-likert","78","446993","0.0-6.0-2.10","2627040","co37540","norming","","","{""curiosity"":5,""confidence"":4}","[0,1]","../img/tt/1243tt.jpg","",""
"1518.0950000012526","","","recognition","survey-text","79","448512","0.0-6.0-3.10","2627040","co37540","norming","","","{""guess"":""apen""}","","../img/tt/1243tt.jpg","",""
"null","../img/gs/1243gs.jpg","null","reveal","image-keyboard-response","80","450515","0.0-6.0-4.10","2627040","co37540","norming","","","","","","",""
"null","../img/tt/1243tt.jpg","null","mooney2","image-keyboard-response","81","452517","0.0-6.0-5.10","2627040","co37540","norming","","","","","","",""
"3073.304999999935","","","post_reveal_questions","survey-likert","82","455592","0.0-6.0-6.10","2627040","co37540","norming","","","{""aha"":5}","[0]","../img/tt/1243tt.jpg","",""
"null","<div style=""font-size:60px;""> </div>","null","fixation","html-keyboard-response","83","455797","0.0-6.0-0.11","2627040","co37540","norming","","","","","","",""
"null","../img/tt/1279tt.jpg","null","mooney1","image-keyboard-response","84","458807","0.0-6.0-1.11","2627040","co37540","norming","","","","","","",""
"3246.8250000001863","","","post_mooney1_questions","survey-likert","85","462057","0.0-6.0-2.11","2627040","co37540","norming","","","{""curiosity"":4,""confidence"":2}","[0,1]","../img/tt/1279tt.jpg","",""
"2132.700000000128","","","recognition","survey-text","86","464193","0.0-6.0-3.11","2627040","co37540","norming","","","{""guess"":""koe""}","","../img/tt/1279tt.jpg","",""
"null","../img/gs/1279gs.jpg","null","reveal","image-keyboard-response","87","466203","0.0-6.0-4.11","2627040","co37540","norming","","","","","","",""
"null","../img/tt/1279tt.jpg","null","mooney2","image-keyboard-response","88","468206","0.0-6.0-5.11","2627040","co37540","norming","","","","","","",""
"5472.584999999497","","","post_reveal_questions","survey-likert","89","473681","0.0-6.0-6.11","2627040","co37540","norming","","","{""aha"":4}","[0]","../img/tt/1279tt.jpg","",""
"null","<div style=""font-size:60px;""> </div>","null","fixation","html-keyboard-response","90","473891","0.0-6.0-0.12","2627040","co37540","norming","","","","","","",""
"null","../img/tt/140tt.jpg","null","mooney1","image-keyboard-response","91","476897","0.0-6.0-1.12","2627040","co37540","norming","","","","","","",""
"4980.319999998726","","","post_mooney1_questions","survey-likert","92","481880","0.0-6.0-2.12","2627040","co37540","norming","","","{""curiosity"":6,""confidence"":5}","[0,1]","../img/tt/140tt.jpg","",""
"2742.29999999993","","","recognition","survey-text","93","484624","0.0-6.0-3.12","2627040","co37540","norming","","","{""guess"":""vorken""}","","../img/tt/140tt.jpg","",""
"null","../img/gs/140gs.jpg","null","reveal","image-keyboard-response","94","486629","0.0-6.0-4.12","2627040","co37540","norming","","","","","","",""
"null","../img/tt/140tt.jpg","null","mooney2","image-keyboard-response","95","488632","0.0-6.0-5.12","2627040","co37540","norming","","","","","","",""
"3471.310000000871","","","post_reveal_questions","survey-likert","96","492105","0.0-6.0-6.12","2627040","co37540","norming","","","{""aha"":1}","[0]","../img/tt/140tt.jpg","",""
"null","<div style=""font-size:60px;""> </div>","null","fixation","html-keyboard-response","97","492313","0.0-6.0-0.13","2627040","co37540","norming","","","","","","",""
"null","../img/tt/040tt.jpg","null","mooney1","image-keyboard-response","98","495325","0.0-6.0-1.13","2627040","co37540","norming","","","","","","",""
"3553.1000000010245","","","post_mooney1_questions","survey-likert","99","498881","0.0-6.0-2.13","2627040","co37540","norming","","","{""curiosity"":5,""confidence"":3}","[0,1]","../img/tt/040tt.jpg","",""
"2494.4250000008033","","","recognition","survey-text","100","501376","0.0-6.0-3.13","2627040","co37540","norming","","","{""guess"":""vos""}","","../img/tt/040tt.jpg","",""
"null","../img/gs/040gs.jpg","null","reveal","image-keyboard-response","101","503384","0.0-6.0-4.13","2627040","co37540","norming","","","","","","",""
"null","../img/tt/040tt.jpg","null","mooney2","image-keyboard-response","102","505396","0.0-6.0-5.13","2627040","co37540","norming","","","","","","",""
"2570.3949999987963","","","post_reveal_questions","survey-likert","103","507968","0.0-6.0-6.13","2627040","co37540","norming","","","{""aha"":5}","[0]","../img/tt/040tt.jpg","",""
"null","<div style=""font-size:60px;""> </div>","null","fixation","html-keyboard-response","104","508170","0.0-6.0-0.14","2627040","co37540","norming","","","","","","",""
"null","../img/tt/1217tt.jpg","null","mooney1","image-keyboard-response","105","511173","0.0-6.0-1.14","2627040","co37540","norming","","","","","","",""
"4800.379999998782","","","post_mooney1_questions","survey-likert","106","515977","0.0-6.0-2.14","2627040","co37540","norming","","","{""curiosity"":5,""confidence"":3}","[0,1]","../img/tt/1217tt.jpg","",""
"2102.25999999966","","","recognition","survey-text","107","518080","0.0-6.0-3.14","2627040","co37540","norming","","","{""guess"":""baseball""}","","../img/tt/1217tt.jpg","",""
"null","../img/gs/1217gs.jpg","null","reveal","image-keyboard-response","108","520086","0.0-6.0-4.14","2627040","co37540","norming","","","","","","",""
"null","../img/tt/1217tt.jpg","null","mooney2","image-keyboard-response","109","522091","0.0-6.0-5.14","2627040","co37540","norming","","","","","","",""
"1578.5550000000512","","","post_reveal_questions","survey-likert","110","523672","0.0-6.0-6.14","2627040","co37540","norming","","","{""aha"":4}","[0]","../img/tt/1217tt.jpg","",""
"null","<div style=""font-size:60px;""> </div>","null","fixation","html-keyboard-response","111","523877","0.0-6.0-0.15","2627040","co37540","norming","","","","","","",""
"null","../img/tt/1173tt.jpg","null","mooney1","image-keyboard-response","112","526886","0.0-6.0-1.15","2627040","co37540","norming","","","","","","",""
"4135.684999999241","","","post_mooney1_questions","survey-likert","113","531024","0.0-6.0-2.15","2627040","co37540","norming","","","{""curiosity"":5,""confidence"":1}","[0,1]","../img/tt/1173tt.jpg","",""
"3182.435000000638","","","recognition","survey-text","114","534209","0.0-6.0-3.15","2627040","co37540","norming","","","{""guess"":""cheerleade,""}","","../img/tt/1173tt.jpg","",""
"null","../img/gs/1173gs.jpg","null","reveal","image-keyboard-response","115","536218","0.0-6.0-4.15","2627040","co37540","norming","","","","","","",""
"null","../img/tt/1173tt.jpg","null","mooney2","image-keyboard-response","116","538229","0.0-6.0-5.15","2627040","co37540","norming","","","","","","",""
"4047.54499999946","","","post_reveal_questions","survey-likert","117","542281","0.0-6.0-6.15","2627040","co37540","norming","","","{""aha"":5}","[0]","../img/tt/1173tt.jpg","",""
"null","<div style=""font-size:60px;""> </div>","null","fixation","html-keyboard-response","118","542481","0.0-6.0-0.16","2627040","co37540","norming","","","","","","",""
"null","../img/tt/189tt.jpg","null","mooney1","image-keyboard-response","119","545485","0.0-6.0-1.16","2627040","co37540","norming","","","","","","",""
"6178.259999998729","","","post_mooney1_questions","survey-likert","120","551664","0.0-6.0-2.16","2627040","co37540","norming","","","{""curiosity"":5,""confidence"":2}","[0,1]","../img/tt/189tt.jpg","",""
"5710.41999999946","","","recognition","survey-text","121","557376","0.0-6.0-3.16","2627040","co37540","norming","","","{""guess"":""stiervechten""}","","../img/tt/189tt.jpg","",""
"null","../img/gs/189gs.jpg","null","reveal","image-keyboard-response","122","559385","0.0-6.0-4.16","2627040","co37540","norming","","","","","","",""
"null","../img/tt/189tt.jpg","null","mooney2","image-keyboard-response","123","561386","0.0-6.0-5.16","2627040","co37540","norming","","","","","","",""
"1739.5750000014668","","","post_reveal_questions","survey-likert","124","563128","0.0-6.0-6.16","2627040","co37540","norming","","","{""aha"":4}","[0]","../img/tt/189tt.jpg","",""
"null","<div style=""font-size:60px;""> </div>","null","fixation","html-keyboard-response","125","563329","0.0-6.0-0.17","2627040","co37540","norming","","","","","","",""
"null","../img/tt/580tt.jpg","null","mooney1","image-keyboard-response","126","566336","0.0-6.0-1.17","2627040","co37540","norming","","","","","","",""
"5565.989999999059","","","post_mooney1_questions","survey-likert","127","571905","0.0-6.0-2.17","2627040","co37540","norming","","","{""curiosity"":5,""confidence"":0}","[0,1]","../img/tt/580tt.jpg","",""
"830.0099999997765","","","recognition","survey-text","128","572736","0.0-6.0-3.17","2627040","co37540","norming","","","{""guess"":""""}","","../img/tt/580tt.jpg","",""
"null","../img/gs/580gs.jpg","null","reveal","image-keyboard-response","129","574743","0.0-6.0-4.17","2627040","co37540","norming","","","","","","",""
"null","../img/tt/580tt.jpg","null","mooney2","image-keyboard-response","130","576749","0.0-6.0-5.17","2627040","co37540","norming","","","","","","",""
"2208.8250000015832","","","post_reveal_questions","survey-likert","131","578960","0.0-6.0-6.17","2627040","co37540","norming","","","{""aha"":6}","[0]","../img/tt/580tt.jpg","",""
"null","<div style=""font-size:60px;""> </div>","null","fixation","html-keyboard-response","132","579168","0.0-6.0-0.18","2627040","co37540","norming","","","","","","",""
"null","../img/tt/1196tt.jpg","null","mooney1","image-keyboard-response","133","582172","0.0-6.0-1.18","2627040","co37540","norming","","","","","","",""
"3866.330000000773","","","post_mooney1_questions","survey-likert","134","586041","0.0-6.0-2.18","2627040","co37540","norming","","","{""curiosity"":5,""confidence"":0}","[0,1]","../img/tt/1196tt.jpg","",""
"1030.0800000004238","","","recognition","survey-text","135","587072","0.0-6.0-3.18","2627040","co37540","norming","","","{""guess"":""""}","","../img/tt/1196tt.jpg","",""
"null","../img/gs/1196gs.jpg","null","reveal","image-keyboard-response","136","589076","0.0-6.0-4.18","2627040","co37540","norming","","","","","","",""
"null","../img/tt/1196tt.jpg","null","mooney2","image-keyboard-response","137","591088","0.0-6.0-5.18","2627040","co37540","norming","","","","","","",""
"1830.5799999998417","","","post_reveal_questions","survey-likert","138","592921","0.0-6.0-6.18","2627040","co37540","norming","","","{""aha"":4}","[0]","../img/tt/1196tt.jpg","",""
"null","<div style=""font-size:60px;""> </div>","null","fixation","html-keyboard-response","139","593122","0.0-6.0-0.19","2627040","co37540","norming","","","","","","",""
"null","../img/tt/1127tt.jpg","null","mooney1","image-keyboard-response","140","596130","0.0-6.0-1.19","2627040","co37540","norming","","","","","","",""
"6396.0950000000885","","","post_mooney1_questions","survey-likert","141","602528","0.0-6.0-2.19","2627040","co37540","norming","","","{""curiosity"":4,""confidence"":2}","[0,1]","../img/tt/1127tt.jpg","",""
"2590.3799999996554","","","recognition","survey-text","142","605120","0.0-6.0-3.19","2627040","co37540","norming","","","{""guess"":""vechtsport""}","","../img/tt/1127tt.jpg","",""
"null","../img/gs/1127gs.jpg","null","reveal","image-keyboard-response","143","607128","0.0-6.0-4.19","2627040","co37540","norming","","","","","","",""
"null","../img/tt/1127tt.jpg","null","mooney2","image-keyboard-response","144","609137","0.0-6.0-5.19","2627040","co37540","norming","","","","","","",""
"2524.7299999991665","","","post_reveal_questions","survey-likert","145","611664","0.0-6.0-6.19","2627040","co37540","norming","","","{""aha"":5}","[0]","../img/tt/1127tt.jpg","",""
"null","<div style=""font-size:60px;""> </div>","null","fixation","html-keyboard-response","146","611867","0.0-6.0-0.20","2627040","co37540","norming","","","","","","",""
"null","../img/tt/273tt.jpg","null","mooney1","image-keyboard-response","147","614869","0.0-6.0-1.20","2627040","co37540","norming","","","","","","",""
"4562.959999999381","","","post_mooney1_questions","survey-likert","148","619433","0.0-6.0-2.20","2627040","co37540","norming","","","{""curiosity"":6,""confidence"":0}","[0,1]","../img/tt/273tt.jpg","",""
"1046.2650000008289","","","recognition","survey-text","149","620481","0.0-6.0-3.20","2627040","co37540","norming","","","{""guess"":""""}","","../img/tt/273tt.jpg","",""
"null","../img/gs/273gs.jpg","null","reveal","image-keyboard-response","150","622483","0.0-6.0-4.20","2627040","co37540","norming","","","","","","",""
"null","../img/tt/273tt.jpg","null","mooney2","image-keyboard-response","151","624490","0.0-6.0-5.20","2627040","co37540","norming","","","","","","",""
"3467.9300000006333","","","post_reveal_questions","survey-likert","152","627961","0.0-6.0-6.20","2627040","co37540","norming","","","{""aha"":4}","[0]","../img/tt/273tt.jpg","",""
"null","<div style=""font-size:60px;""> </div>","null","fixation","html-keyboard-response","153","628170","0.0-6.0-0.21","2627040","co37540","norming","","","","","","",""
"null","../img/tt/524tt.jpg","null","mooney1","image-keyboard-response","154","631175","0.0-6.0-1.21","2627040","co37540","norming","","","","","","",""
"3527.425000000163","","","post_mooney1_questions","survey-likert","155","634705","0.0-6.0-2.21","2627040","co37540","norming","","","{""curiosity"":4,""confidence"":3}","[0,1]","../img/tt/524tt.jpg","",""
"1822.039999999106","","","recognition","survey-text","156","636529","0.0-6.0-3.21","2627040","co37540","norming","","","{""guess"":""stier""}","","../img/tt/524tt.jpg","",""
"null","../img/gs/524gs.jpg","null","reveal","image-keyboard-response","157","638532","0.0-6.0-4.21","2627040","co37540","norming","","","","","","",""
"null","../img/tt/524tt.jpg","null","mooney2","image-keyboard-response","158","640541","0.0-6.0-5.21","2627040","co37540","norming","","","","","","",""
"2521.1699999999255","","","post_reveal_questions","survey-likert","159","643065","0.0-6.0-6.21","2627040","co37540","norming","","","{""aha"":3}","[0]","../img/tt/524tt.jpg","",""
"null","<div style=""font-size:60px;""> </div>","null","fixation","html-keyboard-response","160","643267","0.0-6.0-0.22","2627040","co37540","norming","","","","","","",""
"null","../img/tt/507tt.jpg","null","mooney1","image-keyboard-response","161","646276","0.0-6.0-1.22","2627040","co37540","norming","","","","","","",""
"4098.265000000596","","","post_mooney1_questions","survey-likert","162","650377","0.0-6.0-2.22","2627040","co37540","norming","","","{""curiosity"":5,""confidence"":1}","[0,1]","../img/tt/507tt.jpg","",""
"3302.0249999989755","","","recognition","survey-text","163","653681","0.0-6.0-3.22","2627040","co37540","norming","","","{""guess"":""buikdanseres""}","","../img/tt/507tt.jpg","",""
"null","../img/gs/507gs.jpg","null","reveal","image-keyboard-response","164","655688","0.0-6.0-4.22","2627040","co37540","norming","","","","","","",""
"null","../img/tt/507tt.jpg","null","mooney2","image-keyboard-response","165","657700","0.0-6.0-5.22","2627040","co37540","norming","","","","","","",""
"2594.9249999994645","","","post_reveal_questions","survey-likert","166","660297","0.0-6.0-6.22","2627040","co37540","norming","","","{""aha"":5}","[0]","../img/tt/507tt.jpg","",""
"null","<div style=""font-size:60px;""> </div>","null","fixation","html-keyboard-response","167","660499","0.0-6.0-0.23","2627040","co37540","norming","","","","","","",""
"null","../img/tt/1205tt.jpg","null","mooney1","image-keyboard-response","168","663511","0.0-6.0-1.23","2627040","co37540","norming","","","","","","",""
"4407.185000000056","","","post_mooney1_questions","survey-likert","169","667921","0.0-6.0-2.23","2627040","co37540","norming","","","{""curiosity"":3,""confidence"":0}","[0,1]","../img/tt/1205tt.jpg","",""
"1070.4250000016764","","","recognition","survey-text","170","668993","0.0-6.0-3.23","2627040","co37540","norming","","","{""guess"":""""}","","../img/tt/1205tt.jpg","",""
"null","../img/gs/1205gs.jpg","null","reveal","image-keyboard-response","171","671001","0.0-6.0-4.23","2627040","co37540","norming","","","","","","",""
"null","../img/tt/1205tt.jpg","null","mooney2","image-keyboard-response","172","673009","0.0-6.0-5.23","2627040","co37540","norming","","","","","","",""
"4677.814999999129","","","post_reveal_questions","survey-likert","173","677680","0.0-6.0-6.23","2627040","co37540","norming","","","{""aha"":3}","[0]","../img/tt/1205tt.jpg","",""
"null","<div style=""font-size:60px;""> </div>","null","fixation","html-keyboard-response","174","677885","0.0-6.0-0.24","2627040","co37540","norming","","","","","","",""
"null","../img/tt/319tt.jpg","null","mooney1","image-keyboard-response","175","680894","0.0-6.0-1.24","2627040","co37540","norming","","","","","","",""
"4298.194999999367","","","post_mooney1_questions","survey-likert","176","685200","0.0-6.0-2.24","2627040","co37540","norming","","","{""curiosity"":4,""confidence"":1}","[0,1]","../img/tt/319tt.jpg","",""
"3381.424999999581","","","recognition","survey-text","177","688583","0.0-6.0-3.24","2627040","co37540","norming","","","{""guess"":""ezels""}","","../img/tt/319tt.jpg","",""
"null","../img/gs/319gs.jpg","null","reveal","image-keyboard-response","178","690589","0.0-6.0-4.24","2627040","co37540","norming","","","","","","",""
"null","../img/tt/319tt.jpg","null","mooney2","image-keyboard-response","179","692598","0.0-6.0-5.24","2627040","co37540","norming","","","","","","",""
"3105.315000000759","","","post_reveal_questions","survey-likert","180","695704","0.0-6.0-6.24","2627040","co37540","norming","","","{""aha"":4}","[0]","../img/tt/319tt.jpg","",""
"null","<div style=""font-size:60px;""> </div>","null","fixation","html-keyboard-response","181","695910","0.0-6.0-0.25","2627040","co37540","norming","","","","","","",""
"null","../img/tt/1006tt.jpg","null","mooney1","image-keyboard-response","182","698922","0.0-6.0-1.25","2627040","co37540","norming","","","","","","",""
"4011.1600000000326","","","post_mooney1_questions","survey-likert","183","702936","0.0-6.0-2.25","2627040","co37540","norming","","","{""curiosity"":5,""confidence"":2}","[0,1]","../img/tt/1006tt.jpg","",""
"1166.149999999092","","","recognition","survey-text","184","704104","0.0-6.0-3.25","2627040","co37540","norming","","","{""guess"":""koe""}","","../img/tt/1006tt.jpg","",""
"null","../img/gs/1006gs.jpg","null","reveal","image-keyboard-response","185","706112","0.0-6.0-4.25","2627040","co37540","norming","","","","","","",""
"null","../img/tt/1006tt.jpg","null","mooney2","image-keyboard-response","186","708114","0.0-6.0-5.25","2627040","co37540","norming","","","","","","",""
"3571.0800000014715","","","post_reveal_questions","survey-likert","187","711688","0.0-6.0-6.25","2627040","co37540","norming","","","{""aha"":4}","[0]","../img/tt/1006tt.jpg","",""
"null","<div style=""font-size:60px;""> </div>","null","fixation","html-keyboard-response","188","711890","0.0-6.0-0.26","2627040","co37540","norming","","","","","","",""
"null","../img/tt/046tt.jpg","null","mooney1","image-keyboard-response","189","714893","0.0-6.0-1.26","2627040","co37540","norming","","","","","","",""
"4504.10999999987","","","post_mooney1_questions","survey-likert","190","719400","0.0-6.0-2.26","2627040","co37540","norming","","","{""curiosity"":5,""confidence"":0}","[0,1]","../img/tt/046tt.jpg","",""
"1814.1450000002515","","","recognition","survey-text","191","721216","0.0-6.0-3.26","2627040","co37540","norming","","","{""guess"":""""}","","../img/tt/046tt.jpg","",""
"null","../img/gs/046gs.jpg","null","reveal","image-keyboard-response","192","723225","0.0-6.0-4.26","2627040","co37540","norming","","","","","","",""
"null","../img/tt/046tt.jpg","null","mooney2","image-keyboard-response","193","725228","0.0-6.0-5.26","2627040","co37540","norming","","","","","","",""
"4497.405000000028","","","post_reveal_questions","survey-likert","194","729728","0.0-6.0-6.26","2627040","co37540","norming","","","{""aha"":2}","[0]","../img/tt/046tt.jpg","",""
"null","<div style=""font-size:60px;""> </div>","null","fixation","html-keyboard-response","195","729936","0.0-6.0-0.27","2627040","co37540","norming","","","","","","",""
"null","../img/tt/094tt.jpg","null","mooney1","image-keyboard-response","196","732947","0.0-6.0-1.27","2627040","co37540","norming","","","","","","",""
"5378.025000000023","","","post_mooney1_questions","survey-likert","197","738336","0.0-6.0-2.27","2627040","co37540","norming","","","{""curiosity"":4,""confidence"":1}","[0,1]","../img/tt/094tt.jpg","",""
"1358.2649999989662","","","recognition","survey-text","198","739696","0.0-6.0-3.27","2627040","co37540","norming","","","{""guess"":""koe""}","","../img/tt/094tt.jpg","",""
"null","../img/gs/094gs.jpg","null","reveal","image-keyboard-response","199","741707","0.0-6.0-4.27","2627040","co37540","norming","","","","","","",""
"null","../img/tt/094tt.jpg","null","mooney2","image-keyboard-response","200","743710","0.0-6.0-5.27","2627040","co37540","norming","","","","","","",""
"1959.3949999997858","","","post_reveal_questions","survey-likert","201","745672","0.0-6.0-6.27","2627040","co37540","norming","","","{""aha"":0}","[0]","../img/tt/094tt.jpg","",""
"null","<div style=""font-size:60px;""> </div>","null","fixation","html-keyboard-response","202","745874","0.0-6.0-0.28","2627040","co37540","norming","","","","","","",""
"null","../img/tt/1078tt.jpg","null","mooney1","image-keyboard-response","203","748880","0.0-6.0-1.28","2627040","co37540","norming","","","","","","",""
"4365.885000001057","","","post_mooney1_questions","survey-likert","204","753249","0.0-6.0-2.28","2627040","co37540","norming","","","{""curiosity"":4,""confidence"":2}","[0,1]","../img/tt/1078tt.jpg","",""
"3453.9249999998137","","","recognition","survey-text","205","756704","0.0-6.0-3.28","2627040","co37540","norming","","","{""guess"":""voetbal""}","","../img/tt/1078tt.jpg","",""
"null","../img/gs/1078gs.jpg","null","reveal","image-keyboard-response","206","758711","0.0-6.0-4.28","2627040","co37540","norming","","","","","","",""
"null","../img/tt/1078tt.jpg","null","mooney2","image-keyboard-response","207","760713","0.0-6.0-5.28","2627040","co37540","norming","","","","","","",""
"3950.550000001327","","","post_reveal_questions","survey-likert","208","764664","0.0-6.0-6.28","2627040","co37540","norming","","","{""aha"":3}","[0]","../img/tt/1078tt.jpg","",""
"null","<div style=""font-size:60px;""> </div>","null","fixation","html-keyboard-response","209","764869","0.0-6.0-0.29","2627040","co37540","norming","","","","","","",""
"null","../img/tt/1048tt.jpg","null","mooney1","image-keyboard-response","210","767872","0.0-6.0-1.29","2627040","co37540","norming","","","","","","",""
"4661.500000000116","","","post_mooney1_questions","survey-likert","211","772537","0.0-6.0-2.29","2627040","co37540","norming","","","{""curiosity"":4,""confidence"":0}","[0,1]","../img/tt/1048tt.jpg","",""
"678.0049999997718","","","recognition","survey-text","212","773216","0.0-6.0-3.29","2627040","co37540","norming","","","{""guess"":""""}","","../img/tt/1048tt.jpg","",""
"null","../img/gs/1048gs.jpg","null","reveal","image-keyboard-response","213","775222","0.0-6.0-4.29","2627040","co37540","norming","","","","","","",""
"null","../img/tt/1048tt.jpg","null","mooney2","image-keyboard-response","214","777232","0.0-6.0-5.29","2627040","co37540","norming","","","","","","",""
"3750.2049999984447","","","post_reveal_questions","survey-likert","215","780984","0.0-6.0-6.29","2627040","co37540","norming","","","{""aha"":2}","[0]","../img/tt/1048tt.jpg","",""
"null","<div style=""font-size:60px;""> </div>","null","fixation","html-keyboard-response","216","781191","0.0-6.0-0.30","2627040","co37540","norming","","","","","","",""
"null","../img/tt/1202tt.jpg","null","mooney1","image-keyboard-response","217","784203","0.0-6.0-1.30","2627040","co37540","norming","","","","","","",""
"6185.810000000871","","","post_mooney1_questions","survey-likert","218","790392","0.0-6.0-2.30","2627040","co37540","norming","","","{""curiosity"":5,""confidence"":0}","[0,1]","../img/tt/1202tt.jpg","",""
"878.1400000007125","","","recognition","survey-text","219","791272","0.0-6.0-3.30","2627040","co37540","norming","","","{""guess"":""""}","","../img/tt/1202tt.jpg","",""
"null","../img/gs/1202gs.jpg","null","reveal","image-keyboard-response","220","793276","0.0-6.0-4.30","2627040","co37540","norming","","","","","","",""
"null","../img/tt/1202tt.jpg","null","mooney2","image-keyboard-response","221","795278","0.0-6.0-5.30","2627040","co37540","norming","","","","","","",""
"2720.944999999134","","","post_reveal_questions","survey-likert","222","798001","0.0-6.0-6.30","2627040","co37540","norming","","","{""aha"":5}","[0]","../img/tt/1202tt.jpg","",""
"null","<div style=""font-size:60px;""> </div>","null","fixation","html-keyboard-response","223","798204","0.0-6.0-0.31","2627040","co37540","norming","","","","","","",""
"null","../img/tt/418tt.jpg","null","mooney1","image-keyboard-response","224","801208","0.0-6.0-1.31","2627040","co37540","norming","","","","","","",""
"3805.8899999995483","","","post_mooney1_questions","survey-likert","225","805017","0.0-6.0-2.31","2627040","co37540","norming","","","{""curiosity"":4,""confidence"":1}","[0,1]","../img/tt/418tt.jpg","",""
"3526.3899999990826","","","recognition","survey-text","226","808545","0.0-6.0-3.31","2627040","co37540","norming","","","{""guess"":""bowlingball""}","","../img/tt/418tt.jpg","",""
"null","../img/gs/418gs.jpg","null","reveal","image-keyboard-response","227","810547","0.0-6.0-4.31","2627040","co37540","norming","","","","","","",""
"null","../img/tt/418tt.jpg","null","mooney2","image-keyboard-response","228","812550","0.0-6.0-5.31","2627040","co37540","norming","","","","","","",""
"2847.9950000001118","","","post_reveal_questions","survey-likert","229","815401","0.0-6.0-6.31","2627040","co37540","norming","","","{""aha"":5}","[0]","../img/tt/418tt.jpg","",""
"null","<div style=""font-size:60px;""> </div>","null","fixation","html-keyboard-response","230","815605","0.0-6.0-0.32","2627040","co37540","norming","","","","","","",""
"null","../img/tt/184tt.jpg","null","mooney1","image-keyboard-response","231","818614","0.0-6.0-1.32","2627040","co37540","norming","","","","","","",""
"3473.074999999837","","","post_mooney1_questions","survey-likert","232","822089","0.0-6.0-2.32","2627040","co37540","norming","","","{""curiosity"":5,""confidence"":1}","[0,1]","../img/tt/184tt.jpg","",""
"3254.084999998682","","","recognition","survey-text","233","825345","0.0-6.0-3.32","2627040","co37540","norming","","","{""guess"":""sandwich""}","","../img/tt/184tt.jpg","",""
"null","../img/gs/184gs.jpg","null","reveal","image-keyboard-response","234","827355","0.0-6.0-4.32","2627040","co37540","norming","","","","","","",""
"null","../img/tt/184tt.jpg","null","mooney2","image-keyboard-response","235","829363","0.0-6.0-5.32","2627040","co37540","norming","","","","","","",""
"4770.790000000503","","","post_reveal_questions","survey-likert","236","834137","0.0-6.0-6.32","2627040","co37540","norming","","","{""aha"":5}","[0]","../img/tt/184tt.jpg","",""
"null","<div style=""font-size:60px;""> </div>","null","fixation","html-keyboard-response","237","834344","0.0-6.0-0.33","2627040","co37540","norming","","","","","","",""
"null","../img/tt/416tt.jpg","null","mooney1","image-keyboard-response","238","837351","0.0-6.0-1.33","2627040","co37540","norming","","","","","","",""
"5078.719999999506","","","post_mooney1_questions","survey-likert","239","842433","0.0-6.0-2.33","2627040","co37540","norming","","","{""curiosity"":4,""confidence"":1}","[0,1]","../img/tt/416tt.jpg","",""
"2606.1100000006845","","","recognition","survey-text","240","845041","0.0-6.0-3.33","2627040","co37540","norming","","","{""guess"":""flamingo""}","","../img/tt/416tt.jpg","",""
"null","../img/gs/416gs.jpg","null","reveal","image-keyboard-response","241","847048","0.0-6.0-4.33","2627040","co37540","norming","","","","","","",""
"null","../img/tt/416tt.jpg","null","mooney2","image-keyboard-response","242","849049","0.0-6.0-5.33","2627040","co37540","norming","","","","","","",""
"2142.155000001425","","","post_reveal_questions","survey-likert","243","851193","0.0-6.0-6.33","2627040","co37540","norming","","","{""aha"":5}","[0]","../img/tt/416tt.jpg","",""
"null","<div style=""font-size:60px;""> </div>","null","fixation","html-keyboard-response","244","851394","0.0-6.0-0.34","2627040","co37540","norming","","","","","","",""
"null","../img/tt/1260tt.jpg","null","mooney1","image-keyboard-response","245","854397","0.0-6.0-1.34","2627040","co37540","norming","","","","","","",""
"3832.744999999646","","","post_mooney1_questions","survey-likert","246","858232","0.0-6.0-2.34","2627040","co37540","norming","","","{""curiosity"":5,""confidence"":2}","[0,1]","../img/tt/1260tt.jpg","",""
"1718.3500000010245","","","recognition","survey-text","247","859952","0.0-6.0-3.34","2627040","co37540","norming","","","{""guess"":""muis""}","","../img/tt/1260tt.jpg","",""
"null","../img/gs/1260gs.jpg","null","reveal","image-keyboard-response","248","861955","0.0-6.0-4.34","2627040","co37540","norming","","","","","","",""
"null","../img/tt/1260tt.jpg","null","mooney2","image-keyboard-response","249","863957","0.0-6.0-5.34","2627040","co37540","norming","","","","","","",""
"5121.189999999828","","","post_reveal_questions","survey-likert","250","869081","0.0-6.0-6.34","2627040","co37540","norming","","","{""aha"":4}","[0]","../img/tt/1260tt.jpg","",""
"null","<div style=""font-size:60px;""> </div>","null","fixation","html-keyboard-response","251","869283","0.0-6.0-0.35","2627040","co37540","norming","","","","","","",""
"null","../img/tt/1096tt.jpg","null","mooney1","image-keyboard-response","252","872294","0.0-6.0-1.35","2627040","co37540","norming","","","","","","",""
"4831.360000000102","","","post_mooney1_questions","survey-likert","253","877128","0.0-6.0-2.35","2627040","co37540","norming","","","{""curiosity"":5,""confidence"":0}","[0,1]","../img/tt/1096tt.jpg","",""
"814.2549999993062","","","recognition","survey-text","254","877944","0.0-6.0-3.35","2627040","co37540","norming","","","{""guess"":""""}","","../img/tt/1096tt.jpg","",""
"null","../img/gs/1096gs.jpg","null","reveal","image-keyboard-response","255","879948","0.0-6.0-4.35","2627040","co37540","norming","","","","","","",""
"null","../img/tt/1096tt.jpg","null","mooney2","image-keyboard-response","256","881949","0.0-6.0-5.35","2627040","co37540","norming","","","","","","",""
"2610.2750000009546","","","post_reveal_questions","survey-likert","257","884560","0.0-6.0-6.35","2627040","co37540","norming","","","{""aha"":4}","[0]","../img/tt/1096tt.jpg","",""
"null","<div style=""font-size:60px;""> </div>","null","fixation","html-keyboard-response","258","884762","0.0-6.0-0.36","2627040","co37540","norming","","","","","","",""
"null","../img/tt/1269tt.jpg","null","mooney1","image-keyboard-response","259","887768","0.0-6.0-1.36","2627040","co37540","norming","","","","","","",""
"4261.590000000084","","","post_mooney1_questions","survey-likert","260","892033","0.0-6.0-2.36","2627040","co37540","norming","","","{""curiosity"":4,""confidence"":2}","[0,1]","../img/tt/1269tt.jpg","",""
"2286.114999998943","","","recognition","survey-text","261","894320","0.0-6.0-3.36","2627040","co37540","norming","","","{""guess"":""buideldier""}","","../img/tt/1269tt.jpg","",""
"null","../img/gs/1269gs.jpg","null","reveal","image-keyboard-response","262","896322","0.0-6.0-4.36","2627040","co37540","norming","","","","","","",""
"null","../img/tt/1269tt.jpg","null","mooney2","image-keyboard-response","263","898328","0.0-6.0-5.36","2627040","co37540","norming","","","","","","",""
"2527.589999999618","","","post_reveal_questions","survey-likert","264","900856","0.0-6.0-6.36","2627040","co37540","norming","","","{""aha"":5}","[0]","../img/tt/1269tt.jpg","",""
"null","<div style=""font-size:60px;""> </div>","null","fixation","html-keyboard-response","265","901059","0.0-6.0-0.37","2627040","co37540","norming","","","","","","",""
"null","../img/tt/1247tt.jpg","null","mooney1","image-keyboard-response","266","904069","0.0-6.0-1.37","2627040","co37540","norming","","","","","","",""
"4856.405000000494","","","post_mooney1_questions","survey-likert","267","908929","0.0-6.0-2.37","2627040","co37540","norming","","","{""curiosity"":3,""confidence"":4}","[0,1]","../img/tt/1247tt.jpg","",""
"1661.869999999879","","","recognition","survey-text","268","910592","0.0-6.0-3.37","2627040","co37540","norming","","","{""guess"":""leeuw""}","","../img/tt/1247tt.jpg","",""
"null","../img/gs/1247gs.jpg","null","reveal","image-keyboard-response","269","912603","0.0-6.0-4.37","2627040","co37540","norming","","","","","","",""
"null","../img/tt/1247tt.jpg","null","mooney2","image-keyboard-response","270","914606","0.0-6.0-5.37","2627040","co37540","norming","","","","","","",""
"3937.635000000242","","","post_reveal_questions","survey-likert","271","918542","0.0-6.0-6.37","2627040","co37540","norming","","","{""aha"":5}","[0]","../img/tt/1247tt.jpg","",""
"null","<div style=""font-size:60px;""> </div>","null","fixation","html-keyboard-response","272","918744","0.0-6.0-0.38","2627040","co37540","norming","","","","","","",""
"null","../img/tt/481tt.jpg","null","mooney1","image-keyboard-response","273","921754","0.0-6.0-1.38","2627040","co37540","norming","","","","","","",""
"3050.3550000011455","","","post_mooney1_questions","survey-likert","274","924806","0.0-6.0-2.38","2627040","co37540","norming","","","{""curiosity"":4,""confidence"":1}","[0,1]","../img/tt/481tt.jpg","",""
"1269.5850000000792","","","recognition","survey-text","275","926078","0.0-6.0-3.38","2627040","co37540","norming","","","{""guess"":""aap""}","","../img/tt/481tt.jpg","",""
"null","../img/gs/481gs.jpg","null","reveal","image-keyboard-response","276","928085","0.0-6.0-4.38","2627040","co37540","norming","","","","","","",""
"null","../img/tt/481tt.jpg","null","mooney2","image-keyboard-response","277","930090","0.0-6.0-5.38","2627040","co37540","norming","","","","","","",""
"2462.8300000004238","","","post_reveal_questions","survey-likert","278","932554","0.0-6.0-6.38","2627040","co37540","norming","","","{""aha"":4}","[0]","../img/tt/481tt.jpg","",""
"null","<div style=""font-size:60px;""> </div>","null","fixation","html-keyboard-response","279","932756","0.0-6.0-0.39","2627040","co37540","norming","","","","","","",""
"null","../img/tt/517tt.jpg","null","mooney1","image-keyboard-response","280","935757","0.0-6.0-1.39","2627040","co37540","norming","","","","","","",""
"6255.619999999879","","","post_mooney1_questions","survey-likert","281","942014","0.0-6.0-2.39","2627040","co37540","norming","","","{""curiosity"":5,""confidence"":1}","[0,1]","../img/tt/517tt.jpg","",""
"5181.9849999992875","","","recognition","survey-text","282","947198","0.0-6.0-3.39","2627040","co37540","norming","","","{""guess"":""buidelrat""}","","../img/tt/517tt.jpg","",""
"null","../img/gs/517gs.jpg","null","reveal","image-keyboard-response","283","949204","0.0-6.0-4.39","2627040","co37540","norming","","","","","","",""
"null","../img/tt/517tt.jpg","null","mooney2","image-keyboard-response","284","951209","0.0-6.0-5.39","2627040","co37540","norming","","","","","","",""
"2772.000000000815","","","post_reveal_questions","survey-likert","285","953982","0.0-6.0-6.39","2627040","co37540","norming","","","{""aha"":5}","[0]","../img/tt/517tt.jpg","",""
"null","<div style=""font-size:60px;""> </div>","null","fixation","html-keyboard-response","286","954184","0.0-6.0-0.40","2627040","co37540","norming","","","","","","",""
"null","../img/tt/1171tt.jpg","null","mooney1","image-keyboard-response","287","957187","0.0-6.0-1.40","2627040","co37540","norming","","","","","","",""
"3921.614999999292","","","post_mooney1_questions","survey-likert","288","961110","0.0-6.0-2.40","2627040","co37540","norming","","","{""curiosity"":5,""confidence"":0}","[0,1]","../img/tt/1171tt.jpg","",""
"749.6200000005774","","","recognition","survey-text","289","961861","0.0-6.0-3.40","2627040","co37540","norming","","","{""guess"":""""}","","../img/tt/1171tt.jpg","",""
"null","../img/gs/1171gs.jpg","null","reveal","image-keyboard-response","290","963863","0.0-6.0-4.40","2627040","co37540","norming","","","","","","",""
"null","../img/tt/1171tt.jpg","null","mooney2","image-keyboard-response","291","965865","0.0-6.0-5.40","2627040","co37540","norming","","","","","","",""
"2362.8750000006985","","","post_reveal_questions","survey-likert","292","968230","0.0-6.0-6.40","2627040","co37540","norming","","","{""aha"":1}","[0]","../img/tt/1171tt.jpg","",""
"null","<div style=""font-size:60px;""> </div>","null","fixation","html-keyboard-response","293","968439","0.0-6.0-0.41","2627040","co37540","norming","","","","","","",""
"null","../img/tt/315tt.jpg","null","mooney1","image-keyboard-response","294","971443","0.0-6.0-1.41","2627040","co37540","norming","","","","","","",""
"4856.354999999981","","","post_mooney1_questions","survey-likert","295","976302","0.0-6.0-2.41","2627040","co37540","norming","","","{""curiosity"":5,""confidence"":4}","[0,1]","../img/tt/315tt.jpg","",""
"1902.2999999998137","","","recognition","survey-text","296","978206","0.0-6.0-3.41","2627040","co37540","norming","","","{""guess"":""kat""}","","../img/tt/315tt.jpg","",""
"null","../img/gs/315gs.jpg","null","reveal","image-keyboard-response","297","980211","0.0-6.0-4.41","2627040","co37540","norming","","","","","","",""
"null","../img/tt/315tt.jpg","null","mooney2","image-keyboard-response","298","982212","0.0-6.0-5.41","2627040","co37540","norming","","","","","","",""
"2858.3199999993667","","","post_reveal_questions","survey-likert","299","985073","0.0-6.0-6.41","2627040","co37540","norming","","","{""aha"":3}","[0]","../img/tt/315tt.jpg","",""
"null","<div style=""font-size:60px;""> </div>","null","fixation","html-keyboard-response","300","985282","0.0-6.0-0.42","2627040","co37540","norming","","","","","","",""
"null","../img/tt/549tt.jpg","null","mooney1","image-keyboard-response","301","988293","0.0-6.0-1.42","2627040","co37540","norming","","","","","","",""
"5472.260000000475","","","post_mooney1_questions","survey-likert","302","993769","0.0-6.0-2.42","2627040","co37540","norming","","","{""curiosity"":4,""confidence"":2}","[0,1]","../img/tt/549tt.jpg","",""
"5350.000000000349","","","recognition","survey-text","303","999121","0.0-6.0-3.42","2627040","co37540","norming","","","{""guess"":""muziekinstrument""}","","../img/tt/549tt.jpg","",""
"null","../img/gs/549gs.jpg","null","reveal","image-keyboard-response","304","1001128","0.0-6.0-4.42","2627040","co37540","norming","","","","","","",""
"null","../img/tt/549tt.jpg","null","mooney2","image-keyboard-response","305","1003130","0.0-6.0-5.42","2627040","co37540","norming","","","","","","",""
"2833.6799999998184","","","post_reveal_questions","survey-likert","306","1005969","0.0-6.0-6.42","2627040","co37540","norming","","","{""aha"":6}","[0]","../img/tt/549tt.jpg","",""
"null","<div style=""font-size:60px;""> </div>","null","fixation","html-keyboard-response","307","1006179","0.0-6.0-0.43","2627040","co37540","norming","","","","","","",""
"null","../img/tt/1143tt.jpg","null","mooney1","image-keyboard-response","308","1009188","0.0-6.0-1.43","2627040","co37540","norming","","","","","","",""
"3193.0800000008894","","","post_mooney1_questions","survey-likert","309","1012385","0.0-6.0-2.43","2627040","co37540","norming","","","{""curiosity"":5,""confidence"":3}","[0,1]","../img/tt/1143tt.jpg","",""
"2142.0100000014063","","","recognition","survey-text","310","1014528","0.0-6.0-3.43","2627040","co37540","norming","","","{""guess"":""fitness""}","","../img/tt/1143tt.jpg","",""
"null","../img/gs/1143gs.jpg","null","reveal","image-keyboard-response","311","1016530","0.0-6.0-4.43","2627040","co37540","norming","","","","","","",""
"null","../img/tt/1143tt.jpg","null","mooney2","image-keyboard-response","312","1018533","0.0-6.0-5.43","2627040","co37540","norming","","","","","","",""
"1872.825000000419","","","post_reveal_questions","survey-likert","313","1020408","0.0-6.0-6.43","2627040","co37540","norming","","","{""aha"":4}","[0]","../img/tt/1143tt.jpg","",""
"null","<div style=""font-size:60px;""> </div>","null","fixation","html-keyboard-response","314","1020611","0.0-6.0-0.44","2627040","co37540","norming","","","","","","",""
"null","../img/tt/082tt.jpg","null","mooney1","image-keyboard-response","315","1023616","0.0-6.0-1.44","2627040","co37540","norming","","","","","","",""
"5852.839999999502","","","post_mooney1_questions","survey-likert","316","1029473","0.0-6.0-2.44","2627040","co37540","norming","","","{""curiosity"":5,""confidence"":0}","[0,1]","../img/tt/082tt.jpg","",""
"2021.7250000004424","","","recognition","survey-text","317","1031496","0.0-6.0-3.44","2627040","co37540","norming","","","{""guess"":""""}","","../img/tt/082tt.jpg","",""
"null","../img/gs/082gs.jpg","null","reveal","image-keyboard-response","318","1033507","0.0-6.0-4.44","2627040","co37540","norming","","","","","","",""
"null","../img/tt/082tt.jpg","null","mooney2","image-keyboard-response","319","1035509","0.0-6.0-5.44","2627040","co37540","norming","","","","","","",""
"1864.5700000014622","","","post_reveal_questions","survey-likert","320","1037377","0.0-6.0-6.44","2627040","co37540","norming","","","{""aha"":2}","[0]","../img/tt/082tt.jpg","",""
"null","<div style=""font-size:60px;""> </div>","null","fixation","html-keyboard-response","321","1037582","0.0-6.0-0.45","2627040","co37540","norming","","","","","","",""
"null","../img/tt/1046tt.jpg","null","mooney1","image-keyboard-response","322","1040586","0.0-6.0-1.45","2627040","co37540","norming","","","","","","",""
"3626.899999999325","","","post_mooney1_questions","survey-likert","323","1044216","0.0-6.0-2.45","2627040","co37540","norming","","","{""curiosity"":5,""confidence"":1}","[0,1]","../img/tt/1046tt.jpg","",""
"1701.8450000014855","","","recognition","survey-text","324","1045920","0.0-6.0-3.45","2627040","co37540","norming","","","{""guess"":""pizza""}","","../img/tt/1046tt.jpg","",""
"null","../img/gs/1046gs.jpg","null","reveal","image-keyboard-response","325","1047929","0.0-6.0-4.45","2627040","co37540","norming","","","","","","",""
"null","../img/tt/1046tt.jpg","null","mooney2","image-keyboard-response","326","1049939","0.0-6.0-5.45","2627040","co37540","norming","","","","","","",""
"4218.334999999497","","","post_reveal_questions","survey-likert","327","1054160","0.0-6.0-6.45","2627040","co37540","norming","","","{""aha"":5}","[0]","../img/tt/1046tt.jpg","",""
"null","<div style=""font-size:60px;""> </div>","null","fixation","html-keyboard-response","328","1054362","0.0-6.0-0.46","2627040","co37540","norming","","","","","","",""
"null","../img/tt/296tt.jpg","null","mooney1","image-keyboard-response","329","1057370","0.0-6.0-1.46","2627040","co37540","norming","","","","","","",""
"4187.219999999972","","","post_mooney1_questions","survey-likert","330","1061560","0.0-6.0-2.46","2627040","co37540","norming","","","{""curiosity"":5,""confidence"":2}","[0,1]","../img/tt/296tt.jpg","",""
"2838.0699999998324","","","recognition","survey-text","331","1064400","0.0-6.0-3.46","2627040","co37540","norming","","","{""guess"":""doodskist""}","","../img/tt/296tt.jpg","",""
"null","../img/gs/296gs.jpg","null","reveal","image-keyboard-response","332","1066401","0.0-6.0-4.46","2627040","co37540","norming","","","","","","",""
"null","../img/tt/296tt.jpg","null","mooney2","image-keyboard-response","333","1068406","0.0-6.0-5.46","2627040","co37540","norming","","","","","","",""
"3520.0850000001956","","","post_reveal_questions","survey-likert","334","1071928","0.0-6.0-6.46","2627040","co37540","norming","","","{""aha"":5}","[0]","../img/tt/296tt.jpg","",""
"null","<div style=""font-size:60px;""> </div>","null","fixation","html-keyboard-response","335","1072139","0.0-6.0-0.47","2627040","co37540","norming","","","","","","",""
"null","../img/tt/477tt.jpg","null","mooney1","image-keyboard-response","336","1075144","0.0-6.0-1.47","2627040","co37540","norming","","","","","","",""
"4860.999999998836","","","post_mooney1_questions","survey-likert","337","1080009","0.0-6.0-2.47","2627040","co37540","norming","","","{""curiosity"":6,""confidence"":0}","[0,1]","../img/tt/477tt.jpg","",""
"2181.5999999998603","","","recognition","survey-text","338","1082192","0.0-6.0-3.47","2627040","co37540","norming","","","{""guess"":""""}","","../img/tt/477tt.jpg","",""
"null","../img/gs/477gs.jpg","null","reveal","image-keyboard-response","339","1084203","0.0-6.0-4.47","2627040","co37540","norming","","","","","","",""
"null","../img/tt/477tt.jpg","null","mooney2","image-keyboard-response","340","1086211","0.0-6.0-5.47","2627040","co37540","norming","","","","","","",""
"2506.6549999993294","","","post_reveal_questions","survey-likert","341","1088720","0.0-6.0-6.47","2627040","co37540","norming","","","{""aha"":5}","[0]","../img/tt/477tt.jpg","",""
"null","<div style=""font-size:60px;""> </div>","null","fixation","html-keyboard-response","342","1088926","0.0-6.0-0.48","2627040","co37540","norming","","","","","","",""
"null","../img/tt/044tt.jpg","null","mooney1","image-keyboard-response","343","1091937","0.0-6.0-1.48","2627040","co37540","norming","","","","","","",""
"3868.295000000391","","","post_mooney1_questions","survey-likert","344","1095809","0.0-6.0-2.48","2627040","co37540","norming","","","{""curiosity"":5,""confidence"":3}","[0,1]","../img/tt/044tt.jpg","",""
"4013.950000000419","","","recognition","survey-text","345","1099824","0.0-6.0-3.48","2627040","co37540","norming","","","{""guess"":""draaitafel""}","","../img/tt/044tt.jpg","",""
"null","../img/gs/044gs.jpg","null","reveal","image-keyboard-response","346","1101835","0.0-6.0-4.48","2627040","co37540","norming","","","","","","",""
"null","../img/tt/044tt.jpg","null","mooney2","image-keyboard-response","347","1103836","0.0-6.0-5.48","2627040","co37540","norming","","","","","","",""
"2090.1950000007637","","","post_reveal_questions","survey-likert","348","1105929","0.0-6.0-6.48","2627040","co37540","norming","","","{""aha"":5}","[0]","../img/tt/044tt.jpg","",""
"null","<div style=""font-size:60px;""> </div>","null","fixation","html-keyboard-response","349","1106130","0.0-6.0-0.49","2627040","co37540","norming","","","","","","",""
"null","../img/tt/076tt.jpg","null","mooney1","image-keyboard-response","350","1109141","0.0-6.0-1.49","2627040","co37540","norming","","","","","","",""
"7160.160000001313","","","post_mooney1_questions","survey-likert","351","1116304","0.0-6.0-2.49","2627040","co37540","norming","","","{""curiosity"":4,""confidence"":5}","[0,1]","../img/tt/076tt.jpg","",""
"2158.409999999916","","","recognition","survey-text","352","1118465","0.0-6.0-3.49","2627040","co37540","norming","","","{""guess"":""schaatsen""}","","../img/tt/076tt.jpg","",""
"null","../img/gs/076gs.jpg","null","reveal","image-keyboard-response","353","1120466","0.0-6.0-4.49","2627040","co37540","norming","","","","","","",""
"null","../img/tt/076tt.jpg","null","mooney2","image-keyboard-response","354","1122468","0.0-6.0-5.49","2627040","co37540","norming","","","","","","",""
"2639.6600000006147","","","post_reveal_questions","survey-likert","355","1125113","0.0-6.0-6.49","2627040","co37540","norming","","","{""aha"":3}","[0]","../img/tt/076tt.jpg","",""
"null","<div style=""font-size:60px;""> </div>","null","fixation","html-keyboard-response","356","1125314","0.0-6.0-0.50","2627040","co37540","norming","","","","","","",""
"null","../img/tt/306tt.jpg","null","mooney1","image-keyboard-response","357","1128326","0.0-6.0-1.50","2627040","co37540","norming","","","","","","",""
"3727.3850000000093","","","post_mooney1_questions","survey-likert","358","1132057","0.0-6.0-2.50","2627040","co37540","norming","","","{""curiosity"":6,""confidence"":0}","[0,1]","../img/tt/306tt.jpg","",""
"997.9099999999162","","","recognition","survey-text","359","1133056","0.0-6.0-3.50","2627040","co37540","norming","","","{""guess"":""""}","","../img/tt/306tt.jpg","",""
"null","../img/gs/306gs.jpg","null","reveal","image-keyboard-response","360","1135058","0.0-6.0-4.50","2627040","co37540","norming","","","","","","",""
"null","../img/tt/306tt.jpg","null","mooney2","image-keyboard-response","361","1137060","0.0-6.0-5.50","2627040","co37540","norming","","","","","","",""
"1817.665000000503","","","post_reveal_questions","survey-likert","362","1138880","0.0-6.0-6.50","2627040","co37540","norming","","","{""aha"":5}","[0]","../img/tt/306tt.jpg","",""
"null","<div style=""font-size:60px;""> </div>","null","fixation","html-keyboard-response","363","1139086","0.0-6.0-0.51","2627040","co37540","norming","","","","","","",""
"null","../img/tt/318tt.jpg","null","mooney1","image-keyboard-response","364","1142096","0.0-6.0-1.51","2627040","co37540","norming","","","","","","",""
"4892.905000000494","","","post_mooney1_questions","survey-likert","365","1146993","0.0-6.0-2.51","2627040","co37540","norming","","","{""curiosity"":5,""confidence"":2}","[0,1]","../img/tt/318tt.jpg","",""
"6318.100000000326","","","recognition","survey-text","366","1153313","0.0-6.0-3.51","2627040","co37540","norming","","","{""guess"":""binnenkant auto""}","","../img/tt/318tt.jpg","",""
"null","../img/gs/318gs.jpg","null","reveal","image-keyboard-response","367","1155315","0.0-6.0-4.51","2627040","co37540","norming","","","","","","",""
"null","../img/tt/318tt.jpg","null","mooney2","image-keyboard-response","368","1157317","0.0-6.0-5.51","2627040","co37540","norming","","","","","","",""
"3816.244999999879","","","post_reveal_questions","survey-likert","369","1161137","0.0-6.0-6.51","2627040","co37540","norming","","","{""aha"":4}","[0]","../img/tt/318tt.jpg","",""
"null","<div style=""font-size:60px;""> </div>","null","fixation","html-keyboard-response","370","1161339","0.0-6.0-0.52","2627040","co37540","norming","","","","","","",""
"null","../img/tt/121tt.jpg","null","mooney1","image-keyboard-response","371","1164343","0.0-6.0-1.52","2627040","co37540","norming","","","","","","",""
"5102.540000000037","","","post_mooney1_questions","survey-likert","372","1169449","0.0-6.0-2.52","2627040","co37540","norming","","","{""curiosity"":5,""confidence"":3}","[0,1]","../img/tt/121tt.jpg","",""
"2454.3799999991897","","","recognition","survey-text","373","1171905","0.0-6.0-3.52","2627040","co37540","norming","","","{""guess"":""vogel""}","","../img/tt/121tt.jpg","",""
"null","../img/gs/121gs.jpg","null","reveal","image-keyboard-response","374","1173912","0.0-6.0-4.52","2627040","co37540","norming","","","","","","",""
"null","../img/tt/121tt.jpg","null","mooney2","image-keyboard-response","375","1175915","0.0-6.0-5.52","2627040","co37540","norming","","","","","","",""
"5429.135000000242","","","post_reveal_questions","survey-likert","376","1181345","0.0-6.0-6.52","2627040","co37540","norming","","","{""aha"":4}","[0]","../img/tt/121tt.jpg","",""
"null","<div style=""font-size:60px;""> </div>","null","fixation","html-keyboard-response","377","1181546","0.0-6.0-0.53","2627040","co37540","norming","","","","","","",""
"null","../img/tt/056tt.jpg","null","mooney1","image-keyboard-response","378","1184555","0.0-6.0-1.53","2627040","co37540","norming","","","","","","",""
"6315.094999999739","","","post_mooney1_questions","survey-likert","379","1190873","0.0-6.0-2.53","2627040","co37540","norming","","","{""curiosity"":5,""confidence"":2}","[0,1]","../img/tt/056tt.jpg","",""
"3414.160000000149","","","recognition","survey-text","380","1194289","0.0-6.0-3.53","2627040","co37540","norming","","","{""guess"":""wolf""}","","../img/tt/056tt.jpg","",""
"null","../img/gs/056gs.jpg","null","reveal","image-keyboard-response","381","1196299","0.0-6.0-4.53","2627040","co37540","norming","","","","","","",""
"null","../img/tt/056tt.jpg","null","mooney2","image-keyboard-response","382","1198302","0.0-6.0-5.53","2627040","co37540","norming","","","","","","",""
"3864.4199999996927","","","post_reveal_questions","survey-likert","383","1202169","0.0-6.0-6.53","2627040","co37540","norming","","","{""aha"":5}","[0]","../img/tt/056tt.jpg","",""
"null","<div style=""font-size:60px;""> </div>","null","fixation","html-keyboard-response","384","1202371","0.0-6.0-0.54","2627040","co37540","norming","","","","","","",""
"null","../img/tt/1055tt.jpg","null","mooney1","image-keyboard-response","385","1205380","0.0-6.0-1.54","2627040","co37540","norming","","","","","","",""
"4474.14000000013","","","post_mooney1_questions","survey-likert","386","1209857","0.0-6.0-2.54","2627040","co37540","norming","","","{""curiosity"":4,""confidence"":1}","[0,1]","../img/tt/1055tt.jpg","",""
"2125.929999999935","","","recognition","survey-text","387","1211985","0.0-6.0-3.54","2627040","co37540","norming","","","{""guess"":""bootje""}","","../img/tt/1055tt.jpg","",""
"null","../img/gs/1055gs.jpg","null","reveal","image-keyboard-response","388","1213986","0.0-6.0-4.54","2627040","co37540","norming","","","","","","",""
"null","../img/tt/1055tt.jpg","null","mooney2","image-keyboard-response","389","1215991","0.0-6.0-5.54","2627040","co37540","norming","","","","","","",""
"5287.055000000633","","","post_reveal_questions","survey-likert","390","1221281","0.0-6.0-6.54","2627040","co37540","norming","","","{""aha"":4}","[0]","../img/tt/1055tt.jpg","",""
"null","<div style=""font-size:60px;""> </div>","null","fixation","html-keyboard-response","391","1221482","0.0-6.0-0.55","2627040","co37540","norming","","","","","","",""
"null","../img/tt/307tt.jpg","null","mooney1","image-keyboard-response","392","1224491","0.0-6.0-1.55","2627040","co37540","norming","","","","","","",""
"3549.3600000010338","","","post_mooney1_questions","survey-likert","393","1228044","0.0-6.0-2.55","2627040","co37540","norming","","","{""curiosity"":5,""confidence"":2}","[0,1]","../img/tt/307tt.jpg","",""
"1670.1450000000186","","","recognition","survey-text","394","1229716","0.0-6.0-3.55","2627040","co37540","norming","","","{""guess"":""rups""}","","../img/tt/307tt.jpg","",""
"null","../img/gs/307gs.jpg","null","reveal","image-keyboard-response","395","1231720","0.0-6.0-4.55","2627040","co37540","norming","","","","","","",""
"null","../img/tt/307tt.jpg","null","mooney2","image-keyboard-response","396","1233730","0.0-6.0-5.55","2627040","co37540","norming","","","","","","",""
"4222.359999999637","","","post_reveal_questions","survey-likert","397","1237955","0.0-6.0-6.55","2627040","co37540","norming","","","{""aha"":6}","[0]","../img/tt/307tt.jpg","",""
"null","<div style=""font-size:60px;""> </div>","null","fixation","html-keyboard-response","398","1238163","0.0-6.0-0.56","2627040","co37540","norming","","","","","","",""
"null","../img/tt/1237tt.jpg","null","mooney1","image-keyboard-response","399","1241169","0.0-6.0-1.56","2627040","co37540","norming","","","","","","",""
"4486.585000000661","","","post_mooney1_questions","survey-likert","400","1245660","0.0-6.0-2.56","2627040","co37540","norming","","","{""curiosity"":5,""confidence"":1}","[0,1]","../img/tt/1237tt.jpg","",""
"6373.924999999814","","","recognition","survey-text","401","1252036","0.0-6.0-3.56","2627040","co37540","norming","","","{""guess"":""watervogek""}","","../img/tt/1237tt.jpg","",""
"null","../img/gs/1237gs.jpg","null","reveal","image-keyboard-response","402","1254043","0.0-6.0-4.56","2627040","co37540","norming","","","","","","",""
"null","../img/tt/1237tt.jpg","null","mooney2","image-keyboard-response","403","1256047","0.0-6.0-5.56","2627040","co37540","norming","","","","","","",""
"1642.280000000028","","","post_reveal_questions","survey-likert","404","1257691","0.0-6.0-6.56","2627040","co37540","norming","","","{""aha"":5}","[0]","../img/tt/1237tt.jpg","",""
"null","<div style=""font-size:60px;""> </div>","null","fixation","html-keyboard-response","405","1257900","0.0-6.0-0.57","2627040","co37540","norming","","","","","","",""
"null","../img/tt/1084tt.jpg","null","mooney1","image-keyboard-response","406","1260911","0.0-6.0-1.57","2627040","co37540","norming","","","","","","",""
"3097.265000000363","","","post_mooney1_questions","survey-likert","407","1264011","0.0-6.0-2.57","2627040","co37540","norming","","","{""curiosity"":5,""confidence"":2}","[0,1]","../img/tt/1084tt.jpg","",""
"6342.379999999888","","","recognition","survey-text","408","1270355","0.0-6.0-3.57","2627040","co37540","norming","","","{""guess"":""lievenheersbeestje""}","","../img/tt/1084tt.jpg","",""
"null","../img/gs/1084gs.jpg","null","reveal","image-keyboard-response","409","1272358","0.0-6.0-4.57","2627040","co37540","norming","","","","","","",""
"null","../img/tt/1084tt.jpg","null","mooney2","image-keyboard-response","410","1274361","0.0-6.0-5.57","2627040","co37540","norming","","","","","","",""
"2839.4599999992643","","","post_reveal_questions","survey-likert","411","1277203","0.0-6.0-6.57","2627040","co37540","norming","","","{""aha"":5}","[0]","../img/tt/1084tt.jpg","",""
"null","<div style=""font-size:60px;""> </div>","null","fixation","html-keyboard-response","412","1277405","0.0-6.0-0.58","2627040","co37540","norming","","","","","","",""
"null","../img/tt/1181tt.jpg","null","mooney1","image-keyboard-response","413","1280408","0.0-6.0-1.58","2627040","co37540","norming","","","","","","",""
"3096.650000001304","","","post_mooney1_questions","survey-likert","414","1283508","0.0-6.0-2.58","2627040","co37540","norming","","","{""curiosity"":5,""confidence"":2}","[0,1]","../img/tt/1181tt.jpg","",""
"2253.984999999404","","","recognition","survey-text","415","1285756","0.0-6.0-3.58","2627040","co37540","norming","","","{""guess"":""baseball""}","","../img/tt/1181tt.jpg","",""
"null","../img/gs/1181gs.jpg","null","reveal","image-keyboard-response","416","1287758","0.0-6.0-4.58","2627040","co37540","norming","","","","","","",""
"null","../img/tt/1181tt.jpg","null","mooney2","image-keyboard-response","417","1289768","0.0-6.0-5.58","2627040","co37540","norming","","","","","","",""
"2562.0100000014063","","","post_reveal_questions","survey-likert","418","1292332","0.0-6.0-6.58","2627040","co37540","norming","","","{""aha"":4}","[0]","../img/tt/1181tt.jpg","",""
"null","<div style=""font-size:60px;""> </div>","null","fixation","html-keyboard-response","419","1292544","0.0-6.0-0.59","2627040","co37540","norming","","","","","","",""
"null","../img/tt/438tt.jpg","null","mooney1","image-keyboard-response","420","1295555","0.0-6.0-1.59","2627040","co37540","norming","","","","","","",""
"4462.260000000242","","","post_mooney1_questions","survey-likert","421","1300020","0.0-6.0-2.59","2627040","co37540","norming","","","{""curiosity"":5,""confidence"":1}","[0,1]","../img/tt/438tt.jpg","",""
"1574.1800000013318","","","recognition","survey-text","422","1301596","0.0-6.0-3.59","2627040","co37540","norming","","","{""guess"":""slang""}","","../img/tt/438tt.jpg","",""
"null","../img/gs/438gs.jpg","null","reveal","image-keyboard-response","423","1303598","0.0-6.0-4.59","2627040","co37540","norming","","","","","","",""
"null","../img/tt/438tt.jpg","null","mooney2","image-keyboard-response","424","1305601","0.0-6.0-5.59","2627040","co37540","norming","","","","","","",""
"2664.199999999255","","","post_reveal_questions","survey-likert","425","1308268","0.0-6.0-6.59","2627040","co37540","norming","","","{""aha"":4}","[0]","../img/tt/438tt.jpg","",""
"null","<div style=""font-size:60px;""> </div>","null","fixation","html-keyboard-response","426","1308470","0.0-6.0-0.60","2627040","co37540","norming","","","","","","",""
"null","../img/tt/534tt.jpg","null","mooney1","image-keyboard-response","427","1311473","0.0-6.0-1.60","2627040","co37540","norming","","","","","","",""
"5551.765000000363","","","post_mooney1_questions","survey-likert","428","1317029","0.0-6.0-2.60","2627040","co37540","norming","","","{""curiosity"":5,""confidence"":0}","[0,1]","../img/tt/534tt.jpg","",""
"965.894999999553","","","recognition","survey-text","429","1317996","0.0-6.0-3.60","2627040","co37540","norming","","","{""guess"":""""}","","../img/tt/534tt.jpg","",""
"null","../img/gs/534gs.jpg","null","reveal","image-keyboard-response","430","1319999","0.0-6.0-4.60","2627040","co37540","norming","","","","","","",""
"null","../img/tt/534tt.jpg","null","mooney2","image-keyboard-response","431","1322009","0.0-6.0-5.60","2627040","co37540","norming","","","","","","",""
"2912.459999999497","","","post_reveal_questions","survey-likert","432","1324924","0.0-6.0-6.60","2627040","co37540","norming","","","{""aha"":6}","[0]","../img/tt/534tt.jpg","",""
"null","<div style=""font-size:60px;""> </div>","null","fixation","html-keyboard-response","433","1325130","0.0-6.0-0.61","2627040","co37540","norming","","","","","","",""
"null","../img/tt/1125tt.jpg","null","mooney1","image-keyboard-response","434","1328134","0.0-6.0-1.61","2627040","co37540","norming","","","","","","",""
"4498.659999999218","","","post_mooney1_questions","survey-likert","435","1332636","0.0-6.0-2.61","2627040","co37540","norming","","","{""curiosity"":5,""confidence"":1}","[0,1]","../img/tt/1125tt.jpg","",""
"709.9949999991804","","","recognition","survey-text","436","1333348","0.0-6.0-3.61","2627040","co37540","norming","","","{""guess"":""""}","","../img/tt/1125tt.jpg","",""
"null","../img/gs/1125gs.jpg","null","reveal","image-keyboard-response","437","1335358","0.0-6.0-4.61","2627040","co37540","norming","","","","","","",""
"null","../img/tt/1125tt.jpg","null","mooney2","image-keyboard-response","438","1337367","0.0-6.0-5.61","2627040","co37540","norming","","","","","","",""
"2618.8300000012387","","","post_reveal_questions","survey-likert","439","1339988","0.0-6.0-6.61","2627040","co37540","norming","","","{""aha"":4}","[0]","../img/tt/1125tt.jpg","",""
"null","<div style=""font-size:60px;""> </div>","null","fixation","html-keyboard-response","440","1340193","0.0-6.0-0.62","2627040","co37540","norming","","","","","","",""
"null","../img/tt/1044tt.jpg","null","mooney1","image-keyboard-response","441","1343199","0.0-6.0-1.62","2627040","co37540","norming","","","","","","",""
"4794.729999999516","","","post_mooney1_questions","survey-likert","442","1348009","0.0-6.0-2.62","2627040","co37540","norming","","","{""curiosity"":5,""confidence"":2}","[0,1]","../img/tt/1044tt.jpg","",""
"1382.034999998752","","","recognition","survey-text","443","1349392","0.0-6.0-3.62","2627040","co37540","norming","","","{""guess"":""""}","","../img/tt/1044tt.jpg","",""
"null","../img/gs/1044gs.jpg","null","reveal","image-keyboard-response","444","1351402","0.0-6.0-4.62","2627040","co37540","norming","","","","","","",""
"null","../img/tt/1044tt.jpg","null","mooney2","image-keyboard-response","445","1353411","0.0-6.0-5.62","2627040","co37540","norming","","","","","","",""
"2522.3849999983795","","","post_reveal_questions","survey-likert","446","1355936","0.0-6.0-6.62","2627040","co37540","norming","","","{""aha"":5}","[0]","../img/tt/1044tt.jpg","",""
"null","<div style=""font-size:60px;""> </div>","null","fixation","html-keyboard-response","447","1356140","0.0-6.0-0.63","2627040","co37540","norming","","","","","","",""
"null","../img/tt/1241tt.jpg","null","mooney1","image-keyboard-response","448","1359152","0.0-6.0-1.63","2627040","co37540","norming","","","","","","",""
"3716.6700000015553","","","post_mooney1_questions","survey-likert","449","1362873","0.0-6.0-2.63","2627040","co37540","norming","","","{""curiosity"":4,""confidence"":2}","[0,1]","../img/tt/1241tt.jpg","",""
"1966.0599999988917","","","recognition","survey-text","450","1364840","0.0-6.0-3.63","2627040","co37540","norming","","","{""guess"":""paarden""}","","../img/tt/1241tt.jpg","",""
"null","../img/gs/1241gs.jpg","null","reveal","image-keyboard-response","451","1366842","0.0-6.0-4.63","2627040","co37540","norming","","","","","","",""
"null","../img/tt/1241tt.jpg","null","mooney2","image-keyboard-response","452","1368844","0.0-6.0-5.63","2627040","co37540","norming","","","","","","",""
"1377.569999998901","","","post_reveal_questions","survey-likert","453","1370224","0.0-6.0-6.63","2627040","co37540","norming","","","{""aha"":4}","[0]","../img/tt/1241tt.jpg","",""
"null","<div style=""font-size:60px;""> </div>","null","fixation","html-keyboard-response","454","1370426","0.0-6.0-0.64","2627040","co37540","norming","","","","","","",""
"null","../img/tt/1226tt.jpg","null","mooney1","image-keyboard-response","455","1373438","0.0-6.0-1.64","2627040","co37540","norming","","","","","","",""
"8421.759999999078","","","post_mooney1_questions","survey-likert","456","1381865","0.0-6.0-2.64","2627040","co37540","norming","","","{""curiosity"":4,""confidence"":0}","[0,1]","../img/tt/1226tt.jpg","",""
"629.9249999991152","","","recognition","survey-text","457","1382496","0.0-6.0-3.64","2627040","co37540","norming","","","{""guess"":""""}","","../img/tt/1226tt.jpg","",""
"null","../img/gs/1226gs.jpg","null","reveal","image-keyboard-response","458","1384502","0.0-6.0-4.64","2627040","co37540","norming","","","","","","",""
"null","../img/tt/1226tt.jpg","null","mooney2","image-keyboard-response","459","1386513","0.0-6.0-5.64","2627040","co37540","norming","","","","","","",""
"3740.499999999767","","","post_reveal_questions","survey-likert","460","1390256","0.0-6.0-6.64","2627040","co37540","norming","","","{""aha"":5}","[0]","../img/tt/1226tt.jpg","",""
"null","<div style=""font-size:60px;""> </div>","null","fixation","html-keyboard-response","461","1390461","0.0-6.0-0.65","2627040","co37540","norming","","","","","","",""
"null","../img/tt/098tt.jpg","null","mooney1","image-keyboard-response","462","1393467","0.0-6.0-1.65","2627040","co37540","norming","","","","","","",""
"4890.08999999892","","","post_mooney1_questions","survey-likert","463","1398361","0.0-6.0-2.65","2627040","co37540","norming","","","{""curiosity"":5,""confidence"":1}","[0,1]","../img/tt/098tt.jpg","",""
"1085.735000000568","","","recognition","survey-text","464","1399448","0.0-6.0-3.65","2627040","co37540","norming","","","{""guess"":""""}","","../img/tt/098tt.jpg","",""
"null","../img/gs/098gs.jpg","null","reveal","image-keyboard-response","465","1401456","0.0-6.0-4.65","2627040","co37540","norming","","","","","","",""
"null","../img/tt/098tt.jpg","null","mooney2","image-keyboard-response","466","1403464","0.0-6.0-5.65","2627040","co37540","norming","","","","","","",""
"1837.085000001127","","","post_reveal_questions","survey-likert","467","1405300","0.0-6.0-6.65","2627040","co37540","norming","","","{""aha"":1}","[0]","../img/tt/098tt.jpg","",""
"null","<div style=""font-size:60px;""> </div>","null","fixation","html-keyboard-response","468","1405502","0.0-6.0-0.66","2627040","co37540","norming","","","","","","",""
"null","../img/tt/1366tt.jpg","null","mooney1","image-keyboard-response","469","1408511","0.0-6.0-1.66","2627040","co37540","norming","","","","","","",""
"5257.7249999996275","","","post_mooney1_questions","survey-likert","470","1413773","0.0-6.0-2.66","2627040","co37540","norming","","","{""curiosity"":4,""confidence"":1}","[0,1]","../img/tt/1366tt.jpg","",""
"1701.8050000006333","","","recognition","survey-text","471","1415476","0.0-6.0-3.66","2627040","co37540","norming","","","{""guess"":""vis""}","","../img/tt/1366tt.jpg","",""
"null","../img/gs/1366gs.jpg","null","reveal","image-keyboard-response","472","1417486","0.0-6.0-4.66","2627040","co37540","norming","","","","","","",""
"null","../img/tt/1366tt.jpg","null","mooney2","image-keyboard-response","473","1419490","0.0-6.0-5.66","2627040","co37540","norming","","","","","","",""
"3279.230000000214","","","post_reveal_questions","survey-likert","474","1422772","0.0-6.0-6.66","2627040","co37540","norming","","","{""aha"":5}","[0]","../img/tt/1366tt.jpg","",""
"null","<div style=""font-size:60px;""> </div>","null","fixation","html-keyboard-response","475","1422976","0.0-6.0-0.67","2627040","co37540","norming","","","","","","",""
"null","../img/tt/1199tt.jpg","null","mooney1","image-keyboard-response","476","1425981","0.0-6.0-1.67","2627040","co37540","norming","","","","","","",""
"3316.2850000008475","","","post_mooney1_questions","survey-likert","477","1429300","0.0-6.0-2.67","2627040","co37540","norming","","","{""curiosity"":5,""confidence"":2}","[0,1]","../img/tt/1199tt.jpg","",""
"2382.179999998538","","","recognition","survey-text","478","1431684","0.0-6.0-3.67","2627040","co37540","norming","","","{""guess"":""turnen""}","","../img/tt/1199tt.jpg","",""
"null","../img/gs/1199gs.jpg","null","reveal","image-keyboard-response","479","1433692","0.0-6.0-4.67","2627040","co37540","norming","","","","","","",""
"null","../img/tt/1199tt.jpg","null","mooney2","image-keyboard-response","480","1435702","0.0-6.0-5.67","2627040","co37540","norming","","","","","","",""
"3028.9699999992736","","","post_reveal_questions","survey-likert","481","1438732","0.0-6.0-6.67","2627040","co37540","norming","","","{""aha"":5}","[0]","../img/tt/1199tt.jpg","",""
"null","<div style=""font-size:60px;""> </div>","null","fixation","html-keyboard-response","482","1438934","0.0-6.0-0.68","2627040","co37540","norming","","","","","","",""
"null","../img/tt/1130tt.jpg","null","mooney1","image-keyboard-response","483","1441944","0.0-6.0-1.68","2627040","co37540","norming","","","","","","",""
"3817.114999999758","","","post_mooney1_questions","survey-likert","484","1445765","0.0-6.0-2.68","2627040","co37540","norming","","","{""curiosity"":5,""confidence"":3}","[0,1]","../img/tt/1130tt.jpg","",""
"2126.174999999581","","","recognition","survey-text","485","1447892","0.0-6.0-3.68","2627040","co37540","norming","","","{""guess"":""sprinten""}","","../img/tt/1130tt.jpg","",""
"null","../img/gs/1130gs.jpg","null","reveal","image-keyboard-response","486","1449896","0.0-6.0-4.68","2627040","co37540","norming","","","","","","",""
"null","../img/tt/1130tt.jpg","null","mooney2","image-keyboard-response","487","1451898","0.0-6.0-5.68","2627040","co37540","norming","","","","","","",""
"2080.0600000002887","","","post_reveal_questions","survey-likert","488","1453980","0.0-6.0-6.68","2627040","co37540","norming","","","{""aha"":5}","[0]","../img/tt/1130tt.jpg","",""
"null","<div style=""font-size:60px;""> </div>","null","fixation","html-keyboard-response","489","1454190","0.0-6.0-0.69","2627040","co37540","norming","","","","","","",""
"null","../img/tt/1101tt.jpg","null","mooney1","image-keyboard-response","490","1457194","0.0-6.0-1.69","2627040","co37540","norming","","","","","","",""
"5663.414999999106","","","post_mooney1_questions","survey-likert","491","1462861","0.0-6.0-2.69","2627040","co37540","norming","","","{""curiosity"":5,""confidence"":2}","[0,1]","../img/tt/1101tt.jpg","",""
"3094.015000000596","","","recognition","survey-text","492","1465963","0.0-6.0-3.69","2627040","co37540","norming","","","{""guess"":""honkbal""}","","../img/tt/1101tt.jpg","",""
"null","../img/gs/1101gs.jpg","null","reveal","image-keyboard-response","493","1467965","0.0-6.0-4.69","2627040","co37540","norming","","","","","","",""
"null","../img/tt/1101tt.jpg","null","mooney2","image-keyboard-response","494","1469976","0.0-6.0-5.69","2627040","co37540","norming","","","","","","",""
"3952.535000000382","","","post_reveal_questions","survey-likert","495","1473931","0.0-6.0-6.69","2627040","co37540","norming","","","{""aha"":5}","[0]","../img/tt/1101tt.jpg","",""
"null","<div style=""font-size:60px;""> </div>","null","fixation","html-keyboard-response","496","1474139","0.0-6.0-0.70","2627040","co37540","norming","","","","","","",""
"null","../img/tt/135tt.jpg","null","mooney1","image-keyboard-response","497","1477146","0.0-6.0-1.70","2627040","co37540","norming","","","","","","",""
"3397.0700000007637","","","post_mooney1_questions","survey-likert","498","1480547","0.0-6.0-2.70","2627040","co37540","norming","","","{""curiosity"":5,""confidence"":5}","[0,1]","../img/tt/135tt.jpg","",""
"4614.20999999973","","","recognition","survey-text","499","1485163","0.0-6.0-3.70","2627040","co37540","norming","","","{""guess"":""toilet""}","","../img/tt/135tt.jpg","",""
"null","../img/gs/135gs.jpg","null","reveal","image-keyboard-response","500","1487168","0.0-6.0-4.70","2627040","co37540","norming","","","","","","",""
"null","../img/tt/135tt.jpg","null","mooney2","image-keyboard-response","501","1489171","0.0-6.0-5.70","2627040","co37540","norming","","","","","","",""
"4821.219999999739","","","post_reveal_questions","survey-likert","502","1493995","0.0-6.0-6.70","2627040","co37540","norming","","","{""aha"":2}","[0]","../img/tt/135tt.jpg","",""
"null","<div style=""font-size:60px;""> </div>","null","fixation","html-keyboard-response","503","1494203","0.0-6.0-0.71","2627040","co37540","norming","","","","","","",""
"null","../img/tt/435tt.jpg","null","mooney1","image-keyboard-response","504","1497208","0.0-6.0-1.71","2627040","co37540","norming","","","","","","",""
"3863.220000001136","","","post_mooney1_questions","survey-likert","505","1501075","0.0-6.0-2.71","2627040","co37540","norming","","","{""curiosity"":5,""confidence"":1}","[0,1]","../img/tt/435tt.jpg","",""
"4278.029999999562","","","recognition","survey-text","506","1505355","0.0-6.0-3.71","2627040","co37540","norming","","","{""guess"":""koffiezet""}","","../img/tt/435tt.jpg","",""
"null","../img/gs/435gs.jpg","null","reveal","image-keyboard-response","507","1507363","0.0-6.0-4.71","2627040","co37540","norming","","","","","","",""
"null","../img/tt/435tt.jpg","null","mooney2","image-keyboard-response","508","1509366","0.0-6.0-5.71","2627040","co37540","norming","","","","","","",""
"1898.6849999981932","","","post_reveal_questions","survey-likert","509","1511267","0.0-6.0-6.71","2627040","co37540","norming","","","{""aha"":4}","[0]","../img/tt/435tt.jpg","",""
"null","<div style=""font-size:60px;""> </div>","null","fixation","html-keyboard-response","510","1511477","0.0-6.0-0.72","2627040","co37540","norming","","","","","","",""
"null","../img/tt/1063tt.jpg","null","mooney1","image-keyboard-response","511","1514480","0.0-6.0-1.72","2627040","co37540","norming","","","","","","",""
"3136.3799999998882","","","post_mooney1_questions","survey-likert","512","1517619","0.0-6.0-2.72","2627040","co37540","norming","","","{""curiosity"":5,""confidence"":2}","[0,1]","../img/tt/1063tt.jpg","",""
"2565.945000000298","","","recognition","survey-text","513","1520187","0.0-6.0-3.72","2627040","co37540","norming","","","{""guess"":""paard""}","","../img/tt/1063tt.jpg","",""
"null","../img/gs/1063gs.jpg","null","reveal","image-keyboard-response","514","1522194","0.0-6.0-4.72","2627040","co37540","norming","","","","","","",""
"null","../img/tt/1063tt.jpg","null","mooney2","image-keyboard-response","515","1524196","0.0-6.0-5.72","2627040","co37540","norming","","","","","","",""
"1756.514999999199","","","post_reveal_questions","survey-likert","516","1525955","0.0-6.0-6.72","2627040","co37540","norming","","","{""aha"":5}","[0]","../img/tt/1063tt.jpg","",""
"null","<div style=""font-size:60px;""> </div>","null","fixation","html-keyboard-response","517","1526164","0.0-6.0-0.73","2627040","co37540","norming","","","","","","",""
"null","../img/tt/270tt.jpg","null","mooney1","image-keyboard-response","518","1529173","0.0-6.0-1.73","2627040","co37540","norming","","","","","","",""
"3306.9099999992177","","","post_mooney1_questions","survey-likert","519","1532483","0.0-6.0-2.73","2627040","co37540","norming","","","{""curiosity"":5,""confidence"":0}","[0,1]","../img/tt/270tt.jpg","",""
"862.0200000004843","","","recognition","survey-text","520","1533347","0.0-6.0-3.73","2627040","co37540","norming","","","{""guess"":""""}","","../img/tt/270tt.jpg","",""
"null","../img/gs/270gs.jpg","null","reveal","image-keyboard-response","521","1535355","0.0-6.0-4.73","2627040","co37540","norming","","","","","","",""
"null","../img/tt/270tt.jpg","null","mooney2","image-keyboard-response","522","1537358","0.0-6.0-5.73","2627040","co37540","norming","","","","","","",""
"1978.4450000005309","","","post_reveal_questions","survey-likert","523","1539339","0.0-6.0-6.73","2627040","co37540","norming","","","{""aha"":3}","[0]","../img/tt/270tt.jpg","",""
"null","<div style=""font-size:60px;""> </div>","null","fixation","html-keyboard-response","524","1539539","0.0-6.0-0.74","2627040","co37540","norming","","","","","","",""
"null","../img/tt/1043tt.jpg","null","mooney1","image-keyboard-response","525","1542549","0.0-6.0-1.74","2627040","co37540","norming","","","","","","",""
"5787.16999999946","","","post_mooney1_questions","survey-likert","526","1548339","0.0-6.0-2.74","2627040","co37540","norming","","","{""curiosity"":4,""confidence"":0}","[0,1]","../img/tt/1043tt.jpg","",""
"973.7900000000373","","","recognition","survey-text","527","1549314","0.0-6.0-3.74","2627040","co37540","norming","","","{""guess"":""""}","","../img/tt/1043tt.jpg","",""
"null","../img/gs/1043gs.jpg","null","reveal","image-keyboard-response","528","1551320","0.0-6.0-4.74","2627040","co37540","norming","","","","","","",""
"null","../img/tt/1043tt.jpg","null","mooney2","image-keyboard-response","529","1553322","0.0-6.0-5.74","2627040","co37540","norming","","","","","","",""
"1805.5700000005309","","","post_reveal_questions","survey-likert","530","1555131","0.0-6.0-6.74","2627040","co37540","norming","","","{""aha"":3}","[0]","../img/tt/1043tt.jpg","",""
"null","<div style=""font-size:60px;""> </div>","null","fixation","html-keyboard-response","531","1555332","0.0-6.0-0.75","2627040","co37540","norming","","","","","","",""
"null","../img/tt/032tt.jpg","null","mooney1","image-keyboard-response","532","1558338","0.0-6.0-1.75","2627040","co37540","norming","","","","","","",""
"3597.4650000005495","","","post_mooney1_questions","survey-likert","533","1561939","0.0-6.0-2.75","2627040","co37540","norming","","","{""curiosity"":5,""confidence"":2}","[0,1]","../img/tt/032tt.jpg","",""
"1797.880000000121","","","recognition","survey-text","534","1563739","0.0-6.0-3.75","2627040","co37540","norming","","","{""guess"":""slang""}","","../img/tt/032tt.jpg","",""
"null","../img/gs/032gs.jpg","null","reveal","image-keyboard-response","535","1565743","0.0-6.0-4.75","2627040","co37540","norming","","","","","","",""
"null","../img/tt/032tt.jpg","null","mooney2","image-keyboard-response","536","1567747","0.0-6.0-5.75","2627040","co37540","norming","","","","","","",""
"2901.084999999497","","","post_reveal_questions","survey-likert","537","1570650","0.0-6.0-6.75","2627040","co37540","norming","","","{""aha"":4}","[0]","../img/tt/032tt.jpg","",""
"null","<div style=""font-size:60px;""> </div>","null","fixation","html-keyboard-response","538","1570852","0.0-6.0-0.76","2627040","co37540","norming","","","","","","",""
"null","../img/tt/013tt.jpg","null","mooney1","image-keyboard-response","539","1573854","0.0-6.0-1.76","2627040","co37540","norming","","","","","","",""
"5712.820000000531","","","post_mooney1_questions","survey-likert","540","1579571","0.0-6.0-2.76","2627040","co37540","norming","","","{""curiosity"":5,""confidence"":1}","[0,1]","../img/tt/013tt.jpg","",""
"3637.8649999988265","","","recognition","survey-text","541","1583211","0.0-6.0-3.76","2627040","co37540","norming","","","{""guess"":""schilderij""}","","../img/tt/013tt.jpg","",""
"null","../img/gs/013gs.jpg","null","reveal","image-keyboard-response","542","1585213","0.0-6.0-4.76","2627040","co37540","norming","","","","","","",""
"null","../img/tt/013tt.jpg","null","mooney2","image-keyboard-response","543","1587216","0.0-6.0-5.76","2627040","co37540","norming","","","","","","",""
"2417.444999999134","","","post_reveal_questions","survey-likert","544","1589636","0.0-6.0-6.76","2627040","co37540","norming","","","{""aha"":5}","[0]","../img/tt/013tt.jpg","",""
"null","<div style=""font-size:60px;""> </div>","null","fixation","html-keyboard-response","545","1589839","0.0-6.0-0.77","2627040","co37540","norming","","","","","","",""
"null","../img/tt/1107tt.jpg","null","mooney1","image-keyboard-response","546","1592844","0.0-6.0-1.77","2627040","co37540","norming","","","","","","",""
"5692.914999999572","","","post_mooney1_questions","survey-likert","547","1598540","0.0-6.0-2.77","2627040","co37540","norming","","","{""curiosity"":5,""confidence"":1}","[0,1]","../img/tt/1107tt.jpg","",""
"1470.3349999999627","","","recognition","survey-text","548","1600012","0.0-6.0-3.77","2627040","co37540","norming","","","{""guess"":""ezel""}","","../img/tt/1107tt.jpg","",""
"null","../img/gs/1107gs.jpg","null","reveal","image-keyboard-response","549","1602014","0.0-6.0-4.77","2627040","co37540","norming","","","","","","",""
"null","../img/tt/1107tt.jpg","null","mooney2","image-keyboard-response","550","1604025","0.0-6.0-5.77","2627040","co37540","norming","","","","","","",""
"3858.459999999497","","","post_reveal_questions","survey-likert","551","1607884","0.0-6.0-6.77","2627040","co37540","norming","","","{""aha"":4}","[0]","../img/tt/1107tt.jpg","",""
"null","<div style=""font-size:60px;""> </div>","null","fixation","html-keyboard-response","552","1608086","0.0-6.0-0.78","2627040","co37540","norming","","","","","","",""
