"rt","stimulus","key_press","test_part","trial_type","trial_index","time_elapsed","internal_node_id","totalTime","subject","experiment_name","button_pressed","success","responses","question_order","currentStim","old","correct"
"34578.305","Welcome to the experiment. This is an online experiment so please don't close the tab/window until we say goodbye.  Press any key to begin.","32","instructions","html-keyboard-response","0","34438","0.0-0.0","2907428","co37951","norming","","","","","","",""
"35373.48000000003","<div style='word-wrap: break-word; width: 900px'><h3>Please consider this information carefully before deciding whether to participate in this research</h3><ul style='text-align: left; font-size: .8em;'><li><b>Purpose of the research</b>: To examine how people process images.</li><li><b>What you will do in this research</b>:  Stimuli (images) will be presented on the computer and you will be asked different questions about them.</li><li><b>Time required</b>: Participation will take between 45 and 60 minutes to complete.</li><li><b>Risks</b>:  There are no anticipated risks associated with participating in this study. The effects of participating should be comparable to those you would experience from viewing a computer monitor for 30 minutes and using a mouse or keyboard.</li><li><b>Benefits</b>:  This study provides no benefits to you individually except for the credit. The study provides important information about the nature of perception and learning.</li><li><b>Confidentiality</b>:  Your participation in this study will remain confidential. No personally identifiable information will be associated with your data. Your de-identified data may be shared with other researchers and used in future projects.</li><li><b>Participation and withdrawal</b>:  Your participation in this study is completely voluntary and you may refuse to participate or you may choose to withdraw at any time without penalty.</li><li><b>How to contact the researchers</b>: If you have questions or concerns about your participation or payment, or want to request a summary of research findings, please contact Sander Van de Cruys (KU Leuven), at sander.vandecruys@kuleuven.be.</li></ul><p>The nature and purpose of this research have been sufficiently explained and I agree to participate in this study.  I understand that I am free to withdraw at any time without incurring any penalty.</p><p>Please consent by clicking the button below to continue. Otherwise, please exit the study at this time.</p></div>","","instructions","html-button-response","1","69814","0.0-1.0","2907428","co37951","norming","0","","","","","",""
"","","","instructions","fullscreen","2","76988","0.0-2.0","2907428","co37951","norming","","true","","","","",""
"34574.86","","","sona","survey-html-form","3","111428","0.0-3.0","2907428","co37951","norming","","","[{""name"":""sonaid"",""value"":""37951""},{""name"":""debrief"",""value"":""no""},{""name"":""datajoin"",""value"":""yes""}]","","","",""
"79587.74999999997","<div style='word-wrap: break-word; width: 900px'><h3>Instructions</h3><p>This experiment will have 3 parts. In the first part you will see a series of distorted images like the one below on the left. As you can see in the righthand image, the distorted images are derived from actual photographs. In what follows, you will <strong>briefly</strong> be presented with <strong>only</strong> the distorted image.</p> <div style='float: left; margin-right: 20px;'><img src='../img/018tt.jpg' height='250' width='250'></img></div><div style='float: right; margin-left: 20px;'><img src='../img/018gs.jpg' height='250' width='250'></img></div><p>Subsequently you will be asked a few questions about the image: One question on how <strong>curious</strong> you are about the solution and one on how <strong>confident</strong> you are that you know the solution.</p>Next, we ask you to make a guess on what is in the image. Note that it is OK to name just the <strong>basic level category</strong>. For example when you see a parrot in the image, 'parrot' will obviously be a correct answer but also correct is 'bird'. However, 'animal' will <strong>not</strong> be counted as a correct response. For the example above, 'rose' would be correct or 'flower', but not 'plant'. When soccer players are depicted, 'soccer', 'football', 'soccer players' will be correct, but not 'humans', 'outdoors', or 'sports'. You do not need to describe the image in full, just name the main object in it <strong>in one or two words</strong>. All images depict objects from one of the following broad level categories: animals, inanimate objects, plants, sports, vehicles, and food. Recognizing means knowing <strong>more</strong> than these broad labels for a given image. But we always encourage you to <strong>make a guess</strong> if you can. Note that you are allowed to use <strong>Dutch and English</strong> in your answers, whatever comes easiest for you.</p><p>Press any key to continue.</p></div>","32","instructions","html-keyboard-response","4","190826","0.0-4.0","2907428","co37951","norming","","","","","","",""
"18622.155","<div style='word-wrap: break-word; width: 900px'><h3>Instructions</h3> <p>Next, the solution image will be revealed to you and you'll be asked to indicate how strong your <strong>aha-experience</strong> was after seeing the solution. This describes the positive feeling of the 'click' you sometimes experience, when the pieces of the 'puzzle' fall together and you suddenly have 'insight' in the image.</p><img src='aha.jpg' height='188' width='250'></img><p>Note that there are no right or wrong answers. We are interested in what <strong>you</strong> see in the image and how <strong>you</strong> feel about it.</p><p>Press any key to start the experiment.</p></div>","32","instructions","html-keyboard-response","5","209451","0.0-5.0","2907428","co37951","norming","","","","","","",""
"null","<div style=""font-size:60px;""> </div>","null","fixation","html-keyboard-response","6","209659","0.0-6.0-0.0","2907428","co37951","norming","","","","","","",""
"null","../img/tt/1043tt.jpg","null","mooney1","image-keyboard-response","7","212663","0.0-6.0-1.0","2907428","co37951","norming","","","","","","",""
"26783.57500000004","","","post_mooney1_questions","survey-likert","8","239449","0.0-6.0-2.0","2907428","co37951","norming","","","{""curiosity"":5,""confidence"":1}","[0,1]","../img/tt/1043tt.jpg","",""
"7133.270000000048","","","recognition","survey-text","9","246584","0.0-6.0-3.0","2907428","co37951","norming","","","{""guess"":""bloem""}","","../img/tt/1043tt.jpg","",""
"null","../img/gs/1043gs.jpg","null","reveal","image-keyboard-response","10","248592","0.0-6.0-4.0","2907428","co37951","norming","","","","","","",""
"null","../img/tt/1043tt.jpg","null","mooney2","image-keyboard-response","11","250595","0.0-6.0-5.0","2907428","co37951","norming","","","","","","",""
"8019.2050000000745","","","post_reveal_questions","survey-likert","12","258482","0.0-6.0-6.0","2907428","co37951","norming","","","{""aha"":1}","[0]","../img/tt/1043tt.jpg","",""
"null","<div style=""font-size:60px;""> </div>","null","fixation","html-keyboard-response","13","258688","0.0-6.0-0.1","2907428","co37951","norming","","","","","","",""
"null","../img/tt/418tt.jpg","null","mooney1","image-keyboard-response","14","261696","0.0-6.0-1.1","2907428","co37951","norming","","","","","","",""
"3687.660000000091","","","post_mooney1_questions","survey-likert","15","265386","0.0-6.0-2.1","2907428","co37951","norming","","","{""curiosity"":5,""confidence"":3}","[0,1]","../img/tt/418tt.jpg","",""
"3213.9349999999977","","","recognition","survey-text","16","268602","0.0-6.0-3.1","2907428","co37951","norming","","","{""guess"":""appel""}","","../img/tt/418tt.jpg","",""
"null","../img/gs/418gs.jpg","null","reveal","image-keyboard-response","17","270608","0.0-6.0-4.1","2907428","co37951","norming","","","","","","",""
"null","../img/tt/418tt.jpg","null","mooney2","image-keyboard-response","18","272618","0.0-6.0-5.1","2907428","co37951","norming","","","","","","",""
"2685.8699999999953","","","post_reveal_questions","survey-likert","19","275306","0.0-6.0-6.1","2907428","co37951","norming","","","{""aha"":5}","[0]","../img/tt/418tt.jpg","",""
"null","<div style=""font-size:60px;""> </div>","null","fixation","html-keyboard-response","20","275507","0.0-6.0-0.2","2907428","co37951","norming","","","","","","",""
"null","../img/tt/1087tt.jpg","null","mooney1","image-keyboard-response","21","278510","0.0-6.0-1.2","2907428","co37951","norming","","","","","","",""
"4354.15499999997","","","post_mooney1_questions","survey-likert","22","282866","0.0-6.0-2.2","2907428","co37951","norming","","","{""curiosity"":5,""confidence"":2}","[0,1]","../img/tt/1087tt.jpg","",""
"3509.92499999993","","","recognition","survey-text","23","286378","0.0-6.0-3.2","2907428","co37951","norming","","","{""guess"":""schapen""}","","../img/tt/1087tt.jpg","",""
"null","../img/gs/1087gs.jpg","null","reveal","image-keyboard-response","24","288384","0.0-6.0-4.2","2907428","co37951","norming","","","","","","",""
"null","../img/tt/1087tt.jpg","null","mooney2","image-keyboard-response","25","290387","0.0-6.0-5.2","2907428","co37951","norming","","","","","","",""
"3547.8799999999464","","","post_reveal_questions","survey-likert","26","293938","0.0-6.0-6.2","2907428","co37951","norming","","","{""aha"":4}","[0]","../img/tt/1087tt.jpg","",""
"null","<div style=""font-size:60px;""> </div>","null","fixation","html-keyboard-response","27","294140","0.0-6.0-0.3","2907428","co37951","norming","","","","","","",""
"null","../img/tt/1226tt.jpg","null","mooney1","image-keyboard-response","28","297145","0.0-6.0-1.3","2907428","co37951","norming","","","","","","",""
"5511.9899999999325","","","post_mooney1_questions","survey-likert","29","302658","0.0-6.0-2.3","2907428","co37951","norming","","","{""curiosity"":5,""confidence"":5}","[0,1]","../img/tt/1226tt.jpg","",""
"3533.8150000000023","","","recognition","survey-text","30","306194","0.0-6.0-3.3","2907428","co37951","norming","","","{""guess"":""eenden""}","","../img/tt/1226tt.jpg","",""
"null","../img/gs/1226gs.jpg","null","reveal","image-keyboard-response","31","308202","0.0-6.0-4.3","2907428","co37951","norming","","","","","","",""
"null","../img/tt/1226tt.jpg","null","mooney2","image-keyboard-response","32","310206","0.0-6.0-5.3","2907428","co37951","norming","","","","","","",""
"1906.7999999999884","","","post_reveal_questions","survey-likert","33","312114","0.0-6.0-6.3","2907428","co37951","norming","","","{""aha"":5}","[0]","../img/tt/1226tt.jpg","",""
"null","<div style=""font-size:60px;""> </div>","null","fixation","html-keyboard-response","34","312323","0.0-6.0-0.4","2907428","co37951","norming","","","","","","",""
"null","../img/tt/105tt.jpg","null","mooney1","image-keyboard-response","35","315315","0.0-6.0-1.4","2907428","co37951","norming","","","","","","",""
"3767.4500000000116","","","post_mooney1_questions","survey-likert","36","319085","0.0-6.0-2.4","2907428","co37951","norming","","","{""curiosity"":5,""confidence"":1}","[0,1]","../img/tt/105tt.jpg","",""
"3414.0800000000163","","","recognition","survey-text","37","322501","0.0-6.0-3.4","2907428","co37951","norming","","","{""guess"":""bakstenen""}","","../img/tt/105tt.jpg","",""
"null","../img/gs/105gs.jpg","null","reveal","image-keyboard-response","38","324502","0.0-6.0-4.4","2907428","co37951","norming","","","","","","",""
"null","../img/tt/105tt.jpg","null","mooney2","image-keyboard-response","39","326517","0.0-6.0-5.4","2907428","co37951","norming","","","","","","",""
"3646.4150000000373","","","post_reveal_questions","survey-likert","40","330165","0.0-6.0-6.4","2907428","co37951","norming","","","{""aha"":5}","[0]","../img/tt/105tt.jpg","",""
"null","<div style=""font-size:60px;""> </div>","null","fixation","html-keyboard-response","41","330368","0.0-6.0-0.5","2907428","co37951","norming","","","","","","",""
"null","../img/tt/1181tt.jpg","null","mooney1","image-keyboard-response","42","333373","0.0-6.0-1.5","2907428","co37951","norming","","","","","","",""
"5373.729999999981","","","post_mooney1_questions","survey-likert","43","338749","0.0-6.0-2.5","2907428","co37951","norming","","","{""curiosity"":5,""confidence"":0}","[0,1]","../img/tt/1181tt.jpg","",""
"4382.005000000063","","","recognition","survey-text","44","343133","0.0-6.0-3.5","2907428","co37951","norming","","","{""guess"":""mensen""}","","../img/tt/1181tt.jpg","",""
"null","../img/gs/1181gs.jpg","null","reveal","image-keyboard-response","45","345135","0.0-6.0-4.5","2907428","co37951","norming","","","","","","",""
"null","../img/tt/1181tt.jpg","null","mooney2","image-keyboard-response","46","347137","0.0-6.0-5.5","2907428","co37951","norming","","","","","","",""
"2193.4949999999953","","","post_reveal_questions","survey-likert","47","349333","0.0-6.0-6.5","2907428","co37951","norming","","","{""aha"":5}","[0]","../img/tt/1181tt.jpg","",""
"null","<div style=""font-size:60px;""> </div>","null","fixation","html-keyboard-response","48","349534","0.0-6.0-0.6","2907428","co37951","norming","","","","","","",""
"null","../img/tt/1002tt.jpg","null","mooney1","image-keyboard-response","49","352540","0.0-6.0-1.6","2907428","co37951","norming","","","","","","",""
"2781.8499999999767","","","post_mooney1_questions","survey-likert","50","355325","0.0-6.0-2.6","2907428","co37951","norming","","","{""curiosity"":5,""confidence"":5}","[0,1]","../img/tt/1002tt.jpg","",""
"2557.9349999999977","","","recognition","survey-text","51","357885","0.0-6.0-3.6","2907428","co37951","norming","","","{""guess"":""beer""}","","../img/tt/1002tt.jpg","",""
"null","../img/gs/1002gs.jpg","null","reveal","image-keyboard-response","52","359887","0.0-6.0-4.6","2907428","co37951","norming","","","","","","",""
"null","../img/tt/1002tt.jpg","null","mooney2","image-keyboard-response","53","361892","0.0-6.0-5.6","2907428","co37951","norming","","","","","","",""
"1918.6600000000326","","","post_reveal_questions","survey-likert","54","363813","0.0-6.0-6.6","2907428","co37951","norming","","","{""aha"":4}","[0]","../img/tt/1002tt.jpg","",""
"null","<div style=""font-size:60px;""> </div>","null","fixation","html-keyboard-response","55","364014","0.0-6.0-0.7","2907428","co37951","norming","","","","","","",""
"null","../img/tt/1232tt.jpg","null","mooney1","image-keyboard-response","56","367018","0.0-6.0-1.7","2907428","co37951","norming","","","","","","",""
"3216.484999999986","","","post_mooney1_questions","survey-likert","57","370237","0.0-6.0-2.7","2907428","co37951","norming","","","{""curiosity"":5,""confidence"":4}","[0,1]","../img/tt/1232tt.jpg","",""
"2854.2399999999907","","","recognition","survey-text","58","373093","0.0-6.0-3.7","2907428","co37951","norming","","","{""guess"":""vogel""}","","../img/tt/1232tt.jpg","",""
"null","../img/gs/1232gs.jpg","null","reveal","image-keyboard-response","59","375101","0.0-6.0-4.7","2907428","co37951","norming","","","","","","",""
"null","../img/tt/1232tt.jpg","null","mooney2","image-keyboard-response","60","377104","0.0-6.0-5.7","2907428","co37951","norming","","","","","","",""
"3906.6149999999325","","","post_reveal_questions","survey-likert","61","381013","0.0-6.0-6.7","2907428","co37951","norming","","","{""aha"":3}","[0]","../img/tt/1232tt.jpg","",""
"null","<div style=""font-size:60px;""> </div>","null","fixation","html-keyboard-response","62","381214","0.0-6.0-0.8","2907428","co37951","norming","","","","","","",""
"null","../img/tt/412tt.jpg","null","mooney1","image-keyboard-response","63","384227","0.0-6.0-1.8","2907428","co37951","norming","","","","","","",""
"4113.509999999893","","","post_mooney1_questions","survey-likert","64","388341","0.0-6.0-2.8","2907428","co37951","norming","","","{""curiosity"":4,""confidence"":2}","[0,1]","../img/tt/412tt.jpg","",""
"2934.070000000065","","","recognition","survey-text","65","391277","0.0-6.0-3.8","2907428","co37951","norming","","","{""guess"":""parfum""}","","../img/tt/412tt.jpg","",""
"null","../img/gs/412gs.jpg","null","reveal","image-keyboard-response","66","393285","0.0-6.0-4.8","2907428","co37951","norming","","","","","","",""
"null","../img/tt/412tt.jpg","null","mooney2","image-keyboard-response","67","395288","0.0-6.0-5.8","2907428","co37951","norming","","","","","","",""
"1218.7550000000047","","","post_reveal_questions","survey-likert","68","396509","0.0-6.0-6.8","2907428","co37951","norming","","","{""aha"":1}","[0]","../img/tt/412tt.jpg","",""
"null","<div style=""font-size:60px;""> </div>","null","fixation","html-keyboard-response","69","396711","0.0-6.0-0.9","2907428","co37951","norming","","","","","","",""
"null","../img/tt/1061tt.jpg","null","mooney1","image-keyboard-response","70","399723","0.0-6.0-1.9","2907428","co37951","norming","","","","","","",""
"3393.0900000000256","","","post_mooney1_questions","survey-likert","71","403117","0.0-6.0-2.9","2907428","co37951","norming","","","{""curiosity"":5,""confidence"":2}","[0,1]","../img/tt/1061tt.jpg","",""
"3334.0650000000023","","","recognition","survey-text","72","406453","0.0-6.0-3.9","2907428","co37951","norming","","","{""guess"":""speeltuin""}","","../img/tt/1061tt.jpg","",""
"null","../img/gs/1061gs.jpg","null","reveal","image-keyboard-response","73","408460","0.0-6.0-4.9","2907428","co37951","norming","","","","","","",""
"null","../img/tt/1061tt.jpg","null","mooney2","image-keyboard-response","74","410462","0.0-6.0-5.9","2907428","co37951","norming","","","","","","",""
"2844.3450000000885","","","post_reveal_questions","survey-likert","75","413309","0.0-6.0-6.9","2907428","co37951","norming","","","{""aha"":5}","[0]","../img/tt/1061tt.jpg","",""
"null","<div style=""font-size:60px;""> </div>","null","fixation","html-keyboard-response","76","413510","0.0-6.0-0.10","2907428","co37951","norming","","","","","","",""
"null","../img/tt/1102tt.jpg","null","mooney1","image-keyboard-response","77","416512","0.0-6.0-1.10","2907428","co37951","norming","","","","","","",""
"4907.325000000012","","","post_mooney1_questions","survey-likert","78","421421","0.0-6.0-2.10","2907428","co37951","norming","","","{""curiosity"":5,""confidence"":0}","[0,1]","../img/tt/1102tt.jpg","",""
"6237.164999999979","","","recognition","survey-text","79","427661","0.0-6.0-3.10","2907428","co37951","norming","","","{""guess"":""planten""}","","../img/tt/1102tt.jpg","",""
"null","../img/gs/1102gs.jpg","null","reveal","image-keyboard-response","80","429663","0.0-6.0-4.10","2907428","co37951","norming","","","","","","",""
"null","../img/tt/1102tt.jpg","null","mooney2","image-keyboard-response","81","431671","0.0-6.0-5.10","2907428","co37951","norming","","","","","","",""
"3043.9400000000023","","","post_reveal_questions","survey-likert","82","434717","0.0-6.0-6.10","2907428","co37951","norming","","","{""aha"":4}","[0]","../img/tt/1102tt.jpg","",""
"null","<div style=""font-size:60px;""> </div>","null","fixation","html-keyboard-response","83","434918","0.0-6.0-0.11","2907428","co37951","norming","","","","","","",""
"null","../img/tt/1243tt.jpg","null","mooney1","image-keyboard-response","84","437921","0.0-6.0-1.11","2907428","co37951","norming","","","","","","",""
"6480.72000000003","","","post_mooney1_questions","survey-likert","85","444405","0.0-6.0-2.11","2907428","co37951","norming","","","{""curiosity"":4,""confidence"":2}","[0,1]","../img/tt/1243tt.jpg","",""
"2974.195000000007","","","recognition","survey-text","86","447381","0.0-6.0-3.11","2907428","co37951","norming","","","{""guess"":""gorilla""}","","../img/tt/1243tt.jpg","",""
"null","../img/gs/1243gs.jpg","null","reveal","image-keyboard-response","87","449389","0.0-6.0-4.11","2907428","co37951","norming","","","","","","",""
"null","../img/tt/1243tt.jpg","null","mooney2","image-keyboard-response","88","451392","0.0-6.0-5.11","2907428","co37951","norming","","","","","","",""
"2161.8850000000093","","","post_reveal_questions","survey-likert","89","453557","0.0-6.0-6.11","2907428","co37951","norming","","","{""aha"":4}","[0]","../img/tt/1243tt.jpg","",""
"null","<div style=""font-size:60px;""> </div>","null","fixation","html-keyboard-response","90","453758","0.0-6.0-0.12","2907428","co37951","norming","","","","","","",""
"null","../img/tt/1247tt.jpg","null","mooney1","image-keyboard-response","91","456760","0.0-6.0-1.12","2907428","co37951","norming","","","","","","",""
"4337.979999999981","","","post_mooney1_questions","survey-likert","92","461101","0.0-6.0-2.12","2907428","co37951","norming","","","{""curiosity"":5,""confidence"":1}","[0,1]","../img/tt/1247tt.jpg","",""
"2861.7949999999837","","","recognition","survey-text","93","463964","0.0-6.0-3.12","2907428","co37951","norming","","","{""guess"":""tijger""}","","../img/tt/1247tt.jpg","",""
"null","../img/gs/1247gs.jpg","null","reveal","image-keyboard-response","94","465967","0.0-6.0-4.12","2907428","co37951","norming","","","","","","",""
"null","../img/tt/1247tt.jpg","null","mooney2","image-keyboard-response","95","467969","0.0-6.0-5.12","2907428","co37951","norming","","","","","","",""
"1825.7449999999371","","","post_reveal_questions","survey-likert","96","469797","0.0-6.0-6.12","2907428","co37951","norming","","","{""aha"":5}","[0]","../img/tt/1247tt.jpg","",""
"null","<div style=""font-size:60px;""> </div>","null","fixation","html-keyboard-response","97","469998","0.0-6.0-0.13","2907428","co37951","norming","","","","","","",""
"null","../img/tt/1127tt.jpg","null","mooney1","image-keyboard-response","98","473002","0.0-6.0-1.13","2907428","co37951","norming","","","","","","",""
"5207.379999999946","","","post_mooney1_questions","survey-likert","99","478213","0.0-6.0-2.13","2907428","co37951","norming","","","{""curiosity"":5,""confidence"":4}","[0,1]","../img/tt/1127tt.jpg","",""
"3550.2850000000326","","","recognition","survey-text","100","481765","0.0-6.0-3.13","2907428","co37951","norming","","","{""guess"":""eetkamer""}","","../img/tt/1127tt.jpg","",""
"null","../img/gs/1127gs.jpg","null","reveal","image-keyboard-response","101","483774","0.0-6.0-4.13","2907428","co37951","norming","","","","","","",""
"null","../img/tt/1127tt.jpg","null","mooney2","image-keyboard-response","102","485777","0.0-6.0-5.13","2907428","co37951","norming","","","","","","",""
"2057.615000000049","","","post_reveal_questions","survey-likert","103","487837","0.0-6.0-6.13","2907428","co37951","norming","","","{""aha"":4}","[0]","../img/tt/1127tt.jpg","",""
"null","<div style=""font-size:60px;""> </div>","null","fixation","html-keyboard-response","104","488038","0.0-6.0-0.14","2907428","co37951","norming","","","","","","",""
"null","../img/tt/076tt.jpg","null","mooney1","image-keyboard-response","105","491043","0.0-6.0-1.14","2907428","co37951","norming","","","","","","",""
"5871.110000000044","","","post_mooney1_questions","survey-likert","106","496917","0.0-6.0-2.14","2907428","co37951","norming","","","{""curiosity"":4,""confidence"":5}","[0,1]","../img/tt/076tt.jpg","",""
"4390.039999999979","","","recognition","survey-text","107","501308","0.0-6.0-3.14","2907428","co37951","norming","","","{""guess"":""rolschaatsen""}","","../img/tt/076tt.jpg","",""
"null","../img/gs/076gs.jpg","null","reveal","image-keyboard-response","108","503319","0.0-6.0-4.14","2907428","co37951","norming","","","","","","",""
"null","../img/tt/076tt.jpg","null","mooney2","image-keyboard-response","109","505322","0.0-6.0-5.14","2907428","co37951","norming","","","","","","",""
"7832.540000000037","","","post_reveal_questions","survey-likert","110","513157","0.0-6.0-6.14","2907428","co37951","norming","","","{""aha"":6}","[0]","../img/tt/076tt.jpg","",""
"null","<div style=""font-size:60px;""> </div>","null","fixation","html-keyboard-response","111","513358","0.0-6.0-0.15","2907428","co37951","norming","","","","","","",""
"null","../img/tt/124tt.jpg","null","mooney1","image-keyboard-response","112","516369","0.0-6.0-1.15","2907428","co37951","norming","","","","","","",""
"3897.1149999999907","","","post_mooney1_questions","survey-likert","113","520269","0.0-6.0-2.15","2907428","co37951","norming","","","{""curiosity"":5,""confidence"":4}","[0,1]","../img/tt/124tt.jpg","",""
"2734.015000000014","","","recognition","survey-text","114","523004","0.0-6.0-3.15","2907428","co37951","norming","","","{""guess"":""panda""}","","../img/tt/124tt.jpg","",""
"null","../img/gs/124gs.jpg","null","reveal","image-keyboard-response","115","525009","0.0-6.0-4.15","2907428","co37951","norming","","","","","","",""
"null","../img/tt/124tt.jpg","null","mooney2","image-keyboard-response","116","527019","0.0-6.0-5.15","2907428","co37951","norming","","","","","","",""
"3486.720000000205","","","post_reveal_questions","survey-likert","117","530509","0.0-6.0-6.15","2907428","co37951","norming","","","{""aha"":3}","[0]","../img/tt/124tt.jpg","",""
"null","<div style=""font-size:60px;""> </div>","null","fixation","html-keyboard-response","118","530710","0.0-6.0-0.16","2907428","co37951","norming","","","","","","",""
"null","../img/tt/1211tt.jpg","null","mooney1","image-keyboard-response","119","533717","0.0-6.0-1.16","2907428","co37951","norming","","","","","","",""
"3909.454999999958","","","post_mooney1_questions","survey-likert","120","537628","0.0-6.0-2.16","2907428","co37951","norming","","","{""curiosity"":5,""confidence"":0}","[0,1]","../img/tt/1211tt.jpg","",""
"3606.3749999998836","","","recognition","survey-text","121","541236","0.0-6.0-3.16","2907428","co37951","norming","","","{""guess"":""auto""}","","../img/tt/1211tt.jpg","",""
"null","../img/gs/1211gs.jpg","null","reveal","image-keyboard-response","122","543244","0.0-6.0-4.16","2907428","co37951","norming","","","","","","",""
"null","../img/tt/1211tt.jpg","null","mooney2","image-keyboard-response","123","545248","0.0-6.0-5.16","2907428","co37951","norming","","","","","","",""
"1907","","","post_reveal_questions","survey-likert","124","547157","0.0-6.0-6.16","2907428","co37951","norming","","","{""aha"":1}","[0]","../img/tt/1211tt.jpg","",""
"null","<div style=""font-size:60px;""> </div>","null","fixation","html-keyboard-response","125","547358","0.0-6.0-0.17","2907428","co37951","norming","","","","","","",""
"null","../img/tt/1101tt.jpg","null","mooney1","image-keyboard-response","126","550365","0.0-6.0-1.17","2907428","co37951","norming","","","","","","",""
"4068.5549999998184","","","post_mooney1_questions","survey-likert","127","554437","0.0-6.0-2.17","2907428","co37951","norming","","","{""curiosity"":5,""confidence"":0}","[0,1]","../img/tt/1101tt.jpg","",""
"3590.1350000000093","","","recognition","survey-text","128","558028","0.0-6.0-3.17","2907428","co37951","norming","","","{""guess"":""skiër""}","","../img/tt/1101tt.jpg","",""
"null","../img/gs/1101gs.jpg","null","reveal","image-keyboard-response","129","560034","0.0-6.0-4.17","2907428","co37951","norming","","","","","","",""
"null","../img/tt/1101tt.jpg","null","mooney2","image-keyboard-response","130","562038","0.0-6.0-5.17","2907428","co37951","norming","","","","","","",""
"4732.585000000196","","","post_reveal_questions","survey-likert","131","566773","0.0-6.0-6.17","2907428","co37951","norming","","","{""aha"":2}","[0]","../img/tt/1101tt.jpg","",""
"null","<div style=""font-size:60px;""> </div>","null","fixation","html-keyboard-response","132","566974","0.0-6.0-0.18","2907428","co37951","norming","","","","","","",""
"null","../img/tt/096tt.jpg","null","mooney1","image-keyboard-response","133","569985","0.0-6.0-1.18","2907428","co37951","norming","","","","","","",""
"4665.375","","","post_mooney1_questions","survey-likert","134","574653","0.0-6.0-2.18","2907428","co37951","norming","","","{""curiosity"":4,""confidence"":6}","[0,1]","../img/tt/096tt.jpg","",""
"3390.1149999998743","","","recognition","survey-text","135","578045","0.0-6.0-3.18","2907428","co37951","norming","","","{""guess"":""piano""}","","../img/tt/096tt.jpg","",""
"null","../img/gs/096gs.jpg","null","reveal","image-keyboard-response","136","580046","0.0-6.0-4.18","2907428","co37951","norming","","","","","","",""
"null","../img/tt/096tt.jpg","null","mooney2","image-keyboard-response","137","582057","0.0-6.0-5.18","2907428","co37951","norming","","","","","","",""
"1761.7299999999814","","","post_reveal_questions","survey-likert","138","583821","0.0-6.0-6.18","2907428","co37951","norming","","","{""aha"":6}","[0]","../img/tt/096tt.jpg","",""
"null","<div style=""font-size:60px;""> </div>","null","fixation","html-keyboard-response","139","584028","0.0-6.0-0.19","2907428","co37951","norming","","","","","","",""
"null","../img/tt/1161tt.jpg","null","mooney1","image-keyboard-response","140","587036","0.0-6.0-1.19","2907428","co37951","norming","","","","","","",""
"3477.9349999999395","","","post_mooney1_questions","survey-likert","141","590517","0.0-6.0-2.19","2907428","co37951","norming","","","{""curiosity"":5,""confidence"":2}","[0,1]","../img/tt/1161tt.jpg","",""
"4494.194999999949","","","recognition","survey-text","142","595012","0.0-6.0-3.19","2907428","co37951","norming","","","{""guess"":""bergbeklimmer""}","","../img/tt/1161tt.jpg","",""
"null","../img/gs/1161gs.jpg","null","reveal","image-keyboard-response","143","597017","0.0-6.0-4.19","2907428","co37951","norming","","","","","","",""
"null","../img/tt/1161tt.jpg","null","mooney2","image-keyboard-response","144","599020","0.0-6.0-5.19","2907428","co37951","norming","","","","","","",""
"2623.894999999902","","","post_reveal_questions","survey-likert","145","601645","0.0-6.0-6.19","2907428","co37951","norming","","","{""aha"":5}","[0]","../img/tt/1161tt.jpg","",""
"null","<div style=""font-size:60px;""> </div>","null","fixation","html-keyboard-response","146","601846","0.0-6.0-0.20","2907428","co37951","norming","","","","","","",""
"null","../img/tt/1063tt.jpg","null","mooney1","image-keyboard-response","147","604856","0.0-6.0-1.20","2907428","co37951","norming","","","","","","",""
"3930.390000000014","","","post_mooney1_questions","survey-likert","148","608789","0.0-6.0-2.20","2907428","co37951","norming","","","{""curiosity"":4,""confidence"":5}","[0,1]","../img/tt/1063tt.jpg","",""
"3053.675000000163","","","recognition","survey-text","149","611844","0.0-6.0-3.20","2907428","co37951","norming","","","{""guess"":""paarden""}","","../img/tt/1063tt.jpg","",""
"null","../img/gs/1063gs.jpg","null","reveal","image-keyboard-response","150","613852","0.0-6.0-4.20","2907428","co37951","norming","","","","","","",""
"null","../img/tt/1063tt.jpg","null","mooney2","image-keyboard-response","151","615854","0.0-6.0-5.20","2907428","co37951","norming","","","","","","",""
"1435.9899999998743","","","post_reveal_questions","survey-likert","152","617293","0.0-6.0-6.20","2907428","co37951","norming","","","{""aha"":6}","[0]","../img/tt/1063tt.jpg","",""
"null","<div style=""font-size:60px;""> </div>","null","fixation","html-keyboard-response","153","617500","0.0-6.0-0.21","2907428","co37951","norming","","","","","","",""
"null","../img/tt/126tt.jpg","null","mooney1","image-keyboard-response","154","620511","0.0-6.0-1.21","2907428","co37951","norming","","","","","","",""
"3258.719999999972","","","post_mooney1_questions","survey-likert","155","623773","0.0-6.0-2.21","2907428","co37951","norming","","","{""curiosity"":4,""confidence"":1}","[0,1]","../img/tt/126tt.jpg","",""
"2221.8600000001024","","","recognition","survey-text","156","625996","0.0-6.0-3.21","2907428","co37951","norming","","","{""guess"":""zee""}","","../img/tt/126tt.jpg","",""
"null","../img/gs/126gs.jpg","null","reveal","image-keyboard-response","157","628007","0.0-6.0-4.21","2907428","co37951","norming","","","","","","",""
"null","../img/tt/126tt.jpg","null","mooney2","image-keyboard-response","158","630009","0.0-6.0-5.21","2907428","co37951","norming","","","","","","",""
"1769.4750000000931","","","post_reveal_questions","survey-likert","159","631781","0.0-6.0-6.21","2907428","co37951","norming","","","{""aha"":0}","[0]","../img/tt/126tt.jpg","",""
"null","<div style=""font-size:60px;""> </div>","null","fixation","html-keyboard-response","160","631981","0.0-6.0-0.22","2907428","co37951","norming","","","","","","",""
"null","../img/tt/1173tt.jpg","null","mooney1","image-keyboard-response","161","634986","0.0-6.0-1.22","2907428","co37951","norming","","","","","","",""
"6376.829999999842","","","post_mooney1_questions","survey-likert","162","641364","0.0-6.0-2.22","2907428","co37951","norming","","","{""curiosity"":5,""confidence"":2}","[0,1]","../img/tt/1173tt.jpg","",""
"3670.3150000000605","","","recognition","survey-text","163","645036","0.0-6.0-3.22","2907428","co37951","norming","","","{""guess"":""voetballers""}","","../img/tt/1173tt.jpg","",""
"null","../img/gs/1173gs.jpg","null","reveal","image-keyboard-response","164","647045","0.0-6.0-4.22","2907428","co37951","norming","","","","","","",""
"null","../img/tt/1173tt.jpg","null","mooney2","image-keyboard-response","165","649047","0.0-6.0-5.22","2907428","co37951","norming","","","","","","",""
"1866.770000000135","","","post_reveal_questions","survey-likert","166","650916","0.0-6.0-6.22","2907428","co37951","norming","","","{""aha"":4}","[0]","../img/tt/1173tt.jpg","",""
"null","<div style=""font-size:60px;""> </div>","null","fixation","html-keyboard-response","167","651117","0.0-6.0-0.23","2907428","co37951","norming","","","","","","",""
"null","../img/tt/1107tt.jpg","null","mooney1","image-keyboard-response","168","654127","0.0-6.0-1.23","2907428","co37951","norming","","","","","","",""
"4298.339999999851","","","post_mooney1_questions","survey-likert","169","658429","0.0-6.0-2.23","2907428","co37951","norming","","","{""curiosity"":4,""confidence"":5}","[0,1]","../img/tt/1107tt.jpg","",""
"2590.484999999986","","","recognition","survey-text","170","661021","0.0-6.0-3.23","2907428","co37951","norming","","","{""guess"":""kat""}","","../img/tt/1107tt.jpg","",""
"null","../img/gs/1107gs.jpg","null","reveal","image-keyboard-response","171","663031","0.0-6.0-4.23","2907428","co37951","norming","","","","","","",""
"null","../img/tt/1107tt.jpg","null","mooney2","image-keyboard-response","172","665034","0.0-6.0-5.23","2907428","co37951","norming","","","","","","",""
"1721.640000000014","","","post_reveal_questions","survey-likert","173","666756","0.0-6.0-6.23","2907428","co37951","norming","","","{""aha"":6}","[0]","../img/tt/1107tt.jpg","",""
"null","<div style=""font-size:60px;""> </div>","null","fixation","html-keyboard-response","174","666958","0.0-6.0-0.24","2907428","co37951","norming","","","","","","",""
"null","../img/tt/296tt.jpg","null","mooney1","image-keyboard-response","175","669970","0.0-6.0-1.24","2907428","co37951","norming","","","","","","",""
"5800.040000000154","","","post_mooney1_questions","survey-likert","176","675773","0.0-6.0-2.24","2907428","co37951","norming","","","{""curiosity"":5,""confidence"":4}","[0,1]","../img/tt/296tt.jpg","",""
"3590.1749999998137","","","recognition","survey-text","177","679364","0.0-6.0-3.24","2907428","co37951","norming","","","{""guess"":""ligstoel""}","","../img/tt/296tt.jpg","",""
"null","../img/gs/296gs.jpg","null","reveal","image-keyboard-response","178","681375","0.0-6.0-4.24","2907428","co37951","norming","","","","","","",""
"null","../img/tt/296tt.jpg","null","mooney2","image-keyboard-response","179","683378","0.0-6.0-5.24","2907428","co37951","norming","","","","","","",""
"1799.869999999879","","","post_reveal_questions","survey-likert","180","685180","0.0-6.0-6.24","2907428","co37951","norming","","","{""aha"":5}","[0]","../img/tt/296tt.jpg","",""
"null","<div style=""font-size:60px;""> </div>","null","fixation","html-keyboard-response","181","685382","0.0-6.0-0.25","2907428","co37951","norming","","","","","","",""
"null","../img/tt/1269tt.jpg","null","mooney1","image-keyboard-response","182","688385","0.0-6.0-1.25","2907428","co37951","norming","","","","","","",""
"3625.139999999781","","","post_mooney1_questions","survey-likert","183","692013","0.0-6.0-2.25","2907428","co37951","norming","","","{""curiosity"":5,""confidence"":3}","[0,1]","../img/tt/1269tt.jpg","",""
"2822.215000000084","","","recognition","survey-text","184","694836","0.0-6.0-3.25","2907428","co37951","norming","","","{""guess"":""koala""}","","../img/tt/1269tt.jpg","",""
"null","../img/gs/1269gs.jpg","null","reveal","image-keyboard-response","185","696837","0.0-6.0-4.25","2907428","co37951","norming","","","","","","",""
"null","../img/tt/1269tt.jpg","null","mooney2","image-keyboard-response","186","698845","0.0-6.0-5.25","2907428","co37951","norming","","","","","","",""
"1276.9350000000559","","","post_reveal_questions","survey-likert","187","700125","0.0-6.0-6.25","2907428","co37951","norming","","","{""aha"":4}","[0]","../img/tt/1269tt.jpg","",""
"null","<div style=""font-size:60px;""> </div>","null","fixation","html-keyboard-response","188","700326","0.0-6.0-0.26","2907428","co37951","norming","","","","","","",""
"null","../img/tt/378tt.jpg","null","mooney1","image-keyboard-response","189","703333","0.0-6.0-1.26","2907428","co37951","norming","","","","","","",""
"3493.085000000079","","","post_mooney1_questions","survey-likert","190","706829","0.0-6.0-2.26","2907428","co37951","norming","","","{""curiosity"":6,""confidence"":0}","[0,1]","../img/tt/378tt.jpg","",""
"3046.0250000001397","","","recognition","survey-text","191","709876","0.0-6.0-3.26","2907428","co37951","norming","","","{""guess"":""koe""}","","../img/tt/378tt.jpg","",""
"null","../img/gs/378gs.jpg","null","reveal","image-keyboard-response","192","711883","0.0-6.0-4.26","2907428","co37951","norming","","","","","","",""
"null","../img/tt/378tt.jpg","null","mooney2","image-keyboard-response","193","713889","0.0-6.0-5.26","2907428","co37951","norming","","","","","","",""
"3168.6850000001723","","","post_reveal_questions","survey-likert","194","717060","0.0-6.0-6.26","2907428","co37951","norming","","","{""aha"":1}","[0]","../img/tt/378tt.jpg","",""
"null","<div style=""font-size:60px;""> </div>","null","fixation","html-keyboard-response","195","717262","0.0-6.0-0.27","2907428","co37951","norming","","","","","","",""
"null","../img/tt/567tt.jpg","null","mooney1","image-keyboard-response","196","720264","0.0-6.0-1.27","2907428","co37951","norming","","","","","","",""
"3627.895000000135","","","post_mooney1_questions","survey-likert","197","723893","0.0-6.0-2.27","2907428","co37951","norming","","","{""curiosity"":2,""confidence"":6}","[0,1]","../img/tt/567tt.jpg","",""
"4429.885000000009","","","recognition","survey-text","198","728324","0.0-6.0-3.27","2907428","co37951","norming","","","{""guess"":""broodrooster""}","","../img/tt/567tt.jpg","",""
"null","../img/gs/567gs.jpg","null","reveal","image-keyboard-response","199","730326","0.0-6.0-4.27","2907428","co37951","norming","","","","","","",""
"null","../img/tt/567tt.jpg","null","mooney2","image-keyboard-response","200","732330","0.0-6.0-5.27","2907428","co37951","norming","","","","","","",""
"2273.0100000001257","","","post_reveal_questions","survey-likert","201","734604","0.0-6.0-6.27","2907428","co37951","norming","","","{""aha"":6}","[0]","../img/tt/567tt.jpg","",""
"null","<div style=""font-size:60px;""> </div>","null","fixation","html-keyboard-response","202","734809","0.0-6.0-0.28","2907428","co37951","norming","","","","","","",""
"null","../img/tt/319tt.jpg","null","mooney1","image-keyboard-response","203","737817","0.0-6.0-1.28","2907428","co37951","norming","","","","","","",""
"7792.459999999846","","","post_mooney1_questions","survey-likert","204","745608","0.0-6.0-2.28","2907428","co37951","norming","","","{""curiosity"":5,""confidence"":1}","[0,1]","../img/tt/319tt.jpg","",""
"10525.804999999935","","","recognition","survey-text","205","756135","0.0-6.0-3.28","2907428","co37951","norming","","","{""guess"":""okapi""}","","../img/tt/319tt.jpg","",""
"null","../img/gs/319gs.jpg","null","reveal","image-keyboard-response","206","758137","0.0-6.0-4.28","2907428","co37951","norming","","","","","","",""
"null","../img/tt/319tt.jpg","null","mooney2","image-keyboard-response","207","760141","0.0-6.0-5.28","2907428","co37951","norming","","","","","","",""
"1912.2749999999069","","","post_reveal_questions","survey-likert","208","762056","0.0-6.0-6.28","2907428","co37951","norming","","","{""aha"":4}","[0]","../img/tt/319tt.jpg","",""
"null","<div style=""font-size:60px;""> </div>","null","fixation","html-keyboard-response","209","762257","0.0-6.0-0.29","2907428","co37951","norming","","","","","","",""
"null","../img/tt/063tt.jpg","null","mooney1","image-keyboard-response","210","765258","0.0-6.0-1.29","2907428","co37951","norming","","","","","","",""
"3162.3800000000047","","","post_mooney1_questions","survey-likert","211","768424","0.0-6.0-2.29","2907428","co37951","norming","","","{""curiosity"":4,""confidence"":1}","[0,1]","../img/tt/063tt.jpg","",""
"4102.125000000116","","","recognition","survey-text","212","772527","0.0-6.0-3.29","2907428","co37951","norming","","","{""guess"":""telefoon""}","","../img/tt/063tt.jpg","",""
"null","../img/gs/063gs.jpg","null","reveal","image-keyboard-response","213","774530","0.0-6.0-4.29","2907428","co37951","norming","","","","","","",""
"null","../img/tt/063tt.jpg","null","mooney2","image-keyboard-response","214","776535","0.0-6.0-5.29","2907428","co37951","norming","","","","","","",""
"2398.2099999998463","","","post_reveal_questions","survey-likert","215","778936","0.0-6.0-6.29","2907428","co37951","norming","","","{""aha"":2}","[0]","../img/tt/063tt.jpg","",""
"null","<div style=""font-size:60px;""> </div>","null","fixation","html-keyboard-response","216","779137","0.0-6.0-0.30","2907428","co37951","norming","","","","","","",""
"null","../img/tt/049tt.jpg","null","mooney1","image-keyboard-response","217","782140","0.0-6.0-1.30","2907428","co37951","norming","","","","","","",""
"3399.45000000007","","","post_mooney1_questions","survey-likert","218","785544","0.0-6.0-2.30","2907428","co37951","norming","","","{""curiosity"":5,""confidence"":0}","[0,1]","../img/tt/049tt.jpg","",""
"4846.074999999953","","","recognition","survey-text","219","790391","0.0-6.0-3.30","2907428","co37951","norming","","","{""guess"":""beer""}","","../img/tt/049tt.jpg","",""
"null","../img/gs/049gs.jpg","null","reveal","image-keyboard-response","220","792393","0.0-6.0-4.30","2907428","co37951","norming","","","","","","",""
"null","../img/tt/049tt.jpg","null","mooney2","image-keyboard-response","221","794398","0.0-6.0-5.30","2907428","co37951","norming","","","","","","",""
"1303.5250000000233","","","post_reveal_questions","survey-likert","222","795704","0.0-6.0-6.30","2907428","co37951","norming","","","{""aha"":0}","[0]","../img/tt/049tt.jpg","",""
"null","<div style=""font-size:60px;""> </div>","null","fixation","html-keyboard-response","223","795905","0.0-6.0-0.31","2907428","co37951","norming","","","","","","",""
"null","../img/tt/222tt.jpg","null","mooney1","image-keyboard-response","224","798916","0.0-6.0-1.31","2907428","co37951","norming","","","","","","",""
"3249.0100000000093","","","post_mooney1_questions","survey-likert","225","802168","0.0-6.0-2.31","2907428","co37951","norming","","","{""curiosity"":5,""confidence"":1}","[0,1]","../img/tt/222tt.jpg","",""
"2654.170000000042","","","recognition","survey-text","226","804831","0.0-6.0-3.31","2907428","co37951","norming","","","{""guess"":""boot""}","","../img/tt/222tt.jpg","",""
"null","../img/gs/222gs.jpg","null","reveal","image-keyboard-response","227","806838","0.0-6.0-4.31","2907428","co37951","norming","","","","","","",""
"null","../img/tt/222tt.jpg","null","mooney2","image-keyboard-response","228","808849","0.0-6.0-5.31","2907428","co37951","norming","","","","","","",""
"2074.9749999999767","","","post_reveal_questions","survey-likert","229","810926","0.0-6.0-6.31","2907428","co37951","norming","","","{""aha"":1}","[0]","../img/tt/222tt.jpg","",""
"null","<div style=""font-size:60px;""> </div>","null","fixation","html-keyboard-response","230","811128","0.0-6.0-0.32","2907428","co37951","norming","","","","","","",""
"null","../img/tt/456tt.jpg","null","mooney1","image-keyboard-response","231","814134","0.0-6.0-1.32","2907428","co37951","norming","","","","","","",""
"3310.2299999999814","","","post_mooney1_questions","survey-likert","232","817447","0.0-6.0-2.32","2907428","co37951","norming","","","{""curiosity"":4,""confidence"":2}","[0,1]","../img/tt/456tt.jpg","",""
"2454.0499999998137","","","recognition","survey-text","233","819902","0.0-6.0-3.32","2907428","co37951","norming","","","{""guess"":""rat""}","","../img/tt/456tt.jpg","",""
"null","../img/gs/456gs.jpg","null","reveal","image-keyboard-response","234","821905","0.0-6.0-4.32","2907428","co37951","norming","","","","","","",""
"null","../img/tt/456tt.jpg","null","mooney2","image-keyboard-response","235","823907","0.0-6.0-5.32","2907428","co37951","norming","","","","","","",""
"2777.295000000042","","","post_reveal_questions","survey-likert","236","826686","0.0-6.0-6.32","2907428","co37951","norming","","","{""aha"":3}","[0]","../img/tt/456tt.jpg","",""
"null","<div style=""font-size:60px;""> </div>","null","fixation","html-keyboard-response","237","826889","0.0-6.0-0.33","2907428","co37951","norming","","","","","","",""
"null","../img/tt/194tt.jpg","null","mooney1","image-keyboard-response","238","829896","0.0-6.0-1.33","2907428","co37951","norming","","","","","","",""
"5963.3150000000605","","","post_mooney1_questions","survey-likert","239","835863","0.0-6.0-2.33","2907428","co37951","norming","","","{""curiosity"":5,""confidence"":3}","[0,1]","../img/tt/194tt.jpg","",""
"6422.1599999998","","","recognition","survey-text","240","842287","0.0-6.0-3.33","2907428","co37951","norming","","","{""guess"":""zittende persoon""}","","../img/tt/194tt.jpg","",""
"null","../img/gs/194gs.jpg","null","reveal","image-keyboard-response","241","844287","0.0-6.0-4.33","2907428","co37951","norming","","","","","","",""
"null","../img/tt/194tt.jpg","null","mooney2","image-keyboard-response","242","846292","0.0-6.0-5.33","2907428","co37951","norming","","","","","","",""
"1881.3649999998743","","","post_reveal_questions","survey-likert","243","848174","0.0-6.0-6.33","2907428","co37951","norming","","","{""aha"":5}","[0]","../img/tt/194tt.jpg","",""
"null","<div style=""font-size:60px;""> </div>","null","fixation","html-keyboard-response","244","848380","0.0-6.0-0.34","2907428","co37951","norming","","","","","","",""
"null","../img/tt/603tt.jpg","null","mooney1","image-keyboard-response","245","851385","0.0-6.0-1.34","2907428","co37951","norming","","","","","","",""
"3787.045000000042","","","post_mooney1_questions","survey-likert","246","855175","0.0-6.0-2.34","2907428","co37951","norming","","","{""curiosity"":5,""confidence"":1}","[0,1]","../img/tt/603tt.jpg","",""
"3837.6899999998277","","","recognition","survey-text","247","859014","0.0-6.0-3.34","2907428","co37951","norming","","","{""guess"":""vlinder""}","","../img/tt/603tt.jpg","",""
"null","../img/gs/603gs.jpg","null","reveal","image-keyboard-response","248","861021","0.0-6.0-4.34","2907428","co37951","norming","","","","","","",""
"null","../img/tt/603tt.jpg","null","mooney2","image-keyboard-response","249","863031","0.0-6.0-5.34","2907428","co37951","norming","","","","","","",""
"2445.004999999772","","","post_reveal_questions","survey-likert","250","865483","0.0-6.0-6.34","2907428","co37951","norming","","","{""aha"":2}","[0]","../img/tt/603tt.jpg","",""
"null","<div style=""font-size:60px;""> </div>","null","fixation","html-keyboard-response","251","865684","0.0-6.0-0.35","2907428","co37951","norming","","","","","","",""
"null","../img/tt/064tt.jpg","null","mooney1","image-keyboard-response","252","868696","0.0-6.0-1.35","2907428","co37951","norming","","","","","","",""
"5920.235000000102","","","post_mooney1_questions","survey-likert","253","874619","0.0-6.0-2.35","2907428","co37951","norming","","","{""curiosity"":5,""confidence"":3}","[0,1]","../img/tt/064tt.jpg","",""
"2733.850000000093","","","recognition","survey-text","254","877355","0.0-6.0-3.35","2907428","co37951","norming","","","{""guess"":""pauw""}","","../img/tt/064tt.jpg","",""
"null","../img/gs/064gs.jpg","null","reveal","image-keyboard-response","255","879360","0.0-6.0-4.35","2907428","co37951","norming","","","","","","",""
"null","../img/tt/064tt.jpg","null","mooney2","image-keyboard-response","256","881364","0.0-6.0-5.35","2907428","co37951","norming","","","","","","",""
"2715.8699999999953","","","post_reveal_questions","survey-likert","257","884083","0.0-6.0-6.35","2907428","co37951","norming","","","{""aha"":2}","[0]","../img/tt/064tt.jpg","",""
"null","<div style=""font-size:60px;""> </div>","null","fixation","html-keyboard-response","258","884286","0.0-6.0-0.36","2907428","co37951","norming","","","","","","",""
"null","../img/tt/496tt.jpg","null","mooney1","image-keyboard-response","259","887293","0.0-6.0-1.36","2907428","co37951","norming","","","","","","",""
"3802.265000000014","","","post_mooney1_questions","survey-likert","260","891099","0.0-6.0-2.36","2907428","co37951","norming","","","{""curiosity"":4,""confidence"":0}","[0,1]","../img/tt/496tt.jpg","",""
"2814.205000000191","","","recognition","survey-text","261","893915","0.0-6.0-3.36","2907428","co37951","norming","","","{""guess"":""varken""}","","../img/tt/496tt.jpg","",""
"null","../img/gs/496gs.jpg","null","reveal","image-keyboard-response","262","895917","0.0-6.0-4.36","2907428","co37951","norming","","","","","","",""
"null","../img/tt/496tt.jpg","null","mooney2","image-keyboard-response","263","897927","0.0-6.0-5.36","2907428","co37951","norming","","","","","","",""
"3384.759999999893","","","post_reveal_questions","survey-likert","264","901315","0.0-6.0-6.36","2907428","co37951","norming","","","{""aha"":3}","[0]","../img/tt/496tt.jpg","",""
"null","<div style=""font-size:60px;""> </div>","null","fixation","html-keyboard-response","265","901517","0.0-6.0-0.37","2907428","co37951","norming","","","","","","",""
"null","../img/tt/590tt.jpg","null","mooney1","image-keyboard-response","266","904529","0.0-6.0-1.37","2907428","co37951","norming","","","","","","",""
"4528.929999999935","","","post_mooney1_questions","survey-likert","267","909059","0.0-6.0-2.37","2907428","co37951","norming","","","{""curiosity"":5,""confidence"":2}","[0,1]","../img/tt/590tt.jpg","",""
"5245.770000000019","","","recognition","survey-text","268","914306","0.0-6.0-3.37","2907428","co37951","norming","","","{""guess"":""keybord""}","","../img/tt/590tt.jpg","",""
"null","../img/gs/590gs.jpg","null","reveal","image-keyboard-response","269","916317","0.0-6.0-4.37","2907428","co37951","norming","","","","","","",""
"null","../img/tt/590tt.jpg","null","mooney2","image-keyboard-response","270","918322","0.0-6.0-5.37","2907428","co37951","norming","","","","","","",""
"1847.1500000001397","","","post_reveal_questions","survey-likert","271","920170","0.0-6.0-6.37","2907428","co37951","norming","","","{""aha"":1}","[0]","../img/tt/590tt.jpg","",""
"null","<div style=""font-size:60px;""> </div>","null","fixation","html-keyboard-response","272","920381","0.0-6.0-0.38","2907428","co37951","norming","","","","","","",""
"null","../img/tt/031tt.jpg","null","mooney1","image-keyboard-response","273","923385","0.0-6.0-1.38","2907428","co37951","norming","","","","","","",""
"2752.819999999949","","","post_mooney1_questions","survey-likert","274","926140","0.0-6.0-2.38","2907428","co37951","norming","","","{""curiosity"":5,""confidence"":4}","[0,1]","../img/tt/031tt.jpg","",""
"1886.375","","","recognition","survey-text","275","928028","0.0-6.0-3.38","2907428","co37951","norming","","","{""guess"":""beer""}","","../img/tt/031tt.jpg","",""
"null","../img/gs/031gs.jpg","null","reveal","image-keyboard-response","276","930036","0.0-6.0-4.38","2907428","co37951","norming","","","","","","",""
"null","../img/tt/031tt.jpg","null","mooney2","image-keyboard-response","277","932043","0.0-6.0-5.38","2907428","co37951","norming","","","","","","",""
"1805.954999999958","","","post_reveal_questions","survey-likert","278","933852","0.0-6.0-6.38","2907428","co37951","norming","","","{""aha"":6}","[0]","../img/tt/031tt.jpg","",""
"null","<div style=""font-size:60px;""> </div>","null","fixation","html-keyboard-response","279","934053","0.0-6.0-0.39","2907428","co37951","norming","","","","","","",""
"null","../img/tt/007tt.jpg","null","mooney1","image-keyboard-response","280","937057","0.0-6.0-1.39","2907428","co37951","norming","","","","","","",""
"3344.240000000107","","","post_mooney1_questions","survey-likert","281","940404","0.0-6.0-2.39","2907428","co37951","norming","","","{""curiosity"":4,""confidence"":5}","[0,1]","../img/tt/007tt.jpg","",""
"2893.945000000065","","","recognition","survey-text","282","943300","0.0-6.0-3.39","2907428","co37951","norming","","","{""guess"":""kikker""}","","../img/tt/007tt.jpg","",""
"null","../img/gs/007gs.jpg","null","reveal","image-keyboard-response","283","945305","0.0-6.0-4.39","2907428","co37951","norming","","","","","","",""
"null","../img/tt/007tt.jpg","null","mooney2","image-keyboard-response","284","947313","0.0-6.0-5.39","2907428","co37951","norming","","","","","","",""
"1935.9399999998277","","","post_reveal_questions","survey-likert","285","949252","0.0-6.0-6.39","2907428","co37951","norming","","","{""aha"":6}","[0]","../img/tt/007tt.jpg","",""
"null","<div style=""font-size:60px;""> </div>","null","fixation","html-keyboard-response","286","949461","0.0-6.0-0.40","2907428","co37951","norming","","","","","","",""
"null","../img/tt/094tt.jpg","null","mooney1","image-keyboard-response","287","952472","0.0-6.0-1.40","2907428","co37951","norming","","","","","","",""
"3568.829999999958","","","post_mooney1_questions","survey-likert","288","956044","0.0-6.0-2.40","2907428","co37951","norming","","","{""curiosity"":4,""confidence"":5}","[0,1]","../img/tt/094tt.jpg","",""
"2173.8000000000466","","","recognition","survey-text","289","958220","0.0-6.0-3.40","2907428","co37951","norming","","","{""guess"":""wolf""}","","../img/tt/094tt.jpg","",""
"null","../img/gs/094gs.jpg","null","reveal","image-keyboard-response","290","960230","0.0-6.0-4.40","2907428","co37951","norming","","","","","","",""
"null","../img/tt/094tt.jpg","null","mooney2","image-keyboard-response","291","962238","0.0-6.0-5.40","2907428","co37951","norming","","","","","","",""
"2277.169999999809","","","post_reveal_questions","survey-likert","292","964516","0.0-6.0-6.40","2907428","co37951","norming","","","{""aha"":5}","[0]","../img/tt/094tt.jpg","",""
"null","<div style=""font-size:60px;""> </div>","null","fixation","html-keyboard-response","293","964717","0.0-6.0-0.41","2907428","co37951","norming","","","","","","",""
"null","../img/tt/357tt.jpg","null","mooney1","image-keyboard-response","294","967729","0.0-6.0-1.41","2907428","co37951","norming","","","","","","",""
"3223.680000000051","","","post_mooney1_questions","survey-likert","295","970956","0.0-6.0-2.41","2907428","co37951","norming","","","{""curiosity"":5,""confidence"":3}","[0,1]","../img/tt/357tt.jpg","",""
"2469.990000000107","","","recognition","survey-text","296","973428","0.0-6.0-3.41","2907428","co37951","norming","","","{""guess"":""egels""}","","../img/tt/357tt.jpg","",""
"null","../img/gs/357gs.jpg","null","reveal","image-keyboard-response","297","975433","0.0-6.0-4.41","2907428","co37951","norming","","","","","","",""
"null","../img/tt/357tt.jpg","null","mooney2","image-keyboard-response","298","977441","0.0-6.0-5.41","2907428","co37951","norming","","","","","","",""
"2200.670000000042","","","post_reveal_questions","survey-likert","299","979644","0.0-6.0-6.41","2907428","co37951","norming","","","{""aha"":5}","[0]","../img/tt/357tt.jpg","",""
"null","<div style=""font-size:60px;""> </div>","null","fixation","html-keyboard-response","300","979845","0.0-6.0-0.42","2907428","co37951","norming","","","","","","",""
"null","../img/tt/1254tt.jpg","null","mooney1","image-keyboard-response","301","982849","0.0-6.0-1.42","2907428","co37951","norming","","","","","","",""
"3903.969999999972","","","post_mooney1_questions","survey-likert","302","986757","0.0-6.0-2.42","2907428","co37951","norming","","","{""curiosity"":4,""confidence"":2}","[0,1]","../img/tt/1254tt.jpg","",""
"4685.890000000014","","","recognition","survey-text","303","991444","0.0-6.0-3.42","2907428","co37951","norming","","","{""guess"":""konijn""}","","../img/tt/1254tt.jpg","",""
"null","../img/gs/1254gs.jpg","null","reveal","image-keyboard-response","304","993452","0.0-6.0-4.42","2907428","co37951","norming","","","","","","",""
"null","../img/tt/1254tt.jpg","null","mooney2","image-keyboard-response","305","995452","0.0-6.0-5.42","2907428","co37951","norming","","","","","","",""
"1474.7249999999767","","","post_reveal_questions","survey-likert","306","996933","0.0-6.0-6.42","2907428","co37951","norming","","","{""aha"":6}","[0]","../img/tt/1254tt.jpg","",""
"null","<div style=""font-size:60px;""> </div>","null","fixation","html-keyboard-response","307","997134","0.0-6.0-0.43","2907428","co37951","norming","","","","","","",""
"null","../img/tt/497tt.jpg","null","mooney1","image-keyboard-response","308","1000144","0.0-6.0-1.43","2907428","co37951","norming","","","","","","",""
"2265.530000000028","","","post_mooney1_questions","survey-likert","309","1002413","0.0-6.0-2.43","2907428","co37951","norming","","","{""curiosity"":5,""confidence"":3}","[0,1]","../img/tt/497tt.jpg","",""
"1726.0100000001257","","","recognition","survey-text","310","1004140","0.0-6.0-3.43","2907428","co37951","norming","","","{""guess"":""kaas""}","","../img/tt/497tt.jpg","",""
"null","../img/gs/497gs.jpg","null","reveal","image-keyboard-response","311","1006148","0.0-6.0-4.43","2907428","co37951","norming","","","","","","",""
"null","../img/tt/497tt.jpg","null","mooney2","image-keyboard-response","312","1008153","0.0-6.0-5.43","2907428","co37951","norming","","","","","","",""
"2281.3599999998696","","","post_reveal_questions","survey-likert","313","1010436","0.0-6.0-6.43","2907428","co37951","norming","","","{""aha"":2}","[0]","../img/tt/497tt.jpg","",""
"null","<div style=""font-size:60px;""> </div>","null","fixation","html-keyboard-response","314","1010638","0.0-6.0-0.44","2907428","co37951","norming","","","","","","",""
"null","../img/tt/1148tt.jpg","null","mooney1","image-keyboard-response","315","1013645","0.0-6.0-1.44","2907428","co37951","norming","","","","","","",""
"4300.060000000056","","","post_mooney1_questions","survey-likert","316","1017949","0.0-6.0-2.44","2907428","co37951","norming","","","{""curiosity"":6,""confidence"":0}","[0,1]","../img/tt/1148tt.jpg","",""
"2333.875","","","recognition","survey-text","317","1020284","0.0-6.0-3.44","2907428","co37951","norming","","","{""guess"":""tuin""}","","../img/tt/1148tt.jpg","",""
"null","../img/gs/1148gs.jpg","null","reveal","image-keyboard-response","318","1022285","0.0-6.0-4.44","2907428","co37951","norming","","","","","","",""
"null","../img/tt/1148tt.jpg","null","mooney2","image-keyboard-response","319","1024291","0.0-6.0-5.44","2907428","co37951","norming","","","","","","",""
"1664.6300000000047","","","post_reveal_questions","survey-likert","320","1025956","0.0-6.0-6.44","2907428","co37951","norming","","","{""aha"":2}","[0]","../img/tt/1148tt.jpg","",""
"null","<div style=""font-size:60px;""> </div>","null","fixation","html-keyboard-response","321","1026158","0.0-6.0-0.45","2907428","co37951","norming","","","","","","",""
"null","../img/tt/1146tt.jpg","null","mooney1","image-keyboard-response","322","1029165","0.0-6.0-1.45","2907428","co37951","norming","","","","","","",""
"4348.770000000135","","","post_mooney1_questions","survey-likert","323","1033517","0.0-6.0-2.45","2907428","co37951","norming","","","{""curiosity"":4,""confidence"":1}","[0,1]","../img/tt/1146tt.jpg","",""
"2126.0949999997392","","","recognition","survey-text","324","1035644","0.0-6.0-3.45","2907428","co37951","norming","","","{""guess"":""balkon""}","","../img/tt/1146tt.jpg","",""
"null","../img/gs/1146gs.jpg","null","reveal","image-keyboard-response","325","1037646","0.0-6.0-4.45","2907428","co37951","norming","","","","","","",""
"null","../img/tt/1146tt.jpg","null","mooney2","image-keyboard-response","326","1039649","0.0-6.0-5.45","2907428","co37951","norming","","","","","","",""
"1560.2200000000885","","","post_reveal_questions","survey-likert","327","1041212","0.0-6.0-6.45","2907428","co37951","norming","","","{""aha"":2}","[0]","../img/tt/1146tt.jpg","",""
"null","<div style=""font-size:60px;""> </div>","null","fixation","html-keyboard-response","328","1041414","0.0-6.0-0.46","2907428","co37951","norming","","","","","","",""
"null","../img/tt/1044tt.jpg","null","mooney1","image-keyboard-response","329","1044417","0.0-6.0-1.46","2907428","co37951","norming","","","","","","",""
"3496.4599999999627","","","post_mooney1_questions","survey-likert","330","1047922","0.0-6.0-2.46","2907428","co37951","norming","","","{""curiosity"":6,""confidence"":0}","[0,1]","../img/tt/1044tt.jpg","",""
"2606.185000000056","","","recognition","survey-text","331","1050530","0.0-6.0-3.46","2907428","co37951","norming","","","{""guess"":""kooi""}","","../img/tt/1044tt.jpg","",""
"null","../img/gs/1044gs.jpg","null","reveal","image-keyboard-response","332","1052539","0.0-6.0-4.46","2907428","co37951","norming","","","","","","",""
"null","../img/tt/1044tt.jpg","null","mooney2","image-keyboard-response","333","1054543","0.0-6.0-5.46","2907428","co37951","norming","","","","","","",""
"3175.909999999916","","","post_reveal_questions","survey-likert","334","1057722","0.0-6.0-6.46","2907428","co37951","norming","","","{""aha"":0}","[0]","../img/tt/1044tt.jpg","",""
"null","<div style=""font-size:60px;""> </div>","null","fixation","html-keyboard-response","335","1057923","0.0-6.0-0.47","2907428","co37951","norming","","","","","","",""
"null","../img/tt/1191tt.jpg","null","mooney1","image-keyboard-response","336","1060928","0.0-6.0-1.47","2907428","co37951","norming","","","","","","",""
"4166.829999999842","","","post_mooney1_questions","survey-likert","337","1065098","0.0-6.0-2.47","2907428","co37951","norming","","","{""curiosity"":5,""confidence"":1}","[0,1]","../img/tt/1191tt.jpg","",""
"3133.304999999935","","","recognition","survey-text","338","1068234","0.0-6.0-3.47","2907428","co37951","norming","","","{""guess"":""hert""}","","../img/tt/1191tt.jpg","",""
"null","../img/gs/1191gs.jpg","null","reveal","image-keyboard-response","339","1070244","0.0-6.0-4.47","2907428","co37951","norming","","","","","","",""
"null","../img/tt/1191tt.jpg","null","mooney2","image-keyboard-response","340","1072254","0.0-6.0-5.47","2907428","co37951","norming","","","","","","",""
"2363.3700000001118","","","post_reveal_questions","survey-likert","341","1074618","0.0-6.0-6.47","2907428","co37951","norming","","","{""aha"":0}","[0]","../img/tt/1191tt.jpg","",""
"null","<div style=""font-size:60px;""> </div>","null","fixation","html-keyboard-response","342","1074819","0.0-6.0-0.48","2907428","co37951","norming","","","","","","",""
"null","../img/tt/1279tt.jpg","null","mooney1","image-keyboard-response","343","1077829","0.0-6.0-1.48","2907428","co37951","norming","","","","","","",""
"2457.940000000177","","","post_mooney1_questions","survey-likert","344","1080290","0.0-6.0-2.48","2907428","co37951","norming","","","{""curiosity"":5,""confidence"":1}","[0,1]","../img/tt/1279tt.jpg","",""
"1998.4899999999907","","","recognition","survey-text","345","1082290","0.0-6.0-3.48","2907428","co37951","norming","","","{""guess"":""hert""}","","../img/tt/1279tt.jpg","",""
"null","../img/gs/1279gs.jpg","null","reveal","image-keyboard-response","346","1084296","0.0-6.0-4.48","2907428","co37951","norming","","","","","","",""
"null","../img/tt/1279tt.jpg","null","mooney2","image-keyboard-response","347","1086301","0.0-6.0-5.48","2907428","co37951","norming","","","","","","",""
"2020.3700000001118","","","post_reveal_questions","survey-likert","348","1088322","0.0-6.0-6.48","2907428","co37951","norming","","","{""aha"":1}","[0]","../img/tt/1279tt.jpg","",""
"null","<div style=""font-size:60px;""> </div>","null","fixation","html-keyboard-response","349","1088528","0.0-6.0-0.49","2907428","co37951","norming","","","","","","",""
"null","../img/tt/580tt.jpg","null","mooney1","image-keyboard-response","350","1091536","0.0-6.0-1.49","2907428","co37951","norming","","","","","","",""
"5486.785000000149","","","post_mooney1_questions","survey-likert","351","1097026","0.0-6.0-2.49","2907428","co37951","norming","","","{""curiosity"":6,""confidence"":0}","[0,1]","../img/tt/580tt.jpg","",""
"7917.920000000158","","","recognition","survey-text","352","1104946","0.0-6.0-3.49","2907428","co37951","norming","","","{""guess"":""banaan""}","","../img/tt/580tt.jpg","",""
"null","../img/gs/580gs.jpg","null","reveal","image-keyboard-response","353","1106949","0.0-6.0-4.49","2907428","co37951","norming","","","","","","",""
"null","../img/tt/580tt.jpg","null","mooney2","image-keyboard-response","354","1108954","0.0-6.0-5.49","2907428","co37951","norming","","","","","","",""
"2517.6200000001118","","","post_reveal_questions","survey-likert","355","1111474","0.0-6.0-6.49","2907428","co37951","norming","","","{""aha"":1}","[0]","../img/tt/580tt.jpg","",""
"null","<div style=""font-size:60px;""> </div>","null","fixation","html-keyboard-response","356","1111675","0.0-6.0-0.50","2907428","co37951","norming","","","","","","",""
"null","../img/tt/078tt.jpg","null","mooney1","image-keyboard-response","357","1114685","0.0-6.0-1.50","2907428","co37951","norming","","","","","","",""
"3705.5550000001676","","","post_mooney1_questions","survey-likert","358","1118394","0.0-6.0-2.50","2907428","co37951","norming","","","{""curiosity"":5,""confidence"":0}","[0,1]","../img/tt/078tt.jpg","",""
"2989.8600000001024","","","recognition","survey-text","359","1121386","0.0-6.0-3.50","2907428","co37951","norming","","","{""guess"":""fruitmand""}","","../img/tt/078tt.jpg","",""
"null","../img/gs/078gs.jpg","null","reveal","image-keyboard-response","360","1123388","0.0-6.0-4.50","2907428","co37951","norming","","","","","","",""
"null","../img/tt/078tt.jpg","null","mooney2","image-keyboard-response","361","1125392","0.0-6.0-5.50","2907428","co37951","norming","","","","","","",""
"2127.3000000000466","","","post_reveal_questions","survey-likert","362","1127522","0.0-6.0-6.50","2907428","co37951","norming","","","{""aha"":1}","[0]","../img/tt/078tt.jpg","",""
"null","<div style=""font-size:60px;""> </div>","null","fixation","html-keyboard-response","363","1127723","0.0-6.0-0.51","2907428","co37951","norming","","","","","","",""
"null","../img/tt/1227tt.jpg","null","mooney1","image-keyboard-response","364","1130724","0.0-6.0-1.51","2907428","co37951","norming","","","","","","",""
"2811.219999999972","","","post_mooney1_questions","survey-likert","365","1133538","0.0-6.0-2.51","2907428","co37951","norming","","","{""curiosity"":5,""confidence"":4}","[0,1]","../img/tt/1227tt.jpg","",""
"3045.910000000149","","","recognition","survey-text","366","1136585","0.0-6.0-3.51","2907428","co37951","norming","","","{""guess"":""kippen""}","","../img/tt/1227tt.jpg","",""
"null","../img/gs/1227gs.jpg","null","reveal","image-keyboard-response","367","1138587","0.0-6.0-4.51","2907428","co37951","norming","","","","","","",""
"null","../img/tt/1227tt.jpg","null","mooney2","image-keyboard-response","368","1140591","0.0-6.0-5.51","2907428","co37951","norming","","","","","","",""
"2184.0400000000373","","","post_reveal_questions","survey-likert","369","1142778","0.0-6.0-6.51","2907428","co37951","norming","","","{""aha"":5}","[0]","../img/tt/1227tt.jpg","",""
"null","<div style=""font-size:60px;""> </div>","null","fixation","html-keyboard-response","370","1142979","0.0-6.0-0.52","2907428","co37951","norming","","","","","","",""
"null","../img/tt/1205tt.jpg","null","mooney1","image-keyboard-response","371","1145991","0.0-6.0-1.52","2907428","co37951","norming","","","","","","",""
"3135.4799999999814","","","post_mooney1_questions","survey-likert","372","1149130","0.0-6.0-2.52","2907428","co37951","norming","","","{""curiosity"":5,""confidence"":0}","[0,1]","../img/tt/1205tt.jpg","",""
"2477.9849999998696","","","recognition","survey-text","373","1151610","0.0-6.0-3.52","2907428","co37951","norming","","","{""guess"":""zetel""}","","../img/tt/1205tt.jpg","",""
"null","../img/gs/1205gs.jpg","null","reveal","image-keyboard-response","374","1153620","0.0-6.0-4.52","2907428","co37951","norming","","","","","","",""
"null","../img/tt/1205tt.jpg","null","mooney2","image-keyboard-response","375","1155622","0.0-6.0-5.52","2907428","co37951","norming","","","","","","",""
"2497.0800000000745","","","post_reveal_questions","survey-likert","376","1158122","0.0-6.0-6.52","2907428","co37951","norming","","","{""aha"":0}","[0]","../img/tt/1205tt.jpg","",""
"null","<div style=""font-size:60px;""> </div>","null","fixation","html-keyboard-response","377","1158323","0.0-6.0-0.53","2907428","co37951","norming","","","","","","",""
"null","../img/tt/1228tt.jpg","null","mooney1","image-keyboard-response","378","1161328","0.0-6.0-1.53","2907428","co37951","norming","","","","","","",""
"5213.689999999711","","","post_mooney1_questions","survey-likert","379","1166546","0.0-6.0-2.53","2907428","co37951","norming","","","{""curiosity"":5,""confidence"":1}","[0,1]","../img/tt/1228tt.jpg","",""
"10854.235000000102","","","recognition","survey-text","380","1177395","0.0-6.0-3.53","2907428","co37951","norming","","","{""guess"":""dier""}","","../img/tt/1228tt.jpg","",""
"null","../img/gs/1228gs.jpg","null","reveal","image-keyboard-response","381","1179402","0.0-6.0-4.53","2907428","co37951","norming","","","","","","",""
"null","../img/tt/1228tt.jpg","null","mooney2","image-keyboard-response","382","1181412","0.0-6.0-5.53","2907428","co37951","norming","","","","","","",""
"2971.1350000000093","","","post_reveal_questions","survey-likert","383","1184387","0.0-6.0-6.53","2907428","co37951","norming","","","{""aha"":4}","[0]","../img/tt/1228tt.jpg","",""
"null","<div style=""font-size:60px;""> </div>","null","fixation","html-keyboard-response","384","1184592","0.0-6.0-0.54","2907428","co37951","norming","","","","","","",""
"null","../img/tt/1084tt.jpg","null","mooney1","image-keyboard-response","385","1187600","0.0-6.0-1.54","2907428","co37951","norming","","","","","","",""
"3743.5200000000186","","","post_mooney1_questions","survey-likert","386","1191347","0.0-6.0-2.54","2907428","co37951","norming","","","{""curiosity"":5,""confidence"":4}","[0,1]","../img/tt/1084tt.jpg","",""
"1718.5349999999162","","","recognition","survey-text","387","1193067","0.0-6.0-3.54","2907428","co37951","norming","","","{""guess"":""bord""}","","../img/tt/1084tt.jpg","",""
"null","../img/gs/1084gs.jpg","null","reveal","image-keyboard-response","388","1195068","0.0-6.0-4.54","2907428","co37951","norming","","","","","","",""
"null","../img/tt/1084tt.jpg","null","mooney2","image-keyboard-response","389","1197071","0.0-6.0-5.54","2907428","co37951","norming","","","","","","",""
"1681.2400000002235","","","post_reveal_questions","survey-likert","390","1198755","0.0-6.0-6.54","2907428","co37951","norming","","","{""aha"":5}","[0]","../img/tt/1084tt.jpg","",""
"null","<div style=""font-size:60px;""> </div>","null","fixation","html-keyboard-response","391","1198956","0.0-6.0-0.55","2907428","co37951","norming","","","","","","",""
"null","../img/tt/1276tt.jpg","null","mooney1","image-keyboard-response","392","1201960","0.0-6.0-1.55","2907428","co37951","norming","","","","","","",""
"6815.77500000014","","","post_mooney1_questions","survey-likert","393","1208779","0.0-6.0-2.55","2907428","co37951","norming","","","{""curiosity"":4,""confidence"":2}","[0,1]","../img/tt/1276tt.jpg","",""
"2286.195000000065","","","recognition","survey-text","394","1211067","0.0-6.0-3.55","2907428","co37951","norming","","","{""guess"":""jak""}","","../img/tt/1276tt.jpg","",""
"null","../img/gs/1276gs.jpg","null","reveal","image-keyboard-response","395","1213069","0.0-6.0-4.55","2907428","co37951","norming","","","","","","",""
"null","../img/tt/1276tt.jpg","null","mooney2","image-keyboard-response","396","1215077","0.0-6.0-5.55","2907428","co37951","norming","","","","","","",""
"1652.190000000177","","","post_reveal_questions","survey-likert","397","1216731","0.0-6.0-6.55","2907428","co37951","norming","","","{""aha"":5}","[0]","../img/tt/1276tt.jpg","",""
"null","<div style=""font-size:60px;""> </div>","null","fixation","html-keyboard-response","398","1216932","0.0-6.0-0.56","2907428","co37951","norming","","","","","","",""
"null","../img/tt/1012tt.jpg","null","mooney1","image-keyboard-response","399","1219937","0.0-6.0-1.56","2907428","co37951","norming","","","","","","",""
"4798.6699999999255","","","post_mooney1_questions","survey-likert","400","1224739","0.0-6.0-2.56","2907428","co37951","norming","","","{""curiosity"":5,""confidence"":0}","[0,1]","../img/tt/1012tt.jpg","",""
"3206.0450000001583","","","recognition","survey-text","401","1227945","0.0-6.0-3.56","2907428","co37951","norming","","","{""guess"":""olifant""}","","../img/tt/1012tt.jpg","",""
"null","../img/gs/1012gs.jpg","null","reveal","image-keyboard-response","402","1229947","0.0-6.0-4.56","2907428","co37951","norming","","","","","","",""
"null","../img/tt/1012tt.jpg","null","mooney2","image-keyboard-response","403","1231957","0.0-6.0-5.56","2907428","co37951","norming","","","","","","",""
"2473.404999999795","","","post_reveal_questions","survey-likert","404","1234433","0.0-6.0-6.56","2907428","co37951","norming","","","{""aha"":1}","[0]","../img/tt/1012tt.jpg","",""
"null","<div style=""font-size:60px;""> </div>","null","fixation","html-keyboard-response","405","1234636","0.0-6.0-0.57","2907428","co37951","norming","","","","","","",""
"null","../img/tt/559tt.jpg","null","mooney1","image-keyboard-response","406","1237640","0.0-6.0-1.57","2907428","co37951","norming","","","","","","",""
"3429.184999999823","","","post_mooney1_questions","survey-likert","407","1241073","0.0-6.0-2.57","2907428","co37951","norming","","","{""curiosity"":5,""confidence"":2}","[0,1]","../img/tt/559tt.jpg","",""
"2742.065000000177","","","recognition","survey-text","408","1243817","0.0-6.0-3.57","2907428","co37951","norming","","","{""guess"":""naaimachine""}","","../img/tt/559tt.jpg","",""
"null","../img/gs/559gs.jpg","null","reveal","image-keyboard-response","409","1245818","0.0-6.0-4.57","2907428","co37951","norming","","","","","","",""
"null","../img/tt/559tt.jpg","null","mooney2","image-keyboard-response","410","1247820","0.0-6.0-5.57","2907428","co37951","norming","","","","","","",""
"1457.8599999998696","","","post_reveal_questions","survey-likert","411","1249281","0.0-6.0-6.57","2907428","co37951","norming","","","{""aha"":6}","[0]","../img/tt/559tt.jpg","",""
"null","<div style=""font-size:60px;""> </div>","null","fixation","html-keyboard-response","412","1249482","0.0-6.0-0.58","2907428","co37951","norming","","","","","","",""
"null","../img/tt/040tt.jpg","null","mooney1","image-keyboard-response","413","1252489","0.0-6.0-1.58","2907428","co37951","norming","","","","","","",""
"3060.3600000001024","","","post_mooney1_questions","survey-likert","414","1255553","0.0-6.0-2.58","2907428","co37951","norming","","","{""curiosity"":5,""confidence"":2}","[0,1]","../img/tt/040tt.jpg","",""
"2054.4699999997392","","","recognition","survey-text","415","1257609","0.0-6.0-3.58","2907428","co37951","norming","","","{""guess"":""paard""}","","../img/tt/040tt.jpg","",""
"null","../img/gs/040gs.jpg","null","reveal","image-keyboard-response","416","1259612","0.0-6.0-4.58","2907428","co37951","norming","","","","","","",""
"null","../img/tt/040tt.jpg","null","mooney2","image-keyboard-response","417","1261613","0.0-6.0-5.58","2907428","co37951","norming","","","","","","",""
"2200.905000000028","","","post_reveal_questions","survey-likert","418","1263817","0.0-6.0-6.58","2907428","co37951","norming","","","{""aha"":2}","[0]","../img/tt/040tt.jpg","",""
"null","<div style=""font-size:60px;""> </div>","null","fixation","html-keyboard-response","419","1264018","0.0-6.0-0.59","2907428","co37951","norming","","","","","","",""
"null","../img/tt/1307tt.jpg","null","mooney1","image-keyboard-response","420","1267025","0.0-6.0-1.59","2907428","co37951","norming","","","","","","",""
"3108.4499999999534","","","post_mooney1_questions","survey-likert","421","1270137","0.0-6.0-2.59","2907428","co37951","norming","","","{""curiosity"":5,""confidence"":4}","[0,1]","../img/tt/1307tt.jpg","",""
"1566.6350000002421","","","recognition","survey-text","422","1271705","0.0-6.0-3.59","2907428","co37951","norming","","","{""guess"":""band""}","","../img/tt/1307tt.jpg","",""
"null","../img/gs/1307gs.jpg","null","reveal","image-keyboard-response","423","1273711","0.0-6.0-4.59","2907428","co37951","norming","","","","","","",""
"null","../img/tt/1307tt.jpg","null","mooney2","image-keyboard-response","424","1275714","0.0-6.0-5.59","2907428","co37951","norming","","","","","","",""
"1436.2399999999907","","","post_reveal_questions","survey-likert","425","1277153","0.0-6.0-6.59","2907428","co37951","norming","","","{""aha"":0}","[0]","../img/tt/1307tt.jpg","",""
"null","<div style=""font-size:60px;""> </div>","null","fixation","html-keyboard-response","426","1277355","0.0-6.0-0.60","2907428","co37951","norming","","","","","","",""
"null","../img/tt/507tt.jpg","null","mooney1","image-keyboard-response","427","1280361","0.0-6.0-1.60","2907428","co37951","norming","","","","","","",""
"3869.655000000028","","","post_mooney1_questions","survey-likert","428","1284233","0.0-6.0-2.60","2907428","co37951","norming","","","{""curiosity"":5,""confidence"":0}","[0,1]","../img/tt/507tt.jpg","",""
"4206.155000000028","","","recognition","survey-text","429","1288450","0.0-6.0-3.60","2907428","co37951","norming","","","{""guess"":""dansende mensen""}","","../img/tt/507tt.jpg","",""
"null","../img/gs/507gs.jpg","null","reveal","image-keyboard-response","430","1290452","0.0-6.0-4.60","2907428","co37951","norming","","","","","","",""
"null","../img/tt/507tt.jpg","null","mooney2","image-keyboard-response","431","1292461","0.0-6.0-5.60","2907428","co37951","norming","","","","","","",""
"1729.9799999999814","","","post_reveal_questions","survey-likert","432","1294194","0.0-6.0-6.60","2907428","co37951","norming","","","{""aha"":2}","[0]","../img/tt/507tt.jpg","",""
"null","<div style=""font-size:60px;""> </div>","null","fixation","html-keyboard-response","433","1294395","0.0-6.0-0.61","2907428","co37951","norming","","","","","","",""
"null","../img/tt/1309tt.jpg","null","mooney1","image-keyboard-response","434","1297402","0.0-6.0-1.61","2907428","co37951","norming","","","","","","",""
"3548.1699999999255","","","post_mooney1_questions","survey-likert","435","1300954","0.0-6.0-2.61","2907428","co37951","norming","","","{""curiosity"":5,""confidence"":1}","[0,1]","../img/tt/1309tt.jpg","",""
"3397.929999999935","","","recognition","survey-text","436","1304354","0.0-6.0-3.61","2907428","co37951","norming","","","{""guess"":""bos""}","","../img/tt/1309tt.jpg","",""
"null","../img/gs/1309gs.jpg","null","reveal","image-keyboard-response","437","1306364","0.0-6.0-4.61","2907428","co37951","norming","","","","","","",""
"null","../img/tt/1309tt.jpg","null","mooney2","image-keyboard-response","438","1308370","0.0-6.0-5.61","2907428","co37951","norming","","","","","","",""
"1854.969999999972","","","post_reveal_questions","survey-likert","439","1310226","0.0-6.0-6.61","2907428","co37951","norming","","","{""aha"":6}","[0]","../img/tt/1309tt.jpg","",""
"null","<div style=""font-size:60px;""> </div>","null","fixation","html-keyboard-response","440","1310427","0.0-6.0-0.62","2907428","co37951","norming","","","","","","",""
"null","../img/tt/010tt.jpg","null","mooney1","image-keyboard-response","441","1313432","0.0-6.0-1.62","2907428","co37951","norming","","","","","","",""
"5022.465000000084","","","post_mooney1_questions","survey-likert","442","1318458","0.0-6.0-2.62","2907428","co37951","norming","","","{""curiosity"":6,""confidence"":0}","[0,1]","../img/tt/010tt.jpg","",""
"9478.089999999851","","","recognition","survey-text","443","1327938","0.0-6.0-3.62","2907428","co37951","norming","","","{""guess"":""pop""}","","../img/tt/010tt.jpg","",""
"null","../img/gs/010gs.jpg","null","reveal","image-keyboard-response","444","1329939","0.0-6.0-4.62","2907428","co37951","norming","","","","","","",""
"null","../img/tt/010tt.jpg","null","mooney2","image-keyboard-response","445","1331944","0.0-6.0-5.62","2907428","co37951","norming","","","","","","",""
"2631.2350000001024","","","post_reveal_questions","survey-likert","446","1334578","0.0-6.0-6.62","2907428","co37951","norming","","","{""aha"":0}","[0]","../img/tt/010tt.jpg","",""
"null","<div style=""font-size:60px;""> </div>","null","fixation","html-keyboard-response","447","1334780","0.0-6.0-0.63","2907428","co37951","norming","","","","","","",""
"null","../img/tt/1123tt.jpg","null","mooney1","image-keyboard-response","448","1337792","0.0-6.0-1.63","2907428","co37951","norming","","","","","","",""
"6373.405000000028","","","post_mooney1_questions","survey-likert","449","1344170","0.0-6.0-2.63","2907428","co37951","norming","","","{""curiosity"":5,""confidence"":3}","[0,1]","../img/tt/1123tt.jpg","",""
"8485.800000000047","","","recognition","survey-text","450","1352657","0.0-6.0-3.63","2907428","co37951","norming","","","{""guess"":""basketbal""}","","../img/tt/1123tt.jpg","",""
"null","../img/gs/1123gs.jpg","null","reveal","image-keyboard-response","451","1354663","0.0-6.0-4.63","2907428","co37951","norming","","","","","","",""
"null","../img/tt/1123tt.jpg","null","mooney2","image-keyboard-response","452","1356665","0.0-6.0-5.63","2907428","co37951","norming","","","","","","",""
"2317.244999999879","","","post_reveal_questions","survey-likert","453","1358986","0.0-6.0-6.63","2907428","co37951","norming","","","{""aha"":3}","[0]","../img/tt/1123tt.jpg","",""
"null","<div style=""font-size:60px;""> </div>","null","fixation","html-keyboard-response","454","1359187","0.0-6.0-0.64","2907428","co37951","norming","","","","","","",""
"null","../img/tt/405tt.jpg","null","mooney1","image-keyboard-response","455","1362192","0.0-6.0-1.64","2907428","co37951","norming","","","","","","",""
"2270.5850000001956","","","post_mooney1_questions","survey-likert","456","1364466","0.0-6.0-2.64","2907428","co37951","norming","","","{""curiosity"":5,""confidence"":3}","[0,1]","../img/tt/405tt.jpg","",""
"1885.9450000000652","","","recognition","survey-text","457","1366353","0.0-6.0-3.64","2907428","co37951","norming","","","{""guess"":""koala""}","","../img/tt/405tt.jpg","",""
"null","../img/gs/405gs.jpg","null","reveal","image-keyboard-response","458","1368355","0.0-6.0-4.64","2907428","co37951","norming","","","","","","",""
"null","../img/tt/405tt.jpg","null","mooney2","image-keyboard-response","459","1370358","0.0-6.0-5.64","2907428","co37951","norming","","","","","","",""
"2546.6299999998882","","","post_reveal_questions","survey-likert","460","1372906","0.0-6.0-6.64","2907428","co37951","norming","","","{""aha"":6}","[0]","../img/tt/405tt.jpg","",""
"null","<div style=""font-size:60px;""> </div>","null","fixation","html-keyboard-response","461","1373107","0.0-6.0-0.65","2907428","co37951","norming","","","","","","",""
"null","../img/tt/1159tt.jpg","null","mooney1","image-keyboard-response","462","1376114","0.0-6.0-1.65","2907428","co37951","norming","","","","","","",""
"10116.284999999683","","","post_mooney1_questions","survey-likert","463","1386234","0.0-6.0-2.65","2907428","co37951","norming","","","{""curiosity"":5,""confidence"":4}","[0,1]","../img/tt/1159tt.jpg","",""
"5901.860000000102","","","recognition","survey-text","464","1392138","0.0-6.0-3.65","2907428","co37951","norming","","","{""guess"":""steppende jongen""}","","../img/tt/1159tt.jpg","",""
"null","../img/gs/1159gs.jpg","null","reveal","image-keyboard-response","465","1394142","0.0-6.0-4.65","2907428","co37951","norming","","","","","","",""
"null","../img/tt/1159tt.jpg","null","mooney2","image-keyboard-response","466","1396145","0.0-6.0-5.65","2907428","co37951","norming","","","","","","",""
"2093.725000000093","","","post_reveal_questions","survey-likert","467","1398241","0.0-6.0-6.65","2907428","co37951","norming","","","{""aha"":5}","[0]","../img/tt/1159tt.jpg","",""
"null","<div style=""font-size:60px;""> </div>","null","fixation","html-keyboard-response","468","1398444","0.0-6.0-0.66","2907428","co37951","norming","","","","","","",""
"null","../img/tt/1234tt.jpg","null","mooney1","image-keyboard-response","469","1401450","0.0-6.0-1.66","2907428","co37951","norming","","","","","","",""
"4619.905000000028","","","post_mooney1_questions","survey-likert","470","1406074","0.0-6.0-2.66","2907428","co37951","norming","","","{""curiosity"":1,""confidence"":3}","[0,1]","../img/tt/1234tt.jpg","",""
"7270.054999999935","","","recognition","survey-text","471","1413344","0.0-6.0-3.66","2907428","co37951","norming","","","{""guess"":""kayakker""}","","../img/tt/1234tt.jpg","",""
"null","../img/gs/1234gs.jpg","null","reveal","image-keyboard-response","472","1415353","0.0-6.0-4.66","2907428","co37951","norming","","","","","","",""
"null","../img/tt/1234tt.jpg","null","mooney2","image-keyboard-response","473","1417355","0.0-6.0-5.66","2907428","co37951","norming","","","","","","",""
"2146.350000000093","","","post_reveal_questions","survey-likert","474","1419504","0.0-6.0-6.66","2907428","co37951","norming","","","{""aha"":1}","[0]","../img/tt/1234tt.jpg","",""
"null","<div style=""font-size:60px;""> </div>","null","fixation","html-keyboard-response","475","1419712","0.0-6.0-0.67","2907428","co37951","norming","","","","","","",""
"null","../img/tt/118tt.jpg","null","mooney1","image-keyboard-response","476","1422723","0.0-6.0-1.67","2907428","co37951","norming","","","","","","",""
"2842.3899999998976","","","post_mooney1_questions","survey-likert","477","1425568","0.0-6.0-2.67","2907428","co37951","norming","","","{""curiosity"":5,""confidence"":1}","[0,1]","../img/tt/118tt.jpg","",""
"1566.005000000121","","","recognition","survey-text","478","1427136","0.0-6.0-3.67","2907428","co37951","norming","","","{""guess"":""trap""}","","../img/tt/118tt.jpg","",""
"null","../img/gs/118gs.jpg","null","reveal","image-keyboard-response","479","1429141","0.0-6.0-4.67","2907428","co37951","norming","","","","","","",""
"null","../img/tt/118tt.jpg","null","mooney2","image-keyboard-response","480","1431150","0.0-6.0-5.67","2907428","co37951","norming","","","","","","",""
"1935.75","","","post_reveal_questions","survey-likert","481","1433088","0.0-6.0-6.67","2907428","co37951","norming","","","{""aha"":1}","[0]","../img/tt/118tt.jpg","",""
"null","<div style=""font-size:60px;""> </div>","null","fixation","html-keyboard-response","482","1433290","0.0-6.0-0.68","2907428","co37951","norming","","","","","","",""
"null","../img/tt/013tt.jpg","null","mooney1","image-keyboard-response","483","1436301","0.0-6.0-1.68","2907428","co37951","norming","","","","","","",""
"3314.2900000000373","","","post_mooney1_questions","survey-likert","484","1439616","0.0-6.0-2.68","2907428","co37951","norming","","","{""curiosity"":5,""confidence"":0}","[0,1]","../img/tt/013tt.jpg","",""
"3630.179999999935","","","recognition","survey-text","485","1443248","0.0-6.0-3.68","2907428","co37951","norming","","","{""guess"":""tuin""}","","../img/tt/013tt.jpg","",""
"null","../img/gs/013gs.jpg","null","reveal","image-keyboard-response","486","1445251","0.0-6.0-4.68","2907428","co37951","norming","","","","","","",""
"null","../img/tt/013tt.jpg","null","mooney2","image-keyboard-response","487","1447260","0.0-6.0-5.68","2907428","co37951","norming","","","","","","",""
"2456.685000000056","","","post_reveal_questions","survey-likert","488","1449720","0.0-6.0-6.68","2907428","co37951","norming","","","{""aha"":0}","[0]","../img/tt/013tt.jpg","",""
"null","<div style=""font-size:60px;""> </div>","null","fixation","html-keyboard-response","489","1449925","0.0-6.0-0.69","2907428","co37951","norming","","","","","","",""
"null","../img/tt/1142tt.jpg","null","mooney1","image-keyboard-response","490","1452937","0.0-6.0-1.69","2907428","co37951","norming","","","","","","",""
"3747.3299999998417","","","post_mooney1_questions","survey-likert","491","1456688","0.0-6.0-2.69","2907428","co37951","norming","","","{""curiosity"":5,""confidence"":2}","[0,1]","../img/tt/1142tt.jpg","",""
"5805.8650000002235","","","recognition","survey-text","492","1462496","0.0-6.0-3.69","2907428","co37951","norming","","","{""guess"":""trampoline""}","","../img/tt/1142tt.jpg","",""
"null","../img/gs/1142gs.jpg","null","reveal","image-keyboard-response","493","1464497","0.0-6.0-4.69","2907428","co37951","norming","","","","","","",""
"null","../img/tt/1142tt.jpg","null","mooney2","image-keyboard-response","494","1466506","0.0-6.0-5.69","2907428","co37951","norming","","","","","","",""
"1954.8700000001118","","","post_reveal_questions","survey-likert","495","1468464","0.0-6.0-6.69","2907428","co37951","norming","","","{""aha"":1}","[0]","../img/tt/1142tt.jpg","",""
"null","<div style=""font-size:60px;""> </div>","null","fixation","html-keyboard-response","496","1468668","0.0-6.0-0.70","2907428","co37951","norming","","","","","","",""
"null","../img/tt/307tt.jpg","null","mooney1","image-keyboard-response","497","1471676","0.0-6.0-1.70","2907428","co37951","norming","","","","","","",""
"5707.064999999944","","","post_mooney1_questions","survey-likert","498","1477386","0.0-6.0-2.70","2907428","co37951","norming","","","{""curiosity"":5,""confidence"":0}","[0,1]","../img/tt/307tt.jpg","",""
"4181.870000000112","","","recognition","survey-text","499","1481569","0.0-6.0-3.70","2907428","co37951","norming","","","{""guess"":""schaatsen""}","","../img/tt/307tt.jpg","",""
"null","../img/gs/307gs.jpg","null","reveal","image-keyboard-response","500","1483576","0.0-6.0-4.70","2907428","co37951","norming","","","","","","",""
"null","../img/tt/307tt.jpg","null","mooney2","image-keyboard-response","501","1485581","0.0-6.0-5.70","2907428","co37951","norming","","","","","","",""
"2321.9850000001024","","","post_reveal_questions","survey-likert","502","1487905","0.0-6.0-6.70","2907428","co37951","norming","","","{""aha"":2}","[0]","../img/tt/307tt.jpg","",""
"null","<div style=""font-size:60px;""> </div>","null","fixation","html-keyboard-response","503","1488115","0.0-6.0-0.71","2907428","co37951","norming","","","","","","",""
"null","../img/tt/1239tt.jpg","null","mooney1","image-keyboard-response","504","1491123","0.0-6.0-1.71","2907428","co37951","norming","","","","","","",""
"3387.304999999935","","","post_mooney1_questions","survey-likert","505","1494514","0.0-6.0-2.71","2907428","co37951","norming","","","{""curiosity"":5,""confidence"":0}","[0,1]","../img/tt/1239tt.jpg","",""
"4014.130000000121","","","recognition","survey-text","506","1498529","0.0-6.0-3.71","2907428","co37951","norming","","","{""guess"":""paard""}","","../img/tt/1239tt.jpg","",""
"null","../img/gs/1239gs.jpg","null","reveal","image-keyboard-response","507","1500540","0.0-6.0-4.71","2907428","co37951","norming","","","","","","",""
"null","../img/tt/1239tt.jpg","null","mooney2","image-keyboard-response","508","1502549","0.0-6.0-5.71","2907428","co37951","norming","","","","","","",""
"3785.435000000056","","","post_reveal_questions","survey-likert","509","1506337","0.0-6.0-6.71","2907428","co37951","norming","","","{""aha"":0}","[0]","../img/tt/1239tt.jpg","",""
"null","<div style=""font-size:60px;""> </div>","null","fixation","html-keyboard-response","510","1506539","0.0-6.0-0.72","2907428","co37951","norming","","","","","","",""
"null","../img/tt/1128tt.jpg","null","mooney1","image-keyboard-response","511","1509548","0.0-6.0-1.72","2907428","co37951","norming","","","","","","",""
"4737.219999999972","","","post_mooney1_questions","survey-likert","512","1514289","0.0-6.0-2.72","2907428","co37951","norming","","","{""curiosity"":5,""confidence"":1}","[0,1]","../img/tt/1128tt.jpg","",""
"2478.6650000000373","","","recognition","survey-text","513","1516770","0.0-6.0-3.72","2907428","co37951","norming","","","{""guess"":""cavia""}","","../img/tt/1128tt.jpg","",""
"null","../img/gs/1128gs.jpg","null","reveal","image-keyboard-response","514","1518774","0.0-6.0-4.72","2907428","co37951","norming","","","","","","",""
"null","../img/tt/1128tt.jpg","null","mooney2","image-keyboard-response","515","1520783","0.0-6.0-5.72","2907428","co37951","norming","","","","","","",""
"1991.1399999998976","","","post_reveal_questions","survey-likert","516","1522777","0.0-6.0-6.72","2907428","co37951","norming","","","{""aha"":0}","[0]","../img/tt/1128tt.jpg","",""
"null","<div style=""font-size:60px;""> </div>","null","fixation","html-keyboard-response","517","1522979","0.0-6.0-0.73","2907428","co37951","norming","","","","","","",""
"null","../img/tt/1278tt.jpg","null","mooney1","image-keyboard-response","518","1525987","0.0-6.0-1.73","2907428","co37951","norming","","","","","","",""
"3866.649999999907","","","post_mooney1_questions","survey-likert","519","1529856","0.0-6.0-2.73","2907428","co37951","norming","","","{""curiosity"":5,""confidence"":3}","[0,1]","../img/tt/1278tt.jpg","",""
"3662.030000000028","","","recognition","survey-text","520","1533520","0.0-6.0-3.73","2907428","co37951","norming","","","{""guess"":""rendier""}","","../img/tt/1278tt.jpg","",""
"null","../img/gs/1278gs.jpg","null","reveal","image-keyboard-response","521","1535522","0.0-6.0-4.73","2907428","co37951","norming","","","","","","",""
"null","../img/tt/1278tt.jpg","null","mooney2","image-keyboard-response","522","1537531","0.0-6.0-5.73","2907428","co37951","norming","","","","","","",""
"2218.6100000001024","","","post_reveal_questions","survey-likert","523","1539752","0.0-6.0-6.73","2907428","co37951","norming","","","{""aha"":5}","[0]","../img/tt/1278tt.jpg","",""
"null","<div style=""font-size:60px;""> </div>","null","fixation","html-keyboard-response","524","1539954","0.0-6.0-0.74","2907428","co37951","norming","","","","","","",""
"null","../img/tt/184tt.jpg","null","mooney1","image-keyboard-response","525","1542961","0.0-6.0-1.74","2907428","co37951","norming","","","","","","",""
"6907.604999999981","","","post_mooney1_questions","survey-likert","526","1549872","0.0-6.0-2.74","2907428","co37951","norming","","","{""curiosity"":5,""confidence"":1}","[0,1]","../img/tt/184tt.jpg","",""
"4013.9900000002235","","","recognition","survey-text","527","1553888","0.0-6.0-3.74","2907428","co37951","norming","","","{""guess"":""beer""}","","../img/tt/184tt.jpg","",""
"null","../img/gs/184gs.jpg","null","reveal","image-keyboard-response","528","1555890","0.0-6.0-4.74","2907428","co37951","norming","","","","","","",""
"null","../img/tt/184tt.jpg","null","mooney2","image-keyboard-response","529","1557895","0.0-6.0-5.74","2907428","co37951","norming","","","","","","",""
"2086.3599999998696","","","post_reveal_questions","survey-likert","530","1559984","0.0-6.0-6.74","2907428","co37951","norming","","","{""aha"":0}","[0]","../img/tt/184tt.jpg","",""
"null","<div style=""font-size:60px;""> </div>","null","fixation","html-keyboard-response","531","1560190","0.0-6.0-0.75","2907428","co37951","norming","","","","","","",""
"null","../img/tt/1224tt.jpg","null","mooney1","image-keyboard-response","532","1563195","0.0-6.0-1.75","2907428","co37951","norming","","","","","","",""
"3250.1599999996834","","","post_mooney1_questions","survey-likert","533","1566448","0.0-6.0-2.75","2907428","co37951","norming","","","{""curiosity"":5,""confidence"":2}","[0,1]","../img/tt/1224tt.jpg","",""
"2350.054999999702","","","recognition","survey-text","534","1568800","0.0-6.0-3.75","2907428","co37951","norming","","","{""guess"":""gitarist""}","","../img/tt/1224tt.jpg","",""
"null","../img/gs/1224gs.jpg","null","reveal","image-keyboard-response","535","1570803","0.0-6.0-4.75","2907428","co37951","norming","","","","","","",""
"null","../img/tt/1224tt.jpg","null","mooney2","image-keyboard-response","536","1572808","0.0-6.0-5.75","2907428","co37951","norming","","","","","","",""
"1733.1249999997672","","","post_reveal_questions","survey-likert","537","1574544","0.0-6.0-6.75","2907428","co37951","norming","","","{""aha"":1}","[0]","../img/tt/1224tt.jpg","",""
"null","<div style=""font-size:60px;""> </div>","null","fixation","html-keyboard-response","538","1574745","0.0-6.0-0.76","2907428","co37951","norming","","","","","","",""
"null","../img/tt/044tt.jpg","null","mooney1","image-keyboard-response","539","1577748","0.0-6.0-1.76","2907428","co37951","norming","","","","","","",""
"2736.534999999916","","","post_mooney1_questions","survey-likert","540","1580488","0.0-6.0-2.76","2907428","co37951","norming","","","{""curiosity"":5,""confidence"":3}","[0,1]","../img/tt/044tt.jpg","",""
"2293.869999999879","","","recognition","survey-text","541","1582784","0.0-6.0-3.76","2907428","co37951","norming","","","{""guess"":""piano""}","","../img/tt/044tt.jpg","",""
"null","../img/gs/044gs.jpg","null","reveal","image-keyboard-response","542","1584795","0.0-6.0-4.76","2907428","co37951","norming","","","","","","",""
"null","../img/tt/044tt.jpg","null","mooney2","image-keyboard-response","543","1586798","0.0-6.0-5.76","2907428","co37951","norming","","","","","","",""
"1887.5449999999255","","","post_reveal_questions","survey-likert","544","1588688","0.0-6.0-6.76","2907428","co37951","norming","","","{""aha"":0}","[0]","../img/tt/044tt.jpg","",""
"null","<div style=""font-size:60px;""> </div>","null","fixation","html-keyboard-response","545","1588889","0.0-6.0-0.77","2907428","co37951","norming","","","","","","",""
"null","../img/tt/315tt.jpg","null","mooney1","image-keyboard-response","546","1591902","0.0-6.0-1.77","2907428","co37951","norming","","","","","","",""
"3951.7649999998976","","","post_mooney1_questions","survey-likert","547","1595858","0.0-6.0-2.77","2907428","co37951","norming","","","{""curiosity"":5,""confidence"":0}","[0,1]","../img/tt/315tt.jpg","",""
"1709.780000000028","","","recognition","survey-text","548","1597570","0.0-6.0-3.77","2907428","co37951","norming","","","{""guess"":""vacht""}","","../img/tt/315tt.jpg","",""
"null","../img/gs/315gs.jpg","null","reveal","image-keyboard-response","549","1599575","0.0-6.0-4.77","2907428","co37951","norming","","","","","","",""
"null","../img/tt/315tt.jpg","null","mooney2","image-keyboard-response","550","1601577","0.0-6.0-5.77","2907428","co37951","norming","","","","","","",""
"3150.1049999999814","","","post_reveal_questions","survey-likert","551","1604730","0.0-6.0-6.77","2907428","co37951","norming","","","{""aha"":1}","[0]","../img/tt/315tt.jpg","",""
