"rt","stimulus","key_press","test_part","trial_type","trial_index","time_elapsed","internal_node_id","totalTime","subject","experiment_name","button_pressed","success","responses","question_order","currentStim","old","correct"
"11031.975000000002","Welcome to the experiment. This is an online experiment so please don't close the tab/window until we say goodbye.  Press any key to begin.","32","instructions","html-keyboard-response","0","11046","0.0-0.0","2727286","co37687","norming","","","","","","",""
"39436.44","<div style='word-wrap: break-word; width: 900px'><h3>Please consider this information carefully before deciding whether to participate in this research</h3><ul style='text-align: left; font-size: .8em;'><li><b>Purpose of the research</b>: To examine how people process images.</li><li><b>What you will do in this research</b>:  Stimuli (images) will be presented on the computer and you will be asked different questions about them.</li><li><b>Time required</b>: Participation will take between 45 and 60 minutes to complete.</li><li><b>Risks</b>:  There are no anticipated risks associated with participating in this study. The effects of participating should be comparable to those you would experience from viewing a computer monitor for 30 minutes and using a mouse or keyboard.</li><li><b>Benefits</b>:  This study provides no benefits to you individually except for the credit. The study provides important information about the nature of perception and learning.</li><li><b>Confidentiality</b>:  Your participation in this study will remain confidential. No personally identifiable information will be associated with your data. Your de-identified data may be shared with other researchers and used in future projects.</li><li><b>Participation and withdrawal</b>:  Your participation in this study is completely voluntary and you may refuse to participate or you may choose to withdraw at any time without penalty.</li><li><b>How to contact the researchers</b>: If you have questions or concerns about your participation or payment, or want to request a summary of research findings, please contact Sander Van de Cruys (KU Leuven), at sander.vandecruys@kuleuven.be.</li></ul><p>The nature and purpose of this research have been sufficiently explained and I agree to participate in this study.  I understand that I am free to withdraw at any time without incurring any penalty.</p><p>Please consent by clicking the button below to continue. Otherwise, please exit the study at this time.</p></div>","","instructions","html-button-response","1","50483","0.0-1.0","2727286","co37687","norming","0","","","","","",""
"","","","instructions","fullscreen","2","53348","0.0-2.0","2727286","co37687","norming","","true","","","","",""
"31461.699999999997","","","sona","survey-html-form","3","84814","0.0-3.0","2727286","co37687","norming","","","[{""name"":""sonaid"",""value"":""37687""},{""name"":""debrief"",""value"":""yes""},{""name"":""datajoin"",""value"":""yes""}]","","","",""
"90979.29000000002","<div style='word-wrap: break-word; width: 900px'><h3>Instructions</h3><p>This experiment will have 3 parts. In the first part you will see a series of distorted images like the one below on the left. As you can see in the righthand image, the distorted images are derived from actual photographs. In what follows, you will <strong>briefly</strong> be presented with <strong>only</strong> the distorted image.</p> <div style='float: left; margin-right: 20px;'><img src='../img/018tt.jpg' height='250' width='250'></img></div><div style='float: right; margin-left: 20px;'><img src='../img/018gs.jpg' height='250' width='250'></img></div><p>Subsequently you will be asked a few questions about the image: One question on how <strong>curious</strong> you are about the solution and one on how <strong>confident</strong> you are that you know the solution.</p>Next, we ask you to make a guess on what is in the image. Note that it is OK to name just the <strong>basic level category</strong>. For example when you see a parrot in the image, 'parrot' will obviously be a correct answer but also correct is 'bird'. However, 'animal' will <strong>not</strong> be counted as a correct response. For the example above, 'rose' would be correct or 'flower', but not 'plant'. When soccer players are depicted, 'soccer', 'football', 'soccer players' will be correct, but not 'humans', 'outdoors', or 'sports'. You do not need to describe the image in full, just name the main object in it <strong>in one or two words</strong>. All images depict objects from one of the following broad level categories: animals, inanimate objects, plants, sports, vehicles, and food. Recognizing means knowing <strong>more</strong> than these broad labels for a given image. But we always encourage you to <strong>make a guess</strong> if you can. Note that you are allowed to use <strong>Dutch and English</strong> in your answers, whatever comes easiest for you.</p><p>Press any key to continue.</p></div>","32","instructions","html-keyboard-response","4","175792","0.0-4.0","2727286","co37687","norming","","","","","","",""
"52590.745000000024","<div style='word-wrap: break-word; width: 900px'><h3>Instructions</h3> <p>Next, the solution image will be revealed to you and you'll be asked to indicate how strong your <strong>aha-experience</strong> was after seeing the solution. This describes the positive feeling of the 'click' you sometimes experience, when the pieces of the 'puzzle' fall together and you suddenly have 'insight' in the image.</p><img src='aha.jpg' height='188' width='250'></img><p>Note that there are no right or wrong answers. We are interested in what <strong>you</strong> see in the image and how <strong>you</strong> feel about it.</p><p>Press any key to start the experiment.</p></div>","32","instructions","html-keyboard-response","5","228384","0.0-5.0","2727286","co37687","norming","","","","","","",""
"null","<div style=""font-size:60px;""> </div>","null","fixation","html-keyboard-response","6","228585","0.0-6.0-0.0","2727286","co37687","norming","","","","","","",""
"null","../img/tt/1211tt.jpg","null","mooney1","image-keyboard-response","7","231591","0.0-6.0-1.0","2727286","co37687","norming","","","","","","",""
"13751.854999999981","","","post_mooney1_questions","survey-likert","8","245351","0.0-6.0-2.0","2727286","co37687","norming","","","{""curiosity"":5,""confidence"":0}","[0,1]","../img/tt/1211tt.jpg","",""
"7517.445000000007","","","recognition","survey-text","9","252870","0.0-6.0-3.0","2727286","co37687","norming","","","{""guess"":""lake""}","","../img/tt/1211tt.jpg","",""
"null","../img/gs/1211gs.jpg","null","reveal","image-keyboard-response","10","254873","0.0-6.0-4.0","2727286","co37687","norming","","","","","","",""
"null","../img/tt/1211tt.jpg","null","mooney2","image-keyboard-response","11","256875","0.0-6.0-5.0","2727286","co37687","norming","","","","","","",""
"3202.6600000000035","","","post_reveal_questions","survey-likert","12","260078","0.0-6.0-6.0","2727286","co37687","norming","","","{""aha"":4}","[0]","../img/tt/1211tt.jpg","",""
"null","<div style=""font-size:60px;""> </div>","null","fixation","html-keyboard-response","13","260282","0.0-6.0-0.1","2727286","co37687","norming","","","","","","",""
"null","../img/tt/052tt.jpg","null","mooney1","image-keyboard-response","14","263285","0.0-6.0-1.1","2727286","co37687","norming","","","","","","",""
"5008.4349999999395","","","post_mooney1_questions","survey-likert","15","268295","0.0-6.0-2.1","2727286","co37687","norming","","","{""curiosity"":5,""confidence"":1}","[0,1]","../img/tt/052tt.jpg","",""
"2270.3450000000303","","","recognition","survey-text","16","270567","0.0-6.0-3.1","2727286","co37687","norming","","","{""guess"":""food""}","","../img/tt/052tt.jpg","",""
"null","../img/gs/052gs.jpg","null","reveal","image-keyboard-response","17","272576","0.0-6.0-4.1","2727286","co37687","norming","","","","","","",""
"null","../img/tt/052tt.jpg","null","mooney2","image-keyboard-response","18","274578","0.0-6.0-5.1","2727286","co37687","norming","","","","","","",""
"2746.625","","","post_reveal_questions","survey-likert","19","277327","0.0-6.0-6.1","2727286","co37687","norming","","","{""aha"":1}","[0]","../img/tt/052tt.jpg","",""
"null","<div style=""font-size:60px;""> </div>","null","fixation","html-keyboard-response","20","277529","0.0-6.0-0.2","2727286","co37687","norming","","","","","","",""
"null","../img/tt/1272tt.jpg","null","mooney1","image-keyboard-response","21","280533","0.0-6.0-1.2","2727286","co37687","norming","","","","","","",""
"6222.710000000021","","","post_mooney1_questions","survey-likert","22","286759","0.0-6.0-2.2","2727286","co37687","norming","","","{""curiosity"":5,""confidence"":2}","[0,1]","../img/tt/1272tt.jpg","",""
"2654.0349999999744","","","recognition","survey-text","23","289415","0.0-6.0-3.2","2727286","co37687","norming","","","{""guess"":""biker""}","","../img/tt/1272tt.jpg","",""
"null","../img/gs/1272gs.jpg","null","reveal","image-keyboard-response","24","291417","0.0-6.0-4.2","2727286","co37687","norming","","","","","","",""
"null","../img/tt/1272tt.jpg","null","mooney2","image-keyboard-response","25","293419","0.0-6.0-5.2","2727286","co37687","norming","","","","","","",""
"3353.375000000058","","","post_reveal_questions","survey-likert","26","296775","0.0-6.0-6.2","2727286","co37687","norming","","","{""aha"":1}","[0]","../img/tt/1272tt.jpg","",""
"null","<div style=""font-size:60px;""> </div>","null","fixation","html-keyboard-response","27","296976","0.0-6.0-0.3","2727286","co37687","norming","","","","","","",""
"null","../img/tt/1276tt.jpg","null","mooney1","image-keyboard-response","28","299983","0.0-6.0-1.3","2727286","co37687","norming","","","","","","",""
"16340.949999999953","","","post_mooney1_questions","survey-likert","29","316367","0.0-6.0-2.3","2727286","co37687","norming","","","{""curiosity"":5,""confidence"":0}","[0,1]","../img/tt/1276tt.jpg","",""
"4318.094999999972","","","recognition","survey-text","30","320687","0.0-6.0-3.3","2727286","co37687","norming","","","{""guess"":""""}","","../img/tt/1276tt.jpg","",""
"null","../img/gs/1276gs.jpg","null","reveal","image-keyboard-response","31","322690","0.0-6.0-4.3","2727286","co37687","norming","","","","","","",""
"null","../img/tt/1276tt.jpg","null","mooney2","image-keyboard-response","32","324697","0.0-6.0-5.3","2727286","co37687","norming","","","","","","",""
"3163.8600000000442","","","post_reveal_questions","survey-likert","33","327863","0.0-6.0-6.3","2727286","co37687","norming","","","{""aha"":1}","[0]","../img/tt/1276tt.jpg","",""
"null","<div style=""font-size:60px;""> </div>","null","fixation","html-keyboard-response","34","328068","0.0-6.0-0.4","2727286","co37687","norming","","","","","","",""
"null","../img/tt/098tt.jpg","null","mooney1","image-keyboard-response","35","331079","0.0-6.0-1.4","2727286","co37687","norming","","","","","","",""
"10326.914999999979","","","post_mooney1_questions","survey-likert","36","341407","0.0-6.0-2.4","2727286","co37687","norming","","","{""curiosity"":5,""confidence"":1}","[0,1]","../img/tt/098tt.jpg","",""
"1509.990000000049","","","recognition","survey-text","37","342919","0.0-6.0-3.4","2727286","co37687","norming","","","{""guess"":""""}","","../img/tt/098tt.jpg","",""
"null","../img/gs/098gs.jpg","null","reveal","image-keyboard-response","38","344922","0.0-6.0-4.4","2727286","co37687","norming","","","","","","",""
"null","../img/tt/098tt.jpg","null","mooney2","image-keyboard-response","39","346932","0.0-6.0-5.4","2727286","co37687","norming","","","","","","",""
"2409.060000000056","","","post_reveal_questions","survey-likert","40","349343","0.0-6.0-6.4","2727286","co37687","norming","","","{""aha"":5}","[0]","../img/tt/098tt.jpg","",""
"null","<div style=""font-size:60px;""> </div>","null","fixation","html-keyboard-response","41","349550","0.0-6.0-0.5","2727286","co37687","norming","","","","","","",""
"null","../img/tt/123tt.jpg","null","mooney1","image-keyboard-response","42","352561","0.0-6.0-1.5","2727286","co37687","norming","","","","","","",""
"4268.1149999999325","","","post_mooney1_questions","survey-likert","43","356831","0.0-6.0-2.5","2727286","co37687","norming","","","{""curiosity"":5,""confidence"":1}","[0,1]","../img/tt/123tt.jpg","",""
"4670.175000000047","","","recognition","survey-text","44","361503","0.0-6.0-3.5","2727286","co37687","norming","","","{""guess"":""boat""}","","../img/tt/123tt.jpg","",""
"null","../img/gs/123gs.jpg","null","reveal","image-keyboard-response","45","363505","0.0-6.0-4.5","2727286","co37687","norming","","","","","","",""
"null","../img/tt/123tt.jpg","null","mooney2","image-keyboard-response","46","365506","0.0-6.0-5.5","2727286","co37687","norming","","","","","","",""
"4163.134999999951","","","post_reveal_questions","survey-likert","47","369720","0.0-6.0-6.5","2727286","co37687","norming","","","{""aha"":5}","[0]","../img/tt/123tt.jpg","",""
"null","<div style=""font-size:60px;""> </div>","null","fixation","html-keyboard-response","48","369922","0.0-6.0-0.6","2727286","co37687","norming","","","","","","",""
"null","../img/tt/1130tt.jpg","null","mooney1","image-keyboard-response","49","372925","0.0-6.0-1.6","2727286","co37687","norming","","","","","","",""
"2888.905000000028","","","post_mooney1_questions","survey-likert","50","375816","0.0-6.0-2.6","2727286","co37687","norming","","","{""curiosity"":5,""confidence"":3}","[0,1]","../img/tt/1130tt.jpg","",""
"2198.1650000000373","","","recognition","survey-text","51","378016","0.0-6.0-3.6","2727286","co37687","norming","","","{""guess"":""biker""}","","../img/tt/1130tt.jpg","",""
"null","../img/gs/1130gs.jpg","null","reveal","image-keyboard-response","52","380017","0.0-6.0-4.6","2727286","co37687","norming","","","","","","",""
"null","../img/tt/1130tt.jpg","null","mooney2","image-keyboard-response","53","382026","0.0-6.0-5.6","2727286","co37687","norming","","","","","","",""
"1955.3899999999558","","","post_reveal_questions","survey-likert","54","383984","0.0-6.0-6.6","2727286","co37687","norming","","","{""aha"":1}","[0]","../img/tt/1130tt.jpg","",""
"null","<div style=""font-size:60px;""> </div>","null","fixation","html-keyboard-response","55","384184","0.0-6.0-0.7","2727286","co37687","norming","","","","","","",""
"null","../img/tt/096tt.jpg","null","mooney1","image-keyboard-response","56","387194","0.0-6.0-1.7","2727286","co37687","norming","","","","","","",""
"5778.965000000026","","","post_mooney1_questions","survey-likert","57","392976","0.0-6.0-2.7","2727286","co37687","norming","","","{""curiosity"":5,""confidence"":1}","[0,1]","../img/tt/096tt.jpg","",""
"2862.2200000000303","","","recognition","survey-text","58","395840","0.0-6.0-3.7","2727286","co37687","norming","","","{""guess"":""""}","","../img/tt/096tt.jpg","",""
"null","../img/gs/096gs.jpg","null","reveal","image-keyboard-response","59","397850","0.0-6.0-4.7","2727286","co37687","norming","","","","","","",""
"null","../img/tt/096tt.jpg","null","mooney2","image-keyboard-response","60","399852","0.0-6.0-5.7","2727286","co37687","norming","","","","","","",""
"1769.7949999999837","","","post_reveal_questions","survey-likert","61","401624","0.0-6.0-6.7","2727286","co37687","norming","","","{""aha"":5}","[0]","../img/tt/096tt.jpg","",""
"null","<div style=""font-size:60px;""> </div>","null","fixation","html-keyboard-response","62","401829","0.0-6.0-0.8","2727286","co37687","norming","","","","","","",""
"null","../img/tt/1279tt.jpg","null","mooney1","image-keyboard-response","63","404842","0.0-6.0-1.8","2727286","co37687","norming","","","","","","",""
"3603.6599999999744","","","post_mooney1_questions","survey-likert","64","408448","0.0-6.0-2.8","2727286","co37687","norming","","","{""curiosity"":5,""confidence"":1}","[0,1]","../img/tt/1279tt.jpg","",""
"2286.140000000014","","","recognition","survey-text","65","410736","0.0-6.0-3.8","2727286","co37687","norming","","","{""guess"":""cow""}","","../img/tt/1279tt.jpg","",""
"null","../img/gs/1279gs.jpg","null","reveal","image-keyboard-response","66","412741","0.0-6.0-4.8","2727286","co37687","norming","","","","","","",""
"null","../img/tt/1279tt.jpg","null","mooney2","image-keyboard-response","67","414747","0.0-6.0-5.8","2727286","co37687","norming","","","","","","",""
"3538.214999999909","","","post_reveal_questions","survey-likert","68","418288","0.0-6.0-6.8","2727286","co37687","norming","","","{""aha"":5}","[0]","../img/tt/1279tt.jpg","",""
"null","<div style=""font-size:60px;""> </div>","null","fixation","html-keyboard-response","69","418496","0.0-6.0-0.9","2727286","co37687","norming","","","","","","",""
"null","../img/tt/078tt.jpg","null","mooney1","image-keyboard-response","70","421504","0.0-6.0-1.9","2727286","co37687","norming","","","","","","",""
"4741.630000000005","","","post_mooney1_questions","survey-likert","71","426248","0.0-6.0-2.9","2727286","co37687","norming","","","{""curiosity"":5,""confidence"":3}","[0,1]","../img/tt/078tt.jpg","",""
"2358.1199999999953","","","recognition","survey-text","72","428652","0.0-6.0-3.9","2727286","co37687","norming","","","{""guess"":""druiven""}","","../img/tt/078tt.jpg","",""
"null","../img/gs/078gs.jpg","null","reveal","image-keyboard-response","73","430654","0.0-6.0-4.9","2727286","co37687","norming","","","","","","",""
"null","../img/tt/078tt.jpg","null","mooney2","image-keyboard-response","74","432656","0.0-6.0-5.9","2727286","co37687","norming","","","","","","",""
"2017.0049999999464","","","post_reveal_questions","survey-likert","75","434676","0.0-6.0-6.9","2727286","co37687","norming","","","{""aha"":1}","[0]","../img/tt/078tt.jpg","",""
"null","<div style=""font-size:60px;""> </div>","null","fixation","html-keyboard-response","76","434885","0.0-6.0-0.10","2727286","co37687","norming","","","","","","",""
"null","../img/tt/435tt.jpg","null","mooney1","image-keyboard-response","77","437892","0.0-6.0-1.10","2727286","co37687","norming","","","","","","",""
"6468.95000000007","","","post_mooney1_questions","survey-likert","78","444364","0.0-6.0-2.10","2727286","co37687","norming","","","{""curiosity"":5,""confidence"":1}","[0,1]","../img/tt/435tt.jpg","",""
"3454.270000000077","","","recognition","survey-text","79","447820","0.0-6.0-3.10","2727286","co37687","norming","","","{""guess"":""huis""}","","../img/tt/435tt.jpg","",""
"null","../img/gs/435gs.jpg","null","reveal","image-keyboard-response","80","449823","0.0-6.0-4.10","2727286","co37687","norming","","","","","","",""
"null","../img/tt/435tt.jpg","null","mooney2","image-keyboard-response","81","451834","0.0-6.0-5.10","2727286","co37687","norming","","","","","","",""
"2071.320000000007","","","post_reveal_questions","survey-likert","82","453907","0.0-6.0-6.10","2727286","co37687","norming","","","{""aha"":5}","[0]","../img/tt/435tt.jpg","",""
"null","<div style=""font-size:60px;""> </div>","null","fixation","html-keyboard-response","83","454115","0.0-6.0-0.11","2727286","co37687","norming","","","","","","",""
"null","../img/tt/1128tt.jpg","null","mooney1","image-keyboard-response","84","457118","0.0-6.0-1.11","2727286","co37687","norming","","","","","","",""
"8877.145000000019","","","post_mooney1_questions","survey-likert","85","465996","0.0-6.0-2.11","2727286","co37687","norming","","","{""curiosity"":5,""confidence"":0}","[0,1]","../img/tt/1128tt.jpg","",""
"997.9200000000419","","","recognition","survey-text","86","466995","0.0-6.0-3.11","2727286","co37687","norming","","","{""guess"":""""}","","../img/tt/1128tt.jpg","",""
"null","../img/gs/1128gs.jpg","null","reveal","image-keyboard-response","87","469000","0.0-6.0-4.11","2727286","co37687","norming","","","","","","",""
"null","../img/tt/1128tt.jpg","null","mooney2","image-keyboard-response","88","471011","0.0-6.0-5.11","2727286","co37687","norming","","","","","","",""
"2598.185000000056","","","post_reveal_questions","survey-likert","89","473611","0.0-6.0-6.11","2727286","co37687","norming","","","{""aha"":5}","[0]","../img/tt/1128tt.jpg","",""
"null","<div style=""font-size:60px;""> </div>","null","fixation","html-keyboard-response","90","473819","0.0-6.0-0.12","2727286","co37687","norming","","","","","","",""
"null","../img/tt/1127tt.jpg","null","mooney1","image-keyboard-response","91","476829","0.0-6.0-1.12","2727286","co37687","norming","","","","","","",""
"4835.8099999999395","","","post_mooney1_questions","survey-likert","92","481668","0.0-6.0-2.12","2727286","co37687","norming","","","{""curiosity"":5,""confidence"":1}","[0,1]","../img/tt/1127tt.jpg","",""
"7094.235000000044","","","recognition","survey-text","93","488808","0.0-6.0-3.12","2727286","co37687","norming","","","{""guess"":""café scene""}","","../img/tt/1127tt.jpg","",""
"null","../img/gs/1127gs.jpg","null","reveal","image-keyboard-response","94","490810","0.0-6.0-4.12","2727286","co37687","norming","","","","","","",""
"null","../img/tt/1127tt.jpg","null","mooney2","image-keyboard-response","95","492812","0.0-6.0-5.12","2727286","co37687","norming","","","","","","",""
"2994.030000000086","","","post_reveal_questions","survey-likert","96","495808","0.0-6.0-6.12","2727286","co37687","norming","","","{""aha"":1}","[0]","../img/tt/1127tt.jpg","",""
"null","<div style=""font-size:60px;""> </div>","null","fixation","html-keyboard-response","97","496018","0.0-6.0-0.13","2727286","co37687","norming","","","","","","",""
"null","../img/tt/1237tt.jpg","null","mooney1","image-keyboard-response","98","499028","0.0-6.0-1.13","2727286","co37687","norming","","","","","","",""
"3577.5299999999115","","","post_mooney1_questions","survey-likert","99","502609","0.0-6.0-2.13","2727286","co37687","norming","","","{""curiosity"":5,""confidence"":3}","[0,1]","../img/tt/1237tt.jpg","",""
"2638.210000000079","","","recognition","survey-text","100","505248","0.0-6.0-3.13","2727286","co37687","norming","","","{""guess"":""eend""}","","../img/tt/1237tt.jpg","",""
"null","../img/gs/1237gs.jpg","null","reveal","image-keyboard-response","101","507253","0.0-6.0-4.13","2727286","co37687","norming","","","","","","",""
"null","../img/tt/1237tt.jpg","null","mooney2","image-keyboard-response","102","509260","0.0-6.0-5.13","2727286","co37687","norming","","","","","","",""
"1906.3800000000047","","","post_reveal_questions","survey-likert","103","511168","0.0-6.0-6.13","2727286","co37687","norming","","","{""aha"":1}","[0]","../img/tt/1237tt.jpg","",""
"null","<div style=""font-size:60px;""> </div>","null","fixation","html-keyboard-response","104","511376","0.0-6.0-0.14","2727286","co37687","norming","","","","","","",""
"null","../img/tt/1260tt.jpg","null","mooney1","image-keyboard-response","105","514387","0.0-6.0-1.14","2727286","co37687","norming","","","","","","",""
"4243.540000000037","","","post_mooney1_questions","survey-likert","106","518633","0.0-6.0-2.14","2727286","co37687","norming","","","{""curiosity"":5,""confidence"":0}","[0,1]","../img/tt/1260tt.jpg","",""
"5678.084999999963","","","recognition","survey-text","107","524312","0.0-6.0-3.14","2727286","co37687","norming","","","{""guess"":""""}","","../img/tt/1260tt.jpg","",""
"null","../img/gs/1260gs.jpg","null","reveal","image-keyboard-response","108","526322","0.0-6.0-4.14","2727286","co37687","norming","","","","","","",""
"null","../img/tt/1260tt.jpg","null","mooney2","image-keyboard-response","109","528332","0.0-6.0-5.14","2727286","co37687","norming","","","","","","",""
"1802.579999999958","","","post_reveal_questions","survey-likert","110","530136","0.0-6.0-6.14","2727286","co37687","norming","","","{""aha"":5}","[0]","../img/tt/1260tt.jpg","",""
"null","<div style=""font-size:60px;""> </div>","null","fixation","html-keyboard-response","111","530344","0.0-6.0-0.15","2727286","co37687","norming","","","","","","",""
"null","../img/tt/497tt.jpg","null","mooney1","image-keyboard-response","112","533348","0.0-6.0-1.15","2727286","co37687","norming","","","","","","",""
"4114.52500000014","","","post_mooney1_questions","survey-likert","113","537465","0.0-6.0-2.15","2727286","co37687","norming","","","{""curiosity"":5,""confidence"":2}","[0,1]","../img/tt/497tt.jpg","",""
"2302.140000000014","","","recognition","survey-text","114","539768","0.0-6.0-3.15","2727286","co37687","norming","","","{""guess"":""stuur""}","","../img/tt/497tt.jpg","",""
"null","../img/gs/497gs.jpg","null","reveal","image-keyboard-response","115","541770","0.0-6.0-4.15","2727286","co37687","norming","","","","","","",""
"null","../img/tt/497tt.jpg","null","mooney2","image-keyboard-response","116","543772","0.0-6.0-5.15","2727286","co37687","norming","","","","","","",""
"1562.115000000107","","","post_reveal_questions","survey-likert","117","545336","0.0-6.0-6.15","2727286","co37687","norming","","","{""aha"":2}","[0]","../img/tt/497tt.jpg","",""
"null","<div style=""font-size:60px;""> </div>","null","fixation","html-keyboard-response","118","545543","0.0-6.0-0.16","2727286","co37687","norming","","","","","","",""
"null","../img/tt/124tt.jpg","null","mooney1","image-keyboard-response","119","548582","0.0-6.0-1.16","2727286","co37687","norming","","","","","","",""
"3068.7800000001444","","","post_mooney1_questions","survey-likert","120","551653","0.0-6.0-2.16","2727286","co37687","norming","","","{""curiosity"":5,""confidence"":4}","[0,1]","../img/tt/124tt.jpg","",""
"1974.2149999999674","","","recognition","survey-text","121","553629","0.0-6.0-3.16","2727286","co37687","norming","","","{""guess"":""aap""}","","../img/tt/124tt.jpg","",""
"null","../img/gs/124gs.jpg","null","reveal","image-keyboard-response","122","555630","0.0-6.0-4.16","2727286","co37687","norming","","","","","","",""
"null","../img/tt/124tt.jpg","null","mooney2","image-keyboard-response","123","557637","0.0-6.0-5.16","2727286","co37687","norming","","","","","","",""
"1645.530000000028","","","post_reveal_questions","survey-likert","124","559285","0.0-6.0-6.16","2727286","co37687","norming","","","{""aha"":1}","[0]","../img/tt/124tt.jpg","",""
"null","<div style=""font-size:60px;""> </div>","null","fixation","html-keyboard-response","125","559492","0.0-6.0-0.17","2727286","co37687","norming","","","","","","",""
"null","../img/tt/079tt.jpg","null","mooney1","image-keyboard-response","126","562494","0.0-6.0-1.17","2727286","co37687","norming","","","","","","",""
"2651.7399999998743","","","post_mooney1_questions","survey-likert","127","565149","0.0-6.0-2.17","2727286","co37687","norming","","","{""curiosity"":5,""confidence"":1}","[0,1]","../img/tt/079tt.jpg","",""
"3054.460000000079","","","recognition","survey-text","128","568205","0.0-6.0-3.17","2727286","co37687","norming","","","{""guess"":""beer""}","","../img/tt/079tt.jpg","",""
"null","../img/gs/079gs.jpg","null","reveal","image-keyboard-response","129","570206","0.0-6.0-4.17","2727286","co37687","norming","","","","","","",""
"null","../img/tt/079tt.jpg","null","mooney2","image-keyboard-response","130","572215","0.0-6.0-5.17","2727286","co37687","norming","","","","","","",""
"1723.7600000001257","","","post_reveal_questions","survey-likert","131","573941","0.0-6.0-6.17","2727286","co37687","norming","","","{""aha"":2}","[0]","../img/tt/079tt.jpg","",""
"null","<div style=""font-size:60px;""> </div>","null","fixation","html-keyboard-response","132","574146","0.0-6.0-0.18","2727286","co37687","norming","","","","","","",""
"null","../img/tt/559tt.jpg","null","mooney1","image-keyboard-response","133","577158","0.0-6.0-1.18","2727286","co37687","norming","","","","","","",""
"3398.355000000098","","","post_mooney1_questions","survey-likert","134","580557","0.0-6.0-2.18","2727286","co37687","norming","","","{""curiosity"":5,""confidence"":1}","[0,1]","../img/tt/559tt.jpg","",""
"3230.319999999949","","","recognition","survey-text","135","583789","0.0-6.0-3.18","2727286","co37687","norming","","","{""guess"":""computer""}","","../img/tt/559tt.jpg","",""
"null","../img/gs/559gs.jpg","null","reveal","image-keyboard-response","136","585791","0.0-6.0-4.18","2727286","co37687","norming","","","","","","",""
"null","../img/tt/559tt.jpg","null","mooney2","image-keyboard-response","137","587794","0.0-6.0-5.18","2727286","co37687","norming","","","","","","",""
"3585.094999999972","","","post_reveal_questions","survey-likert","138","591381","0.0-6.0-6.18","2727286","co37687","norming","","","{""aha"":4}","[0]","../img/tt/559tt.jpg","",""
"null","<div style=""font-size:60px;""> </div>","null","fixation","html-keyboard-response","139","591590","0.0-6.0-0.19","2727286","co37687","norming","","","","","","",""
"null","../img/tt/031tt.jpg","null","mooney1","image-keyboard-response","140","594593","0.0-6.0-1.19","2727286","co37687","norming","","","","","","",""
"2664.954999999958","","","post_mooney1_questions","survey-likert","141","597261","0.0-6.0-2.19","2727286","co37687","norming","","","{""curiosity"":5,""confidence"":1}","[0,1]","../img/tt/031tt.jpg","",""
"2574.310000000056","","","recognition","survey-text","142","599837","0.0-6.0-3.19","2727286","co37687","norming","","","{""guess"":""beer""}","","../img/tt/031tt.jpg","",""
"null","../img/gs/031gs.jpg","null","reveal","image-keyboard-response","143","601840","0.0-6.0-4.19","2727286","co37687","norming","","","","","","",""
"null","../img/tt/031tt.jpg","null","mooney2","image-keyboard-response","144","603841","0.0-6.0-5.19","2727286","co37687","norming","","","","","","",""
"2049.3300000000745","","","post_reveal_questions","survey-likert","145","605893","0.0-6.0-6.19","2727286","co37687","norming","","","{""aha"":2}","[0]","../img/tt/031tt.jpg","",""
"null","<div style=""font-size:60px;""> </div>","null","fixation","html-keyboard-response","146","606103","0.0-6.0-0.20","2727286","co37687","norming","","","","","","",""
"null","../img/tt/053tt.jpg","null","mooney1","image-keyboard-response","147","609111","0.0-6.0-1.20","2727286","co37687","norming","","","","","","",""
"3508.4499999999534","","","post_mooney1_questions","survey-likert","148","612621","0.0-6.0-2.20","2727286","co37687","norming","","","{""curiosity"":5,""confidence"":0}","[0,1]","../img/tt/053tt.jpg","",""
"1902.2150000000838","","","recognition","survey-text","149","614525","0.0-6.0-3.20","2727286","co37687","norming","","","{""guess"":""""}","","../img/tt/053tt.jpg","",""
"null","../img/gs/053gs.jpg","null","reveal","image-keyboard-response","150","616527","0.0-6.0-4.20","2727286","co37687","norming","","","","","","",""
"null","../img/tt/053tt.jpg","null","mooney2","image-keyboard-response","151","618529","0.0-6.0-5.20","2727286","co37687","norming","","","","","","",""
"2433.730000000098","","","post_reveal_questions","survey-likert","152","620965","0.0-6.0-6.20","2727286","co37687","norming","","","{""aha"":6}","[0]","../img/tt/053tt.jpg","",""
"null","<div style=""font-size:60px;""> </div>","null","fixation","html-keyboard-response","153","621168","0.0-6.0-0.21","2727286","co37687","norming","","","","","","",""
"null","../img/tt/1268tt.jpg","null","mooney1","image-keyboard-response","154","624172","0.0-6.0-1.21","2727286","co37687","norming","","","","","","",""
"7294.260000000009","","","post_mooney1_questions","survey-likert","155","631469","0.0-6.0-2.21","2727286","co37687","norming","","","{""curiosity"":5,""confidence"":1}","[0,1]","../img/tt/1268tt.jpg","",""
"14821.994999999995","","","recognition","survey-text","156","646292","0.0-6.0-3.21","2727286","co37687","norming","","","{""guess"":""""}","","../img/tt/1268tt.jpg","",""
"null","../img/gs/1268gs.jpg","null","reveal","image-keyboard-response","157","648298","0.0-6.0-4.21","2727286","co37687","norming","","","","","","",""
"null","../img/tt/1268tt.jpg","null","mooney2","image-keyboard-response","158","650300","0.0-6.0-5.21","2727286","co37687","norming","","","","","","",""
"2614.0950000000885","","","post_reveal_questions","survey-likert","159","652917","0.0-6.0-6.21","2727286","co37687","norming","","","{""aha"":5}","[0]","../img/tt/1268tt.jpg","",""
"null","<div style=""font-size:60px;""> </div>","null","fixation","html-keyboard-response","160","653123","0.0-6.0-0.22","2727286","co37687","norming","","","","","","",""
"null","../img/tt/599tt.jpg","null","mooney1","image-keyboard-response","161","656126","0.0-6.0-1.22","2727286","co37687","norming","","","","","","",""
"4252.2050000000745","","","post_mooney1_questions","survey-likert","162","660381","0.0-6.0-2.22","2727286","co37687","norming","","","{""curiosity"":5,""confidence"":2}","[0,1]","../img/tt/599tt.jpg","",""
"2158.189999999944","","","recognition","survey-text","163","662541","0.0-6.0-3.22","2727286","co37687","norming","","","{""guess"":""uil""}","","../img/tt/599tt.jpg","",""
"null","../img/gs/599gs.jpg","null","reveal","image-keyboard-response","164","664543","0.0-6.0-4.22","2727286","co37687","norming","","","","","","",""
"null","../img/tt/599tt.jpg","null","mooney2","image-keyboard-response","165","666545","0.0-6.0-5.22","2727286","co37687","norming","","","","","","",""
"1297.1600000000326","","","post_reveal_questions","survey-likert","166","667845","0.0-6.0-6.22","2727286","co37687","norming","","","{""aha"":2}","[0]","../img/tt/599tt.jpg","",""
"null","<div style=""font-size:60px;""> </div>","null","fixation","html-keyboard-response","167","668047","0.0-6.0-0.23","2727286","co37687","norming","","","","","","",""
"null","../img/tt/1125tt.jpg","null","mooney1","image-keyboard-response","168","671058","0.0-6.0-1.23","2727286","co37687","norming","","","","","","",""
"3711.085000000079","","","post_mooney1_questions","survey-likert","169","674772","0.0-6.0-2.23","2727286","co37687","norming","","","{""curiosity"":5,""confidence"":1}","[0,1]","../img/tt/1125tt.jpg","",""
"1118.3149999999441","","","recognition","survey-text","170","675892","0.0-6.0-3.23","2727286","co37687","norming","","","{""guess"":""""}","","../img/tt/1125tt.jpg","",""
"null","../img/gs/1125gs.jpg","null","reveal","image-keyboard-response","171","677898","0.0-6.0-4.23","2727286","co37687","norming","","","","","","",""
"null","../img/tt/1125tt.jpg","null","mooney2","image-keyboard-response","172","679900","0.0-6.0-5.23","2727286","co37687","norming","","","","","","",""
"1774.094999999972","","","post_reveal_questions","survey-likert","173","681677","0.0-6.0-6.23","2727286","co37687","norming","","","{""aha"":1}","[0]","../img/tt/1125tt.jpg","",""
"null","<div style=""font-size:60px;""> </div>","null","fixation","html-keyboard-response","174","681883","0.0-6.0-0.24","2727286","co37687","norming","","","","","","",""
"null","../img/tt/1200tt.jpg","null","mooney1","image-keyboard-response","175","684890","0.0-6.0-1.24","2727286","co37687","norming","","","","","","",""
"3655.4100000000326","","","post_mooney1_questions","survey-likert","176","688549","0.0-6.0-2.24","2727286","co37687","norming","","","{""curiosity"":5,""confidence"":1}","[0,1]","../img/tt/1200tt.jpg","",""
"2661.7850000000326","","","recognition","survey-text","177","691212","0.0-6.0-3.24","2727286","co37687","norming","","","{""guess"":""auto""}","","../img/tt/1200tt.jpg","",""
"null","../img/gs/1200gs.jpg","null","reveal","image-keyboard-response","178","693221","0.0-6.0-4.24","2727286","co37687","norming","","","","","","",""
"null","../img/tt/1200tt.jpg","null","mooney2","image-keyboard-response","179","695230","0.0-6.0-5.24","2727286","co37687","norming","","","","","","",""
"1653.2700000000186","","","post_reveal_questions","survey-likert","180","696884","0.0-6.0-6.24","2727286","co37687","norming","","","{""aha"":5}","[0]","../img/tt/1200tt.jpg","",""
"null","<div style=""font-size:60px;""> </div>","null","fixation","html-keyboard-response","181","697091","0.0-6.0-0.25","2727286","co37687","norming","","","","","","",""
"null","../img/tt/1202tt.jpg","null","mooney1","image-keyboard-response","182","700097","0.0-6.0-1.25","2727286","co37687","norming","","","","","","",""
"4800.415000000037","","","post_mooney1_questions","survey-likert","183","704901","0.0-6.0-2.25","2727286","co37687","norming","","","{""curiosity"":5,""confidence"":1}","[0,1]","../img/tt/1202tt.jpg","",""
"1198.0749999999534","","","recognition","survey-text","184","706100","0.0-6.0-3.25","2727286","co37687","norming","","","{""guess"":""""}","","../img/tt/1202tt.jpg","",""
"null","../img/gs/1202gs.jpg","null","reveal","image-keyboard-response","185","708102","0.0-6.0-4.25","2727286","co37687","norming","","","","","","",""
"null","../img/tt/1202tt.jpg","null","mooney2","image-keyboard-response","186","710110","0.0-6.0-5.25","2727286","co37687","norming","","","","","","",""
"3707.7249999999767","","","post_reveal_questions","survey-likert","187","713820","0.0-6.0-6.25","2727286","co37687","norming","","","{""aha"":4}","[0]","../img/tt/1202tt.jpg","",""
"null","<div style=""font-size:60px;""> </div>","null","fixation","html-keyboard-response","188","714030","0.0-6.0-0.26","2727286","co37687","norming","","","","","","",""
"null","../img/tt/273tt.jpg","null","mooney1","image-keyboard-response","189","717034","0.0-6.0-1.26","2727286","co37687","norming","","","","","","",""
"3071.804999999935","","","post_mooney1_questions","survey-likert","190","720108","0.0-6.0-2.26","2727286","co37687","norming","","","{""curiosity"":5,""confidence"":1}","[0,1]","../img/tt/273tt.jpg","",""
"2982.0500000000466","","","recognition","survey-text","191","723092","0.0-6.0-3.26","2727286","co37687","norming","","","{""guess"":""""}","","../img/tt/273tt.jpg","",""
"null","../img/gs/273gs.jpg","null","reveal","image-keyboard-response","192","725094","0.0-6.0-4.26","2727286","co37687","norming","","","","","","",""
"null","../img/tt/273tt.jpg","null","mooney2","image-keyboard-response","193","727097","0.0-6.0-5.26","2727286","co37687","norming","","","","","","",""
"1824.8499999999767","","","post_reveal_questions","survey-likert","194","728924","0.0-6.0-6.26","2727286","co37687","norming","","","{""aha"":5}","[0]","../img/tt/273tt.jpg","",""
"null","<div style=""font-size:60px;""> </div>","null","fixation","html-keyboard-response","195","729129","0.0-6.0-0.27","2727286","co37687","norming","","","","","","",""
"null","../img/tt/1122tt.jpg","null","mooney1","image-keyboard-response","196","732133","0.0-6.0-1.27","2727286","co37687","norming","","","","","","",""
"2629.524999999907","","","post_mooney1_questions","survey-likert","197","734765","0.0-6.0-2.27","2727286","co37687","norming","","","{""curiosity"":5,""confidence"":1}","[0,1]","../img/tt/1122tt.jpg","",""
"3646.219999999972","","","recognition","survey-text","198","738413","0.0-6.0-3.27","2727286","co37687","norming","","","{""guess"":""aula""}","","../img/tt/1122tt.jpg","",""
"null","../img/gs/1122gs.jpg","null","reveal","image-keyboard-response","199","740422","0.0-6.0-4.27","2727286","co37687","norming","","","","","","",""
"null","../img/tt/1122tt.jpg","null","mooney2","image-keyboard-response","200","742433","0.0-6.0-5.27","2727286","co37687","norming","","","","","","",""
"2297.2099999999627","","","post_reveal_questions","survey-likert","201","744733","0.0-6.0-6.27","2727286","co37687","norming","","","{""aha"":5}","[0]","../img/tt/1122tt.jpg","",""
"null","<div style=""font-size:60px;""> </div>","null","fixation","html-keyboard-response","202","744938","0.0-6.0-0.28","2727286","co37687","norming","","","","","","",""
"null","../img/tt/085tt.jpg","null","mooney1","image-keyboard-response","203","747945","0.0-6.0-1.28","2727286","co37687","norming","","","","","","",""
"3473.1700000001583","","","post_mooney1_questions","survey-likert","204","751421","0.0-6.0-2.28","2727286","co37687","norming","","","{""curiosity"":5,""confidence"":1}","[0,1]","../img/tt/085tt.jpg","",""
"2558.0100000000093","","","recognition","survey-text","205","753980","0.0-6.0-3.28","2727286","co37687","norming","","","{""guess"":""insect""}","","../img/tt/085tt.jpg","",""
"null","../img/gs/085gs.jpg","null","reveal","image-keyboard-response","206","755987","0.0-6.0-4.28","2727286","co37687","norming","","","","","","",""
"null","../img/tt/085tt.jpg","null","mooney2","image-keyboard-response","207","757989","0.0-6.0-5.28","2727286","co37687","norming","","","","","","",""
"3021.0899999999674","","","post_reveal_questions","survey-likert","208","761013","0.0-6.0-6.28","2727286","co37687","norming","","","{""aha"":1}","[0]","../img/tt/085tt.jpg","",""
"null","<div style=""font-size:60px;""> </div>","null","fixation","html-keyboard-response","209","761220","0.0-6.0-0.29","2727286","co37687","norming","","","","","","",""
"null","../img/tt/1078tt.jpg","null","mooney1","image-keyboard-response","210","764228","0.0-6.0-1.29","2727286","co37687","norming","","","","","","",""
"3125.9200000001583","","","post_mooney1_questions","survey-likert","211","767357","0.0-6.0-2.29","2727286","co37687","norming","","","{""curiosity"":5,""confidence"":2}","[0,1]","../img/tt/1078tt.jpg","",""
"2806.0500000000466","","","recognition","survey-text","212","770164","0.0-6.0-3.29","2727286","co37687","norming","","","{""guess"":""skater""}","","../img/tt/1078tt.jpg","",""
"null","../img/gs/1078gs.jpg","null","reveal","image-keyboard-response","213","772166","0.0-6.0-4.29","2727286","co37687","norming","","","","","","",""
"null","../img/tt/1078tt.jpg","null","mooney2","image-keyboard-response","214","774177","0.0-6.0-5.29","2727286","co37687","norming","","","","","","",""
"1945.5200000000186","","","post_reveal_questions","survey-likert","215","776125","0.0-6.0-6.29","2727286","co37687","norming","","","{""aha"":1}","[0]","../img/tt/1078tt.jpg","",""
"null","<div style=""font-size:60px;""> </div>","null","fixation","html-keyboard-response","216","776328","0.0-6.0-0.30","2727286","co37687","norming","","","","","","",""
"null","../img/tt/1084tt.jpg","null","mooney1","image-keyboard-response","217","779340","0.0-6.0-1.30","2727286","co37687","norming","","","","","","",""
"3341.8850000001257","","","post_mooney1_questions","survey-likert","218","782685","0.0-6.0-2.30","2727286","co37687","norming","","","{""curiosity"":5,""confidence"":1}","[0,1]","../img/tt/1084tt.jpg","",""
"1886.469999999972","","","recognition","survey-text","219","784573","0.0-6.0-3.30","2727286","co37687","norming","","","{""guess"":""kat""}","","../img/tt/1084tt.jpg","",""
"null","../img/gs/1084gs.jpg","null","reveal","image-keyboard-response","220","786578","0.0-6.0-4.30","2727286","co37687","norming","","","","","","",""
"null","../img/tt/1084tt.jpg","null","mooney2","image-keyboard-response","221","788584","0.0-6.0-5.30","2727286","co37687","norming","","","","","","",""
"2978.375","","","post_reveal_questions","survey-likert","222","791565","0.0-6.0-6.30","2727286","co37687","norming","","","{""aha"":5}","[0]","../img/tt/1084tt.jpg","",""
"null","<div style=""font-size:60px;""> </div>","null","fixation","html-keyboard-response","223","791766","0.0-6.0-0.31","2727286","co37687","norming","","","","","","",""
"null","../img/tt/1004tt.jpg","null","mooney1","image-keyboard-response","224","794770","0.0-6.0-1.31","2727286","co37687","norming","","","","","","",""
"3535.890000000014","","","post_mooney1_questions","survey-likert","225","798308","0.0-6.0-2.31","2727286","co37687","norming","","","{""curiosity"":5,""confidence"":1}","[0,1]","../img/tt/1004tt.jpg","",""
"1654.3399999999674","","","recognition","survey-text","226","799964","0.0-6.0-3.31","2727286","co37687","norming","","","{""guess"":""hert""}","","../img/tt/1004tt.jpg","",""
"null","../img/gs/1004gs.jpg","null","reveal","image-keyboard-response","227","801965","0.0-6.0-4.31","2727286","co37687","norming","","","","","","",""
"null","../img/tt/1004tt.jpg","null","mooney2","image-keyboard-response","228","803968","0.0-6.0-5.31","2727286","co37687","norming","","","","","","",""
"2369.7200000000885","","","post_reveal_questions","survey-likert","229","806340","0.0-6.0-6.31","2727286","co37687","norming","","","{""aha"":4}","[0]","../img/tt/1004tt.jpg","",""
"null","<div style=""font-size:60px;""> </div>","null","fixation","html-keyboard-response","230","806546","0.0-6.0-0.32","2727286","co37687","norming","","","","","","",""
"null","../img/tt/358tt.jpg","null","mooney1","image-keyboard-response","231","809551","0.0-6.0-1.32","2727286","co37687","norming","","","","","","",""
"3650.375","","","post_mooney1_questions","survey-likert","232","813204","0.0-6.0-2.32","2727286","co37687","norming","","","{""curiosity"":5,""confidence"":1}","[0,1]","../img/tt/358tt.jpg","",""
"2326.329999999958","","","recognition","survey-text","233","815532","0.0-6.0-3.32","2727286","co37687","norming","","","{""guess"":""hond""}","","../img/tt/358tt.jpg","",""
"null","../img/gs/358gs.jpg","null","reveal","image-keyboard-response","234","817539","0.0-6.0-4.32","2727286","co37687","norming","","","","","","",""
"null","../img/tt/358tt.jpg","null","mooney2","image-keyboard-response","235","819541","0.0-6.0-5.32","2727286","co37687","norming","","","","","","",""
"1460.5999999999767","","","post_reveal_questions","survey-likert","236","821004","0.0-6.0-6.32","2727286","co37687","norming","","","{""aha"":3}","[0]","../img/tt/358tt.jpg","",""
"null","<div style=""font-size:60px;""> </div>","null","fixation","html-keyboard-response","237","821211","0.0-6.0-0.33","2727286","co37687","norming","","","","","","",""
"null","../img/tt/567tt.jpg","null","mooney1","image-keyboard-response","238","824222","0.0-6.0-1.33","2727286","co37687","norming","","","","","","",""
"4331.604999999981","","","post_mooney1_questions","survey-likert","239","828556","0.0-6.0-2.33","2727286","co37687","norming","","","{""curiosity"":5,""confidence"":0}","[0,1]","../img/tt/567tt.jpg","",""
"718.0850000000792","","","recognition","survey-text","240","829276","0.0-6.0-3.33","2727286","co37687","norming","","","{""guess"":""""}","","../img/tt/567tt.jpg","",""
"null","../img/gs/567gs.jpg","null","reveal","image-keyboard-response","241","831277","0.0-6.0-4.33","2727286","co37687","norming","","","","","","",""
"null","../img/tt/567tt.jpg","null","mooney2","image-keyboard-response","242","833278","0.0-6.0-5.33","2727286","co37687","norming","","","","","","",""
"1485.1650000000373","","","post_reveal_questions","survey-likert","243","834764","0.0-6.0-6.33","2727286","co37687","norming","","","{""aha"":4}","[0]","../img/tt/567tt.jpg","",""
"null","<div style=""font-size:60px;""> </div>","null","fixation","html-keyboard-response","244","834967","0.0-6.0-0.34","2727286","co37687","norming","","","","","","",""
"null","../img/tt/580tt.jpg","null","mooney1","image-keyboard-response","245","837970","0.0-6.0-1.34","2727286","co37687","norming","","","","","","",""
"3376.0050000000047","","","post_mooney1_questions","survey-likert","246","841348","0.0-6.0-2.34","2727286","co37687","norming","","","{""curiosity"":5,""confidence"":1}","[0,1]","../img/tt/580tt.jpg","",""
"4694.07500000007","","","recognition","survey-text","247","846044","0.0-6.0-3.34","2727286","co37687","norming","","","{""guess"":""bloem""}","","../img/tt/580tt.jpg","",""
"null","../img/gs/580gs.jpg","null","reveal","image-keyboard-response","248","848051","0.0-6.0-4.34","2727286","co37687","norming","","","","","","",""
"null","../img/tt/580tt.jpg","null","mooney2","image-keyboard-response","249","850054","0.0-6.0-5.34","2727286","co37687","norming","","","","","","",""
"2236.3649999999907","","","post_reveal_questions","survey-likert","250","852292","0.0-6.0-6.34","2727286","co37687","norming","","","{""aha"":2}","[0]","../img/tt/580tt.jpg","",""
"null","<div style=""font-size:60px;""> </div>","null","fixation","html-keyboard-response","251","852501","0.0-6.0-0.35","2727286","co37687","norming","","","","","","",""
"null","../img/tt/118tt.jpg","null","mooney1","image-keyboard-response","252","855506","0.0-6.0-1.35","2727286","co37687","norming","","","","","","",""
"14655.084999999963","","","post_mooney1_questions","survey-likert","253","870164","0.0-6.0-2.35","2727286","co37687","norming","","","{""curiosity"":5,""confidence"":1}","[0,1]","../img/tt/118tt.jpg","",""
"2150.284999999916","","","recognition","survey-text","254","872316","0.0-6.0-3.35","2727286","co37687","norming","","","{""guess"":""skelet""}","","../img/tt/118tt.jpg","",""
"null","../img/gs/118gs.jpg","null","reveal","image-keyboard-response","255","874317","0.0-6.0-4.35","2727286","co37687","norming","","","","","","",""
"null","../img/tt/118tt.jpg","null","mooney2","image-keyboard-response","256","876324","0.0-6.0-5.35","2727286","co37687","norming","","","","","","",""
"1983.2449999999953","","","post_reveal_questions","survey-likert","257","878308","0.0-6.0-6.35","2727286","co37687","norming","","","{""aha"":5}","[0]","../img/tt/118tt.jpg","",""
"null","<div style=""font-size:60px;""> </div>","null","fixation","html-keyboard-response","258","878517","0.0-6.0-0.36","2727286","co37687","norming","","","","","","",""
"null","../img/tt/091tt.jpg","null","mooney1","image-keyboard-response","259","881520","0.0-6.0-1.36","2727286","co37687","norming","","","","","","",""
"3041.414999999921","","","post_mooney1_questions","survey-likert","260","884564","0.0-6.0-2.36","2727286","co37687","norming","","","{""curiosity"":5,""confidence"":1}","[0,1]","../img/tt/091tt.jpg","",""
"3078.240000000107","","","recognition","survey-text","261","887644","0.0-6.0-3.36","2727286","co37687","norming","","","{""guess"":""hond""}","","../img/tt/091tt.jpg","",""
"null","../img/gs/091gs.jpg","null","reveal","image-keyboard-response","262","889651","0.0-6.0-4.36","2727286","co37687","norming","","","","","","",""
"null","../img/tt/091tt.jpg","null","mooney2","image-keyboard-response","263","891658","0.0-6.0-5.36","2727286","co37687","norming","","","","","","",""
"2767.344999999972","","","post_reveal_questions","survey-likert","264","894428","0.0-6.0-6.36","2727286","co37687","norming","","","{""aha"":4}","[0]","../img/tt/091tt.jpg","",""
"null","<div style=""font-size:60px;""> </div>","null","fixation","html-keyboard-response","265","894638","0.0-6.0-0.37","2727286","co37687","norming","","","","","","",""
"null","../img/tt/1254tt.jpg","null","mooney1","image-keyboard-response","266","897641","0.0-6.0-1.37","2727286","co37687","norming","","","","","","",""
"3384.3850000000093","","","post_mooney1_questions","survey-likert","267","901028","0.0-6.0-2.37","2727286","co37687","norming","","","{""curiosity"":5,""confidence"":2}","[0,1]","../img/tt/1254tt.jpg","",""
"4325.969999999972","","","recognition","survey-text","268","905356","0.0-6.0-3.37","2727286","co37687","norming","","","{""guess"":""konijn""}","","../img/tt/1254tt.jpg","",""
"null","../img/gs/1254gs.jpg","null","reveal","image-keyboard-response","269","907358","0.0-6.0-4.37","2727286","co37687","norming","","","","","","",""
"null","../img/tt/1254tt.jpg","null","mooney2","image-keyboard-response","270","909361","0.0-6.0-5.37","2727286","co37687","norming","","","","","","",""
"9233.545000000042","","","post_reveal_questions","survey-likert","271","918587","0.0-6.0-6.37","2727286","co37687","norming","","","{""aha"":2}","[0]","../img/tt/1254tt.jpg","",""
"null","<div style=""font-size:60px;""> </div>","null","fixation","html-keyboard-response","272","918792","0.0-6.0-0.38","2727286","co37687","norming","","","","","","",""
"null","../img/tt/1072tt.jpg","null","mooney1","image-keyboard-response","273","921799","0.0-6.0-1.38","2727286","co37687","norming","","","","","","",""
"2778.460000000079","","","post_mooney1_questions","survey-likert","274","924579","0.0-6.0-2.38","2727286","co37687","norming","","","{""curiosity"":5,""confidence"":1}","[0,1]","../img/tt/1072tt.jpg","",""
"4414.030000000144","","","recognition","survey-text","275","928995","0.0-6.0-3.38","2727286","co37687","norming","","","{""guess"":""keuken""}","","../img/tt/1072tt.jpg","",""
"null","../img/gs/1072gs.jpg","null","reveal","image-keyboard-response","276","930996","0.0-6.0-4.38","2727286","co37687","norming","","","","","","",""
"null","../img/tt/1072tt.jpg","null","mooney2","image-keyboard-response","277","932998","0.0-6.0-5.38","2727286","co37687","norming","","","","","","",""
"1923.3999999999069","","","post_reveal_questions","survey-likert","278","934923","0.0-6.0-6.38","2727286","co37687","norming","","","{""aha"":5}","[0]","../img/tt/1072tt.jpg","",""
"null","<div style=""font-size:60px;""> </div>","null","fixation","html-keyboard-response","279","935124","0.0-6.0-0.39","2727286","co37687","norming","","","","","","",""
"null","../img/tt/1049tt.jpg","null","mooney1","image-keyboard-response","280","938126","0.0-6.0-1.39","2727286","co37687","norming","","","","","","",""
"3499.4299999998184","","","post_mooney1_questions","survey-likert","281","941627","0.0-6.0-2.39","2727286","co37687","norming","","","{""curiosity"":5,""confidence"":3}","[0,1]","../img/tt/1049tt.jpg","",""
"2294.0149999998976","","","recognition","survey-text","282","943923","0.0-6.0-3.39","2727286","co37687","norming","","","{""guess"":""hond""}","","../img/tt/1049tt.jpg","",""
"null","../img/gs/1049gs.jpg","null","reveal","image-keyboard-response","283","945931","0.0-6.0-4.39","2727286","co37687","norming","","","","","","",""
"null","../img/tt/1049tt.jpg","null","mooney2","image-keyboard-response","284","947935","0.0-6.0-5.39","2727286","co37687","norming","","","","","","",""
"1738.654999999795","","","post_reveal_questions","survey-likert","285","949675","0.0-6.0-6.39","2727286","co37687","norming","","","{""aha"":3}","[0]","../img/tt/1049tt.jpg","",""
"null","<div style=""font-size:60px;""> </div>","null","fixation","html-keyboard-response","286","949882","0.0-6.0-0.40","2727286","co37687","norming","","","","","","",""
"null","../img/tt/329tt.jpg","null","mooney1","image-keyboard-response","287","952887","0.0-6.0-1.40","2727286","co37687","norming","","","","","","",""
"4082.9749999999767","","","post_mooney1_questions","survey-likert","288","956971","0.0-6.0-2.40","2727286","co37687","norming","","","{""curiosity"":5,""confidence"":1}","[0,1]","../img/tt/329tt.jpg","",""
"1909.8900000001304","","","recognition","survey-text","289","958883","0.0-6.0-3.40","2727286","co37687","norming","","","{""guess"":""hond""}","","../img/tt/329tt.jpg","",""
"null","../img/gs/329gs.jpg","null","reveal","image-keyboard-response","290","960891","0.0-6.0-4.40","2727286","co37687","norming","","","","","","",""
"null","../img/tt/329tt.jpg","null","mooney2","image-keyboard-response","291","962895","0.0-6.0-5.40","2727286","co37687","norming","","","","","","",""
"2145.1949999998324","","","post_reveal_questions","survey-likert","292","965043","0.0-6.0-6.40","2727286","co37687","norming","","","{""aha"":2}","[0]","../img/tt/329tt.jpg","",""
"null","<div style=""font-size:60px;""> </div>","null","fixation","html-keyboard-response","293","965251","0.0-6.0-0.41","2727286","co37687","norming","","","","","","",""
"null","../img/tt/1283tt.jpg","null","mooney1","image-keyboard-response","294","968252","0.0-6.0-1.41","2727286","co37687","norming","","","","","","",""
"6124.039999999921","","","post_mooney1_questions","survey-likert","295","974379","0.0-6.0-2.41","2727286","co37687","norming","","","{""curiosity"":5,""confidence"":1}","[0,1]","../img/tt/1283tt.jpg","",""
"2533.8799999998882","","","recognition","survey-text","296","976919","0.0-6.0-3.41","2727286","co37687","norming","","","{""guess"":""aap""}","","../img/tt/1283tt.jpg","",""
"null","../img/gs/1283gs.jpg","null","reveal","image-keyboard-response","297","978927","0.0-6.0-4.41","2727286","co37687","norming","","","","","","",""
"null","../img/tt/1283tt.jpg","null","mooney2","image-keyboard-response","298","980929","0.0-6.0-5.41","2727286","co37687","norming","","","","","","",""
"3803.020000000135","","","post_reveal_questions","survey-likert","299","984735","0.0-6.0-6.41","2727286","co37687","norming","","","{""aha"":4}","[0]","../img/tt/1283tt.jpg","",""
"null","<div style=""font-size:60px;""> </div>","null","fixation","html-keyboard-response","300","984941","0.0-6.0-0.42","2727286","co37687","norming","","","","","","",""
"null","../img/tt/442tt.jpg","null","mooney1","image-keyboard-response","301","987949","0.0-6.0-1.42","2727286","co37687","norming","","","","","","",""
"3655.145000000135","","","post_mooney1_questions","survey-likert","302","991607","0.0-6.0-2.42","2727286","co37687","norming","","","{""curiosity"":6,""confidence"":0}","[0,1]","../img/tt/442tt.jpg","",""
"693.9799999999814","","","recognition","survey-text","303","992303","0.0-6.0-3.42","2727286","co37687","norming","","","{""guess"":""""}","","../img/tt/442tt.jpg","",""
"null","../img/gs/442gs.jpg","null","reveal","image-keyboard-response","304","994312","0.0-6.0-4.42","2727286","co37687","norming","","","","","","",""
"null","../img/tt/442tt.jpg","null","mooney2","image-keyboard-response","305","996314","0.0-6.0-5.42","2727286","co37687","norming","","","","","","",""
"3888.4100000000326","","","post_reveal_questions","survey-likert","306","1000207","0.0-6.0-6.42","2727286","co37687","norming","","","{""aha"":2}","[0]","../img/tt/442tt.jpg","",""
"null","<div style=""font-size:60px;""> </div>","null","fixation","html-keyboard-response","307","1000413","0.0-6.0-0.43","2727286","co37687","norming","","","","","","",""
"null","../img/tt/1040tt.jpg","null","mooney1","image-keyboard-response","308","1003417","0.0-6.0-1.43","2727286","co37687","norming","","","","","","",""
"4378.994999999995","","","post_mooney1_questions","survey-likert","309","1007799","0.0-6.0-2.43","2727286","co37687","norming","","","{""curiosity"":5,""confidence"":1}","[0,1]","../img/tt/1040tt.jpg","",""
"3774.180000000051","","","recognition","survey-text","310","1011575","0.0-6.0-3.43","2727286","co37687","norming","","","{""guess"":""theater""}","","../img/tt/1040tt.jpg","",""
"null","../img/gs/1040gs.jpg","null","reveal","image-keyboard-response","311","1013582","0.0-6.0-4.43","2727286","co37687","norming","","","","","","",""
"null","../img/tt/1040tt.jpg","null","mooney2","image-keyboard-response","312","1015584","0.0-6.0-5.43","2727286","co37687","norming","","","","","","",""
"2036.6899999999441","","","post_reveal_questions","survey-likert","313","1017623","0.0-6.0-6.43","2727286","co37687","norming","","","{""aha"":4}","[0]","../img/tt/1040tt.jpg","",""
"null","<div style=""font-size:60px;""> </div>","null","fixation","html-keyboard-response","314","1017829","0.0-6.0-0.44","2727286","co37687","norming","","","","","","",""
"null","../img/tt/135tt.jpg","null","mooney1","image-keyboard-response","315","1020835","0.0-6.0-1.44","2727286","co37687","norming","","","","","","",""
"2656.355000000098","","","post_mooney1_questions","survey-likert","316","1023495","0.0-6.0-2.44","2727286","co37687","norming","","","{""curiosity"":5,""confidence"":3}","[0,1]","../img/tt/135tt.jpg","",""
"1854.0999999999767","","","recognition","survey-text","317","1025351","0.0-6.0-3.44","2727286","co37687","norming","","","{""guess"":""wc""}","","../img/tt/135tt.jpg","",""
"null","../img/gs/135gs.jpg","null","reveal","image-keyboard-response","318","1027363","0.0-6.0-4.44","2727286","co37687","norming","","","","","","",""
"null","../img/tt/135tt.jpg","null","mooney2","image-keyboard-response","319","1029367","0.0-6.0-5.44","2727286","co37687","norming","","","","","","",""
"1885.3499999999767","","","post_reveal_questions","survey-likert","320","1031255","0.0-6.0-6.44","2727286","co37687","norming","","","{""aha"":1}","[0]","../img/tt/135tt.jpg","",""
"null","<div style=""font-size:60px;""> </div>","null","fixation","html-keyboard-response","321","1031465","0.0-6.0-0.45","2727286","co37687","norming","","","","","","",""
"null","../img/tt/1156tt.jpg","null","mooney1","image-keyboard-response","322","1034470","0.0-6.0-1.45","2727286","co37687","norming","","","","","","",""
"3629.439999999944","","","post_mooney1_questions","survey-likert","323","1038110","0.0-6.0-2.45","2727286","co37687","norming","","","{""curiosity"":5,""confidence"":2}","[0,1]","../img/tt/1156tt.jpg","",""
"2621.810000000056","","","recognition","survey-text","324","1040733","0.0-6.0-3.45","2727286","co37687","norming","","","{""guess"":""zwemmer""}","","../img/tt/1156tt.jpg","",""
"null","../img/gs/1156gs.jpg","null","reveal","image-keyboard-response","325","1042739","0.0-6.0-4.45","2727286","co37687","norming","","","","","","",""
"null","../img/tt/1156tt.jpg","null","mooney2","image-keyboard-response","326","1044741","0.0-6.0-5.45","2727286","co37687","norming","","","","","","",""
"1813.3350000000792","","","post_reveal_questions","survey-likert","327","1046557","0.0-6.0-6.45","2727286","co37687","norming","","","{""aha"":1}","[0]","../img/tt/1156tt.jpg","",""
"null","<div style=""font-size:60px;""> </div>","null","fixation","html-keyboard-response","328","1046760","0.0-6.0-0.46","2727286","co37687","norming","","","","","","",""
"null","../img/tt/1006tt.jpg","null","mooney1","image-keyboard-response","329","1049770","0.0-6.0-1.46","2727286","co37687","norming","","","","","","",""
"2809.429999999935","","","post_mooney1_questions","survey-likert","330","1052582","0.0-6.0-2.46","2727286","co37687","norming","","","{""curiosity"":5,""confidence"":1}","[0,1]","../img/tt/1006tt.jpg","",""
"2565.935000000056","","","recognition","survey-text","331","1055150","0.0-6.0-3.46","2727286","co37687","norming","","","{""guess"":""geit""}","","../img/tt/1006tt.jpg","",""
"null","../img/gs/1006gs.jpg","null","reveal","image-keyboard-response","332","1057154","0.0-6.0-4.46","2727286","co37687","norming","","","","","","",""
"null","../img/tt/1006tt.jpg","null","mooney2","image-keyboard-response","333","1059161","0.0-6.0-5.46","2727286","co37687","norming","","","","","","",""
"2689.5750000001863","","","post_reveal_questions","survey-likert","334","1061854","0.0-6.0-6.46","2727286","co37687","norming","","","{""aha"":3}","[0]","../img/tt/1006tt.jpg","",""
"null","<div style=""font-size:60px;""> </div>","null","fixation","html-keyboard-response","335","1062062","0.0-6.0-0.47","2727286","co37687","norming","","","","","","",""
"null","../img/tt/010tt.jpg","null","mooney1","image-keyboard-response","336","1065070","0.0-6.0-1.47","2727286","co37687","norming","","","","","","",""
"3108.3050000001676","","","post_mooney1_questions","survey-likert","337","1068182","0.0-6.0-2.47","2727286","co37687","norming","","","{""curiosity"":5,""confidence"":0}","[0,1]","../img/tt/010tt.jpg","",""
"1053.6699999999255","","","recognition","survey-text","338","1069237","0.0-6.0-3.47","2727286","co37687","norming","","","{""guess"":""""}","","../img/tt/010tt.jpg","",""
"null","../img/gs/010gs.jpg","null","reveal","image-keyboard-response","339","1071242","0.0-6.0-4.47","2727286","co37687","norming","","","","","","",""
"null","../img/tt/010tt.jpg","null","mooney2","image-keyboard-response","340","1073248","0.0-6.0-5.47","2727286","co37687","norming","","","","","","",""
"2196.344999999972","","","post_reveal_questions","survey-likert","341","1075445","0.0-6.0-6.47","2727286","co37687","norming","","","{""aha"":2}","[0]","../img/tt/010tt.jpg","",""
"null","<div style=""font-size:60px;""> </div>","null","fixation","html-keyboard-response","342","1075648","0.0-6.0-0.48","2727286","co37687","norming","","","","","","",""
"null","../img/tt/1235tt.jpg","null","mooney1","image-keyboard-response","343","1078659","0.0-6.0-1.48","2727286","co37687","norming","","","","","","",""
"2759.5749999999534","","","post_mooney1_questions","survey-likert","344","1081422","0.0-6.0-2.48","2727286","co37687","norming","","","{""curiosity"":5,""confidence"":1}","[0,1]","../img/tt/1235tt.jpg","",""
"2350.249999999767","","","recognition","survey-text","345","1083774","0.0-6.0-3.48","2727286","co37687","norming","","","{""guess"":""stinkdier""}","","../img/tt/1235tt.jpg","",""
"null","../img/gs/1235gs.jpg","null","reveal","image-keyboard-response","346","1085775","0.0-6.0-4.48","2727286","co37687","norming","","","","","","",""
"null","../img/tt/1235tt.jpg","null","mooney2","image-keyboard-response","347","1087777","0.0-6.0-5.48","2727286","co37687","norming","","","","","","",""
"1481.815000000177","","","post_reveal_questions","survey-likert","348","1089261","0.0-6.0-6.48","2727286","co37687","norming","","","{""aha"":5}","[0]","../img/tt/1235tt.jpg","",""
"null","<div style=""font-size:60px;""> </div>","null","fixation","html-keyboard-response","349","1089471","0.0-6.0-0.49","2727286","co37687","norming","","","","","","",""
"null","../img/tt/406tt.jpg","null","mooney1","image-keyboard-response","350","1092482","0.0-6.0-1.49","2727286","co37687","norming","","","","","","",""
"4856.769999999786","","","post_mooney1_questions","survey-likert","351","1097349","0.0-6.0-2.49","2727286","co37687","norming","","","{""curiosity"":5,""confidence"":1}","[0,1]","../img/tt/406tt.jpg","",""
"2318.189999999944","","","recognition","survey-text","352","1099669","0.0-6.0-3.49","2727286","co37687","norming","","","{""guess"":""panda""}","","../img/tt/406tt.jpg","",""
"null","../img/gs/406gs.jpg","null","reveal","image-keyboard-response","353","1101679","0.0-6.0-4.49","2727286","co37687","norming","","","","","","",""
"null","../img/tt/406tt.jpg","null","mooney2","image-keyboard-response","354","1103681","0.0-6.0-5.49","2727286","co37687","norming","","","","","","",""
"3714.4499999999534","","","post_reveal_questions","survey-likert","355","1107396","0.0-6.0-6.49","2727286","co37687","norming","","","{""aha"":4}","[0]","../img/tt/406tt.jpg","",""
"null","<div style=""font-size:60px;""> </div>","null","fixation","html-keyboard-response","356","1107602","0.0-6.0-0.50","2727286","co37687","norming","","","","","","",""
"null","../img/tt/1173tt.jpg","null","mooney1","image-keyboard-response","357","1110614","0.0-6.0-1.50","2727286","co37687","norming","","","","","","",""
"3443.810000000056","","","post_mooney1_questions","survey-likert","358","1114061","0.0-6.0-2.50","2727286","co37687","norming","","","{""curiosity"":5,""confidence"":1}","[0,1]","../img/tt/1173tt.jpg","",""
"3590.0150000001304","","","recognition","survey-text","359","1117652","0.0-6.0-3.50","2727286","co37687","norming","","","{""guess"":""voetballers""}","","../img/tt/1173tt.jpg","",""
"null","../img/gs/1173gs.jpg","null","reveal","image-keyboard-response","360","1119654","0.0-6.0-4.50","2727286","co37687","norming","","","","","","",""
"null","../img/tt/1173tt.jpg","null","mooney2","image-keyboard-response","361","1121656","0.0-6.0-5.50","2727286","co37687","norming","","","","","","",""
"2489.964999999851","","","post_reveal_questions","survey-likert","362","1124149","0.0-6.0-6.50","2727286","co37687","norming","","","{""aha"":4}","[0]","../img/tt/1173tt.jpg","",""
"null","<div style=""font-size:60px;""> </div>","null","fixation","html-keyboard-response","363","1124354","0.0-6.0-0.51","2727286","co37687","norming","","","","","","",""
"null","../img/tt/121tt.jpg","null","mooney1","image-keyboard-response","364","1127357","0.0-6.0-1.51","2727286","co37687","norming","","","","","","",""
"4252.77500000014","","","post_mooney1_questions","survey-likert","365","1131613","0.0-6.0-2.51","2727286","co37687","norming","","","{""curiosity"":5,""confidence"":1}","[0,1]","../img/tt/121tt.jpg","",""
"6613.950000000186","","","recognition","survey-text","366","1138229","0.0-6.0-3.51","2727286","co37687","norming","","","{""guess"":""kangoeroo""}","","../img/tt/121tt.jpg","",""
"null","../img/gs/121gs.jpg","null","reveal","image-keyboard-response","367","1140230","0.0-6.0-4.51","2727286","co37687","norming","","","","","","",""
"null","../img/tt/121tt.jpg","null","mooney2","image-keyboard-response","368","1142239","0.0-6.0-5.51","2727286","co37687","norming","","","","","","",""
"1683.184999999823","","","post_reveal_questions","survey-likert","369","1143925","0.0-6.0-6.51","2727286","co37687","norming","","","{""aha"":2}","[0]","../img/tt/121tt.jpg","",""
"null","<div style=""font-size:60px;""> </div>","null","fixation","html-keyboard-response","370","1144132","0.0-6.0-0.52","2727286","co37687","norming","","","","","","",""
"null","../img/tt/1048tt.jpg","null","mooney1","image-keyboard-response","371","1147139","0.0-6.0-1.52","2727286","co37687","norming","","","","","","",""
"5350.195000000065","","","post_mooney1_questions","survey-likert","372","1152493","0.0-6.0-2.52","2727286","co37687","norming","","","{""curiosity"":5,""confidence"":0}","[0,1]","../img/tt/1048tt.jpg","",""
"821.8650000002235","","","recognition","survey-text","373","1153316","0.0-6.0-3.52","2727286","co37687","norming","","","{""guess"":""""}","","../img/tt/1048tt.jpg","",""
"null","../img/gs/1048gs.jpg","null","reveal","image-keyboard-response","374","1155319","0.0-6.0-4.52","2727286","co37687","norming","","","","","","",""
"null","../img/tt/1048tt.jpg","null","mooney2","image-keyboard-response","375","1157325","0.0-6.0-5.52","2727286","co37687","norming","","","","","","",""
"1530.9850000001024","","","post_reveal_questions","survey-likert","376","1158857","0.0-6.0-6.52","2727286","co37687","norming","","","{""aha"":1}","[0]","../img/tt/1048tt.jpg","",""
"null","<div style=""font-size:60px;""> </div>","null","fixation","html-keyboard-response","377","1159067","0.0-6.0-0.53","2727286","co37687","norming","","","","","","",""
"null","../img/tt/440tt.jpg","null","mooney1","image-keyboard-response","378","1162074","0.0-6.0-1.53","2727286","co37687","norming","","","","","","",""
"6636.179999999935","","","post_mooney1_questions","survey-likert","379","1168713","0.0-6.0-2.53","2727286","co37687","norming","","","{""curiosity"":5,""confidence"":0}","[0,1]","../img/tt/440tt.jpg","",""
"589.4899999999907","","","recognition","survey-text","380","1169305","0.0-6.0-3.53","2727286","co37687","norming","","","{""guess"":""""}","","../img/tt/440tt.jpg","",""
"null","../img/gs/440gs.jpg","null","reveal","image-keyboard-response","381","1171307","0.0-6.0-4.53","2727286","co37687","norming","","","","","","",""
"null","../img/tt/440tt.jpg","null","mooney2","image-keyboard-response","382","1173309","0.0-6.0-5.53","2727286","co37687","norming","","","","","","",""
"2755.2100000001956","","","post_reveal_questions","survey-likert","383","1176065","0.0-6.0-6.53","2727286","co37687","norming","","","{""aha"":5}","[0]","../img/tt/440tt.jpg","",""
"null","<div style=""font-size:60px;""> </div>","null","fixation","html-keyboard-response","384","1176274","0.0-6.0-0.54","2727286","co37687","norming","","","","","","",""
"null","../img/tt/318tt.jpg","null","mooney1","image-keyboard-response","385","1179279","0.0-6.0-1.54","2727286","co37687","norming","","","","","","",""
"3641.065000000177","","","post_mooney1_questions","survey-likert","386","1182921","0.0-6.0-2.54","2727286","co37687","norming","","","{""curiosity"":5,""confidence"":2}","[0,1]","../img/tt/318tt.jpg","",""
"2126.340000000084","","","recognition","survey-text","387","1185049","0.0-6.0-3.54","2727286","co37687","norming","","","{""guess"":""auto""}","","../img/tt/318tt.jpg","",""
"null","../img/gs/318gs.jpg","null","reveal","image-keyboard-response","388","1187055","0.0-6.0-4.54","2727286","co37687","norming","","","","","","",""
"null","../img/tt/318tt.jpg","null","mooney2","image-keyboard-response","389","1189062","0.0-6.0-5.54","2727286","co37687","norming","","","","","","",""
"3072.1100000001024","","","post_reveal_questions","survey-likert","390","1192137","0.0-6.0-6.54","2727286","co37687","norming","","","{""aha"":2}","[0]","../img/tt/318tt.jpg","",""
"null","<div style=""font-size:60px;""> </div>","null","fixation","html-keyboard-response","391","1192338","0.0-6.0-0.55","2727286","co37687","norming","","","","","","",""
"null","../img/tt/063tt.jpg","null","mooney1","image-keyboard-response","392","1195342","0.0-6.0-1.55","2727286","co37687","norming","","","","","","",""
"2904.6149999999907","","","post_mooney1_questions","survey-likert","393","1198249","0.0-6.0-2.55","2727286","co37687","norming","","","{""curiosity"":5,""confidence"":1}","[0,1]","../img/tt/063tt.jpg","",""
"5365.98499999987","","","recognition","survey-text","394","1203617","0.0-6.0-3.55","2727286","co37687","norming","","","{""guess"":""type machine""}","","../img/tt/063tt.jpg","",""
"null","../img/gs/063gs.jpg","null","reveal","image-keyboard-response","395","1205624","0.0-6.0-4.55","2727286","co37687","norming","","","","","","",""
"null","../img/tt/063tt.jpg","null","mooney2","image-keyboard-response","396","1207633","0.0-6.0-5.55","2727286","co37687","norming","","","","","","",""
"1444.6350000000093","","","post_reveal_questions","survey-likert","397","1209081","0.0-6.0-6.55","2727286","co37687","norming","","","{""aha"":4}","[0]","../img/tt/063tt.jpg","",""
"null","<div style=""font-size:60px;""> </div>","null","fixation","html-keyboard-response","398","1209289","0.0-6.0-0.56","2727286","co37687","norming","","","","","","",""
"null","../img/tt/1161tt.jpg","null","mooney1","image-keyboard-response","399","1212296","0.0-6.0-1.56","2727286","co37687","norming","","","","","","",""
"3238.405000000028","","","post_mooney1_questions","survey-likert","400","1215537","0.0-6.0-2.56","2727286","co37687","norming","","","{""curiosity"":5,""confidence"":1}","[0,1]","../img/tt/1161tt.jpg","",""
"2262.310000000056","","","recognition","survey-text","401","1217797","0.0-6.0-3.56","2727286","co37687","norming","","","{""guess"":""hardloper""}","","../img/tt/1161tt.jpg","",""
"null","../img/gs/1161gs.jpg","null","reveal","image-keyboard-response","402","1219799","0.0-6.0-4.56","2727286","co37687","norming","","","","","","",""
"null","../img/tt/1161tt.jpg","null","mooney2","image-keyboard-response","403","1221806","0.0-6.0-5.56","2727286","co37687","norming","","","","","","",""
"1131.744999999879","","","post_reveal_questions","survey-likert","404","1222941","0.0-6.0-6.56","2727286","co37687","norming","","","{""aha"":4}","[0]","../img/tt/1161tt.jpg","",""
"null","<div style=""font-size:60px;""> </div>","null","fixation","html-keyboard-response","405","1223151","0.0-6.0-0.57","2727286","co37687","norming","","","","","","",""
"null","../img/tt/1228tt.jpg","null","mooney1","image-keyboard-response","406","1226159","0.0-6.0-1.57","2727286","co37687","norming","","","","","","",""
"3370.3249999999534","","","post_mooney1_questions","survey-likert","407","1229533","0.0-6.0-2.57","2727286","co37687","norming","","","{""curiosity"":5,""confidence"":1}","[0,1]","../img/tt/1228tt.jpg","",""
"1398.2649999998976","","","recognition","survey-text","408","1230932","0.0-6.0-3.57","2727286","co37687","norming","","","{""guess"":""gans""}","","../img/tt/1228tt.jpg","",""
"null","../img/gs/1228gs.jpg","null","reveal","image-keyboard-response","409","1232940","0.0-6.0-4.57","2727286","co37687","norming","","","","","","",""
"null","../img/tt/1228tt.jpg","null","mooney2","image-keyboard-response","410","1234942","0.0-6.0-5.57","2727286","co37687","norming","","","","","","",""
"2772.1800000001676","","","post_reveal_questions","survey-likert","411","1237717","0.0-6.0-6.57","2727286","co37687","norming","","","{""aha"":2}","[0]","../img/tt/1228tt.jpg","",""
"null","<div style=""font-size:60px;""> </div>","null","fixation","html-keyboard-response","412","1237924","0.0-6.0-0.58","2727286","co37687","norming","","","","","","",""
"null","../img/tt/080tt.jpg","null","mooney1","image-keyboard-response","413","1240935","0.0-6.0-1.58","2727286","co37687","norming","","","","","","",""
"4042.385000000242","","","post_mooney1_questions","survey-likert","414","1244981","0.0-6.0-2.58","2727286","co37687","norming","","","{""curiosity"":5,""confidence"":1}","[0,1]","../img/tt/080tt.jpg","",""
"2302.1100000001024","","","recognition","survey-text","415","1247285","0.0-6.0-3.58","2727286","co37687","norming","","","{""guess"":""ei""}","","../img/tt/080tt.jpg","",""
"null","../img/gs/080gs.jpg","null","reveal","image-keyboard-response","416","1249286","0.0-6.0-4.58","2727286","co37687","norming","","","","","","",""
"null","../img/tt/080tt.jpg","null","mooney2","image-keyboard-response","417","1251288","0.0-6.0-5.58","2727286","co37687","norming","","","","","","",""
"1620.1850000002887","","","post_reveal_questions","survey-likert","418","1252909","0.0-6.0-6.58","2727286","co37687","norming","","","{""aha"":5}","[0]","../img/tt/080tt.jpg","",""
"null","<div style=""font-size:60px;""> </div>","null","fixation","html-keyboard-response","419","1253113","0.0-6.0-0.59","2727286","co37687","norming","","","","","","",""
"null","../img/tt/013tt.jpg","null","mooney1","image-keyboard-response","420","1256116","0.0-6.0-1.59","2727286","co37687","norming","","","","","","",""
"3277.195000000065","","","post_mooney1_questions","survey-likert","421","1259397","0.0-6.0-2.59","2727286","co37687","norming","","","{""curiosity"":5,""confidence"":1}","[0,1]","../img/tt/013tt.jpg","",""
"2093.9199999999255","","","recognition","survey-text","422","1261492","0.0-6.0-3.59","2727286","co37687","norming","","","{""guess"":""kameel""}","","../img/tt/013tt.jpg","",""
"null","../img/gs/013gs.jpg","null","reveal","image-keyboard-response","423","1263494","0.0-6.0-4.59","2727286","co37687","norming","","","","","","",""
"null","../img/tt/013tt.jpg","null","mooney2","image-keyboard-response","424","1265496","0.0-6.0-5.59","2727286","co37687","norming","","","","","","",""
"2176.554999999935","","","post_reveal_questions","survey-likert","425","1267676","0.0-6.0-6.59","2727286","co37687","norming","","","{""aha"":2}","[0]","../img/tt/013tt.jpg","",""
"null","<div style=""font-size:60px;""> </div>","null","fixation","html-keyboard-response","426","1267882","0.0-6.0-0.60","2727286","co37687","norming","","","","","","",""
"null","../img/tt/1224tt.jpg","null","mooney1","image-keyboard-response","427","1270885","0.0-6.0-1.60","2727286","co37687","norming","","","","","","",""
"3740.2000000001863","","","post_mooney1_questions","survey-likert","428","1274628","0.0-6.0-2.60","2727286","co37687","norming","","","{""curiosity"":5,""confidence"":1}","[0,1]","../img/tt/1224tt.jpg","",""
"5678.020000000019","","","recognition","survey-text","429","1280318","0.0-6.0-3.60","2727286","co37687","norming","","","{""guess"":""volleybalspeelster""}","","../img/tt/1224tt.jpg","",""
"null","../img/gs/1224gs.jpg","null","reveal","image-keyboard-response","430","1282323","0.0-6.0-4.60","2727286","co37687","norming","","","","","","",""
"null","../img/tt/1224tt.jpg","null","mooney2","image-keyboard-response","431","1284332","0.0-6.0-5.60","2727286","co37687","norming","","","","","","",""
"8175.520000000019","","","post_reveal_questions","survey-likert","432","1292510","0.0-6.0-6.60","2727286","co37687","norming","","","{""aha"":5}","[0]","../img/tt/1224tt.jpg","",""
"null","<div style=""font-size:60px;""> </div>","null","fixation","html-keyboard-response","433","1292712","0.0-6.0-0.61","2727286","co37687","norming","","","","","","",""
"null","../img/tt/1199tt.jpg","null","mooney1","image-keyboard-response","434","1295715","0.0-6.0-1.61","2727286","co37687","norming","","","","","","",""
"2767.409999999916","","","post_mooney1_questions","survey-likert","435","1298486","0.0-6.0-2.61","2727286","co37687","norming","","","{""curiosity"":5,""confidence"":4}","[0,1]","../img/tt/1199tt.jpg","",""
"2789.9000000001397","","","recognition","survey-text","436","1301278","0.0-6.0-3.61","2727286","co37687","norming","","","{""guess"":""turnster""}","","../img/tt/1199tt.jpg","",""
"null","../img/gs/1199gs.jpg","null","reveal","image-keyboard-response","437","1303284","0.0-6.0-4.61","2727286","co37687","norming","","","","","","",""
"null","../img/tt/1199tt.jpg","null","mooney2","image-keyboard-response","438","1305286","0.0-6.0-5.61","2727286","co37687","norming","","","","","","",""
"1519.5150000003632","","","post_reveal_questions","survey-likert","439","1306806","0.0-6.0-6.61","2727286","co37687","norming","","","{""aha"":1}","[0]","../img/tt/1199tt.jpg","",""
"null","<div style=""font-size:60px;""> </div>","null","fixation","html-keyboard-response","440","1307014","0.0-6.0-0.62","2727286","co37687","norming","","","","","","",""
"null","../img/tt/1046tt.jpg","null","mooney1","image-keyboard-response","441","1310016","0.0-6.0-1.62","2727286","co37687","norming","","","","","","",""
"2786.9499999999534","","","post_mooney1_questions","survey-likert","442","1312806","0.0-6.0-2.62","2727286","co37687","norming","","","{""curiosity"":5,""confidence"":1}","[0,1]","../img/tt/1046tt.jpg","",""
"1478.2749999999069","","","recognition","survey-text","443","1314286","0.0-6.0-3.62","2727286","co37687","norming","","","{""guess"":""eten""}","","../img/tt/1046tt.jpg","",""
"null","../img/gs/1046gs.jpg","null","reveal","image-keyboard-response","444","1316291","0.0-6.0-4.62","2727286","co37687","norming","","","","","","",""
"null","../img/tt/1046tt.jpg","null","mooney2","image-keyboard-response","445","1318296","0.0-6.0-5.62","2727286","co37687","norming","","","","","","",""
"1467.125","","","post_reveal_questions","survey-likert","446","1319766","0.0-6.0-6.62","2727286","co37687","norming","","","{""aha"":3}","[0]","../img/tt/1046tt.jpg","",""
"null","<div style=""font-size:60px;""> </div>","null","fixation","html-keyboard-response","447","1319977","0.0-6.0-0.63","2727286","co37687","norming","","","","","","",""
"null","../img/tt/270tt.jpg","null","mooney1","image-keyboard-response","448","1322986","0.0-6.0-1.63","2727286","co37687","norming","","","","","","",""
"2961.125","","","post_mooney1_questions","survey-likert","449","1325950","0.0-6.0-2.63","2727286","co37687","norming","","","{""curiosity"":5,""confidence"":1}","[0,1]","../img/tt/270tt.jpg","",""
"1550.0800000000745","","","recognition","survey-text","450","1327502","0.0-6.0-3.63","2727286","co37687","norming","","","{""guess"":""hert""}","","../img/tt/270tt.jpg","",""
"null","../img/gs/270gs.jpg","null","reveal","image-keyboard-response","451","1329509","0.0-6.0-4.63","2727286","co37687","norming","","","","","","",""
"null","../img/tt/270tt.jpg","null","mooney2","image-keyboard-response","452","1331517","0.0-6.0-5.63","2727286","co37687","norming","","","","","","",""
"2998.2600000000093","","","post_reveal_questions","survey-likert","453","1334518","0.0-6.0-6.63","2727286","co37687","norming","","","{""aha"":4}","[0]","../img/tt/270tt.jpg","",""
"null","<div style=""font-size:60px;""> </div>","null","fixation","html-keyboard-response","454","1334727","0.0-6.0-0.64","2727286","co37687","norming","","","","","","",""
"null","../img/tt/060tt.jpg","null","mooney1","image-keyboard-response","455","1337731","0.0-6.0-1.64","2727286","co37687","norming","","","","","","",""
"3272.719999999972","","","post_mooney1_questions","survey-likert","456","1341008","0.0-6.0-2.64","2727286","co37687","norming","","","{""curiosity"":5,""confidence"":1}","[0,1]","../img/tt/060tt.jpg","",""
"3549.9849999998696","","","recognition","survey-text","457","1344560","0.0-6.0-3.64","2727286","co37687","norming","","","{""guess"":""pennenzak""}","","../img/tt/060tt.jpg","",""
"null","../img/gs/060gs.jpg","null","reveal","image-keyboard-response","458","1346570","0.0-6.0-4.64","2727286","co37687","norming","","","","","","",""
"null","../img/tt/060tt.jpg","null","mooney2","image-keyboard-response","459","1348573","0.0-6.0-5.64","2727286","co37687","norming","","","","","","",""
"1496.684999999823","","","post_reveal_questions","survey-likert","460","1350072","0.0-6.0-6.64","2727286","co37687","norming","","","{""aha"":4}","[0]","../img/tt/060tt.jpg","",""
"null","<div style=""font-size:60px;""> </div>","null","fixation","html-keyboard-response","461","1350276","0.0-6.0-0.65","2727286","co37687","norming","","","","","","",""
"null","../img/tt/1278tt.jpg","null","mooney1","image-keyboard-response","462","1353282","0.0-6.0-1.65","2727286","co37687","norming","","","","","","",""
"3133.225000000093","","","post_mooney1_questions","survey-likert","463","1356416","0.0-6.0-2.65","2727286","co37687","norming","","","{""curiosity"":5,""confidence"":0}","[0,1]","../img/tt/1278tt.jpg","",""
"662.25","","","recognition","survey-text","464","1357080","0.0-6.0-3.65","2727286","co37687","norming","","","{""guess"":""""}","","../img/tt/1278tt.jpg","",""
"null","../img/gs/1278gs.jpg","null","reveal","image-keyboard-response","465","1359085","0.0-6.0-4.65","2727286","co37687","norming","","","","","","",""
"null","../img/tt/1278tt.jpg","null","mooney2","image-keyboard-response","466","1361088","0.0-6.0-5.65","2727286","co37687","norming","","","","","","",""
"2133.154999999795","","","post_reveal_questions","survey-likert","467","1363223","0.0-6.0-6.65","2727286","co37687","norming","","","{""aha"":2}","[0]","../img/tt/1278tt.jpg","",""
"null","<div style=""font-size:60px;""> </div>","null","fixation","html-keyboard-response","468","1363430","0.0-6.0-0.66","2727286","co37687","norming","","","","","","",""
"null","../img/tt/1290tt.jpg","null","mooney1","image-keyboard-response","469","1366440","0.0-6.0-1.66","2727286","co37687","norming","","","","","","",""
"2980.8000000000466","","","post_mooney1_questions","survey-likert","470","1369424","0.0-6.0-2.66","2727286","co37687","norming","","","{""curiosity"":5,""confidence"":1}","[0,1]","../img/tt/1290tt.jpg","",""
"3134.1149999999907","","","recognition","survey-text","471","1372560","0.0-6.0-3.66","2727286","co37687","norming","","","{""guess"":""skilift""}","","../img/tt/1290tt.jpg","",""
"null","../img/gs/1290gs.jpg","null","reveal","image-keyboard-response","472","1374568","0.0-6.0-4.66","2727286","co37687","norming","","","","","","",""
"null","../img/tt/1290tt.jpg","null","mooney2","image-keyboard-response","473","1376571","0.0-6.0-5.66","2727286","co37687","norming","","","","","","",""
"1146.255000000121","","","post_reveal_questions","survey-likert","474","1377720","0.0-6.0-6.66","2727286","co37687","norming","","","{""aha"":2}","[0]","../img/tt/1290tt.jpg","",""
"null","<div style=""font-size:60px;""> </div>","null","fixation","html-keyboard-response","475","1377924","0.0-6.0-0.67","2727286","co37687","norming","","","","","","",""
"null","../img/tt/1116tt.jpg","null","mooney1","image-keyboard-response","476","1380928","0.0-6.0-1.67","2727286","co37687","norming","","","","","","",""
"4541.065000000177","","","post_mooney1_questions","survey-likert","477","1385472","0.0-6.0-2.67","2727286","co37687","norming","","","{""curiosity"":5,""confidence"":1}","[0,1]","../img/tt/1116tt.jpg","",""
"1694.2100000001956","","","recognition","survey-text","478","1387168","0.0-6.0-3.67","2727286","co37687","norming","","","{""guess"":""have""}","","../img/tt/1116tt.jpg","",""
"null","../img/gs/1116gs.jpg","null","reveal","image-keyboard-response","479","1389170","0.0-6.0-4.67","2727286","co37687","norming","","","","","","",""
"null","../img/tt/1116tt.jpg","null","mooney2","image-keyboard-response","480","1391174","0.0-6.0-5.67","2727286","co37687","norming","","","","","","",""
"1631.3500000000931","","","post_reveal_questions","survey-likert","481","1392808","0.0-6.0-6.67","2727286","co37687","norming","","","{""aha"":2}","[0]","../img/tt/1116tt.jpg","",""
"null","<div style=""font-size:60px;""> </div>","null","fixation","html-keyboard-response","482","1393016","0.0-6.0-0.68","2727286","co37687","norming","","","","","","",""
"null","../img/tt/1255tt.jpg","null","mooney1","image-keyboard-response","483","1396021","0.0-6.0-1.68","2727286","co37687","norming","","","","","","",""
"2959.25","","","post_mooney1_questions","survey-likert","484","1398977","0.0-6.0-2.68","2727286","co37687","norming","","","{""curiosity"":5,""confidence"":0}","[0,1]","../img/tt/1255tt.jpg","",""
"590.3049999999348","","","recognition","survey-text","485","1399569","0.0-6.0-3.68","2727286","co37687","norming","","","{""guess"":""""}","","../img/tt/1255tt.jpg","",""
"null","../img/gs/1255gs.jpg","null","reveal","image-keyboard-response","486","1401573","0.0-6.0-4.68","2727286","co37687","norming","","","","","","",""
"null","../img/tt/1255tt.jpg","null","mooney2","image-keyboard-response","487","1403575","0.0-6.0-5.68","2727286","co37687","norming","","","","","","",""
"1687.1999999999534","","","post_reveal_questions","survey-likert","488","1405265","0.0-6.0-6.68","2727286","co37687","norming","","","{""aha"":2}","[0]","../img/tt/1255tt.jpg","",""
"null","<div style=""font-size:60px;""> </div>","null","fixation","html-keyboard-response","489","1405475","0.0-6.0-0.69","2727286","co37687","norming","","","","","","",""
"null","../img/tt/1091tt.jpg","null","mooney1","image-keyboard-response","490","1408477","0.0-6.0-1.69","2727286","co37687","norming","","","","","","",""
"2488.500000000233","","","post_mooney1_questions","survey-likert","491","1410969","0.0-6.0-2.69","2727286","co37687","norming","","","{""curiosity"":5,""confidence"":4}","[0,1]","../img/tt/1091tt.jpg","",""
"1678.2700000000186","","","recognition","survey-text","492","1412649","0.0-6.0-3.69","2727286","co37687","norming","","","{""guess"":""paard""}","","../img/tt/1091tt.jpg","",""
"null","../img/gs/1091gs.jpg","null","reveal","image-keyboard-response","493","1414654","0.0-6.0-4.69","2727286","co37687","norming","","","","","","",""
"null","../img/tt/1091tt.jpg","null","mooney2","image-keyboard-response","494","1416659","0.0-6.0-5.69","2727286","co37687","norming","","","","","","",""
"2203.1800000001676","","","post_reveal_questions","survey-likert","495","1418865","0.0-6.0-6.69","2727286","co37687","norming","","","{""aha"":1}","[0]","../img/tt/1091tt.jpg","",""
"null","<div style=""font-size:60px;""> </div>","null","fixation","html-keyboard-response","496","1419068","0.0-6.0-0.70","2727286","co37687","norming","","","","","","",""
"null","../img/tt/1247tt.jpg","null","mooney1","image-keyboard-response","497","1422072","0.0-6.0-1.70","2727286","co37687","norming","","","","","","",""
"2973.8499999998603","","","post_mooney1_questions","survey-likert","498","1425049","0.0-6.0-2.70","2727286","co37687","norming","","","{""curiosity"":5,""confidence"":1}","[0,1]","../img/tt/1247tt.jpg","",""
"2094.000000000233","","","recognition","survey-text","499","1427145","0.0-6.0-3.70","2727286","co37687","norming","","","{""guess"":""tijger""}","","../img/tt/1247tt.jpg","",""
"null","../img/gs/1247gs.jpg","null","reveal","image-keyboard-response","500","1429147","0.0-6.0-4.70","2727286","co37687","norming","","","","","","",""
"null","../img/tt/1247tt.jpg","null","mooney2","image-keyboard-response","501","1431150","0.0-6.0-5.70","2727286","co37687","norming","","","","","","",""
"2704.5499999998137","","","post_reveal_questions","survey-likert","502","1433857","0.0-6.0-6.70","2727286","co37687","norming","","","{""aha"":3}","[0]","../img/tt/1247tt.jpg","",""
"null","<div style=""font-size:60px;""> </div>","null","fixation","html-keyboard-response","503","1434059","0.0-6.0-0.71","2727286","co37687","norming","","","","","","",""
"null","../img/tt/1159tt.jpg","null","mooney1","image-keyboard-response","504","1437067","0.0-6.0-1.71","2727286","co37687","norming","","","","","","",""
"2802.940000000177","","","post_mooney1_questions","survey-likert","505","1439873","0.0-6.0-2.71","2727286","co37687","norming","","","{""curiosity"":5,""confidence"":1}","[0,1]","../img/tt/1159tt.jpg","",""
"1990","","","recognition","survey-text","506","1441865","0.0-6.0-3.71","2727286","co37687","norming","","","{""guess"":""skater""}","","../img/tt/1159tt.jpg","",""
"null","../img/gs/1159gs.jpg","null","reveal","image-keyboard-response","507","1443868","0.0-6.0-4.71","2727286","co37687","norming","","","","","","",""
"null","../img/tt/1159tt.jpg","null","mooney2","image-keyboard-response","508","1445871","0.0-6.0-5.71","2727286","co37687","norming","","","","","","",""
"1895.4499999999534","","","post_reveal_questions","survey-likert","509","1447769","0.0-6.0-6.71","2727286","co37687","norming","","","{""aha"":3}","[0]","../img/tt/1159tt.jpg","",""
"null","<div style=""font-size:60px;""> </div>","null","fixation","html-keyboard-response","510","1447979","0.0-6.0-0.72","2727286","co37687","norming","","","","","","",""
"null","../img/tt/1261tt.jpg","null","mooney1","image-keyboard-response","511","1450986","0.0-6.0-1.72","2727286","co37687","norming","","","","","","",""
"3195.6100000001024","","","post_mooney1_questions","survey-likert","512","1454185","0.0-6.0-2.72","2727286","co37687","norming","","","{""curiosity"":5,""confidence"":0}","[0,1]","../img/tt/1261tt.jpg","",""
"590.0100000000093","","","recognition","survey-text","513","1454777","0.0-6.0-3.72","2727286","co37687","norming","","","{""guess"":""""}","","../img/tt/1261tt.jpg","",""
"null","../img/gs/1261gs.jpg","null","reveal","image-keyboard-response","514","1456779","0.0-6.0-4.72","2727286","co37687","norming","","","","","","",""
"null","../img/tt/1261tt.jpg","null","mooney2","image-keyboard-response","515","1458790","0.0-6.0-5.72","2727286","co37687","norming","","","","","","",""
"1919.404999999795","","","post_reveal_questions","survey-likert","516","1460712","0.0-6.0-6.72","2727286","co37687","norming","","","{""aha"":5}","[0]","../img/tt/1261tt.jpg","",""
"null","<div style=""font-size:60px;""> </div>","null","fixation","html-keyboard-response","517","1460915","0.0-6.0-0.73","2727286","co37687","norming","","","","","","",""
"null","../img/tt/036tt.jpg","null","mooney1","image-keyboard-response","518","1463924","0.0-6.0-1.73","2727286","co37687","norming","","","","","","",""
"4016.619999999879","","","post_mooney1_questions","survey-likert","519","1467944","0.0-6.0-2.73","2727286","co37687","norming","","","{""curiosity"":5,""confidence"":1}","[0,1]","../img/tt/036tt.jpg","",""
"2950.0999999998603","","","recognition","survey-text","520","1470896","0.0-6.0-3.73","2727286","co37687","norming","","","{""guess"":""boom""}","","../img/tt/036tt.jpg","",""
"null","../img/gs/036gs.jpg","null","reveal","image-keyboard-response","521","1472897","0.0-6.0-4.73","2727286","co37687","norming","","","","","","",""
"null","../img/tt/036tt.jpg","null","mooney2","image-keyboard-response","522","1474898","0.0-6.0-5.73","2727286","co37687","norming","","","","","","",""
"2482.784999999916","","","post_reveal_questions","survey-likert","523","1477384","0.0-6.0-6.73","2727286","co37687","norming","","","{""aha"":4}","[0]","../img/tt/036tt.jpg","",""
"null","<div style=""font-size:60px;""> </div>","null","fixation","html-keyboard-response","524","1477587","0.0-6.0-0.74","2727286","co37687","norming","","","","","","",""
"null","../img/tt/1069tt.jpg","null","mooney1","image-keyboard-response","525","1480593","0.0-6.0-1.74","2727286","co37687","norming","","","","","","",""
"2346.814999999944","","","post_mooney1_questions","survey-likert","526","1482944","0.0-6.0-2.74","2727286","co37687","norming","","","{""curiosity"":5,""confidence"":2}","[0,1]","../img/tt/1069tt.jpg","",""
"2078.3499999998603","","","recognition","survey-text","527","1485024","0.0-6.0-3.74","2727286","co37687","norming","","","{""guess"":""bok""}","","../img/tt/1069tt.jpg","",""
"null","../img/gs/1069gs.jpg","null","reveal","image-keyboard-response","528","1487025","0.0-6.0-4.74","2727286","co37687","norming","","","","","","",""
"null","../img/tt/1069tt.jpg","null","mooney2","image-keyboard-response","529","1489031","0.0-6.0-5.74","2727286","co37687","norming","","","","","","",""
"2253.2450000001118","","","post_reveal_questions","survey-likert","530","1491287","0.0-6.0-6.74","2727286","co37687","norming","","","{""aha"":2}","[0]","../img/tt/1069tt.jpg","",""
"null","<div style=""font-size:60px;""> </div>","null","fixation","html-keyboard-response","531","1491492","0.0-6.0-0.75","2727286","co37687","norming","","","","","","",""
"null","../img/tt/040tt.jpg","null","mooney1","image-keyboard-response","532","1494502","0.0-6.0-1.75","2727286","co37687","norming","","","","","","",""
"3381.9850000001024","","","post_mooney1_questions","survey-likert","533","1497888","0.0-6.0-2.75","2727286","co37687","norming","","","{""curiosity"":5,""confidence"":0}","[0,1]","../img/tt/040tt.jpg","",""
"1853.8649999999907","","","recognition","survey-text","534","1499743","0.0-6.0-3.75","2727286","co37687","norming","","","{""guess"":""""}","","../img/tt/040tt.jpg","",""
"null","../img/gs/040gs.jpg","null","reveal","image-keyboard-response","535","1501746","0.0-6.0-4.75","2727286","co37687","norming","","","","","","",""
"null","../img/tt/040tt.jpg","null","mooney2","image-keyboard-response","536","1503748","0.0-6.0-5.75","2727286","co37687","norming","","","","","","",""
"1368.7600000000093","","","post_reveal_questions","survey-likert","537","1505119","0.0-6.0-6.75","2727286","co37687","norming","","","{""aha"":5}","[0]","../img/tt/040tt.jpg","",""
"null","<div style=""font-size:60px;""> </div>","null","fixation","html-keyboard-response","538","1505324","0.0-6.0-0.76","2727286","co37687","norming","","","","","","",""
"null","../img/tt/049tt.jpg","null","mooney1","image-keyboard-response","539","1508332","0.0-6.0-1.76","2727286","co37687","norming","","","","","","",""
"2720.0150000001304","","","post_mooney1_questions","survey-likert","540","1511056","0.0-6.0-2.76","2727286","co37687","norming","","","{""curiosity"":5,""confidence"":1}","[0,1]","../img/tt/049tt.jpg","",""
"3390.320000000065","","","recognition","survey-text","541","1514448","0.0-6.0-3.76","2727286","co37687","norming","","","{""guess"":""schaap""}","","../img/tt/049tt.jpg","",""
"null","../img/gs/049gs.jpg","null","reveal","image-keyboard-response","542","1516453","0.0-6.0-4.76","2727286","co37687","norming","","","","","","",""
"null","../img/tt/049tt.jpg","null","mooney2","image-keyboard-response","543","1518464","0.0-6.0-5.76","2727286","co37687","norming","","","","","","",""
"1556.9150000000373","","","post_reveal_questions","survey-likert","544","1520024","0.0-6.0-6.76","2727286","co37687","norming","","","{""aha"":4}","[0]","../img/tt/049tt.jpg","",""
"null","<div style=""font-size:60px;""> </div>","null","fixation","html-keyboard-response","545","1520229","0.0-6.0-0.77","2727286","co37687","norming","","","","","","",""
"null","../img/tt/405tt.jpg","null","mooney1","image-keyboard-response","546","1523240","0.0-6.0-1.77","2727286","co37687","norming","","","","","","",""
"3159.0499999998137","","","post_mooney1_questions","survey-likert","547","1526400","0.0-6.0-2.77","2727286","co37687","norming","","","{""curiosity"":5,""confidence"":1}","[0,1]","../img/tt/405tt.jpg","",""
"2653.7349999998696","","","recognition","survey-text","548","1529056","0.0-6.0-3.77","2727286","co37687","norming","","","{""guess"":""koala""}","","../img/tt/405tt.jpg","",""
"null","../img/gs/405gs.jpg","null","reveal","image-keyboard-response","549","1531058","0.0-6.0-4.77","2727286","co37687","norming","","","","","","",""
"null","../img/tt/405tt.jpg","null","mooney2","image-keyboard-response","550","1533068","0.0-6.0-5.77","2727286","co37687","norming","","","","","","",""
"2369.5799999998417","","","post_reveal_questions","survey-likert","551","1535440","0.0-6.0-6.77","2727286","co37687","norming","","","{""aha"":3}","[0]","../img/tt/405tt.jpg","",""
"null","<div style=""font-size:60px;""> </div>","null","fixation","html-keyboard-response","552","1535648","0.0-6.0-0.78","2727286","co37687","norming","","","","","","",""
