"rt","stimulus","key_press","test_part","trial_type","trial_index","time_elapsed","internal_node_id","totalTime","subject","experiment_name","button_pressed","success","responses","question_order","currentStim","old","correct"
"5926.56999999997","Welcome to the experiment. This is an online experiment so please don't close the tab/window until we say goodbye.  Press any key to begin.","13","instructions","html-keyboard-response","0","5962","0.0-0.0","2940887","co37549","norming","","","","","","",""
"7046.384999999986","<div style='word-wrap: break-word; width: 900px'><h3>Please consider this information carefully before deciding whether to participate in this research</h3><ul style='text-align: left; font-size: .8em;'><li><b>Purpose of the research</b>: To examine how people process images.</li><li><b>What you will do in this research</b>:  Stimuli (images) will be presented on the computer and you will be asked different questions about them.</li><li><b>Time required</b>: Participation will take between 45 and 60 minutes to complete.</li><li><b>Risks</b>:  There are no anticipated risks associated with participating in this study. The effects of participating should be comparable to those you would experience from viewing a computer monitor for 30 minutes and using a mouse or keyboard.</li><li><b>Benefits</b>:  This study provides no benefits to you individually except for the credit. The study provides important information about the nature of perception and learning.</li><li><b>Confidentiality</b>:  Your participation in this study will remain confidential. No personally identifiable information will be associated with your data. Your de-identified data may be shared with other researchers and used in future projects.</li><li><b>Participation and withdrawal</b>:  Your participation in this study is completely voluntary and you may refuse to participate or you may choose to withdraw at any time without penalty.</li><li><b>How to contact the researchers</b>: If you have questions or concerns about your participation or payment, or want to request a summary of research findings, please contact Sander Van de Cruys (KU Leuven), at sander.vandecruys@kuleuven.be.</li></ul><p>The nature and purpose of this research have been sufficiently explained and I agree to participate in this study.  I understand that I am free to withdraw at any time without incurring any penalty.</p><p>Please consent by clicking the button below to continue. Otherwise, please exit the study at this time.</p></div>","","instructions","html-button-response","1","13009","0.0-1.0","2940887","co37549","norming","0","","","","","",""
"","","","instructions","fullscreen","2","16779","0.0-2.0","2940887","co37549","norming","","true","","","","",""
"36509.20999999999","","","sona","survey-html-form","3","53353","0.0-3.0","2940887","co37549","norming","","","[{""name"":""sonaid"",""value"":""37549""},{""name"":""debrief"",""value"":""no""},{""name"":""datajoin"",""value"":""yes""}]","","","",""
"54510.42500000006","<div style='word-wrap: break-word; width: 900px'><h3>Instructions</h3><p>This experiment will have 3 parts. In the first part you will see a series of distorted images like the one below on the left. As you can see in the righthand image, the distorted images are derived from actual photographs. In what follows, you will <strong>briefly</strong> be presented with <strong>only</strong> the distorted image.</p> <div style='float: left; margin-right: 20px;'><img src='../img/018tt.jpg' height='250' width='250'></img></div><div style='float: right; margin-left: 20px;'><img src='../img/018gs.jpg' height='250' width='250'></img></div><p>Subsequently you will be asked a few questions about the image: One question on how <strong>curious</strong> you are about the solution and one on how <strong>confident</strong> you are that you know the solution.</p>Next, we ask you to make a guess on what is in the image. Note that it is OK to name just the <strong>basic level category</strong>. For example when you see a parrot in the image, 'parrot' will obviously be a correct answer but also correct is 'bird'. However, 'animal' will <strong>not</strong> be counted as a correct response. For the example above, 'rose' would be correct or 'flower', but not 'plant'. When soccer players are depicted, 'soccer', 'football', 'soccer players' will be correct, but not 'humans', 'outdoors', or 'sports'. You do not need to describe the image in full, just name the main object in it <strong>in one or two words</strong>. All images depict objects from one of the following broad level categories: animals, inanimate objects, plants, sports, vehicles, and food. Recognizing means knowing <strong>more</strong> than these broad labels for a given image. But we always encourage you to <strong>make a guess</strong> if you can. Note that you are allowed to use <strong>Dutch and English</strong> in your answers, whatever comes easiest for you.</p><p>Press any key to continue.</p></div>","13","instructions","html-keyboard-response","4","107865","0.0-4.0","2940887","co37549","norming","","","","","","",""
"16799.099999999948","<div style='word-wrap: break-word; width: 900px'><h3>Instructions</h3> <p>Next, the solution image will be revealed to you and you'll be asked to indicate how strong your <strong>aha-experience</strong> was after seeing the solution. This describes the positive feeling of the 'click' you sometimes experience, when the pieces of the 'puzzle' fall together and you suddenly have 'insight' in the image.</p><img src='aha.jpg' height='188' width='250'></img><p>Note that there are no right or wrong answers. We are interested in what <strong>you</strong> see in the image and how <strong>you</strong> feel about it.</p><p>Press any key to start the experiment.</p></div>","13","instructions","html-keyboard-response","5","124745","0.0-5.0","2940887","co37549","norming","","","","","","",""
"null","<div style=""font-size:60px;""> </div>","null","fixation","html-keyboard-response","6","124947","0.0-6.0-0.0","2940887","co37549","norming","","","","","","",""
"null","../img/tt/1269tt.jpg","null","mooney1","image-keyboard-response","7","127953","0.0-6.0-1.0","2940887","co37549","norming","","","","","","",""
"13068.989999999976","","","post_mooney1_questions","survey-likert","8","141026","0.0-6.0-2.0","2940887","co37549","norming","","","{""curiosity"":4,""confidence"":3}","[0,1]","../img/tt/1269tt.jpg","",""
"6853.7850000000035","","","recognition","survey-text","9","147882","0.0-6.0-3.0","2940887","co37549","norming","","","{""guess"":""dog""}","","../img/tt/1269tt.jpg","",""
"null","../img/gs/1269gs.jpg","null","reveal","image-keyboard-response","10","149883","0.0-6.0-4.0","2940887","co37549","norming","","","","","","",""
"null","../img/tt/1269tt.jpg","null","mooney2","image-keyboard-response","11","151886","0.0-6.0-5.0","2940887","co37549","norming","","","","","","",""
"4313.450000000012","","","post_reveal_questions","survey-likert","12","156201","0.0-6.0-6.0","2940887","co37549","norming","","","{""aha"":4}","[0]","../img/tt/1269tt.jpg","",""
"null","<div style=""font-size:60px;""> </div>","null","fixation","html-keyboard-response","13","156411","0.0-6.0-0.1","2940887","co37549","norming","","","","","","",""
"null","../img/tt/001tt.jpg","null","mooney1","image-keyboard-response","14","159412","0.0-6.0-1.1","2940887","co37549","norming","","","","","","",""
"6156.274999999936","","","post_mooney1_questions","survey-likert","15","165569","0.0-6.0-2.1","2940887","co37549","norming","","","{""curiosity"":5,""confidence"":1}","[0,1]","../img/tt/001tt.jpg","",""
"4021.8300000000163","","","recognition","survey-text","16","169593","0.0-6.0-3.1","2940887","co37549","norming","","","{""guess"":""""}","","../img/tt/001tt.jpg","",""
"null","../img/gs/001gs.jpg","null","reveal","image-keyboard-response","17","171595","0.0-6.0-4.1","2940887","co37549","norming","","","","","","",""
"null","../img/tt/001tt.jpg","null","mooney2","image-keyboard-response","18","173597","0.0-6.0-5.1","2940887","co37549","norming","","","","","","",""
"2258.100000000006","","","post_reveal_questions","survey-likert","19","175857","0.0-6.0-6.1","2940887","co37549","norming","","","{""aha"":2}","[0]","../img/tt/001tt.jpg","",""
"null","<div style=""font-size:60px;""> </div>","null","fixation","html-keyboard-response","20","176063","0.0-6.0-0.2","2940887","co37549","norming","","","","","","",""
"null","../img/tt/418tt.jpg","null","mooney1","image-keyboard-response","21","179072","0.0-6.0-1.2","2940887","co37549","norming","","","","","","",""
"6046.86500000002","","","post_mooney1_questions","survey-likert","22","185188","0.0-6.0-2.2","2940887","co37549","norming","","","{""curiosity"":5,""confidence"":0}","[0,1]","../img/tt/418tt.jpg","",""
"1117.8450000000885","","","recognition","survey-text","23","186307","0.0-6.0-3.2","2940887","co37549","norming","","","{""guess"":""""}","","../img/tt/418tt.jpg","",""
"null","../img/gs/418gs.jpg","null","reveal","image-keyboard-response","24","188311","0.0-6.0-4.2","2940887","co37549","norming","","","","","","",""
"null","../img/tt/418tt.jpg","null","mooney2","image-keyboard-response","25","190314","0.0-6.0-5.2","2940887","co37549","norming","","","","","","",""
"2879.344999999943","","","post_reveal_questions","survey-likert","26","193195","0.0-6.0-6.2","2940887","co37549","norming","","","{""aha"":2}","[0]","../img/tt/418tt.jpg","",""
"null","<div style=""font-size:60px;""> </div>","null","fixation","html-keyboard-response","27","193397","0.0-6.0-0.3","2940887","co37549","norming","","","","","","",""
"null","../img/tt/301tt.jpg","null","mooney1","image-keyboard-response","28","196400","0.0-6.0-1.3","2940887","co37549","norming","","","","","","",""
"7178.909999999974","","","post_mooney1_questions","survey-likert","29","203580","0.0-6.0-2.3","2940887","co37549","norming","","","{""curiosity"":4,""confidence"":0}","[0,1]","../img/tt/301tt.jpg","",""
"934.0849999999627","","","recognition","survey-text","30","204515","0.0-6.0-3.3","2940887","co37549","norming","","","{""guess"":""""}","","../img/tt/301tt.jpg","",""
"null","../img/gs/301gs.jpg","null","reveal","image-keyboard-response","31","206522","0.0-6.0-4.3","2940887","co37549","norming","","","","","","",""
"null","../img/tt/301tt.jpg","null","mooney2","image-keyboard-response","32","208528","0.0-6.0-5.3","2940887","co37549","norming","","","","","","",""
"3057.594999999972","","","post_reveal_questions","survey-likert","33","211587","0.0-6.0-6.3","2940887","co37549","norming","","","{""aha"":3}","[0]","../img/tt/301tt.jpg","",""
"null","<div style=""font-size:60px;""> </div>","null","fixation","html-keyboard-response","34","211790","0.0-6.0-0.4","2940887","co37549","norming","","","","","","",""
"null","../img/tt/567tt.jpg","null","mooney1","image-keyboard-response","35","214801","0.0-6.0-1.4","2940887","co37549","norming","","","","","","",""
"5480.114999999962","","","post_mooney1_questions","survey-likert","36","220284","0.0-6.0-2.4","2940887","co37549","norming","","","{""curiosity"":4,""confidence"":5}","[0,1]","../img/tt/567tt.jpg","",""
"3070.1750000000466","","","recognition","survey-text","37","223356","0.0-6.0-3.4","2940887","co37549","norming","","","{""guess"":""toaster""}","","../img/tt/567tt.jpg","",""
"null","../img/gs/567gs.jpg","null","reveal","image-keyboard-response","38","225357","0.0-6.0-4.4","2940887","co37549","norming","","","","","","",""
"null","../img/tt/567tt.jpg","null","mooney2","image-keyboard-response","39","227371","0.0-6.0-5.4","2940887","co37549","norming","","","","","","",""
"6670.964999999909","","","post_reveal_questions","survey-likert","40","234044","0.0-6.0-6.4","2940887","co37549","norming","","","{""aha"":4}","[0]","../img/tt/567tt.jpg","",""
"null","<div style=""font-size:60px;""> </div>","null","fixation","html-keyboard-response","41","234245","0.0-6.0-0.5","2940887","co37549","norming","","","","","","",""
"null","../img/tt/1276tt.jpg","null","mooney1","image-keyboard-response","42","237248","0.0-6.0-1.5","2940887","co37549","norming","","","","","","",""
"5217.7699999999895","","","post_mooney1_questions","survey-likert","43","242468","0.0-6.0-2.5","2940887","co37549","norming","","","{""curiosity"":5,""confidence"":1}","[0,1]","../img/tt/1276tt.jpg","",""
"4934.089999999967","","","recognition","survey-text","44","247401","0.0-6.0-3.5","2940887","co37549","norming","","","{""guess"":""hooi""}","","../img/tt/1276tt.jpg","",""
"null","../img/gs/1276gs.jpg","null","reveal","image-keyboard-response","45","249406","0.0-6.0-4.5","2940887","co37549","norming","","","","","","",""
"null","../img/tt/1276tt.jpg","null","mooney2","image-keyboard-response","46","251416","0.0-6.0-5.5","2940887","co37549","norming","","","","","","",""
"3359.235000000015","","","post_reveal_questions","survey-likert","47","254777","0.0-6.0-6.5","2940887","co37549","norming","","","{""aha"":2}","[0]","../img/tt/1276tt.jpg","",""
"null","<div style=""font-size:60px;""> </div>","null","fixation","html-keyboard-response","48","254978","0.0-6.0-0.6","2940887","co37549","norming","","","","","","",""
"null","../img/tt/534tt.jpg","null","mooney1","image-keyboard-response","49","257988","0.0-6.0-1.6","2940887","co37549","norming","","","","","","",""
"8187.030000000057","","","post_mooney1_questions","survey-likert","50","266177","0.0-6.0-2.6","2940887","co37549","norming","","","{""curiosity"":5,""confidence"":1}","[0,1]","../img/tt/534tt.jpg","",""
"4454.229999999923","","","recognition","survey-text","51","270633","0.0-6.0-3.6","2940887","co37549","norming","","","{""guess"":""cactus""}","","../img/tt/534tt.jpg","",""
"null","../img/gs/534gs.jpg","null","reveal","image-keyboard-response","52","272635","0.0-6.0-4.6","2940887","co37549","norming","","","","","","",""
"null","../img/tt/534tt.jpg","null","mooney2","image-keyboard-response","53","274636","0.0-6.0-5.6","2940887","co37549","norming","","","","","","",""
"2899.3249999999534","","","post_reveal_questions","survey-likert","54","277537","0.0-6.0-6.6","2940887","co37549","norming","","","{""aha"":5}","[0]","../img/tt/534tt.jpg","",""
"null","<div style=""font-size:60px;""> </div>","null","fixation","html-keyboard-response","55","277738","0.0-6.0-0.7","2940887","co37549","norming","","","","","","",""
"null","../img/tt/1142tt.jpg","null","mooney1","image-keyboard-response","56","280746","0.0-6.0-1.7","2940887","co37549","norming","","","","","","",""
"9700.889999999956","","","post_mooney1_questions","survey-likert","57","290449","0.0-6.0-2.7","2940887","co37549","norming","","","{""curiosity"":6,""confidence"":2}","[0,1]","../img/tt/1142tt.jpg","",""
"6798.205000000016","","","recognition","survey-text","58","297249","0.0-6.0-3.7","2940887","co37549","norming","","","{""guess"":""volleybalspeler""}","","../img/tt/1142tt.jpg","",""
"null","../img/gs/1142gs.jpg","null","reveal","image-keyboard-response","59","299253","0.0-6.0-4.7","2940887","co37549","norming","","","","","","",""
"null","../img/tt/1142tt.jpg","null","mooney2","image-keyboard-response","60","301255","0.0-6.0-5.7","2940887","co37549","norming","","","","","","",""
"8865.479999999923","","","post_reveal_questions","survey-likert","61","310120","0.0-6.0-6.7","2940887","co37549","norming","","","{""aha"":3}","[0]","../img/tt/1142tt.jpg","",""
"null","<div style=""font-size:60px;""> </div>","null","fixation","html-keyboard-response","62","310322","0.0-6.0-0.8","2940887","co37549","norming","","","","","","",""
"null","../img/tt/1243tt.jpg","null","mooney1","image-keyboard-response","63","313325","0.0-6.0-1.8","2940887","co37549","norming","","","","","","",""
"11705.61499999999","","","post_mooney1_questions","survey-likert","64","325033","0.0-6.0-2.8","2940887","co37549","norming","","","{""curiosity"":3,""confidence"":1}","[0,1]","../img/tt/1243tt.jpg","",""
"3262.109999999986","","","recognition","survey-text","65","328296","0.0-6.0-3.8","2940887","co37549","norming","","","{""guess"":""kip""}","","../img/tt/1243tt.jpg","",""
"null","../img/gs/1243gs.jpg","null","reveal","image-keyboard-response","66","330305","0.0-6.0-4.8","2940887","co37549","norming","","","","","","",""
"null","../img/tt/1243tt.jpg","null","mooney2","image-keyboard-response","67","332307","0.0-6.0-5.8","2940887","co37549","norming","","","","","","",""
"4187.405000000028","","","post_reveal_questions","survey-likert","68","336496","0.0-6.0-6.8","2940887","co37549","norming","","","{""aha"":4}","[0]","../img/tt/1243tt.jpg","",""
"null","<div style=""font-size:60px;""> </div>","null","fixation","html-keyboard-response","69","336700","0.0-6.0-0.9","2940887","co37549","norming","","","","","","",""
"null","../img/tt/010tt.jpg","null","mooney1","image-keyboard-response","70","339703","0.0-6.0-1.9","2940887","co37549","norming","","","","","","",""
"7791.585000000079","","","post_mooney1_questions","survey-likert","71","347497","0.0-6.0-2.9","2940887","co37549","norming","","","{""curiosity"":6,""confidence"":1}","[0,1]","../img/tt/010tt.jpg","",""
"3822.0250000000233","","","recognition","survey-text","72","351320","0.0-6.0-3.9","2940887","co37549","norming","","","{""guess"":""koraal""}","","../img/tt/010tt.jpg","",""
"null","../img/gs/010gs.jpg","null","reveal","image-keyboard-response","73","353325","0.0-6.0-4.9","2940887","co37549","norming","","","","","","",""
"null","../img/tt/010tt.jpg","null","mooney2","image-keyboard-response","74","355335","0.0-6.0-5.9","2940887","co37549","norming","","","","","","",""
"3799.405000000028","","","post_reveal_questions","survey-likert","75","359136","0.0-6.0-6.9","2940887","co37549","norming","","","{""aha"":2}","[0]","../img/tt/010tt.jpg","",""
"null","<div style=""font-size:60px;""> </div>","null","fixation","html-keyboard-response","76","359346","0.0-6.0-0.10","2940887","co37549","norming","","","","","","",""
"null","../img/tt/013tt.jpg","null","mooney1","image-keyboard-response","77","362350","0.0-6.0-1.10","2940887","co37549","norming","","","","","","",""
"7759.850000000035","","","post_mooney1_questions","survey-likert","78","370111","0.0-6.0-2.10","2940887","co37549","norming","","","{""curiosity"":2,""confidence"":0}","[0,1]","../img/tt/013tt.jpg","",""
"2046.4250000000466","","","recognition","survey-text","79","372159","0.0-6.0-3.10","2940887","co37549","norming","","","{""guess"":""""}","","../img/tt/013tt.jpg","",""
"null","../img/gs/013gs.jpg","null","reveal","image-keyboard-response","80","374161","0.0-6.0-4.10","2940887","co37549","norming","","","","","","",""
"null","../img/tt/013tt.jpg","null","mooney2","image-keyboard-response","81","376165","0.0-6.0-5.10","2940887","co37549","norming","","","","","","",""
"3408.785000000091","","","post_reveal_questions","survey-likert","82","379575","0.0-6.0-6.10","2940887","co37549","norming","","","{""aha"":5}","[0]","../img/tt/013tt.jpg","",""
"null","<div style=""font-size:60px;""> </div>","null","fixation","html-keyboard-response","83","379781","0.0-6.0-0.11","2940887","co37549","norming","","","","","","",""
"null","../img/tt/1196tt.jpg","null","mooney1","image-keyboard-response","84","382785","0.0-6.0-1.11","2940887","co37549","norming","","","","","","",""
"5252.060000000056","","","post_mooney1_questions","survey-likert","85","388039","0.0-6.0-2.11","2940887","co37549","norming","","","{""curiosity"":4,""confidence"":1}","[0,1]","../img/tt/1196tt.jpg","",""
"4412.125000000058","","","recognition","survey-text","86","392455","0.0-6.0-3.11","2940887","co37549","norming","","","{""guess"":""turnsterz""}","","../img/tt/1196tt.jpg","",""
"null","../img/gs/1196gs.jpg","null","reveal","image-keyboard-response","87","394456","0.0-6.0-4.11","2940887","co37549","norming","","","","","","",""
"null","../img/tt/1196tt.jpg","null","mooney2","image-keyboard-response","88","396458","0.0-6.0-5.11","2940887","co37549","norming","","","","","","",""
"4314.9349999999395","","","post_reveal_questions","survey-likert","89","400775","0.0-6.0-6.11","2940887","co37549","norming","","","{""aha"":5}","[0]","../img/tt/1196tt.jpg","",""
"null","<div style=""font-size:60px;""> </div>","null","fixation","html-keyboard-response","90","400982","0.0-6.0-0.12","2940887","co37549","norming","","","","","","",""
"null","../img/tt/1362tt.jpg","null","mooney1","image-keyboard-response","91","403993","0.0-6.0-1.12","2940887","co37549","norming","","","","","","",""
"7132.04999999993","","","post_mooney1_questions","survey-likert","92","411127","0.0-6.0-2.12","2940887","co37549","norming","","","{""curiosity"":5,""confidence"":3}","[0,1]","../img/tt/1362tt.jpg","",""
"3630.1450000000186","","","recognition","survey-text","93","414759","0.0-6.0-3.12","2940887","co37549","norming","","","{""guess"":""platenspeler""}","","../img/tt/1362tt.jpg","",""
"null","../img/gs/1362gs.jpg","null","reveal","image-keyboard-response","94","416764","0.0-6.0-4.12","2940887","co37549","norming","","","","","","",""
"null","../img/tt/1362tt.jpg","null","mooney2","image-keyboard-response","95","418770","0.0-6.0-5.12","2940887","co37549","norming","","","","","","",""
"2243.6699999999837","","","post_reveal_questions","survey-likert","96","421015","0.0-6.0-6.12","2940887","co37549","norming","","","{""aha"":3}","[0]","../img/tt/1362tt.jpg","",""
"null","<div style=""font-size:60px;""> </div>","null","fixation","html-keyboard-response","97","421216","0.0-6.0-0.13","2940887","co37549","norming","","","","","","",""
"null","../img/tt/1232tt.jpg","null","mooney1","image-keyboard-response","98","424219","0.0-6.0-1.13","2940887","co37549","norming","","","","","","",""
"10553.440000000002","","","post_mooney1_questions","survey-likert","99","434778","0.0-6.0-2.13","2940887","co37549","norming","","","{""curiosity"":3,""confidence"":1}","[0,1]","../img/tt/1232tt.jpg","",""
"5790.734999999928","","","recognition","survey-text","100","440571","0.0-6.0-3.13","2940887","co37549","norming","","","{""guess"":""strand""}","","../img/tt/1232tt.jpg","",""
"null","../img/gs/1232gs.jpg","null","reveal","image-keyboard-response","101","442577","0.0-6.0-4.13","2940887","co37549","norming","","","","","","",""
"null","../img/tt/1232tt.jpg","null","mooney2","image-keyboard-response","102","444579","0.0-6.0-5.13","2940887","co37549","norming","","","","","","",""
"4038.020000000077","","","post_reveal_questions","survey-likert","103","448619","0.0-6.0-6.13","2940887","co37549","norming","","","{""aha"":1}","[0]","../img/tt/1232tt.jpg","",""
"null","<div style=""font-size:60px;""> </div>","null","fixation","html-keyboard-response","104","448828","0.0-6.0-0.14","2940887","co37549","norming","","","","","","",""
"null","../img/tt/599tt.jpg","null","mooney1","image-keyboard-response","105","451831","0.0-6.0-1.14","2940887","co37549","norming","","","","","","",""
"8543.375000000058","","","post_mooney1_questions","survey-likert","106","460379","0.0-6.0-2.14","2940887","co37549","norming","","","{""curiosity"":5,""confidence"":3}","[0,1]","../img/tt/599tt.jpg","",""
"2814.1149999999907","","","recognition","survey-text","107","463195","0.0-6.0-3.14","2940887","co37549","norming","","","{""guess"":""vogel""}","","../img/tt/599tt.jpg","",""
"null","../img/gs/599gs.jpg","null","reveal","image-keyboard-response","108","465197","0.0-6.0-4.14","2940887","co37549","norming","","","","","","",""
"null","../img/tt/599tt.jpg","null","mooney2","image-keyboard-response","109","467203","0.0-6.0-5.14","2940887","co37549","norming","","","","","","",""
"3821.6350000000093","","","post_reveal_questions","survey-likert","110","471026","0.0-6.0-6.14","2940887","co37549","norming","","","{""aha"":5}","[0]","../img/tt/599tt.jpg","",""
"null","<div style=""font-size:60px;""> </div>","null","fixation","html-keyboard-response","111","471229","0.0-6.0-0.15","2940887","co37549","norming","","","","","","",""
"null","../img/tt/044tt.jpg","null","mooney1","image-keyboard-response","112","474232","0.0-6.0-1.15","2940887","co37549","norming","","","","","","",""
"16896.62499999994","","","post_mooney1_questions","survey-likert","113","491125","0.0-6.0-2.15","2940887","co37549","norming","","","{""curiosity"":4,""confidence"":1}","[0,1]","../img/tt/044tt.jpg","",""
"3549.8400000000256","","","recognition","survey-text","114","494676","0.0-6.0-3.15","2940887","co37549","norming","","","{""guess"":""dozen""}","","../img/tt/044tt.jpg","",""
"null","../img/gs/044gs.jpg","null","reveal","image-keyboard-response","115","496680","0.0-6.0-4.15","2940887","co37549","norming","","","","","","",""
"null","../img/tt/044tt.jpg","null","mooney2","image-keyboard-response","116","498690","0.0-6.0-5.15","2940887","co37549","norming","","","","","","",""
"4313.110000000044","","","post_reveal_questions","survey-likert","117","503004","0.0-6.0-6.15","2940887","co37549","norming","","","{""aha"":1}","[0]","../img/tt/044tt.jpg","",""
"null","<div style=""font-size:60px;""> </div>","null","fixation","html-keyboard-response","118","503211","0.0-6.0-0.16","2940887","co37549","norming","","","","","","",""
"null","../img/tt/468tt.jpg","null","mooney1","image-keyboard-response","119","506216","0.0-6.0-1.16","2940887","co37549","norming","","","","","","",""
"9369.809999999881","","","post_mooney1_questions","survey-likert","120","515588","0.0-6.0-2.16","2940887","co37549","norming","","","{""curiosity"":4,""confidence"":1}","[0,1]","../img/tt/468tt.jpg","",""
"2574.109999999986","","","recognition","survey-text","121","518164","0.0-6.0-3.16","2940887","co37549","norming","","","{""guess"":""vogel""}","","../img/tt/468tt.jpg","",""
"null","../img/gs/468gs.jpg","null","reveal","image-keyboard-response","122","520171","0.0-6.0-4.16","2940887","co37549","norming","","","","","","",""
"null","../img/tt/468tt.jpg","null","mooney2","image-keyboard-response","123","522182","0.0-6.0-5.16","2940887","co37549","norming","","","","","","",""
"3404.8499999998603","","","post_reveal_questions","survey-likert","124","525588","0.0-6.0-6.16","2940887","co37549","norming","","","{""aha"":2}","[0]","../img/tt/468tt.jpg","",""
"null","<div style=""font-size:60px;""> </div>","null","fixation","html-keyboard-response","125","525799","0.0-6.0-0.17","2940887","co37549","norming","","","","","","",""
"null","../img/tt/056tt.jpg","null","mooney1","image-keyboard-response","126","528804","0.0-6.0-1.17","2940887","co37549","norming","","","","","","",""
"6413.6199999997625","","","post_mooney1_questions","survey-likert","127","535221","0.0-6.0-2.17","2940887","co37549","norming","","","{""curiosity"":5,""confidence"":0}","[0,1]","../img/tt/056tt.jpg","",""
"1493.844999999972","","","recognition","survey-text","128","536716","0.0-6.0-3.17","2940887","co37549","norming","","","{""guess"":""""}","","../img/tt/056tt.jpg","",""
"null","../img/gs/056gs.jpg","null","reveal","image-keyboard-response","129","538717","0.0-6.0-4.17","2940887","co37549","norming","","","","","","",""
"null","../img/tt/056tt.jpg","null","mooney2","image-keyboard-response","130","540724","0.0-6.0-5.17","2940887","co37549","norming","","","","","","",""
"4550.120000000112","","","post_reveal_questions","survey-likert","131","545276","0.0-6.0-6.17","2940887","co37549","norming","","","{""aha"":2}","[0]","../img/tt/056tt.jpg","",""
"null","<div style=""font-size:60px;""> </div>","null","fixation","html-keyboard-response","132","545486","0.0-6.0-0.18","2940887","co37549","norming","","","","","","",""
"null","../img/tt/1154tt.jpg","null","mooney1","image-keyboard-response","133","548497","0.0-6.0-1.18","2940887","co37549","norming","","","","","","",""
"8400.790000000154","","","post_mooney1_questions","survey-likert","134","556904","0.0-6.0-2.18","2940887","co37549","norming","","","{""curiosity"":5,""confidence"":1}","[0,1]","../img/tt/1154tt.jpg","",""
"4621.974999999977","","","recognition","survey-text","135","561528","0.0-6.0-3.18","2940887","co37549","norming","","","{""guess"":""bos""}","","../img/tt/1154tt.jpg","",""
"null","../img/gs/1154gs.jpg","null","reveal","image-keyboard-response","136","563535","0.0-6.0-4.18","2940887","co37549","norming","","","","","","",""
"null","../img/tt/1154tt.jpg","null","mooney2","image-keyboard-response","137","565545","0.0-6.0-5.18","2940887","co37549","norming","","","","","","",""
"5613.4799999997485","","","post_reveal_questions","survey-likert","138","571160","0.0-6.0-6.18","2940887","co37549","norming","","","{""aha"":5}","[0]","../img/tt/1154tt.jpg","",""
"null","<div style=""font-size:60px;""> </div>","null","fixation","html-keyboard-response","139","571362","0.0-6.0-0.19","2940887","co37549","norming","","","","","","",""
"null","../img/tt/477tt.jpg","null","mooney1","image-keyboard-response","140","574368","0.0-6.0-1.19","2940887","co37549","norming","","","","","","",""
"16078.669999999925","","","post_mooney1_questions","survey-likert","141","590448","0.0-6.0-2.19","2940887","co37549","norming","","","{""curiosity"":4,""confidence"":0}","[0,1]","../img/tt/477tt.jpg","",""
"1533.9299999998184","","","recognition","survey-text","142","591984","0.0-6.0-3.19","2940887","co37549","norming","","","{""guess"":""""}","","../img/tt/477tt.jpg","",""
"null","../img/gs/477gs.jpg","null","reveal","image-keyboard-response","143","593986","0.0-6.0-4.19","2940887","co37549","norming","","","","","","",""
"null","../img/tt/477tt.jpg","null","mooney2","image-keyboard-response","144","595988","0.0-6.0-5.19","2940887","co37549","norming","","","","","","",""
"4570.3300000000745","","","post_reveal_questions","survey-likert","145","600560","0.0-6.0-6.19","2940887","co37549","norming","","","{""aha"":3}","[0]","../img/tt/477tt.jpg","",""
"null","<div style=""font-size:60px;""> </div>","null","fixation","html-keyboard-response","146","600765","0.0-6.0-0.20","2940887","co37549","norming","","","","","","",""
"null","../img/tt/1226tt.jpg","null","mooney1","image-keyboard-response","147","603768","0.0-6.0-1.20","2940887","co37549","norming","","","","","","",""
"6574.210000000079","","","post_mooney1_questions","survey-likert","148","610345","0.0-6.0-2.20","2940887","co37549","norming","","","{""curiosity"":5,""confidence"":2}","[0,1]","../img/tt/1226tt.jpg","",""
"3470.0599999999395","","","recognition","survey-text","149","613815","0.0-6.0-3.20","2940887","co37549","norming","","","{""guess"":""kippen""}","","../img/tt/1226tt.jpg","",""
"null","../img/gs/1226gs.jpg","null","reveal","image-keyboard-response","150","615824","0.0-6.0-4.20","2940887","co37549","norming","","","","","","",""
"null","../img/tt/1226tt.jpg","null","mooney2","image-keyboard-response","151","617825","0.0-6.0-5.20","2940887","co37549","norming","","","","","","",""
"2035.5350000000326","","","post_reveal_questions","survey-likert","152","619863","0.0-6.0-6.20","2940887","co37549","norming","","","{""aha"":6}","[0]","../img/tt/1226tt.jpg","",""
"null","<div style=""font-size:60px;""> </div>","null","fixation","html-keyboard-response","153","620069","0.0-6.0-0.21","2940887","co37549","norming","","","","","","",""
"null","../img/tt/1049tt.jpg","null","mooney1","image-keyboard-response","154","623075","0.0-6.0-1.21","2940887","co37549","norming","","","","","","",""
"6224.65000000014","","","post_mooney1_questions","survey-likert","155","629303","0.0-6.0-2.21","2940887","co37549","norming","","","{""curiosity"":6,""confidence"":1}","[0,1]","../img/tt/1049tt.jpg","",""
"4398.235000000102","","","recognition","survey-text","156","633703","0.0-6.0-3.21","2940887","co37549","norming","","","{""guess"":""hoed""}","","../img/tt/1049tt.jpg","",""
"null","../img/gs/1049gs.jpg","null","reveal","image-keyboard-response","157","635704","0.0-6.0-4.21","2940887","co37549","norming","","","","","","",""
"null","../img/tt/1049tt.jpg","null","mooney2","image-keyboard-response","158","637715","0.0-6.0-5.21","2940887","co37549","norming","","","","","","",""
"5473.800000000047","","","post_reveal_questions","survey-likert","159","643191","0.0-6.0-6.21","2940887","co37549","norming","","","{""aha"":4}","[0]","../img/tt/1049tt.jpg","",""
"null","<div style=""font-size:60px;""> </div>","null","fixation","html-keyboard-response","160","643402","0.0-6.0-0.22","2940887","co37549","norming","","","","","","",""
"null","../img/tt/1102tt.jpg","null","mooney1","image-keyboard-response","161","646412","0.0-6.0-1.22","2940887","co37549","norming","","","","","","",""
"6784.3450000000885","","","post_mooney1_questions","survey-likert","162","653199","0.0-6.0-2.22","2940887","co37549","norming","","","{""curiosity"":4,""confidence"":1}","[0,1]","../img/tt/1102tt.jpg","",""
"3062.1049999999814","","","recognition","survey-text","163","656263","0.0-6.0-3.22","2940887","co37549","norming","","","{""guess"":""schip""}","","../img/tt/1102tt.jpg","",""
"null","../img/gs/1102gs.jpg","null","reveal","image-keyboard-response","164","658273","0.0-6.0-4.22","2940887","co37549","norming","","","","","","",""
"null","../img/tt/1102tt.jpg","null","mooney2","image-keyboard-response","165","660283","0.0-6.0-5.22","2940887","co37549","norming","","","","","","",""
"3609.5899999999674","","","post_reveal_questions","survey-likert","166","663895","0.0-6.0-6.22","2940887","co37549","norming","","","{""aha"":2}","[0]","../img/tt/1102tt.jpg","",""
"null","<div style=""font-size:60px;""> </div>","null","fixation","html-keyboard-response","167","664101","0.0-6.0-0.23","2940887","co37549","norming","","","","","","",""
"null","../img/tt/300tt.jpg","null","mooney1","image-keyboard-response","168","667113","0.0-6.0-1.23","2940887","co37549","norming","","","","","","",""
"7923.670000000158","","","post_mooney1_questions","survey-likert","169","675038","0.0-6.0-2.23","2940887","co37549","norming","","","{""curiosity"":5,""confidence"":2}","[0,1]","../img/tt/300tt.jpg","",""
"2230.3099999999395","","","recognition","survey-text","170","677270","0.0-6.0-3.23","2940887","co37549","norming","","","{""guess"":""kat""}","","../img/tt/300tt.jpg","",""
"null","../img/gs/300gs.jpg","null","reveal","image-keyboard-response","171","679272","0.0-6.0-4.23","2940887","co37549","norming","","","","","","",""
"null","../img/tt/300tt.jpg","null","mooney2","image-keyboard-response","172","681282","0.0-6.0-5.23","2940887","co37549","norming","","","","","","",""
"3081.554999999935","","","post_reveal_questions","survey-likert","173","684366","0.0-6.0-6.23","2940887","co37549","norming","","","{""aha"":1}","[0]","../img/tt/300tt.jpg","",""
"null","<div style=""font-size:60px;""> </div>","null","fixation","html-keyboard-response","174","684568","0.0-6.0-0.24","2940887","co37549","norming","","","","","","",""
"null","../img/tt/1228tt.jpg","null","mooney1","image-keyboard-response","175","687572","0.0-6.0-1.24","2940887","co37549","norming","","","","","","",""
"6249.055000000051","","","post_mooney1_questions","survey-likert","176","693822","0.0-6.0-2.24","2940887","co37549","norming","","","{""curiosity"":4,""confidence"":1}","[0,1]","../img/tt/1228tt.jpg","",""
"2869.969999999972","","","recognition","survey-text","177","696694","0.0-6.0-3.24","2940887","co37549","norming","","","{""guess"":""vogel""}","","../img/tt/1228tt.jpg","",""
"null","../img/gs/1228gs.jpg","null","reveal","image-keyboard-response","178","698696","0.0-6.0-4.24","2940887","co37549","norming","","","","","","",""
"null","../img/tt/1228tt.jpg","null","mooney2","image-keyboard-response","179","700702","0.0-6.0-5.24","2940887","co37549","norming","","","","","","",""
"5285.630000000121","","","post_reveal_questions","survey-likert","180","705990","0.0-6.0-6.24","2940887","co37549","norming","","","{""aha"":1}","[0]","../img/tt/1228tt.jpg","",""
"null","<div style=""font-size:60px;""> </div>","null","fixation","html-keyboard-response","181","706193","0.0-6.0-0.25","2940887","co37549","norming","","","","","","",""
"null","../img/tt/1186tt.jpg","null","mooney1","image-keyboard-response","182","709196","0.0-6.0-1.25","2940887","co37549","norming","","","","","","",""
"12079.689999999944","","","post_mooney1_questions","survey-likert","183","721278","0.0-6.0-2.25","2940887","co37549","norming","","","{""curiosity"":3,""confidence"":0}","[0,1]","../img/tt/1186tt.jpg","",""
"1750.0100000000093","","","recognition","survey-text","184","723030","0.0-6.0-3.25","2940887","co37549","norming","","","{""guess"":""""}","","../img/tt/1186tt.jpg","",""
"null","../img/gs/1186gs.jpg","null","reveal","image-keyboard-response","185","725032","0.0-6.0-4.25","2940887","co37549","norming","","","","","","",""
"null","../img/tt/1186tt.jpg","null","mooney2","image-keyboard-response","186","727042","0.0-6.0-5.25","2940887","co37549","norming","","","","","","",""
"6537.199999999953","","","post_reveal_questions","survey-likert","187","733582","0.0-6.0-6.25","2940887","co37549","norming","","","{""aha"":2}","[0]","../img/tt/1186tt.jpg","",""
"null","<div style=""font-size:60px;""> </div>","null","fixation","html-keyboard-response","188","733783","0.0-6.0-0.26","2940887","co37549","norming","","","","","","",""
"null","../img/tt/036tt.jpg","null","mooney1","image-keyboard-response","189","736795","0.0-6.0-1.26","2940887","co37549","norming","","","","","","",""
"5321.459999999846","","","post_mooney1_questions","survey-likert","190","742119","0.0-6.0-2.26","2940887","co37549","norming","","","{""curiosity"":5,""confidence"":3}","[0,1]","../img/tt/036tt.jpg","",""
"3270.1350000000093","","","recognition","survey-text","191","745391","0.0-6.0-3.26","2940887","co37549","norming","","","{""guess"":""bliksem""}","","../img/tt/036tt.jpg","",""
"null","../img/gs/036gs.jpg","null","reveal","image-keyboard-response","192","747400","0.0-6.0-4.26","2940887","co37549","norming","","","","","","",""
"null","../img/tt/036tt.jpg","null","mooney2","image-keyboard-response","193","749402","0.0-6.0-5.26","2940887","co37549","norming","","","","","","",""
"2018.6499999999069","","","post_reveal_questions","survey-likert","194","751423","0.0-6.0-6.26","2940887","co37549","norming","","","{""aha"":6}","[0]","../img/tt/036tt.jpg","",""
"null","<div style=""font-size:60px;""> </div>","null","fixation","html-keyboard-response","195","751625","0.0-6.0-0.27","2940887","co37549","norming","","","","","","",""
"null","../img/tt/1116tt.jpg","null","mooney1","image-keyboard-response","196","754630","0.0-6.0-1.27","2940887","co37549","norming","","","","","","",""
"5583.510000000009","","","post_mooney1_questions","survey-likert","197","760215","0.0-6.0-2.27","2940887","co37549","norming","","","{""curiosity"":5,""confidence"":3}","[0,1]","../img/tt/1116tt.jpg","",""
"3509.8900000001304","","","recognition","survey-text","198","763727","0.0-6.0-3.27","2940887","co37549","norming","","","{""guess"":""auto's""}","","../img/tt/1116tt.jpg","",""
"null","../img/gs/1116gs.jpg","null","reveal","image-keyboard-response","199","765733","0.0-6.0-4.27","2940887","co37549","norming","","","","","","",""
"null","../img/tt/1116tt.jpg","null","mooney2","image-keyboard-response","200","767742","0.0-6.0-5.27","2940887","co37549","norming","","","","","","",""
"3119.2899999998044","","","post_reveal_questions","survey-likert","201","770863","0.0-6.0-6.27","2940887","co37549","norming","","","{""aha"":4}","[0]","../img/tt/1116tt.jpg","",""
"null","<div style=""font-size:60px;""> </div>","null","fixation","html-keyboard-response","202","771071","0.0-6.0-0.28","2940887","co37549","norming","","","","","","",""
"null","../img/tt/1123tt.jpg","null","mooney1","image-keyboard-response","203","774082","0.0-6.0-1.28","2940887","co37549","norming","","","","","","",""
"5897.984999999986","","","post_mooney1_questions","survey-likert","204","779983","0.0-6.0-2.28","2940887","co37549","norming","","","{""curiosity"":5,""confidence"":4}","[0,1]","../img/tt/1123tt.jpg","",""
"3837.9850000001024","","","recognition","survey-text","205","783823","0.0-6.0-3.28","2940887","co37549","norming","","","{""guess"":""voetballer""}","","../img/tt/1123tt.jpg","",""
"null","../img/gs/1123gs.jpg","null","reveal","image-keyboard-response","206","785833","0.0-6.0-4.28","2940887","co37549","norming","","","","","","",""
"null","../img/tt/1123tt.jpg","null","mooney2","image-keyboard-response","207","787836","0.0-6.0-5.28","2940887","co37549","norming","","","","","","",""
"5169.180000000051","","","post_reveal_questions","survey-likert","208","793007","0.0-6.0-6.28","2940887","co37549","norming","","","{""aha"":3}","[0]","../img/tt/1123tt.jpg","",""
"null","<div style=""font-size:60px;""> </div>","null","fixation","html-keyboard-response","209","793209","0.0-6.0-0.29","2940887","co37549","norming","","","","","","",""
"null","../img/tt/1239tt.jpg","null","mooney1","image-keyboard-response","210","796214","0.0-6.0-1.29","2940887","co37549","norming","","","","","","",""
"5854.425000000047","","","post_mooney1_questions","survey-likert","211","802071","0.0-6.0-2.29","2940887","co37549","norming","","","{""curiosity"":6,""confidence"":5}","[0,1]","../img/tt/1239tt.jpg","",""
"2374.3150000000605","","","recognition","survey-text","212","804447","0.0-6.0-3.29","2940887","co37549","norming","","","{""guess"":""hond""}","","../img/tt/1239tt.jpg","",""
"null","../img/gs/1239gs.jpg","null","reveal","image-keyboard-response","213","806456","0.0-6.0-4.29","2940887","co37549","norming","","","","","","",""
"null","../img/tt/1239tt.jpg","null","mooney2","image-keyboard-response","214","808459","0.0-6.0-5.29","2940887","co37549","norming","","","","","","",""
"2162.170000000042","","","post_reveal_questions","survey-likert","215","810623","0.0-6.0-6.29","2940887","co37549","norming","","","{""aha"":5}","[0]","../img/tt/1239tt.jpg","",""
"null","<div style=""font-size:60px;""> </div>","null","fixation","html-keyboard-response","216","810825","0.0-6.0-0.30","2940887","co37549","norming","","","","","","",""
"null","../img/tt/552tt.jpg","null","mooney1","image-keyboard-response","217","813828","0.0-6.0-1.30","2940887","co37549","norming","","","","","","",""
"6592.844999999856","","","post_mooney1_questions","survey-likert","218","820431","0.0-6.0-2.30","2940887","co37549","norming","","","{""curiosity"":6,""confidence"":5}","[0,1]","../img/tt/552tt.jpg","",""
"2974.2899999998044","","","recognition","survey-text","219","823407","0.0-6.0-3.30","2940887","co37549","norming","","","{""guess"":""stinkdier""}","","../img/tt/552tt.jpg","",""
"null","../img/gs/552gs.jpg","null","reveal","image-keyboard-response","220","825412","0.0-6.0-4.30","2940887","co37549","norming","","","","","","",""
"null","../img/tt/552tt.jpg","null","mooney2","image-keyboard-response","221","827414","0.0-6.0-5.30","2940887","co37549","norming","","","","","","",""
"2703.555000000051","","","post_reveal_questions","survey-likert","222","830119","0.0-6.0-6.30","2940887","co37549","norming","","","{""aha"":6}","[0]","../img/tt/552tt.jpg","",""
"null","<div style=""font-size:60px;""> </div>","null","fixation","html-keyboard-response","223","830328","0.0-6.0-0.31","2940887","co37549","norming","","","","","","",""
"null","../img/tt/1191tt.jpg","null","mooney1","image-keyboard-response","224","833330","0.0-6.0-1.31","2940887","co37549","norming","","","","","","",""
"5506.7050000000745","","","post_mooney1_questions","survey-likert","225","838839","0.0-6.0-2.31","2940887","co37549","norming","","","{""curiosity"":6,""confidence"":5}","[0,1]","../img/tt/1191tt.jpg","",""
"2102.1300000000047","","","recognition","survey-text","226","840943","0.0-6.0-3.31","2940887","co37549","norming","","","{""guess"":""dansers""}","","../img/tt/1191tt.jpg","",""
"null","../img/gs/1191gs.jpg","null","reveal","image-keyboard-response","227","842952","0.0-6.0-4.31","2940887","co37549","norming","","","","","","",""
"null","../img/tt/1191tt.jpg","null","mooney2","image-keyboard-response","228","844954","0.0-6.0-5.31","2940887","co37549","norming","","","","","","",""
"4026.9100000000326","","","post_reveal_questions","survey-likert","229","848983","0.0-6.0-6.31","2940887","co37549","norming","","","{""aha"":5}","[0]","../img/tt/1191tt.jpg","",""
"null","<div style=""font-size:60px;""> </div>","null","fixation","html-keyboard-response","230","849193","0.0-6.0-0.32","2940887","co37549","norming","","","","","","",""
"null","../img/tt/273tt.jpg","null","mooney1","image-keyboard-response","231","852196","0.0-6.0-1.32","2940887","co37549","norming","","","","","","",""
"5600.130000000121","","","post_mooney1_questions","survey-likert","232","857794","0.0-6.0-2.32","2940887","co37549","norming","","","{""curiosity"":6,""confidence"":4}","[0,1]","../img/tt/273tt.jpg","",""
"4998.045000000042","","","recognition","survey-text","233","862794","0.0-6.0-3.32","2940887","co37549","norming","","","{""guess"":""iemand met blokjes""}","","../img/tt/273tt.jpg","",""
"null","../img/gs/273gs.jpg","null","reveal","image-keyboard-response","234","864796","0.0-6.0-4.32","2940887","co37549","norming","","","","","","",""
"null","../img/tt/273tt.jpg","null","mooney2","image-keyboard-response","235","866798","0.0-6.0-5.32","2940887","co37549","norming","","","","","","",""
"3649.394999999902","","","post_reveal_questions","survey-likert","236","870450","0.0-6.0-6.32","2940887","co37549","norming","","","{""aha"":4}","[0]","../img/tt/273tt.jpg","",""
"null","<div style=""font-size:60px;""> </div>","null","fixation","html-keyboard-response","237","870651","0.0-6.0-0.33","2940887","co37549","norming","","","","","","",""
"null","../img/tt/1283tt.jpg","null","mooney1","image-keyboard-response","238","873654","0.0-6.0-1.33","2940887","co37549","norming","","","","","","",""
"7762.245000000112","","","post_mooney1_questions","survey-likert","239","881418","0.0-6.0-2.33","2940887","co37549","norming","","","{""curiosity"":4,""confidence"":1}","[0,1]","../img/tt/1283tt.jpg","",""
"1534.1750000000466","","","recognition","survey-text","240","882954","0.0-6.0-3.33","2940887","co37549","norming","","","{""guess"":""gras""}","","../img/tt/1283tt.jpg","",""
"null","../img/gs/1283gs.jpg","null","reveal","image-keyboard-response","241","884956","0.0-6.0-4.33","2940887","co37549","norming","","","","","","",""
"null","../img/tt/1283tt.jpg","null","mooney2","image-keyboard-response","242","886966","0.0-6.0-5.33","2940887","co37549","norming","","","","","","",""
"5945.459999999846","","","post_reveal_questions","survey-likert","243","892914","0.0-6.0-6.33","2940887","co37549","norming","","","{""aha"":5}","[0]","../img/tt/1283tt.jpg","",""
"null","<div style=""font-size:60px;""> </div>","null","fixation","html-keyboard-response","244","893117","0.0-6.0-0.34","2940887","co37549","norming","","","","","","",""
"null","../img/tt/406tt.jpg","null","mooney1","image-keyboard-response","245","896120","0.0-6.0-1.34","2940887","co37549","norming","","","","","","",""
"6823.474999999977","","","post_mooney1_questions","survey-likert","246","902946","0.0-6.0-2.34","2940887","co37549","norming","","","{""curiosity"":4,""confidence"":0}","[0,1]","../img/tt/406tt.jpg","",""
"1622.2100000000792","","","recognition","survey-text","247","904570","0.0-6.0-3.34","2940887","co37549","norming","","","{""guess"":""""}","","../img/tt/406tt.jpg","",""
"null","../img/gs/406gs.jpg","null","reveal","image-keyboard-response","248","906571","0.0-6.0-4.34","2940887","co37549","norming","","","","","","",""
"null","../img/tt/406tt.jpg","null","mooney2","image-keyboard-response","249","908573","0.0-6.0-5.34","2940887","co37549","norming","","","","","","",""
"4313.785000000033","","","post_reveal_questions","survey-likert","250","912889","0.0-6.0-6.34","2940887","co37549","norming","","","{""aha"":1}","[0]","../img/tt/406tt.jpg","",""
"null","<div style=""font-size:60px;""> </div>","null","fixation","html-keyboard-response","251","913091","0.0-6.0-0.35","2940887","co37549","norming","","","","","","",""
"null","../img/tt/046tt.jpg","null","mooney1","image-keyboard-response","252","916096","0.0-6.0-1.35","2940887","co37549","norming","","","","","","",""
"5630.799999999814","","","post_mooney1_questions","survey-likert","253","921731","0.0-6.0-2.35","2940887","co37549","norming","","","{""curiosity"":5,""confidence"":1}","[0,1]","../img/tt/046tt.jpg","",""
"14310.03999999992","","","recognition","survey-text","254","936043","0.0-6.0-3.35","2940887","co37549","norming","","","{""guess"":""vogel""}","","../img/tt/046tt.jpg","",""
"null","../img/gs/046gs.jpg","null","reveal","image-keyboard-response","255","938049","0.0-6.0-4.35","2940887","co37549","norming","","","","","","",""
"null","../img/tt/046tt.jpg","null","mooney2","image-keyboard-response","256","940060","0.0-6.0-5.35","2940887","co37549","norming","","","","","","",""
"3643.8500000002095","","","post_reveal_questions","survey-likert","257","943707","0.0-6.0-6.35","2940887","co37549","norming","","","{""aha"":2}","[0]","../img/tt/046tt.jpg","",""
"null","<div style=""font-size:60px;""> </div>","null","fixation","html-keyboard-response","258","943916","0.0-6.0-0.36","2940887","co37549","norming","","","","","","",""
"null","../img/tt/1363tt.jpg","null","mooney1","image-keyboard-response","259","946921","0.0-6.0-1.36","2940887","co37549","norming","","","","","","",""
"3592.285000000149","","","post_mooney1_questions","survey-likert","260","950515","0.0-6.0-2.36","2940887","co37549","norming","","","{""curiosity"":4,""confidence"":0}","[0,1]","../img/tt/1363tt.jpg","",""
"950.1349999997765","","","recognition","survey-text","261","951467","0.0-6.0-3.36","2940887","co37549","norming","","","{""guess"":""""}","","../img/tt/1363tt.jpg","",""
"null","../img/gs/1363gs.jpg","null","reveal","image-keyboard-response","262","953469","0.0-6.0-4.36","2940887","co37549","norming","","","","","","",""
"null","../img/tt/1363tt.jpg","null","mooney2","image-keyboard-response","263","955471","0.0-6.0-5.36","2940887","co37549","norming","","","","","","",""
"4065.320000000065","","","post_reveal_questions","survey-likert","264","959538","0.0-6.0-6.36","2940887","co37549","norming","","","{""aha"":1}","[0]","../img/tt/1363tt.jpg","",""
"null","<div style=""font-size:60px;""> </div>","null","fixation","html-keyboard-response","265","959740","0.0-6.0-0.37","2940887","co37549","norming","","","","","","",""
"null","../img/tt/358tt.jpg","null","mooney1","image-keyboard-response","266","962743","0.0-6.0-1.37","2940887","co37549","norming","","","","","","",""
"6185.364999999991","","","post_mooney1_questions","survey-likert","267","968931","0.0-6.0-2.37","2940887","co37549","norming","","","{""curiosity"":4,""confidence"":1}","[0,1]","../img/tt/358tt.jpg","",""
"1637.5900000000838","","","recognition","survey-text","268","970571","0.0-6.0-3.37","2940887","co37549","norming","","","{""guess"":""hond""}","","../img/tt/358tt.jpg","",""
"null","../img/gs/358gs.jpg","null","reveal","image-keyboard-response","269","972578","0.0-6.0-4.37","2940887","co37549","norming","","","","","","",""
"null","../img/tt/358tt.jpg","null","mooney2","image-keyboard-response","270","974588","0.0-6.0-5.37","2940887","co37549","norming","","","","","","",""
"3795.7800000001444","","","post_reveal_questions","survey-likert","271","978387","0.0-6.0-6.37","2940887","co37549","norming","","","{""aha"":3}","[0]","../img/tt/358tt.jpg","",""
"null","<div style=""font-size:60px;""> </div>","null","fixation","html-keyboard-response","272","978589","0.0-6.0-0.38","2940887","co37549","norming","","","","","","",""
"null","../img/tt/135tt.jpg","null","mooney1","image-keyboard-response","273","981606","0.0-6.0-1.38","2940887","co37549","norming","","","","","","",""
"4253.129999999772","","","post_mooney1_questions","survey-likert","274","985860","0.0-6.0-2.38","2940887","co37549","norming","","","{""curiosity"":5,""confidence"":4}","[0,1]","../img/tt/135tt.jpg","",""
"2190.0850000001956","","","recognition","survey-text","275","988052","0.0-6.0-3.38","2940887","co37549","norming","","","{""guess"":""toilet""}","","../img/tt/135tt.jpg","",""
"null","../img/gs/135gs.jpg","null","reveal","image-keyboard-response","276","990058","0.0-6.0-4.38","2940887","co37549","norming","","","","","","",""
"null","../img/tt/135tt.jpg","null","mooney2","image-keyboard-response","277","992070","0.0-6.0-5.38","2940887","co37549","norming","","","","","","",""
"1484.1099999998696","","","post_reveal_questions","survey-likert","278","993556","0.0-6.0-6.38","2940887","co37549","norming","","","{""aha"":4}","[0]","../img/tt/135tt.jpg","",""
"null","<div style=""font-size:60px;""> </div>","null","fixation","html-keyboard-response","279","993759","0.0-6.0-0.39","2940887","co37549","norming","","","","","","",""
"null","../img/tt/1061tt.jpg","null","mooney1","image-keyboard-response","280","996767","0.0-6.0-1.39","2940887","co37549","norming","","","","","","",""
"10098.129999999888","","","post_mooney1_questions","survey-likert","281","1006868","0.0-6.0-2.39","2940887","co37549","norming","","","{""curiosity"":6,""confidence"":3}","[0,1]","../img/tt/1061tt.jpg","",""
"3166.1650000001537","","","recognition","survey-text","282","1010036","0.0-6.0-3.39","2940887","co37549","norming","","","{""guess"":""man in park""}","","../img/tt/1061tt.jpg","",""
"null","../img/gs/1061gs.jpg","null","reveal","image-keyboard-response","283","1012046","0.0-6.0-4.39","2940887","co37549","norming","","","","","","",""
"null","../img/tt/1061tt.jpg","null","mooney2","image-keyboard-response","284","1014048","0.0-6.0-5.39","2940887","co37549","norming","","","","","","",""
"6426.125","","","post_reveal_questions","survey-likert","285","1020476","0.0-6.0-6.39","2940887","co37549","norming","","","{""aha"":3}","[0]","../img/tt/1061tt.jpg","",""
"null","<div style=""font-size:60px;""> </div>","null","fixation","html-keyboard-response","286","1020677","0.0-6.0-0.40","2940887","co37549","norming","","","","","","",""
"null","../img/tt/1087tt.jpg","null","mooney1","image-keyboard-response","287","1023686","0.0-6.0-1.40","2940887","co37549","norming","","","","","","",""
"4084.484999999986","","","post_mooney1_questions","survey-likert","288","1027772","0.0-6.0-2.40","2940887","co37549","norming","","","{""curiosity"":4,""confidence"":1}","[0,1]","../img/tt/1087tt.jpg","",""
"3126.195000000065","","","recognition","survey-text","289","1030900","0.0-6.0-3.40","2940887","co37549","norming","","","{""guess"":""varkens""}","","../img/tt/1087tt.jpg","",""
"null","../img/gs/1087gs.jpg","null","reveal","image-keyboard-response","290","1032909","0.0-6.0-4.40","2940887","co37549","norming","","","","","","",""
"null","../img/tt/1087tt.jpg","null","mooney2","image-keyboard-response","291","1034911","0.0-6.0-5.40","2940887","co37549","norming","","","","","","",""
"3426.2750000000233","","","post_reveal_questions","survey-likert","292","1038340","0.0-6.0-6.40","2940887","co37549","norming","","","{""aha"":4}","[0]","../img/tt/1087tt.jpg","",""
"null","<div style=""font-size:60px;""> </div>","null","fixation","html-keyboard-response","293","1038551","0.0-6.0-0.41","2940887","co37549","norming","","","","","","",""
"null","../img/tt/329tt.jpg","null","mooney1","image-keyboard-response","294","1041558","0.0-6.0-1.41","2940887","co37549","norming","","","","","","",""
"7053.104999999865","","","post_mooney1_questions","survey-likert","295","1048605","0.0-6.0-2.41","2940887","co37549","norming","","","{""curiosity"":4,""confidence"":1}","[0,1]","../img/tt/329tt.jpg","",""
"4014.225000000326","","","recognition","survey-text","296","1052621","0.0-6.0-3.41","2940887","co37549","norming","","","{""guess"":""glijbaan""}","","../img/tt/329tt.jpg","",""
"null","../img/gs/329gs.jpg","null","reveal","image-keyboard-response","297","1054630","0.0-6.0-4.41","2940887","co37549","norming","","","","","","",""
"null","../img/tt/329tt.jpg","null","mooney2","image-keyboard-response","298","1056633","0.0-6.0-5.41","2940887","co37549","norming","","","","","","",""
"2322.1650000000373","","","post_reveal_questions","survey-likert","299","1058957","0.0-6.0-6.41","2940887","co37549","norming","","","{""aha"":4}","[0]","../img/tt/329tt.jpg","",""
"null","<div style=""font-size:60px;""> </div>","null","fixation","html-keyboard-response","300","1059163","0.0-6.0-0.42","2940887","co37549","norming","","","","","","",""
"null","../img/tt/1217tt.jpg","null","mooney1","image-keyboard-response","301","1062170","0.0-6.0-1.42","2940887","co37549","norming","","","","","","",""
"11184.535000000149","","","post_mooney1_questions","survey-likert","302","1073357","0.0-6.0-2.42","2940887","co37549","norming","","","{""curiosity"":5,""confidence"":2}","[0,1]","../img/tt/1217tt.jpg","",""
"4941.930000000168","","","recognition","survey-text","303","1078301","0.0-6.0-3.42","2940887","co37549","norming","","","{""guess"":""basketbalspeler""}","","../img/tt/1217tt.jpg","",""
"null","../img/gs/1217gs.jpg","null","reveal","image-keyboard-response","304","1080309","0.0-6.0-4.42","2940887","co37549","norming","","","","","","",""
"null","../img/tt/1217tt.jpg","null","mooney2","image-keyboard-response","305","1082315","0.0-6.0-5.42","2940887","co37549","norming","","","","","","",""
"4412.945000000065","","","post_reveal_questions","survey-likert","306","1086733","0.0-6.0-6.42","2940887","co37549","norming","","","{""aha"":4}","[0]","../img/tt/1217tt.jpg","",""
"null","<div style=""font-size:60px;""> </div>","null","fixation","html-keyboard-response","307","1086935","0.0-6.0-0.43","2940887","co37549","norming","","","","","","",""
"null","../img/tt/549tt.jpg","null","mooney1","image-keyboard-response","308","1089941","0.0-6.0-1.43","2940887","co37549","norming","","","","","","",""
"8279.034999999916","","","post_mooney1_questions","survey-likert","309","1098221","0.0-6.0-2.43","2940887","co37549","norming","","","{""curiosity"":5,""confidence"":1}","[0,1]","../img/tt/549tt.jpg","",""
"2125.8600000001024","","","recognition","survey-text","310","1100349","0.0-6.0-3.43","2940887","co37549","norming","","","{""guess"":""vis""}","","../img/tt/549tt.jpg","",""
"null","../img/gs/549gs.jpg","null","reveal","image-keyboard-response","311","1102352","0.0-6.0-4.43","2940887","co37549","norming","","","","","","",""
"null","../img/tt/549tt.jpg","null","mooney2","image-keyboard-response","312","1104360","0.0-6.0-5.43","2940887","co37549","norming","","","","","","",""
"7401.280000000028","","","post_reveal_questions","survey-likert","313","1111764","0.0-6.0-6.43","2940887","co37549","norming","","","{""aha"":4}","[0]","../img/tt/549tt.jpg","",""
"null","<div style=""font-size:60px;""> </div>","null","fixation","html-keyboard-response","314","1111974","0.0-6.0-0.44","2940887","co37549","norming","","","","","","",""
"null","../img/tt/378tt.jpg","null","mooney1","image-keyboard-response","315","1114976","0.0-6.0-1.44","2940887","co37549","norming","","","","","","",""
"7680.499999999767","","","post_mooney1_questions","survey-likert","316","1122660","0.0-6.0-2.44","2940887","co37549","norming","","","{""curiosity"":3,""confidence"":0}","[0,1]","../img/tt/378tt.jpg","",""
"1150.1399999998976","","","recognition","survey-text","317","1123811","0.0-6.0-3.44","2940887","co37549","norming","","","{""guess"":""""}","","../img/tt/378tt.jpg","",""
"null","../img/gs/378gs.jpg","null","reveal","image-keyboard-response","318","1125816","0.0-6.0-4.44","2940887","co37549","norming","","","","","","",""
"null","../img/tt/378tt.jpg","null","mooney2","image-keyboard-response","319","1127827","0.0-6.0-5.44","2940887","co37549","norming","","","","","","",""
"3638.554999999935","","","post_reveal_questions","survey-likert","320","1131468","0.0-6.0-6.44","2940887","co37549","norming","","","{""aha"":2}","[0]","../img/tt/378tt.jpg","",""
"null","<div style=""font-size:60px;""> </div>","null","fixation","html-keyboard-response","321","1131673","0.0-6.0-0.45","2940887","co37549","norming","","","","","","",""
"null","../img/tt/081tt.jpg","null","mooney1","image-keyboard-response","322","1134675","0.0-6.0-1.45","2940887","co37549","norming","","","","","","",""
"7750.085000000196","","","post_mooney1_questions","survey-likert","323","1142428","0.0-6.0-2.45","2940887","co37549","norming","","","{""curiosity"":6,""confidence"":2}","[0,1]","../img/tt/081tt.jpg","",""
"5606.004999999655","","","recognition","survey-text","324","1148035","0.0-6.0-3.45","2940887","co37549","norming","","","{""guess"":""hond""}","","../img/tt/081tt.jpg","",""
"null","../img/gs/081gs.jpg","null","reveal","image-keyboard-response","325","1150037","0.0-6.0-4.45","2940887","co37549","norming","","","","","","",""
"null","../img/tt/081tt.jpg","null","mooney2","image-keyboard-response","326","1152039","0.0-6.0-5.45","2940887","co37549","norming","","","","","","",""
"2362.6200000001118","","","post_reveal_questions","survey-likert","327","1154403","0.0-6.0-6.45","2940887","co37549","norming","","","{""aha"":6}","[0]","../img/tt/081tt.jpg","",""
"null","<div style=""font-size:60px;""> </div>","null","fixation","html-keyboard-response","328","1154607","0.0-6.0-0.46","2940887","co37549","norming","","","","","","",""
"null","../img/tt/1159tt.jpg","null","mooney1","image-keyboard-response","329","1157618","0.0-6.0-1.46","2940887","co37549","norming","","","","","","",""
"4753.08499999973","","","post_mooney1_questions","survey-likert","330","1162372","0.0-6.0-2.46","2940887","co37549","norming","","","{""curiosity"":5,""confidence"":4}","[0,1]","../img/tt/1159tt.jpg","",""
"1806.1299999998882","","","recognition","survey-text","331","1164180","0.0-6.0-3.46","2940887","co37549","norming","","","{""guess"":""trein""}","","../img/tt/1159tt.jpg","",""
"null","../img/gs/1159gs.jpg","null","reveal","image-keyboard-response","332","1166183","0.0-6.0-4.46","2940887","co37549","norming","","","","","","",""
"null","../img/tt/1159tt.jpg","null","mooney2","image-keyboard-response","333","1168191","0.0-6.0-5.46","2940887","co37549","norming","","","","","","",""
"3556.779999999795","","","post_reveal_questions","survey-likert","334","1171751","0.0-6.0-6.46","2940887","co37549","norming","","","{""aha"":2}","[0]","../img/tt/1159tt.jpg","",""
"null","<div style=""font-size:60px;""> </div>","null","fixation","html-keyboard-response","335","1171954","0.0-6.0-0.47","2940887","co37549","norming","","","","","","",""
"null","../img/tt/1171tt.jpg","null","mooney1","image-keyboard-response","336","1174961","0.0-6.0-1.47","2940887","co37549","norming","","","","","","",""
"7858.510000000009","","","post_mooney1_questions","survey-likert","337","1182823","0.0-6.0-2.47","2940887","co37549","norming","","","{""curiosity"":6,""confidence"":4}","[0,1]","../img/tt/1171tt.jpg","",""
"1877.7399999999907","","","recognition","survey-text","338","1184703","0.0-6.0-3.47","2940887","co37549","norming","","","{""guess"":""vrouw""}","","../img/tt/1171tt.jpg","",""
"null","../img/gs/1171gs.jpg","null","reveal","image-keyboard-response","339","1186712","0.0-6.0-4.47","2940887","co37549","norming","","","","","","",""
"null","../img/tt/1171tt.jpg","null","mooney2","image-keyboard-response","340","1188721","0.0-6.0-5.47","2940887","co37549","norming","","","","","","",""
"4315.1049999997485","","","post_reveal_questions","survey-likert","341","1193039","0.0-6.0-6.47","2940887","co37549","norming","","","{""aha"":3}","[0]","../img/tt/1171tt.jpg","",""
"null","<div style=""font-size:60px;""> </div>","null","fixation","html-keyboard-response","342","1193240","0.0-6.0-0.48","2940887","co37549","norming","","","","","","",""
"null","../img/tt/1290tt.jpg","null","mooney1","image-keyboard-response","343","1196252","0.0-6.0-1.48","2940887","co37549","norming","","","","","","",""
"5335.459999999963","","","post_mooney1_questions","survey-likert","344","1201591","0.0-6.0-2.48","2940887","co37549","norming","","","{""curiosity"":5,""confidence"":2}","[0,1]","../img/tt/1290tt.jpg","",""
"1958.2700000000186","","","recognition","survey-text","345","1203551","0.0-6.0-3.48","2940887","co37549","norming","","","{""guess"":""trein""}","","../img/tt/1290tt.jpg","",""
"null","../img/gs/1290gs.jpg","null","reveal","image-keyboard-response","346","1205553","0.0-6.0-4.48","2940887","co37549","norming","","","","","","",""
"null","../img/tt/1290tt.jpg","null","mooney2","image-keyboard-response","347","1207555","0.0-6.0-5.48","2940887","co37549","norming","","","","","","",""
"4329.630000000121","","","post_reveal_questions","survey-likert","348","1211887","0.0-6.0-6.48","2940887","co37549","norming","","","{""aha"":4}","[0]","../img/tt/1290tt.jpg","",""
"null","<div style=""font-size:60px;""> </div>","null","fixation","html-keyboard-response","349","1212097","0.0-6.0-0.49","2940887","co37549","norming","","","","","","",""
"null","../img/tt/019tt.jpg","null","mooney1","image-keyboard-response","350","1215101","0.0-6.0-1.49","2940887","co37549","norming","","","","","","",""
"3903.2050000000745","","","post_mooney1_questions","survey-likert","351","1219007","0.0-6.0-2.49","2940887","co37549","norming","","","{""curiosity"":3,""confidence"":0}","[0,1]","../img/tt/019tt.jpg","",""
"1029.8049999999348","","","recognition","survey-text","352","1220039","0.0-6.0-3.49","2940887","co37549","norming","","","{""guess"":""""}","","../img/tt/019tt.jpg","",""
"null","../img/gs/019gs.jpg","null","reveal","image-keyboard-response","353","1222041","0.0-6.0-4.49","2940887","co37549","norming","","","","","","",""
"null","../img/tt/019tt.jpg","null","mooney2","image-keyboard-response","354","1224044","0.0-6.0-5.49","2940887","co37549","norming","","","","","","",""
"3617.2899999998044","","","post_reveal_questions","survey-likert","355","1227665","0.0-6.0-6.49","2940887","co37549","norming","","","{""aha"":2}","[0]","../img/tt/019tt.jpg","",""
"null","<div style=""font-size:60px;""> </div>","null","fixation","html-keyboard-response","356","1227869","0.0-6.0-0.50","2940887","co37549","norming","","","","","","",""
"null","../img/tt/497tt.jpg","null","mooney1","image-keyboard-response","357","1230874","0.0-6.0-1.50","2940887","co37549","norming","","","","","","",""
"10491.490000000224","","","post_mooney1_questions","survey-likert","358","1241369","0.0-6.0-2.50","2940887","co37549","norming","","","{""curiosity"":4,""confidence"":2}","[0,1]","../img/tt/497tt.jpg","",""
"3749.720000000205","","","recognition","survey-text","359","1245121","0.0-6.0-3.50","2940887","co37549","norming","","","{""guess"":""platenspeler""}","","../img/tt/497tt.jpg","",""
"null","../img/gs/497gs.jpg","null","reveal","image-keyboard-response","360","1247123","0.0-6.0-4.50","2940887","co37549","norming","","","","","","",""
"null","../img/tt/497tt.jpg","null","mooney2","image-keyboard-response","361","1249134","0.0-6.0-5.50","2940887","co37549","norming","","","","","","",""
"4664.180000000168","","","post_reveal_questions","survey-likert","362","1253801","0.0-6.0-6.50","2940887","co37549","norming","","","{""aha"":2}","[0]","../img/tt/497tt.jpg","",""
"null","<div style=""font-size:60px;""> </div>","null","fixation","html-keyboard-response","363","1254008","0.0-6.0-0.51","2940887","co37549","norming","","","","","","",""
"null","../img/tt/412tt.jpg","null","mooney1","image-keyboard-response","364","1257016","0.0-6.0-1.51","2940887","co37549","norming","","","","","","",""
"4405.844999999972","","","post_mooney1_questions","survey-likert","365","1261425","0.0-6.0-2.51","2940887","co37549","norming","","","{""curiosity"":3,""confidence"":0}","[0,1]","../img/tt/412tt.jpg","",""
"366.2600000000093","","","recognition","survey-text","366","1261793","0.0-6.0-3.51","2940887","co37549","norming","","","{""guess"":""""}","","../img/tt/412tt.jpg","",""
"null","../img/gs/412gs.jpg","null","reveal","image-keyboard-response","367","1263796","0.0-6.0-4.51","2940887","co37549","norming","","","","","","",""
"null","../img/tt/412tt.jpg","null","mooney2","image-keyboard-response","368","1265805","0.0-6.0-5.51","2940887","co37549","norming","","","","","","",""
"6529.635000000009","","","post_reveal_questions","survey-likert","369","1272337","0.0-6.0-6.51","2940887","co37549","norming","","","{""aha"":2}","[0]","../img/tt/412tt.jpg","",""
"null","<div style=""font-size:60px;""> </div>","null","fixation","html-keyboard-response","370","1272538","0.0-6.0-0.52","2940887","co37549","norming","","","","","","",""
"null","../img/tt/049tt.jpg","null","mooney1","image-keyboard-response","371","1275544","0.0-6.0-1.52","2940887","co37549","norming","","","","","","",""
"10366.38500000001","","","post_mooney1_questions","survey-likert","372","1285913","0.0-6.0-2.52","2940887","co37549","norming","","","{""curiosity"":4,""confidence"":2}","[0,1]","../img/tt/049tt.jpg","",""
"2389.9499999999534","","","recognition","survey-text","373","1288307","0.0-6.0-3.52","2940887","co37549","norming","","","{""guess"":""mol""}","","../img/tt/049tt.jpg","",""
"null","../img/gs/049gs.jpg","null","reveal","image-keyboard-response","374","1290317","0.0-6.0-4.52","2940887","co37549","norming","","","","","","",""
"null","../img/tt/049tt.jpg","null","mooney2","image-keyboard-response","375","1292319","0.0-6.0-5.52","2940887","co37549","norming","","","","","","",""
"4458.550000000047","","","post_reveal_questions","survey-likert","376","1296779","0.0-6.0-6.52","2940887","co37549","norming","","","{""aha"":4}","[0]","../img/tt/049tt.jpg","",""
"null","<div style=""font-size:60px;""> </div>","null","fixation","html-keyboard-response","377","1296981","0.0-6.0-0.53","2940887","co37549","norming","","","","","","",""
"null","../img/tt/020tt.jpg","null","mooney1","image-keyboard-response","378","1299988","0.0-6.0-1.53","2940887","co37549","norming","","","","","","",""
"4973.050000000047","","","post_mooney1_questions","survey-likert","379","1304964","0.0-6.0-2.53","2940887","co37549","norming","","","{""curiosity"":3,""confidence"":1}","[0,1]","../img/tt/020tt.jpg","",""
"2270.064999999944","","","recognition","survey-text","380","1307235","0.0-6.0-3.53","2940887","co37549","norming","","","{""guess"":""leeuw""}","","../img/tt/020tt.jpg","",""
"null","../img/gs/020gs.jpg","null","reveal","image-keyboard-response","381","1309246","0.0-6.0-4.53","2940887","co37549","norming","","","","","","",""
"null","../img/tt/020tt.jpg","null","mooney2","image-keyboard-response","382","1311256","0.0-6.0-5.53","2940887","co37549","norming","","","","","","",""
"4280.714999999851","","","post_reveal_questions","survey-likert","383","1315539","0.0-6.0-6.53","2940887","co37549","norming","","","{""aha"":0}","[0]","../img/tt/020tt.jpg","",""
"null","<div style=""font-size:60px;""> </div>","null","fixation","html-keyboard-response","384","1315741","0.0-6.0-0.54","2940887","co37549","norming","","","","","","",""
"null","../img/tt/079tt.jpg","null","mooney1","image-keyboard-response","385","1318744","0.0-6.0-1.54","2940887","co37549","norming","","","","","","",""
"4232.969999999972","","","post_mooney1_questions","survey-likert","386","1322980","0.0-6.0-2.54","2940887","co37549","norming","","","{""curiosity"":6,""confidence"":4}","[0,1]","../img/tt/079tt.jpg","",""
"1789.9350000000559","","","recognition","survey-text","387","1324771","0.0-6.0-3.54","2940887","co37549","norming","","","{""guess"":""beer""}","","../img/tt/079tt.jpg","",""
"null","../img/gs/079gs.jpg","null","reveal","image-keyboard-response","388","1326777","0.0-6.0-4.54","2940887","co37549","norming","","","","","","",""
"null","../img/tt/079tt.jpg","null","mooney2","image-keyboard-response","389","1328788","0.0-6.0-5.54","2940887","co37549","norming","","","","","","",""
"2621.2000000001863","","","post_reveal_questions","survey-likert","390","1331411","0.0-6.0-6.54","2940887","co37549","norming","","","{""aha"":6}","[0]","../img/tt/079tt.jpg","",""
"null","<div style=""font-size:60px;""> </div>","null","fixation","html-keyboard-response","391","1331614","0.0-6.0-0.55","2940887","co37549","norming","","","","","","",""
"null","../img/tt/507tt.jpg","null","mooney1","image-keyboard-response","392","1334619","0.0-6.0-1.55","2940887","co37549","norming","","","","","","",""
"6493.054999999935","","","post_mooney1_questions","survey-likert","393","1341116","0.0-6.0-2.55","2940887","co37549","norming","","","{""curiosity"":5,""confidence"":3}","[0,1]","../img/tt/507tt.jpg","",""
"2054.215000000084","","","recognition","survey-text","394","1343171","0.0-6.0-3.55","2940887","co37549","norming","","","{""guess"":""meisje""}","","../img/tt/507tt.jpg","",""
"null","../img/gs/507gs.jpg","null","reveal","image-keyboard-response","395","1345176","0.0-6.0-4.55","2940887","co37549","norming","","","","","","",""
"null","../img/tt/507tt.jpg","null","mooney2","image-keyboard-response","396","1347179","0.0-6.0-5.55","2940887","co37549","norming","","","","","","",""
"4358.385000000009","","","post_reveal_questions","survey-likert","397","1351532","0.0-6.0-6.55","2940887","co37549","norming","","","{""aha"":4}","[0]","../img/tt/507tt.jpg","",""
"null","<div style=""font-size:60px;""> </div>","null","fixation","html-keyboard-response","398","1351734","0.0-6.0-0.56","2940887","co37549","norming","","","","","","",""
"null","../img/tt/1148tt.jpg","null","mooney1","image-keyboard-response","399","1354739","0.0-6.0-1.56","2940887","co37549","norming","","","","","","",""
"3759.779999999795","","","post_mooney1_questions","survey-likert","400","1358500","0.0-6.0-2.56","2940887","co37549","norming","","","{""curiosity"":5,""confidence"":3}","[0,1]","../img/tt/1148tt.jpg","",""
"1910.1100000001024","","","recognition","survey-text","401","1360412","0.0-6.0-3.56","2940887","co37549","norming","","","{""guess"":""man""}","","../img/tt/1148tt.jpg","",""
"null","../img/gs/1148gs.jpg","null","reveal","image-keyboard-response","402","1362421","0.0-6.0-4.56","2940887","co37549","norming","","","","","","",""
"null","../img/tt/1148tt.jpg","null","mooney2","image-keyboard-response","403","1364429","0.0-6.0-5.56","2940887","co37549","norming","","","","","","",""
"6380.979999999981","","","post_reveal_questions","survey-likert","404","1370812","0.0-6.0-6.56","2940887","co37549","norming","","","{""aha"":3}","[0]","../img/tt/1148tt.jpg","",""
"null","<div style=""font-size:60px;""> </div>","null","fixation","html-keyboard-response","405","1371023","0.0-6.0-0.57","2940887","co37549","norming","","","","","","",""
"null","../img/tt/091tt.jpg","null","mooney1","image-keyboard-response","406","1374029","0.0-6.0-1.57","2940887","co37549","norming","","","","","","",""
"4228.4550000000745","","","post_mooney1_questions","survey-likert","407","1378261","0.0-6.0-2.57","2940887","co37549","norming","","","{""curiosity"":4,""confidence"":0}","[0,1]","../img/tt/091tt.jpg","",""
"869.7700000000186","","","recognition","survey-text","408","1379132","0.0-6.0-3.57","2940887","co37549","norming","","","{""guess"":""""}","","../img/tt/091tt.jpg","",""
"null","../img/gs/091gs.jpg","null","reveal","image-keyboard-response","409","1381141","0.0-6.0-4.57","2940887","co37549","norming","","","","","","",""
"null","../img/tt/091tt.jpg","null","mooney2","image-keyboard-response","410","1383151","0.0-6.0-5.57","2940887","co37549","norming","","","","","","",""
"6802.9550000000745","","","post_reveal_questions","survey-likert","411","1389956","0.0-6.0-6.57","2940887","co37549","norming","","","{""aha"":0}","[0]","../img/tt/091tt.jpg","",""
"null","<div style=""font-size:60px;""> </div>","null","fixation","html-keyboard-response","412","1390157","0.0-6.0-0.58","2940887","co37549","norming","","","","","","",""
"null","../img/tt/222tt.jpg","null","mooney1","image-keyboard-response","413","1393161","0.0-6.0-1.58","2940887","co37549","norming","","","","","","",""
"4656.195000000065","","","post_mooney1_questions","survey-likert","414","1397821","0.0-6.0-2.58","2940887","co37549","norming","","","{""curiosity"":4,""confidence"":1}","[0,1]","../img/tt/222tt.jpg","",""
"1950.1100000001024","","","recognition","survey-text","415","1399772","0.0-6.0-3.58","2940887","co37549","norming","","","{""guess"":""bad""}","","../img/tt/222tt.jpg","",""
"null","../img/gs/222gs.jpg","null","reveal","image-keyboard-response","416","1401780","0.0-6.0-4.58","2940887","co37549","norming","","","","","","",""
"null","../img/tt/222tt.jpg","null","mooney2","image-keyboard-response","417","1403790","0.0-6.0-5.58","2940887","co37549","norming","","","","","","",""
"3757.159999999916","","","post_reveal_questions","survey-likert","418","1407548","0.0-6.0-6.58","2940887","co37549","norming","","","{""aha"":5}","[0]","../img/tt/222tt.jpg","",""
"null","<div style=""font-size:60px;""> </div>","null","fixation","html-keyboard-response","419","1407749","0.0-6.0-0.59","2940887","co37549","norming","","","","","","",""
"null","../img/tt/118tt.jpg","null","mooney1","image-keyboard-response","420","1410753","0.0-6.0-1.59","2940887","co37549","norming","","","","","","",""
"6176.430000000168","","","post_mooney1_questions","survey-likert","421","1416938","0.0-6.0-2.59","2940887","co37549","norming","","","{""curiosity"":5,""confidence"":2}","[0,1]","../img/tt/118tt.jpg","",""
"3461.934999999823","","","recognition","survey-text","422","1420401","0.0-6.0-3.59","2940887","co37549","norming","","","{""guess"":""skelet""}","","../img/tt/118tt.jpg","",""
"null","../img/gs/118gs.jpg","null","reveal","image-keyboard-response","423","1422408","0.0-6.0-4.59","2940887","co37549","norming","","","","","","",""
"null","../img/tt/118tt.jpg","null","mooney2","image-keyboard-response","424","1424417","0.0-6.0-5.59","2940887","co37549","norming","","","","","","",""
"4182.005000000121","","","post_reveal_questions","survey-likert","425","1428602","0.0-6.0-6.59","2940887","co37549","norming","","","{""aha"":3}","[0]","../img/tt/118tt.jpg","",""
"null","<div style=""font-size:60px;""> </div>","null","fixation","html-keyboard-response","426","1428804","0.0-6.0-0.60","2940887","co37549","norming","","","","","","",""
"null","../img/tt/1175tt.jpg","null","mooney1","image-keyboard-response","427","1431814","0.0-6.0-1.60","2940887","co37549","norming","","","","","","",""
"12632.310000000056","","","post_mooney1_questions","survey-likert","428","1444450","0.0-6.0-2.60","2940887","co37549","norming","","","{""curiosity"":3,""confidence"":1}","[0,1]","../img/tt/1175tt.jpg","",""
"4605.804999999935","","","recognition","survey-text","429","1449058","0.0-6.0-3.60","2940887","co37549","norming","","","{""guess"":""supporters""}","","../img/tt/1175tt.jpg","",""
"null","../img/gs/1175gs.jpg","null","reveal","image-keyboard-response","430","1451066","0.0-6.0-4.60","2940887","co37549","norming","","","","","","",""
"null","../img/tt/1175tt.jpg","null","mooney2","image-keyboard-response","431","1453068","0.0-6.0-5.60","2940887","co37549","norming","","","","","","",""
"3946.7549999998882","","","post_reveal_questions","survey-likert","432","1457017","0.0-6.0-6.60","2940887","co37549","norming","","","{""aha"":1}","[0]","../img/tt/1175tt.jpg","",""
"null","<div style=""font-size:60px;""> </div>","null","fixation","html-keyboard-response","433","1457219","0.0-6.0-0.61","2940887","co37549","norming","","","","","","",""
"null","../img/tt/1278tt.jpg","null","mooney1","image-keyboard-response","434","1460223","0.0-6.0-1.61","2940887","co37549","norming","","","","","","",""
"4631.320000000065","","","post_mooney1_questions","survey-likert","435","1464858","0.0-6.0-2.61","2940887","co37549","norming","","","{""curiosity"":4,""confidence"":1}","[0,1]","../img/tt/1278tt.jpg","",""
"2309.945000000065","","","recognition","survey-text","436","1467170","0.0-6.0-3.61","2940887","co37549","norming","","","{""guess"":""vogel""}","","../img/tt/1278tt.jpg","",""
"null","../img/gs/1278gs.jpg","null","reveal","image-keyboard-response","437","1469177","0.0-6.0-4.61","2940887","co37549","norming","","","","","","",""
"null","../img/tt/1278tt.jpg","null","mooney2","image-keyboard-response","438","1471186","0.0-6.0-5.61","2940887","co37549","norming","","","","","","",""
"3845.0500000000466","","","post_reveal_questions","survey-likert","439","1475034","0.0-6.0-6.61","2940887","co37549","norming","","","{""aha"":2}","[0]","../img/tt/1278tt.jpg","",""
"null","<div style=""font-size:60px;""> </div>","null","fixation","html-keyboard-response","440","1475242","0.0-6.0-0.62","2940887","co37549","norming","","","","","","",""
"null","../img/tt/416tt.jpg","null","mooney1","image-keyboard-response","441","1478245","0.0-6.0-1.62","2940887","co37549","norming","","","","","","",""
"4633.785000000149","","","post_mooney1_questions","survey-likert","442","1482882","0.0-6.0-2.62","2940887","co37549","norming","","","{""curiosity"":6,""confidence"":4}","[0,1]","../img/tt/416tt.jpg","",""
"3645.774999999907","","","recognition","survey-text","443","1486530","0.0-6.0-3.62","2940887","co37549","norming","","","{""guess"":""struisvogel""}","","../img/tt/416tt.jpg","",""
"null","../img/gs/416gs.jpg","null","reveal","image-keyboard-response","444","1488536","0.0-6.0-4.62","2940887","co37549","norming","","","","","","",""
"null","../img/tt/416tt.jpg","null","mooney2","image-keyboard-response","445","1490539","0.0-6.0-5.62","2940887","co37549","norming","","","","","","",""
"4916.180000000168","","","post_reveal_questions","survey-likert","446","1495458","0.0-6.0-6.62","2940887","co37549","norming","","","{""aha"":6}","[0]","../img/tt/416tt.jpg","",""
"null","<div style=""font-size:60px;""> </div>","null","fixation","html-keyboard-response","447","1495661","0.0-6.0-0.63","2940887","co37549","norming","","","","","","",""
"null","../img/tt/590tt.jpg","null","mooney1","image-keyboard-response","448","1498667","0.0-6.0-1.63","2940887","co37549","norming","","","","","","",""
"3827.3950000000186","","","post_mooney1_questions","survey-likert","449","1502498","0.0-6.0-2.63","2940887","co37549","norming","","","{""curiosity"":4,""confidence"":3}","[0,1]","../img/tt/590tt.jpg","",""
"2798.2899999998044","","","recognition","survey-text","450","1505298","0.0-6.0-3.63","2940887","co37549","norming","","","{""guess"":""priester""}","","../img/tt/590tt.jpg","",""
"null","../img/gs/590gs.jpg","null","reveal","image-keyboard-response","451","1507307","0.0-6.0-4.63","2940887","co37549","norming","","","","","","",""
"null","../img/tt/590tt.jpg","null","mooney2","image-keyboard-response","452","1509316","0.0-6.0-5.63","2940887","co37549","norming","","","","","","",""
"4955.425000000047","","","post_reveal_questions","survey-likert","453","1514274","0.0-6.0-6.63","2940887","co37549","norming","","","{""aha"":1}","[0]","../img/tt/590tt.jpg","",""
"null","<div style=""font-size:60px;""> </div>","null","fixation","html-keyboard-response","454","1514475","0.0-6.0-0.64","2940887","co37549","norming","","","","","","",""
"null","../img/tt/1044tt.jpg","null","mooney1","image-keyboard-response","455","1517484","0.0-6.0-1.64","2940887","co37549","norming","","","","","","",""
"6802.3849999997765","","","post_mooney1_questions","survey-likert","456","1524290","0.0-6.0-2.64","2940887","co37549","norming","","","{""curiosity"":2,""confidence"":0}","[0,1]","../img/tt/1044tt.jpg","",""
"1069.839999999851","","","recognition","survey-text","457","1525361","0.0-6.0-3.64","2940887","co37549","norming","","","{""guess"":""""}","","../img/tt/1044tt.jpg","",""
"null","../img/gs/1044gs.jpg","null","reveal","image-keyboard-response","458","1527363","0.0-6.0-4.64","2940887","co37549","norming","","","","","","",""
"null","../img/tt/1044tt.jpg","null","mooney2","image-keyboard-response","459","1529374","0.0-6.0-5.64","2940887","co37549","norming","","","","","","",""
"6673.300000000047","","","post_reveal_questions","survey-likert","460","1536051","0.0-6.0-6.64","2940887","co37549","norming","","","{""aha"":3}","[0]","../img/tt/1044tt.jpg","",""
"null","<div style=""font-size:60px;""> </div>","null","fixation","html-keyboard-response","461","1536259","0.0-6.0-0.65","2940887","co37549","norming","","","","","","",""
"null","../img/tt/517tt.jpg","null","mooney1","image-keyboard-response","462","1539264","0.0-6.0-1.65","2940887","co37549","norming","","","","","","",""
"5559.72499999986","","","post_mooney1_questions","survey-likert","463","1544827","0.0-6.0-2.65","2940887","co37549","norming","","","{""curiosity"":4,""confidence"":1}","[0,1]","../img/tt/517tt.jpg","",""
"1453.6949999998324","","","recognition","survey-text","464","1546283","0.0-6.0-3.65","2940887","co37549","norming","","","{""guess"":""""}","","../img/tt/517tt.jpg","",""
"null","../img/gs/517gs.jpg","null","reveal","image-keyboard-response","465","1548289","0.0-6.0-4.65","2940887","co37549","norming","","","","","","",""
"null","../img/tt/517tt.jpg","null","mooney2","image-keyboard-response","466","1550298","0.0-6.0-5.65","2940887","co37549","norming","","","","","","",""
"2374.5800000000745","","","post_reveal_questions","survey-likert","467","1552675","0.0-6.0-6.65","2940887","co37549","norming","","","{""aha"":3}","[0]","../img/tt/517tt.jpg","",""
"null","<div style=""font-size:60px;""> </div>","null","fixation","html-keyboard-response","468","1552878","0.0-6.0-0.66","2940887","co37549","norming","","","","","","",""
"null","../img/tt/598tt.jpg","null","mooney1","image-keyboard-response","469","1555886","0.0-6.0-1.66","2940887","co37549","norming","","","","","","",""
"7545.899999999674","","","post_mooney1_questions","survey-likert","470","1563435","0.0-6.0-2.66","2940887","co37549","norming","","","{""curiosity"":3,""confidence"":1}","[0,1]","../img/tt/598tt.jpg","",""
"6037.989999999758","","","recognition","survey-text","471","1569475","0.0-6.0-3.66","2940887","co37549","norming","","","{""guess"":""man die iets draagt""}","","../img/tt/598tt.jpg","",""
"null","../img/gs/598gs.jpg","null","reveal","image-keyboard-response","472","1571476","0.0-6.0-4.66","2940887","co37549","norming","","","","","","",""
"null","../img/tt/598tt.jpg","null","mooney2","image-keyboard-response","473","1573486","0.0-6.0-5.66","2940887","co37549","norming","","","","","","",""
"3562.0799999998417","","","post_reveal_questions","survey-likert","474","1577051","0.0-6.0-6.66","2940887","co37549","norming","","","{""aha"":2}","[0]","../img/tt/598tt.jpg","",""
"null","<div style=""font-size:60px;""> </div>","null","fixation","html-keyboard-response","475","1577252","0.0-6.0-0.67","2940887","co37549","norming","","","","","","",""
"null","../img/tt/436tt.jpg","null","mooney1","image-keyboard-response","476","1580255","0.0-6.0-1.67","2940887","co37549","norming","","","","","","",""
"4656.439999999944","","","post_mooney1_questions","survey-likert","477","1584915","0.0-6.0-2.67","2940887","co37549","norming","","","{""curiosity"":4,""confidence"":2}","[0,1]","../img/tt/436tt.jpg","",""
"2638.034999999916","","","recognition","survey-text","478","1587555","0.0-6.0-3.67","2940887","co37549","norming","","","{""guess"":""zebra""}","","../img/tt/436tt.jpg","",""
"null","../img/gs/436gs.jpg","null","reveal","image-keyboard-response","479","1589556","0.0-6.0-4.67","2940887","co37549","norming","","","","","","",""
"null","../img/tt/436tt.jpg","null","mooney2","image-keyboard-response","480","1591567","0.0-6.0-5.67","2940887","co37549","norming","","","","","","",""
"3800.894999999786","","","post_reveal_questions","survey-likert","481","1595371","0.0-6.0-6.67","2940887","co37549","norming","","","{""aha"":4}","[0]","../img/tt/436tt.jpg","",""
"null","<div style=""font-size:60px;""> </div>","null","fixation","html-keyboard-response","482","1595577","0.0-6.0-0.68","2940887","co37549","norming","","","","","","",""
"null","../img/tt/1033tt.jpg","null","mooney1","image-keyboard-response","483","1598586","0.0-6.0-1.68","2940887","co37549","norming","","","","","","",""
"6117.6049999997485","","","post_mooney1_questions","survey-likert","484","1604708","0.0-6.0-2.68","2940887","co37549","norming","","","{""curiosity"":4,""confidence"":2}","[0,1]","../img/tt/1033tt.jpg","",""
"3181.869999999879","","","recognition","survey-text","485","1607891","0.0-6.0-3.68","2940887","co37549","norming","","","{""guess"":""paardrijder""}","","../img/tt/1033tt.jpg","",""
"null","../img/gs/1033gs.jpg","null","reveal","image-keyboard-response","486","1609897","0.0-6.0-4.68","2940887","co37549","norming","","","","","","",""
"null","../img/tt/1033tt.jpg","null","mooney2","image-keyboard-response","487","1611899","0.0-6.0-5.68","2940887","co37549","norming","","","","","","",""
"3573.225000000093","","","post_reveal_questions","survey-likert","488","1615475","0.0-6.0-6.68","2940887","co37549","norming","","","{""aha"":4}","[0]","../img/tt/1033tt.jpg","",""
"null","<div style=""font-size:60px;""> </div>","null","fixation","html-keyboard-response","489","1615676","0.0-6.0-0.69","2940887","co37549","norming","","","","","","",""
"null","../img/tt/1262tt.jpg","null","mooney1","image-keyboard-response","490","1618686","0.0-6.0-1.69","2940887","co37549","norming","","","","","","",""
"4795.860000000102","","","post_mooney1_questions","survey-likert","491","1623483","0.0-6.0-2.69","2940887","co37549","norming","","","{""curiosity"":4,""confidence"":1}","[0,1]","../img/tt/1262tt.jpg","",""
"5029.999999999767","","","recognition","survey-text","492","1628515","0.0-6.0-3.69","2940887","co37549","norming","","","{""guess"":""kat""}","","../img/tt/1262tt.jpg","",""
"null","../img/gs/1262gs.jpg","null","reveal","image-keyboard-response","493","1630520","0.0-6.0-4.69","2940887","co37549","norming","","","","","","",""
"null","../img/tt/1262tt.jpg","null","mooney2","image-keyboard-response","494","1632528","0.0-6.0-5.69","2940887","co37549","norming","","","","","","",""
"4974.7299999997485","","","post_reveal_questions","survey-likert","495","1637507","0.0-6.0-6.69","2940887","co37549","norming","","","{""aha"":4}","[0]","../img/tt/1262tt.jpg","",""
"null","<div style=""font-size:60px;""> </div>","null","fixation","html-keyboard-response","496","1637709","0.0-6.0-0.70","2940887","co37549","norming","","","","","","",""
"null","../img/tt/1247tt.jpg","null","mooney1","image-keyboard-response","497","1640713","0.0-6.0-1.70","2940887","co37549","norming","","","","","","",""
"4503.280000000028","","","post_mooney1_questions","survey-likert","498","1645219","0.0-6.0-2.70","2940887","co37549","norming","","","{""curiosity"":3,""confidence"":0}","[0,1]","../img/tt/1247tt.jpg","",""
"1726.130000000121","","","recognition","survey-text","499","1646947","0.0-6.0-3.70","2940887","co37549","norming","","","{""guess"":""tijger""}","","../img/tt/1247tt.jpg","",""
"null","../img/gs/1247gs.jpg","null","reveal","image-keyboard-response","500","1648957","0.0-6.0-4.70","2940887","co37549","norming","","","","","","",""
"null","../img/tt/1247tt.jpg","null","mooney2","image-keyboard-response","501","1650959","0.0-6.0-5.70","2940887","co37549","norming","","","","","","",""
"3417.3600000003353","","","post_reveal_questions","survey-likert","502","1654379","0.0-6.0-6.70","2940887","co37549","norming","","","{""aha"":5}","[0]","../img/tt/1247tt.jpg","",""
"null","<div style=""font-size:60px;""> </div>","null","fixation","html-keyboard-response","503","1654587","0.0-6.0-0.71","2940887","co37549","norming","","","","","","",""
"null","../img/tt/1366tt.jpg","null","mooney1","image-keyboard-response","504","1657590","0.0-6.0-1.71","2940887","co37549","norming","","","","","","",""
"4412.3650000002235","","","post_mooney1_questions","survey-likert","505","1662004","0.0-6.0-2.71","2940887","co37549","norming","","","{""curiosity"":3,""confidence"":1}","[0,1]","../img/tt/1366tt.jpg","",""
"1901.9850000001024","","","recognition","survey-text","506","1663908","0.0-6.0-3.71","2940887","co37549","norming","","","{""guess"":""vis""}","","../img/tt/1366tt.jpg","",""
"null","../img/gs/1366gs.jpg","null","reveal","image-keyboard-response","507","1665918","0.0-6.0-4.71","2940887","co37549","norming","","","","","","",""
"null","../img/tt/1366tt.jpg","null","mooney2","image-keyboard-response","508","1667927","0.0-6.0-5.71","2940887","co37549","norming","","","","","","",""
"4010.1450000002515","","","post_reveal_questions","survey-likert","509","1671940","0.0-6.0-6.71","2940887","co37549","norming","","","{""aha"":3}","[0]","../img/tt/1366tt.jpg","",""
"null","<div style=""font-size:60px;""> </div>","null","fixation","html-keyboard-response","510","1672142","0.0-6.0-0.72","2940887","co37549","norming","","","","","","",""
"null","../img/tt/063tt.jpg","null","mooney1","image-keyboard-response","511","1675145","0.0-6.0-1.72","2940887","co37549","norming","","","","","","",""
"3895.8700000003446","","","post_mooney1_questions","survey-likert","512","1679044","0.0-6.0-2.72","2940887","co37549","norming","","","{""curiosity"":5,""confidence"":4}","[0,1]","../img/tt/063tt.jpg","",""
"2638.019999999786","","","recognition","survey-text","513","1681684","0.0-6.0-3.72","2940887","co37549","norming","","","{""guess"":""accordeon""}","","../img/tt/063tt.jpg","",""
"null","../img/gs/063gs.jpg","null","reveal","image-keyboard-response","514","1683687","0.0-6.0-4.72","2940887","co37549","norming","","","","","","",""
"null","../img/tt/063tt.jpg","null","mooney2","image-keyboard-response","515","1685689","0.0-6.0-5.72","2940887","co37549","norming","","","","","","",""
"2081.970000000205","","","post_reveal_questions","survey-likert","516","1687772","0.0-6.0-6.72","2940887","co37549","norming","","","{""aha"":5}","[0]","../img/tt/063tt.jpg","",""
"null","<div style=""font-size:60px;""> </div>","null","fixation","html-keyboard-response","517","1687975","0.0-6.0-0.73","2940887","co37549","norming","","","","","","",""
"null","../img/tt/1126tt.jpg","null","mooney1","image-keyboard-response","518","1690979","0.0-6.0-1.73","2940887","co37549","norming","","","","","","",""
"5949.780000000028","","","post_mooney1_questions","survey-likert","519","1696932","0.0-6.0-2.73","2940887","co37549","norming","","","{""curiosity"":5,""confidence"":3}","[0,1]","../img/tt/1126tt.jpg","",""
"2669.494999999646","","","recognition","survey-text","520","1699603","0.0-6.0-3.73","2940887","co37549","norming","","","{""guess"":""rotsen""}","","../img/tt/1126tt.jpg","",""
"null","../img/gs/1126gs.jpg","null","reveal","image-keyboard-response","521","1701609","0.0-6.0-4.73","2940887","co37549","norming","","","","","","",""
"null","../img/tt/1126tt.jpg","null","mooney2","image-keyboard-response","522","1703617","0.0-6.0-5.73","2940887","co37549","norming","","","","","","",""
"4280.899999999907","","","post_reveal_questions","survey-likert","523","1707900","0.0-6.0-6.73","2940887","co37549","norming","","","{""aha"":4}","[0]","../img/tt/1126tt.jpg","",""
"null","<div style=""font-size:60px;""> </div>","null","fixation","html-keyboard-response","524","1708101","0.0-6.0-0.74","2940887","co37549","norming","","","","","","",""
"null","../img/tt/1091tt.jpg","null","mooney1","image-keyboard-response","525","1711104","0.0-6.0-1.74","2940887","co37549","norming","","","","","","",""
"6096.554999999935","","","post_mooney1_questions","survey-likert","526","1717206","0.0-6.0-2.74","2940887","co37549","norming","","","{""curiosity"":5,""confidence"":6}","[0,1]","../img/tt/1091tt.jpg","",""
"1982.0999999998603","","","recognition","survey-text","527","1719189","0.0-6.0-3.74","2940887","co37549","norming","","","{""guess"":""paard""}","","../img/tt/1091tt.jpg","",""
"null","../img/gs/1091gs.jpg","null","reveal","image-keyboard-response","528","1721198","0.0-6.0-4.74","2940887","co37549","norming","","","","","","",""
"null","../img/tt/1091tt.jpg","null","mooney2","image-keyboard-response","529","1723201","0.0-6.0-5.74","2940887","co37549","norming","","","","","","",""
"2489.720000000205","","","post_reveal_questions","survey-likert","530","1725694","0.0-6.0-6.74","2940887","co37549","norming","","","{""aha"":5}","[0]","../img/tt/1091tt.jpg","",""
"null","<div style=""font-size:60px;""> </div>","null","fixation","html-keyboard-response","531","1725898","0.0-6.0-0.75","2940887","co37549","norming","","","","","","",""
"null","../img/tt/1127tt.jpg","null","mooney1","image-keyboard-response","532","1728902","0.0-6.0-1.75","2940887","co37549","norming","","","","","","",""
"6107.925000000047","","","post_mooney1_questions","survey-likert","533","1735014","0.0-6.0-2.75","2940887","co37549","norming","","","{""curiosity"":5,""confidence"":4}","[0,1]","../img/tt/1127tt.jpg","",""
"2077.929999999935","","","recognition","survey-text","534","1737094","0.0-6.0-3.75","2940887","co37549","norming","","","{""guess"":""boxers""}","","../img/tt/1127tt.jpg","",""
"null","../img/gs/1127gs.jpg","null","reveal","image-keyboard-response","535","1739100","0.0-6.0-4.75","2940887","co37549","norming","","","","","","",""
"null","../img/tt/1127tt.jpg","null","mooney2","image-keyboard-response","536","1741103","0.0-6.0-5.75","2940887","co37549","norming","","","","","","",""
"3684.314999999944","","","post_reveal_questions","survey-likert","537","1744790","0.0-6.0-6.75","2940887","co37549","norming","","","{""aha"":4}","[0]","../img/tt/1127tt.jpg","",""
"null","<div style=""font-size:60px;""> </div>","null","fixation","html-keyboard-response","538","1745000","0.0-6.0-0.76","2940887","co37549","norming","","","","","","",""
"null","../img/tt/1084tt.jpg","null","mooney1","image-keyboard-response","539","1748003","0.0-6.0-1.76","2940887","co37549","norming","","","","","","",""
"3679.9300000001676","","","post_mooney1_questions","survey-likert","540","1751686","0.0-6.0-2.76","2940887","co37549","norming","","","{""curiosity"":4,""confidence"":4}","[0,1]","../img/tt/1084tt.jpg","",""
"4014.1699999999255","","","recognition","survey-text","541","1755702","0.0-6.0-3.76","2940887","co37549","norming","","","{""guess"":""stuk taart""}","","../img/tt/1084tt.jpg","",""
"null","../img/gs/1084gs.jpg","null","reveal","image-keyboard-response","542","1757704","0.0-6.0-4.76","2940887","co37549","norming","","","","","","",""
"null","../img/tt/1084tt.jpg","null","mooney2","image-keyboard-response","543","1759708","0.0-6.0-5.76","2940887","co37549","norming","","","","","","",""
"1688.5049999996554","","","post_reveal_questions","survey-likert","544","1761398","0.0-6.0-6.76","2940887","co37549","norming","","","{""aha"":5}","[0]","../img/tt/1084tt.jpg","",""
"null","<div style=""font-size:60px;""> </div>","null","fixation","html-keyboard-response","545","1761605","0.0-6.0-0.77","2940887","co37549","norming","","","","","","",""
"null","../img/tt/279tt.jpg","null","mooney1","image-keyboard-response","546","1764613","0.0-6.0-1.77","2940887","co37549","norming","","","","","","",""
"3525.5749999999534","","","post_mooney1_questions","survey-likert","547","1768142","0.0-6.0-2.77","2940887","co37549","norming","","","{""curiosity"":4,""confidence"":1}","[0,1]","../img/tt/279tt.jpg","",""
"942.0300000002608","","","recognition","survey-text","548","1769085","0.0-6.0-3.77","2940887","co37549","norming","","","{""guess"":""""}","","../img/tt/279tt.jpg","",""
"null","../img/gs/279gs.jpg","null","reveal","image-keyboard-response","549","1771087","0.0-6.0-4.77","2940887","co37549","norming","","","","","","",""
"null","../img/tt/279tt.jpg","null","mooney2","image-keyboard-response","550","1773099","0.0-6.0-5.77","2940887","co37549","norming","","","","","","",""
"2416.149999999907","","","post_reveal_questions","survey-likert","551","1775518","0.0-6.0-6.77","2940887","co37549","norming","","","{""aha"":4}","[0]","../img/tt/279tt.jpg","",""
"null","<div style=""font-size:60px;""> </div>","null","fixation","html-keyboard-response","552","1775722","0.0-6.0-0.78","2940887","co37549","norming","","","","","","",""
