"rt","stimulus","key_press","test_part","trial_type","trial_index","time_elapsed","internal_node_id","totalTime","subject","experiment_name","button_pressed","success","responses","question_order","currentStim","old","correct"
"7482.564999999995","Welcome to the experiment. This is an online experiment so please don't close the tab/window until we say goodbye.  Press any key to begin.","32","instructions","html-keyboard-response","0","7505","0.0-0.0","2738945","co37615","norming","","","","","","",""
"17334.35","<div style='word-wrap: break-word; width: 900px'><h3>Please consider this information carefully before deciding whether to participate in this research</h3><ul style='text-align: left; font-size: .8em;'><li><b>Purpose of the research</b>: To examine how people process images.</li><li><b>What you will do in this research</b>:  Stimuli (images) will be presented on the computer and you will be asked different questions about them.</li><li><b>Time required</b>: Participation will take between 45 and 60 minutes to complete.</li><li><b>Risks</b>:  There are no anticipated risks associated with participating in this study. The effects of participating should be comparable to those you would experience from viewing a computer monitor for 30 minutes and using a mouse or keyboard.</li><li><b>Benefits</b>:  This study provides no benefits to you individually except for the credit. The study provides important information about the nature of perception and learning.</li><li><b>Confidentiality</b>:  Your participation in this study will remain confidential. No personally identifiable information will be associated with your data. Your de-identified data may be shared with other researchers and used in future projects.</li><li><b>Participation and withdrawal</b>:  Your participation in this study is completely voluntary and you may refuse to participate or you may choose to withdraw at any time without penalty.</li><li><b>How to contact the researchers</b>: If you have questions or concerns about your participation or payment, or want to request a summary of research findings, please contact Sander Van de Cruys (KU Leuven), at sander.vandecruys@kuleuven.be.</li></ul><p>The nature and purpose of this research have been sufficiently explained and I agree to participate in this study.  I understand that I am free to withdraw at any time without incurring any penalty.</p><p>Please consent by clicking the button below to continue. Otherwise, please exit the study at this time.</p></div>","","instructions","html-button-response","1","24841","0.0-1.0","2738945","co37615","norming","0","","","","","",""
"","","","instructions","fullscreen","2","27738","0.0-2.0","2738945","co37615","norming","","true","","","","",""
"23757.205","","","sona","survey-html-form","3","51500","0.0-3.0","2738945","co37615","norming","","","[{""name"":""sonaid"",""value"":""37615""},{""name"":""debrief"",""value"":""yes""},{""name"":""datajoin"",""value"":""yes""}]","","","",""
"58130.554999999986","<div style='word-wrap: break-word; width: 900px'><h3>Instructions</h3><p>This experiment will have 3 parts. In the first part you will see a series of distorted images like the one below on the left. As you can see in the righthand image, the distorted images are derived from actual photographs. In what follows, you will <strong>briefly</strong> be presented with <strong>only</strong> the distorted image.</p> <div style='float: left; margin-right: 20px;'><img src='../img/018tt.jpg' height='250' width='250'></img></div><div style='float: right; margin-left: 20px;'><img src='../img/018gs.jpg' height='250' width='250'></img></div><p>Subsequently you will be asked a few questions about the image: One question on how <strong>curious</strong> you are about the solution and one on how <strong>confident</strong> you are that you know the solution.</p>Next, we ask you to make a guess on what is in the image. Note that it is OK to name just the <strong>basic level category</strong>. For example when you see a parrot in the image, 'parrot' will obviously be a correct answer but also correct is 'bird'. However, 'animal' will <strong>not</strong> be counted as a correct response. For the example above, 'rose' would be correct or 'flower', but not 'plant'. When soccer players are depicted, 'soccer', 'football', 'soccer players' will be correct, but not 'humans', 'outdoors', or 'sports'. You do not need to describe the image in full, just name the main object in it <strong>in one or two words</strong>. All images depict objects from one of the following broad level categories: animals, inanimate objects, plants, sports, vehicles, and food. Recognizing means knowing <strong>more</strong> than these broad labels for a given image. But we always encourage you to <strong>make a guess</strong> if you can. Note that you are allowed to use <strong>Dutch and English</strong> in your answers, whatever comes easiest for you.</p><p>Press any key to continue.</p></div>","190","instructions","html-keyboard-response","4","109629","0.0-4.0","2738945","co37615","norming","","","","","","",""
"107417.76","<div style='word-wrap: break-word; width: 900px'><h3>Instructions</h3> <p>Next, the solution image will be revealed to you and you'll be asked to indicate how strong your <strong>aha-experience</strong> was after seeing the solution. This describes the positive feeling of the 'click' you sometimes experience, when the pieces of the 'puzzle' fall together and you suddenly have 'insight' in the image.</p><img src='aha.jpg' height='188' width='250'></img><p>Note that there are no right or wrong answers. We are interested in what <strong>you</strong> see in the image and how <strong>you</strong> feel about it.</p><p>Press any key to start the experiment.</p></div>","32","instructions","html-keyboard-response","5","217014","0.0-5.0","2738945","co37615","norming","","","","","","",""
"null","<div style=""font-size:60px;""> </div>","null","fixation","html-keyboard-response","6","217217","0.0-6.0-0.0","2738945","co37615","norming","","","","","","",""
"null","../img/tt/1091tt.jpg","null","mooney1","image-keyboard-response","7","220222","0.0-6.0-1.0","2738945","co37615","norming","","","","","","",""
"10913.765000000014","","","post_mooney1_questions","survey-likert","8","231140","0.0-6.0-2.0","2738945","co37615","norming","","","{""curiosity"":1,""confidence"":6}","[0,1]","../img/tt/1091tt.jpg","",""
"5597.719999999972","","","recognition","survey-text","9","236740","0.0-6.0-3.0","2738945","co37615","norming","","","{""guess"":""horse""}","","../img/tt/1091tt.jpg","",""
"null","../img/gs/1091gs.jpg","null","reveal","image-keyboard-response","10","238741","0.0-6.0-4.0","2738945","co37615","norming","","","","","","",""
"null","../img/tt/1091tt.jpg","null","mooney2","image-keyboard-response","11","240743","0.0-6.0-5.0","2738945","co37615","norming","","","","","","",""
"4122.015000000043","","","post_reveal_questions","survey-likert","12","244867","0.0-6.0-6.0","2738945","co37615","norming","","","{""aha"":0}","[0]","../img/tt/1091tt.jpg","",""
"null","<div style=""font-size:60px;""> </div>","null","fixation","html-keyboard-response","13","245074","0.0-6.0-0.1","2738945","co37615","norming","","","","","","",""
"null","../img/tt/1205tt.jpg","null","mooney1","image-keyboard-response","14","248085","0.0-6.0-1.1","2738945","co37615","norming","","","","","","",""
"11555.809999999969","","","post_mooney1_questions","survey-likert","15","259643","0.0-6.0-2.1","2738945","co37615","norming","","","{""curiosity"":5,""confidence"":1}","[0,1]","../img/tt/1205tt.jpg","",""
"8245.975000000006","","","recognition","survey-text","16","267891","0.0-6.0-3.1","2738945","co37615","norming","","","{""guess"":""people sleeping""}","","../img/tt/1205tt.jpg","",""
"null","../img/gs/1205gs.jpg","null","reveal","image-keyboard-response","17","269901","0.0-6.0-4.1","2738945","co37615","norming","","","","","","",""
"null","../img/tt/1205tt.jpg","null","mooney2","image-keyboard-response","18","271902","0.0-6.0-5.1","2738945","co37615","norming","","","","","","",""
"3034.6200000000536","","","post_reveal_questions","survey-likert","19","274939","0.0-6.0-6.1","2738945","co37615","norming","","","{""aha"":5}","[0]","../img/tt/1205tt.jpg","",""
"null","<div style=""font-size:60px;""> </div>","null","fixation","html-keyboard-response","20","275141","0.0-6.0-0.2","2738945","co37615","norming","","","","","","",""
"null","../img/tt/1366tt.jpg","null","mooney1","image-keyboard-response","21","277975","0.0-6.0-1.2","2738945","co37615","norming","","","","","","",""
"11060.009999999893","","","post_mooney1_questions","survey-likert","22","289038","0.0-6.0-2.2","2738945","co37615","norming","","","{""curiosity"":5,""confidence"":0}","[0,1]","../img/tt/1366tt.jpg","",""
"6286.339999999967","","","recognition","survey-text","23","295326","0.0-6.0-3.2","2738945","co37615","norming","","","{""guess"":""people sleeping""}","","../img/tt/1366tt.jpg","",""
"null","../img/gs/1366gs.jpg","null","reveal","image-keyboard-response","24","297329","0.0-6.0-4.2","2738945","co37615","norming","","","","","","",""
"null","../img/tt/1366tt.jpg","null","mooney2","image-keyboard-response","25","299330","0.0-6.0-5.2","2738945","co37615","norming","","","","","","",""
"2802.9850000000442","","","post_reveal_questions","survey-likert","26","302134","0.0-6.0-6.2","2738945","co37615","norming","","","{""aha"":3}","[0]","../img/tt/1366tt.jpg","",""
"null","<div style=""font-size:60px;""> </div>","null","fixation","html-keyboard-response","27","302342","0.0-6.0-0.3","2738945","co37615","norming","","","","","","",""
"null","../img/tt/416tt.jpg","null","mooney1","image-keyboard-response","28","305349","0.0-6.0-1.3","2738945","co37615","norming","","","","","","",""
"6888.124999999942","","","post_mooney1_questions","survey-likert","29","312238","0.0-6.0-2.3","2738945","co37615","norming","","","{""curiosity"":5,""confidence"":1}","[0,1]","../img/tt/416tt.jpg","",""
"2246.2249999999767","","","recognition","survey-text","30","314486","0.0-6.0-3.3","2738945","co37615","norming","","","{""guess"":""chicken""}","","../img/tt/416tt.jpg","",""
"null","../img/gs/416gs.jpg","null","reveal","image-keyboard-response","31","316495","0.0-6.0-4.3","2738945","co37615","norming","","","","","","",""
"null","../img/tt/416tt.jpg","null","mooney2","image-keyboard-response","32","318505","0.0-6.0-5.3","2738945","co37615","norming","","","","","","",""
"2826.329999999958","","","post_reveal_questions","survey-likert","33","321334","0.0-6.0-6.3","2738945","co37615","norming","","","{""aha"":2}","[0]","../img/tt/416tt.jpg","",""
"null","<div style=""font-size:60px;""> </div>","null","fixation","html-keyboard-response","34","321541","0.0-6.0-0.4","2738945","co37615","norming","","","","","","",""
"null","../img/tt/1260tt.jpg","null","mooney1","image-keyboard-response","35","324545","0.0-6.0-1.4","2738945","co37615","norming","","","","","","",""
"4225.909999999974","","","post_mooney1_questions","survey-likert","36","328774","0.0-6.0-2.4","2738945","co37615","norming","","","{""curiosity"":4,""confidence"":1}","[0,1]","../img/tt/1260tt.jpg","",""
"4926.020000000019","","","recognition","survey-text","37","333702","0.0-6.0-3.4","2738945","co37615","norming","","","{""guess"":""burrito""}","","../img/tt/1260tt.jpg","",""
"null","../img/gs/1260gs.jpg","null","reveal","image-keyboard-response","38","335703","0.0-6.0-4.4","2738945","co37615","norming","","","","","","",""
"null","../img/tt/1260tt.jpg","null","mooney2","image-keyboard-response","39","337705","0.0-6.0-5.4","2738945","co37615","norming","","","","","","",""
"6107.089999999967","","","post_reveal_questions","survey-likert","40","343621","0.0-6.0-6.4","2738945","co37615","norming","","","{""aha"":3}","[0]","../img/tt/1260tt.jpg","",""
"null","<div style=""font-size:60px;""> </div>","null","fixation","html-keyboard-response","41","343829","0.0-6.0-0.5","2738945","co37615","norming","","","","","","",""
"null","../img/tt/1102tt.jpg","null","mooney1","image-keyboard-response","42","346835","0.0-6.0-1.5","2738945","co37615","norming","","","","","","",""
"4247.940000000002","","","post_mooney1_questions","survey-likert","43","351085","0.0-6.0-2.5","2738945","co37615","norming","","","{""curiosity"":5,""confidence"":1}","[0,1]","../img/tt/1102tt.jpg","",""
"4070.2999999999884","","","recognition","survey-text","44","355157","0.0-6.0-3.5","2738945","co37615","norming","","","{""guess"":""hangmat""}","","../img/tt/1102tt.jpg","",""
"null","../img/gs/1102gs.jpg","null","reveal","image-keyboard-response","45","357160","0.0-6.0-4.5","2738945","co37615","norming","","","","","","",""
"null","../img/tt/1102tt.jpg","null","mooney2","image-keyboard-response","46","359161","0.0-6.0-5.5","2738945","co37615","norming","","","","","","",""
"2003.6999999999534","","","post_reveal_questions","survey-likert","47","361165","0.0-6.0-6.5","2738945","co37615","norming","","","{""aha"":5}","[0]","../img/tt/1102tt.jpg","",""
"null","<div style=""font-size:60px;""> </div>","null","fixation","html-keyboard-response","48","361368","0.0-6.0-0.6","2738945","co37615","norming","","","","","","",""
"null","../img/tt/549tt.jpg","null","mooney1","image-keyboard-response","49","364379","0.0-6.0-1.6","2738945","co37615","norming","","","","","","",""
"5768.435000000056","","","post_mooney1_questions","survey-likert","50","370150","0.0-6.0-2.6","2738945","co37615","norming","","","{""curiosity"":5,""confidence"":0}","[0,1]","../img/tt/549tt.jpg","",""
"5102.069999999891","","","recognition","survey-text","51","375253","0.0-6.0-3.6","2738945","co37615","norming","","","{""guess"":""no idea""}","","../img/tt/549tt.jpg","",""
"null","../img/gs/549gs.jpg","null","reveal","image-keyboard-response","52","377263","0.0-6.0-4.6","2738945","co37615","norming","","","","","","",""
"null","../img/tt/549tt.jpg","null","mooney2","image-keyboard-response","53","379265","0.0-6.0-5.6","2738945","co37615","norming","","","","","","",""
"2969.5999999999767","","","post_reveal_questions","survey-likert","54","382237","0.0-6.0-6.6","2738945","co37615","norming","","","{""aha"":1}","[0]","../img/tt/549tt.jpg","",""
"null","<div style=""font-size:60px;""> </div>","null","fixation","html-keyboard-response","55","382446","0.0-6.0-0.7","2738945","co37615","norming","","","","","","",""
"null","../img/tt/040tt.jpg","null","mooney1","image-keyboard-response","56","385457","0.0-6.0-1.7","2738945","co37615","norming","","","","","","",""
"4201.535000000033","","","post_mooney1_questions","survey-likert","57","389661","0.0-6.0-2.7","2738945","co37615","norming","","","{""curiosity"":5,""confidence"":2}","[0,1]","../img/tt/040tt.jpg","",""
"2606.4949999999953","","","recognition","survey-text","58","392269","0.0-6.0-3.7","2738945","co37615","norming","","","{""guess"":""dog""}","","../img/tt/040tt.jpg","",""
"null","../img/gs/040gs.jpg","null","reveal","image-keyboard-response","59","394272","0.0-6.0-4.7","2738945","co37615","norming","","","","","","",""
"null","../img/tt/040tt.jpg","null","mooney2","image-keyboard-response","60","396280","0.0-6.0-5.7","2738945","co37615","norming","","","","","","",""
"2618.6350000000675","","","post_reveal_questions","survey-likert","61","398901","0.0-6.0-6.7","2738945","co37615","norming","","","{""aha"":4}","[0]","../img/tt/040tt.jpg","",""
"null","<div style=""font-size:60px;""> </div>","null","fixation","html-keyboard-response","62","399105","0.0-6.0-0.8","2738945","co37615","norming","","","","","","",""
"null","../img/tt/1217tt.jpg","null","mooney1","image-keyboard-response","63","401934","0.0-6.0-1.8","2738945","co37615","norming","","","","","","",""
"7119.7900000000955","","","post_mooney1_questions","survey-likert","64","409055","0.0-6.0-2.8","2738945","co37615","norming","","","{""curiosity"":4,""confidence"":2}","[0,1]","../img/tt/1217tt.jpg","",""
"6941.950000000012","","","recognition","survey-text","65","415999","0.0-6.0-3.8","2738945","co37615","norming","","","{""guess"":""group picture""}","","../img/tt/1217tt.jpg","",""
"null","../img/gs/1217gs.jpg","null","reveal","image-keyboard-response","66","418007","0.0-6.0-4.8","2738945","co37615","norming","","","","","","",""
"null","../img/tt/1217tt.jpg","null","mooney2","image-keyboard-response","67","420008","0.0-6.0-5.8","2738945","co37615","norming","","","","","","",""
"2565.3250000000116","","","post_reveal_questions","survey-likert","68","422575","0.0-6.0-6.8","2738945","co37615","norming","","","{""aha"":3}","[0]","../img/tt/1217tt.jpg","",""
"null","<div style=""font-size:60px;""> </div>","null","fixation","html-keyboard-response","69","422780","0.0-6.0-0.9","2738945","co37615","norming","","","","","","",""
"null","../img/tt/1061tt.jpg","null","mooney1","image-keyboard-response","70","425791","0.0-6.0-1.9","2738945","co37615","norming","","","","","","",""
"6772.09500000003","","","post_mooney1_questions","survey-likert","71","432567","0.0-6.0-2.9","2738945","co37615","norming","","","{""curiosity"":5,""confidence"":2}","[0,1]","../img/tt/1061tt.jpg","",""
"6487.075000000012","","","recognition","survey-text","72","439055","0.0-6.0-3.9","2738945","co37615","norming","","","{""guess"":""rugby playesr""}","","../img/tt/1061tt.jpg","",""
"null","../img/gs/1061gs.jpg","null","reveal","image-keyboard-response","73","441059","0.0-6.0-4.9","2738945","co37615","norming","","","","","","",""
"null","../img/tt/1061tt.jpg","null","mooney2","image-keyboard-response","74","443066","0.0-6.0-5.9","2738945","co37615","norming","","","","","","",""
"2332.460000000021","","","post_reveal_questions","survey-likert","75","445399","0.0-6.0-6.9","2738945","co37615","norming","","","{""aha"":2}","[0]","../img/tt/1061tt.jpg","",""
"null","<div style=""font-size:60px;""> </div>","null","fixation","html-keyboard-response","76","445611","0.0-6.0-0.10","2738945","co37615","norming","","","","","","",""
"null","../img/tt/442tt.jpg","null","mooney1","image-keyboard-response","77","448615","0.0-6.0-1.10","2738945","co37615","norming","","","","","","",""
"6117.570000000007","","","post_mooney1_questions","survey-likert","78","454735","0.0-6.0-2.10","2738945","co37615","norming","","","{""curiosity"":5,""confidence"":2}","[0,1]","../img/tt/442tt.jpg","",""
"3894.194999999949","","","recognition","survey-text","79","458631","0.0-6.0-3.10","2738945","co37615","norming","","","{""guess"":""kameleon""}","","../img/tt/442tt.jpg","",""
"null","../img/gs/442gs.jpg","null","reveal","image-keyboard-response","80","460636","0.0-6.0-4.10","2738945","co37615","norming","","","","","","",""
"null","../img/tt/442tt.jpg","null","mooney2","image-keyboard-response","81","462459","0.0-6.0-5.10","2738945","co37615","norming","","","","","","",""
"1462.6749999999884","","","post_reveal_questions","survey-likert","82","463924","0.0-6.0-6.10","2738945","co37615","norming","","","{""aha"":2}","[0]","../img/tt/442tt.jpg","",""
"null","<div style=""font-size:60px;""> </div>","null","fixation","html-keyboard-response","83","464130","0.0-6.0-0.11","2738945","co37615","norming","","","","","","",""
"null","../img/tt/1125tt.jpg","null","mooney1","image-keyboard-response","84","467134","0.0-6.0-1.11","2738945","co37615","norming","","","","","","",""
"6596.694999999949","","","post_mooney1_questions","survey-likert","85","473732","0.0-6.0-2.11","2738945","co37615","norming","","","{""curiosity"":5,""confidence"":1}","[0,1]","../img/tt/1125tt.jpg","",""
"2294.179999999993","","","recognition","survey-text","86","476028","0.0-6.0-3.11","2738945","co37615","norming","","","{""guess"":""monkey""}","","../img/tt/1125tt.jpg","",""
"null","../img/gs/1125gs.jpg","null","reveal","image-keyboard-response","87","478032","0.0-6.0-4.11","2738945","co37615","norming","","","","","","",""
"null","../img/tt/1125tt.jpg","null","mooney2","image-keyboard-response","88","480034","0.0-6.0-5.11","2738945","co37615","norming","","","","","","",""
"3800.4400000000023","","","post_reveal_questions","survey-likert","89","483836","0.0-6.0-6.11","2738945","co37615","norming","","","{""aha"":4}","[0]","../img/tt/1125tt.jpg","",""
"null","<div style=""font-size:60px;""> </div>","null","fixation","html-keyboard-response","90","484037","0.0-6.0-0.12","2738945","co37615","norming","","","","","","",""
"null","../img/tt/019tt.jpg","null","mooney1","image-keyboard-response","91","487047","0.0-6.0-1.12","2738945","co37615","norming","","","","","","",""
"4074.365000000049","","","post_mooney1_questions","survey-likert","92","491124","0.0-6.0-2.12","2738945","co37615","norming","","","{""curiosity"":4,""confidence"":2}","[0,1]","../img/tt/019tt.jpg","",""
"2662.180000000051","","","recognition","survey-text","93","493788","0.0-6.0-3.12","2738945","co37615","norming","","","{""guess"":""knife""}","","../img/tt/019tt.jpg","",""
"null","../img/gs/019gs.jpg","null","reveal","image-keyboard-response","94","495789","0.0-6.0-4.12","2738945","co37615","norming","","","","","","",""
"null","../img/tt/019tt.jpg","null","mooney2","image-keyboard-response","95","497791","0.0-6.0-5.12","2738945","co37615","norming","","","","","","",""
"2050.4349999999977","","","post_reveal_questions","survey-likert","96","499843","0.0-6.0-6.12","2738945","co37615","norming","","","{""aha"":2}","[0]","../img/tt/019tt.jpg","",""
"null","<div style=""font-size:60px;""> </div>","null","fixation","html-keyboard-response","97","500046","0.0-6.0-0.13","2738945","co37615","norming","","","","","","",""
"null","../img/tt/064tt.jpg","null","mooney1","image-keyboard-response","98","503052","0.0-6.0-1.13","2738945","co37615","norming","","","","","","",""
"2884.9400000000023","","","post_mooney1_questions","survey-likert","99","505940","0.0-6.0-2.13","2738945","co37615","norming","","","{""curiosity"":4,""confidence"":2}","[0,1]","../img/tt/064tt.jpg","",""
"6829.89499999996","","","recognition","survey-text","100","512771","0.0-6.0-3.13","2738945","co37615","norming","","","{""guess"":""thumbs up""}","","../img/tt/064tt.jpg","",""
"null","../img/gs/064gs.jpg","null","reveal","image-keyboard-response","101","514773","0.0-6.0-4.13","2738945","co37615","norming","","","","","","",""
"null","../img/tt/064tt.jpg","null","mooney2","image-keyboard-response","102","516775","0.0-6.0-5.13","2738945","co37615","norming","","","","","","",""
"3539.4150000000373","","","post_reveal_questions","survey-likert","103","520316","0.0-6.0-6.13","2738945","co37615","norming","","","{""aha"":0}","[0]","../img/tt/064tt.jpg","",""
"null","<div style=""font-size:60px;""> </div>","null","fixation","html-keyboard-response","104","520520","0.0-6.0-0.14","2738945","co37615","norming","","","","","","",""
"null","../img/tt/076tt.jpg","null","mooney1","image-keyboard-response","105","523397","0.0-6.0-1.14","2738945","co37615","norming","","","","","","",""
"5124.925000000047","","","post_mooney1_questions","survey-likert","106","528524","0.0-6.0-2.14","2738945","co37615","norming","","","{""curiosity"":2,""confidence"":4}","[0,1]","../img/tt/076tt.jpg","",""
"3494.1900000000605","","","recognition","survey-text","107","532020","0.0-6.0-3.14","2738945","co37615","norming","","","{""guess"":""rollerblades""}","","../img/tt/076tt.jpg","",""
"null","../img/gs/076gs.jpg","null","reveal","image-keyboard-response","108","534030","0.0-6.0-4.14","2738945","co37615","norming","","","","","","",""
"null","../img/tt/076tt.jpg","null","mooney2","image-keyboard-response","109","536032","0.0-6.0-5.14","2738945","co37615","norming","","","","","","",""
"2569.430000000051","","","post_reveal_questions","survey-likert","110","538604","0.0-6.0-6.14","2738945","co37615","norming","","","{""aha"":0}","[0]","../img/tt/076tt.jpg","",""
"null","<div style=""font-size:60px;""> </div>","null","fixation","html-keyboard-response","111","538808","0.0-6.0-0.15","2738945","co37615","norming","","","","","","",""
"null","../img/tt/329tt.jpg","null","mooney1","image-keyboard-response","112","541813","0.0-6.0-1.15","2738945","co37615","norming","","","","","","",""
"3618.515000000014","","","post_mooney1_questions","survey-likert","113","545436","0.0-6.0-2.15","2738945","co37615","norming","","","{""curiosity"":5,""confidence"":1}","[0,1]","../img/tt/329tt.jpg","",""
"2478.0650000000605","","","recognition","survey-text","114","547916","0.0-6.0-3.15","2738945","co37615","norming","","","{""guess"":""skiing""}","","../img/tt/329tt.jpg","",""
"null","../img/gs/329gs.jpg","null","reveal","image-keyboard-response","115","549923","0.0-6.0-4.15","2738945","co37615","norming","","","","","","",""
"null","../img/tt/329tt.jpg","null","mooney2","image-keyboard-response","116","551924","0.0-6.0-5.15","2738945","co37615","norming","","","","","","",""
"1437.7449999999953","","","post_reveal_questions","survey-likert","117","553364","0.0-6.0-6.15","2738945","co37615","norming","","","{""aha"":5}","[0]","../img/tt/329tt.jpg","",""
"null","<div style=""font-size:60px;""> </div>","null","fixation","html-keyboard-response","118","553572","0.0-6.0-0.16","2738945","co37615","norming","","","","","","",""
"null","../img/tt/270tt.jpg","null","mooney1","image-keyboard-response","119","556581","0.0-6.0-1.16","2738945","co37615","norming","","","","","","",""
"4246.224999999977","","","post_mooney1_questions","survey-likert","120","560828","0.0-6.0-2.16","2738945","co37615","norming","","","{""curiosity"":4,""confidence"":0}","[0,1]","../img/tt/270tt.jpg","",""
"2214.1900000000605","","","recognition","survey-text","121","563044","0.0-6.0-3.16","2738945","co37615","norming","","","{""guess"":""bush""}","","../img/tt/270tt.jpg","",""
"null","../img/gs/270gs.jpg","null","reveal","image-keyboard-response","122","565047","0.0-6.0-4.16","2738945","co37615","norming","","","","","","",""
"null","../img/tt/270tt.jpg","null","mooney2","image-keyboard-response","123","567058","0.0-6.0-5.16","2738945","co37615","norming","","","","","","",""
"2103.609999999986","","","post_reveal_questions","survey-likert","124","569164","0.0-6.0-6.16","2738945","co37615","norming","","","{""aha"":2}","[0]","../img/tt/270tt.jpg","",""
"null","<div style=""font-size:60px;""> </div>","null","fixation","html-keyboard-response","125","569365","0.0-6.0-0.17","2738945","co37615","norming","","","","","","",""
"null","../img/tt/559tt.jpg","null","mooney1","image-keyboard-response","126","572377","0.0-6.0-1.17","2738945","co37615","norming","","","","","","",""
"3865.7750000000233","","","post_mooney1_questions","survey-likert","127","576244","0.0-6.0-2.17","2738945","co37615","norming","","","{""curiosity"":5,""confidence"":1}","[0,1]","../img/tt/559tt.jpg","",""
"2230.1750000000466","","","recognition","survey-text","128","578476","0.0-6.0-3.17","2738945","co37615","norming","","","{""guess"":""hammer""}","","../img/tt/559tt.jpg","",""
"null","../img/gs/559gs.jpg","null","reveal","image-keyboard-response","129","580487","0.0-6.0-4.17","2738945","co37615","norming","","","","","","",""
"null","../img/tt/559tt.jpg","null","mooney2","image-keyboard-response","130","582489","0.0-6.0-5.17","2738945","co37615","norming","","","","","","",""
"1744.2949999999255","","","post_reveal_questions","survey-likert","131","584235","0.0-6.0-6.17","2738945","co37615","norming","","","{""aha"":1}","[0]","../img/tt/559tt.jpg","",""
"null","<div style=""font-size:60px;""> </div>","null","fixation","html-keyboard-response","132","584439","0.0-6.0-0.18","2738945","co37615","norming","","","","","","",""
"null","../img/tt/1116tt.jpg","null","mooney1","image-keyboard-response","133","587441","0.0-6.0-1.18","2738945","co37615","norming","","","","","","",""
"3783.859999999986","","","post_mooney1_questions","survey-likert","134","591228","0.0-6.0-2.18","2738945","co37615","norming","","","{""curiosity"":3,""confidence"":4}","[0,1]","../img/tt/1116tt.jpg","",""
"2934.460000000079","","","recognition","survey-text","135","594164","0.0-6.0-3.18","2738945","co37615","norming","","","{""guess"":""parked cars""}","","../img/tt/1116tt.jpg","",""
"null","../img/gs/1116gs.jpg","null","reveal","image-keyboard-response","136","596166","0.0-6.0-4.18","2738945","co37615","norming","","","","","","",""
"null","../img/tt/1116tt.jpg","null","mooney2","image-keyboard-response","137","598175","0.0-6.0-5.18","2738945","co37615","norming","","","","","","",""
"2250.409999999916","","","post_reveal_questions","survey-likert","138","600428","0.0-6.0-6.18","2738945","co37615","norming","","","{""aha"":0}","[0]","../img/tt/1116tt.jpg","",""
"null","<div style=""font-size:60px;""> </div>","null","fixation","html-keyboard-response","139","600632","0.0-6.0-0.19","2738945","co37615","norming","","","","","","",""
"null","../img/tt/1241tt.jpg","null","mooney1","image-keyboard-response","140","603638","0.0-6.0-1.19","2738945","co37615","norming","","","","","","",""
"4291.3150000000605","","","post_mooney1_questions","survey-likert","141","607932","0.0-6.0-2.19","2738945","co37615","norming","","","{""curiosity"":5,""confidence"":1}","[0,1]","../img/tt/1241tt.jpg","",""
"5046.064999999944","","","recognition","survey-text","142","612979","0.0-6.0-3.19","2738945","co37615","norming","","","{""guess"":""pigs or dogs""}","","../img/tt/1241tt.jpg","",""
"null","../img/gs/1241gs.jpg","null","reveal","image-keyboard-response","143","614984","0.0-6.0-4.19","2738945","co37615","norming","","","","","","",""
"null","../img/tt/1241tt.jpg","null","mooney2","image-keyboard-response","144","616989","0.0-6.0-5.19","2738945","co37615","norming","","","","","","",""
"2691.899999999907","","","post_reveal_questions","survey-likert","145","619684","0.0-6.0-6.19","2738945","co37615","norming","","","{""aha"":3}","[0]","../img/tt/1241tt.jpg","",""
"null","<div style=""font-size:60px;""> </div>","null","fixation","html-keyboard-response","146","619893","0.0-6.0-0.20","2738945","co37615","norming","","","","","","",""
"null","../img/tt/053tt.jpg","null","mooney1","image-keyboard-response","147","622902","0.0-6.0-1.20","2738945","co37615","norming","","","","","","",""
"5074.790000000037","","","post_mooney1_questions","survey-likert","148","627980","0.0-6.0-2.20","2738945","co37615","norming","","","{""curiosity"":2,""confidence"":4}","[0,1]","../img/tt/053tt.jpg","",""
"2998.219999999972","","","recognition","survey-text","149","630980","0.0-6.0-3.20","2738945","co37615","norming","","","{""guess"":""kajakkers""}","","../img/tt/053tt.jpg","",""
"null","../img/gs/053gs.jpg","null","reveal","image-keyboard-response","150","632989","0.0-6.0-4.20","2738945","co37615","norming","","","","","","",""
"null","../img/tt/053tt.jpg","null","mooney2","image-keyboard-response","151","634991","0.0-6.0-5.20","2738945","co37615","norming","","","","","","",""
"3027.609999999986","","","post_reveal_questions","survey-likert","152","638019","0.0-6.0-6.20","2738945","co37615","norming","","","{""aha"":0}","[0]","../img/tt/053tt.jpg","",""
"null","<div style=""font-size:60px;""> </div>","null","fixation","html-keyboard-response","153","638221","0.0-6.0-0.21","2738945","co37615","norming","","","","","","",""
"null","../img/tt/603tt.jpg","null","mooney1","image-keyboard-response","154","641232","0.0-6.0-1.21","2738945","co37615","norming","","","","","","",""
"7096.804999999818","","","post_mooney1_questions","survey-likert","155","648325","0.0-6.0-2.21","2738945","co37615","norming","","","{""curiosity"":5,""confidence"":5}","[0,1]","../img/tt/603tt.jpg","",""
"4390.249999999884","","","recognition","survey-text","156","652717","0.0-6.0-3.21","2738945","co37615","norming","","","{""guess"":""cat""}","","../img/tt/603tt.jpg","",""
"null","../img/gs/603gs.jpg","null","reveal","image-keyboard-response","157","654718","0.0-6.0-4.21","2738945","co37615","norming","","","","","","",""
"null","../img/tt/603tt.jpg","null","mooney2","image-keyboard-response","158","656719","0.0-6.0-5.21","2738945","co37615","norming","","","","","","",""
"2819.935000000056","","","post_reveal_questions","survey-likert","159","659540","0.0-6.0-6.21","2738945","co37615","norming","","","{""aha"":0}","[0]","../img/tt/603tt.jpg","",""
"null","<div style=""font-size:60px;""> </div>","null","fixation","html-keyboard-response","160","659751","0.0-6.0-0.22","2738945","co37615","norming","","","","","","",""
"null","../img/tt/1275tt.jpg","null","mooney1","image-keyboard-response","161","662760","0.0-6.0-1.22","2738945","co37615","norming","","","","","","",""
"12322.869999999995","","","post_mooney1_questions","survey-likert","162","675084","0.0-6.0-2.22","2738945","co37615","norming","","","{""curiosity"":3,""confidence"":5}","[0,1]","../img/tt/1275tt.jpg","",""
"6694.3450000000885","","","recognition","survey-text","163","681780","0.0-6.0-3.22","2738945","co37615","norming","","","{""guess"":""zwijn of varken""}","","../img/tt/1275tt.jpg","",""
"null","../img/gs/1275gs.jpg","null","reveal","image-keyboard-response","164","683787","0.0-6.0-4.22","2738945","co37615","norming","","","","","","",""
"null","../img/tt/1275tt.jpg","null","mooney2","image-keyboard-response","165","685789","0.0-6.0-5.22","2738945","co37615","norming","","","","","","",""
"3116.6049999999814","","","post_reveal_questions","survey-likert","166","688908","0.0-6.0-6.22","2738945","co37615","norming","","","{""aha"":1}","[0]","../img/tt/1275tt.jpg","",""
"null","<div style=""font-size:60px;""> </div>","null","fixation","html-keyboard-response","167","689117","0.0-6.0-0.23","2738945","co37615","norming","","","","","","",""
"null","../img/tt/1055tt.jpg","null","mooney1","image-keyboard-response","168","692120","0.0-6.0-1.23","2738945","co37615","norming","","","","","","",""
"4289.314999999944","","","post_mooney1_questions","survey-likert","169","696413","0.0-6.0-2.23","2738945","co37615","norming","","","{""curiosity"":6,""confidence"":1}","[0,1]","../img/tt/1055tt.jpg","",""
"2982.0999999998603","","","recognition","survey-text","170","699396","0.0-6.0-3.23","2738945","co37615","norming","","","{""guess"":""light""}","","../img/tt/1055tt.jpg","",""
"null","../img/gs/1055gs.jpg","null","reveal","image-keyboard-response","171","701402","0.0-6.0-4.23","2738945","co37615","norming","","","","","","",""
"null","../img/tt/1055tt.jpg","null","mooney2","image-keyboard-response","172","703404","0.0-6.0-5.23","2738945","co37615","norming","","","","","","",""
"2998.765000000014","","","post_reveal_questions","survey-likert","173","706403","0.0-6.0-6.23","2738945","co37615","norming","","","{""aha"":2}","[0]","../img/tt/1055tt.jpg","",""
"null","<div style=""font-size:60px;""> </div>","null","fixation","html-keyboard-response","174","706610","0.0-6.0-0.24","2738945","co37615","norming","","","","","","",""
"null","../img/tt/094tt.jpg","null","mooney1","image-keyboard-response","175","709615","0.0-6.0-1.24","2738945","co37615","norming","","","","","","",""
"3977.6600000000326","","","post_mooney1_questions","survey-likert","176","713596","0.0-6.0-2.24","2738945","co37615","norming","","","{""curiosity"":5,""confidence"":1}","[0,1]","../img/tt/094tt.jpg","",""
"5958.29999999993","","","recognition","survey-text","177","719555","0.0-6.0-3.24","2738945","co37615","norming","","","{""guess"":""pig""}","","../img/tt/094tt.jpg","",""
"null","../img/gs/094gs.jpg","null","reveal","image-keyboard-response","178","721559","0.0-6.0-4.24","2738945","co37615","norming","","","","","","",""
"null","../img/tt/094tt.jpg","null","mooney2","image-keyboard-response","179","723561","0.0-6.0-5.24","2738945","co37615","norming","","","","","","",""
"3065.644999999902","","","post_reveal_questions","survey-likert","180","726627","0.0-6.0-6.24","2738945","co37615","norming","","","{""aha"":4}","[0]","../img/tt/094tt.jpg","",""
"null","<div style=""font-size:60px;""> </div>","null","fixation","html-keyboard-response","181","726831","0.0-6.0-0.25","2738945","co37615","norming","","","","","","",""
"null","../img/tt/534tt.jpg","null","mooney1","image-keyboard-response","182","729837","0.0-6.0-1.25","2738945","co37615","norming","","","","","","",""
"4227.770000000019","","","post_mooney1_questions","survey-likert","183","734068","0.0-6.0-2.25","2738945","co37615","norming","","","{""curiosity"":4,""confidence"":3}","[0,1]","../img/tt/534tt.jpg","",""
"2509.9349999999395","","","recognition","survey-text","184","736579","0.0-6.0-3.25","2738945","co37615","norming","","","{""guess"":""cactus""}","","../img/tt/534tt.jpg","",""
"null","../img/gs/534gs.jpg","null","reveal","image-keyboard-response","185","738586","0.0-6.0-4.25","2738945","co37615","norming","","","","","","",""
"null","../img/tt/534tt.jpg","null","mooney2","image-keyboard-response","186","740587","0.0-6.0-5.25","2738945","co37615","norming","","","","","","",""
"1519.6500000000233","","","post_reveal_questions","survey-likert","187","742107","0.0-6.0-6.25","2738945","co37615","norming","","","{""aha"":0}","[0]","../img/tt/534tt.jpg","",""
"null","<div style=""font-size:60px;""> </div>","null","fixation","html-keyboard-response","188","742316","0.0-6.0-0.26","2738945","co37615","norming","","","","","","",""
"null","../img/tt/1235tt.jpg","null","mooney1","image-keyboard-response","189","745327","0.0-6.0-1.26","2738945","co37615","norming","","","","","","",""
"2393.719999999972","","","post_mooney1_questions","survey-likert","190","747724","0.0-6.0-2.26","2738945","co37615","norming","","","{""curiosity"":5,""confidence"":2}","[0,1]","../img/tt/1235tt.jpg","",""
"5046.320000000065","","","recognition","survey-text","191","752772","0.0-6.0-3.26","2738945","co37615","norming","","","{""guess"":""chicken""}","","../img/tt/1235tt.jpg","",""
"null","../img/gs/1235gs.jpg","null","reveal","image-keyboard-response","192","754780","0.0-6.0-4.26","2738945","co37615","norming","","","","","","",""
"null","../img/tt/1235tt.jpg","null","mooney2","image-keyboard-response","193","756788","0.0-6.0-5.26","2738945","co37615","norming","","","","","","",""
"1724.7899999999208","","","post_reveal_questions","survey-likert","194","758515","0.0-6.0-6.26","2738945","co37615","norming","","","{""aha"":3}","[0]","../img/tt/1235tt.jpg","",""
"null","<div style=""font-size:60px;""> </div>","null","fixation","html-keyboard-response","195","758719","0.0-6.0-0.27","2738945","co37615","norming","","","","","","",""
"null","../img/tt/1151tt.jpg","null","mooney1","image-keyboard-response","196","761723","0.0-6.0-1.27","2738945","co37615","norming","","","","","","",""
"3126.0450000001583","","","post_mooney1_questions","survey-likert","197","764852","0.0-6.0-2.27","2738945","co37615","norming","","","{""curiosity"":6,""confidence"":0}","[0,1]","../img/tt/1151tt.jpg","",""
"2062.164999999921","","","recognition","survey-text","198","766920","0.0-6.0-3.27","2738945","co37615","norming","","","{""guess"":""no ideq""}","","../img/tt/1151tt.jpg","",""
"null","../img/gs/1151gs.jpg","null","reveal","image-keyboard-response","199","768930","0.0-6.0-4.27","2738945","co37615","norming","","","","","","",""
"null","../img/tt/1151tt.jpg","null","mooney2","image-keyboard-response","200","770938","0.0-6.0-5.27","2738945","co37615","norming","","","","","","",""
"2220.1450000000186","","","post_reveal_questions","survey-likert","201","773160","0.0-6.0-6.27","2738945","co37615","norming","","","{""aha"":4}","[0]","../img/tt/1151tt.jpg","",""
"null","<div style=""font-size:60px;""> </div>","null","fixation","html-keyboard-response","202","773364","0.0-6.0-0.28","2738945","co37615","norming","","","","","","",""
"null","../img/tt/1262tt.jpg","null","mooney1","image-keyboard-response","203","776373","0.0-6.0-1.28","2738945","co37615","norming","","","","","","",""
"7215.9400000000605","","","post_mooney1_questions","survey-likert","204","783592","0.0-6.0-2.28","2738945","co37615","norming","","","{""curiosity"":5,""confidence"":3}","[0,1]","../img/tt/1262tt.jpg","",""
"2822.214999999851","","","recognition","survey-text","205","786416","0.0-6.0-3.28","2738945","co37615","norming","","","{""guess"":""chicken""}","","../img/tt/1262tt.jpg","",""
"null","../img/gs/1262gs.jpg","null","reveal","image-keyboard-response","206","788422","0.0-6.0-4.28","2738945","co37615","norming","","","","","","",""
"null","../img/tt/1262tt.jpg","null","mooney2","image-keyboard-response","207","790425","0.0-6.0-5.28","2738945","co37615","norming","","","","","","",""
"2124.469999999972","","","post_reveal_questions","survey-likert","208","792552","0.0-6.0-6.28","2738945","co37615","norming","","","{""aha"":1}","[0]","../img/tt/1262tt.jpg","",""
"null","<div style=""font-size:60px;""> </div>","null","fixation","html-keyboard-response","209","792755","0.0-6.0-0.29","2738945","co37615","norming","","","","","","",""
"null","../img/tt/1268tt.jpg","null","mooney1","image-keyboard-response","210","795761","0.0-6.0-1.29","2738945","co37615","norming","","","","","","",""
"3804.7700000000186","","","post_mooney1_questions","survey-likert","211","799568","0.0-6.0-2.29","2738945","co37615","norming","","","{""curiosity"":5,""confidence"":3}","[0,1]","../img/tt/1268tt.jpg","",""
"3310.3699999999953","","","recognition","survey-text","212","802880","0.0-6.0-3.29","2738945","co37615","norming","","","{""guess"":""peacock""}","","../img/tt/1268tt.jpg","",""
"null","../img/gs/1268gs.jpg","null","reveal","image-keyboard-response","213","804887","0.0-6.0-4.29","2738945","co37615","norming","","","","","","",""
"null","../img/tt/1268tt.jpg","null","mooney2","image-keyboard-response","214","806889","0.0-6.0-5.29","2738945","co37615","norming","","","","","","",""
"1532.9599999999627","","","post_reveal_questions","survey-likert","215","808424","0.0-6.0-6.29","2738945","co37615","norming","","","{""aha"":4}","[0]","../img/tt/1268tt.jpg","",""
"null","<div style=""font-size:60px;""> </div>","null","fixation","html-keyboard-response","216","808634","0.0-6.0-0.30","2738945","co37615","norming","","","","","","",""
"null","../img/tt/112tt.jpg","null","mooney1","image-keyboard-response","217","811644","0.0-6.0-1.30","2738945","co37615","norming","","","","","","",""
"3488.769999999902","","","post_mooney1_questions","survey-likert","218","815136","0.0-6.0-2.30","2738945","co37615","norming","","","{""curiosity"":6,""confidence"":1}","[0,1]","../img/tt/112tt.jpg","",""
"3142.515000000014","","","recognition","survey-text","219","818280","0.0-6.0-3.30","2738945","co37615","norming","","","{""guess"":""hammer""}","","../img/tt/112tt.jpg","",""
"null","../img/gs/112gs.jpg","null","reveal","image-keyboard-response","220","820284","0.0-6.0-4.30","2738945","co37615","norming","","","","","","",""
"null","../img/tt/112tt.jpg","null","mooney2","image-keyboard-response","221","822294","0.0-6.0-5.30","2738945","co37615","norming","","","","","","",""
"1279.2449999999953","","","post_reveal_questions","survey-likert","222","823576","0.0-6.0-6.30","2738945","co37615","norming","","","{""aha"":5}","[0]","../img/tt/112tt.jpg","",""
"null","<div style=""font-size:60px;""> </div>","null","fixation","html-keyboard-response","223","823781","0.0-6.0-0.31","2738945","co37615","norming","","","","","","",""
"null","../img/tt/1242tt.jpg","null","mooney1","image-keyboard-response","224","826795","0.0-6.0-1.31","2738945","co37615","norming","","","","","","",""
"4645.590000000084","","","post_mooney1_questions","survey-likert","225","831444","0.0-6.0-2.31","2738945","co37615","norming","","","{""curiosity"":4,""confidence"":1}","[0,1]","../img/tt/1242tt.jpg","",""
"1701.7600000000093","","","recognition","survey-text","226","833148","0.0-6.0-3.31","2738945","co37615","norming","","","{""guess"":""tree""}","","../img/tt/1242tt.jpg","",""
"null","../img/gs/1242gs.jpg","null","reveal","image-keyboard-response","227","835149","0.0-6.0-4.31","2738945","co37615","norming","","","","","","",""
"null","../img/tt/1242tt.jpg","null","mooney2","image-keyboard-response","228","837155","0.0-6.0-5.31","2738945","co37615","norming","","","","","","",""
"2590.185000000056","","","post_reveal_questions","survey-likert","229","839747","0.0-6.0-6.31","2738945","co37615","norming","","","{""aha"":2}","[0]","../img/tt/1242tt.jpg","",""
"null","<div style=""font-size:60px;""> </div>","null","fixation","html-keyboard-response","230","839956","0.0-6.0-0.32","2738945","co37615","norming","","","","","","",""
"null","../img/tt/1186tt.jpg","null","mooney1","image-keyboard-response","231","842959","0.0-6.0-1.32","2738945","co37615","norming","","","","","","",""
"3097.6399999998976","","","post_mooney1_questions","survey-likert","232","846060","0.0-6.0-2.32","2738945","co37615","norming","","","{""curiosity"":5,""confidence"":3}","[0,1]","../img/tt/1186tt.jpg","",""
"1966.234999999986","","","recognition","survey-text","233","848028","0.0-6.0-3.32","2738945","co37615","norming","","","{""guess"":""dancer""}","","../img/tt/1186tt.jpg","",""
"null","../img/gs/1186gs.jpg","null","reveal","image-keyboard-response","234","850031","0.0-6.0-4.32","2738945","co37615","norming","","","","","","",""
"null","../img/tt/1186tt.jpg","null","mooney2","image-keyboard-response","235","852039","0.0-6.0-5.32","2738945","co37615","norming","","","","","","",""
"1818.0050000000047","","","post_reveal_questions","survey-likert","236","853859","0.0-6.0-6.32","2738945","co37615","norming","","","{""aha"":2}","[0]","../img/tt/1186tt.jpg","",""
"null","<div style=""font-size:60px;""> </div>","null","fixation","html-keyboard-response","237","854068","0.0-6.0-0.33","2738945","co37615","norming","","","","","","",""
"null","../img/tt/477tt.jpg","null","mooney1","image-keyboard-response","238","857079","0.0-6.0-1.33","2738945","co37615","norming","","","","","","",""
"2913.1399999998976","","","post_mooney1_questions","survey-likert","239","859996","0.0-6.0-2.33","2738945","co37615","norming","","","{""curiosity"":5,""confidence"":2}","[0,1]","../img/tt/477tt.jpg","",""
"6158.254999999888","","","recognition","survey-text","240","866155","0.0-6.0-3.33","2738945","co37615","norming","","","{""guess"":""baby in womb""}","","../img/tt/477tt.jpg","",""
"null","../img/gs/477gs.jpg","null","reveal","image-keyboard-response","241","868161","0.0-6.0-4.33","2738945","co37615","norming","","","","","","",""
"null","../img/tt/477tt.jpg","null","mooney2","image-keyboard-response","242","870173","0.0-6.0-5.33","2738945","co37615","norming","","","","","","",""
"1732.3000000000466","","","post_reveal_questions","survey-likert","243","871907","0.0-6.0-6.33","2738945","co37615","norming","","","{""aha"":3}","[0]","../img/tt/477tt.jpg","",""
"null","<div style=""font-size:60px;""> </div>","null","fixation","html-keyboard-response","244","872113","0.0-6.0-0.34","2738945","co37615","norming","","","","","","",""
"null","../img/tt/1146tt.jpg","null","mooney1","image-keyboard-response","245","875116","0.0-6.0-1.34","2738945","co37615","norming","","","","","","",""
"3053.134999999893","","","post_mooney1_questions","survey-likert","246","878172","0.0-6.0-2.34","2738945","co37615","norming","","","{""curiosity"":5,""confidence"":4}","[0,1]","../img/tt/1146tt.jpg","",""
"1702.155000000028","","","recognition","survey-text","247","879875","0.0-6.0-3.34","2738945","co37615","norming","","","{""guess"":""driver""}","","../img/tt/1146tt.jpg","",""
"null","../img/gs/1146gs.jpg","null","reveal","image-keyboard-response","248","881884","0.0-6.0-4.34","2738945","co37615","norming","","","","","","",""
"null","../img/tt/1146tt.jpg","null","mooney2","image-keyboard-response","249","883886","0.0-6.0-5.34","2738945","co37615","norming","","","","","","",""
"2122.7399999999907","","","post_reveal_questions","survey-likert","250","886011","0.0-6.0-6.34","2738945","co37615","norming","","","{""aha"":4}","[0]","../img/tt/1146tt.jpg","",""
"null","<div style=""font-size:60px;""> </div>","null","fixation","html-keyboard-response","251","886220","0.0-6.0-0.35","2738945","co37615","norming","","","","","","",""
"null","../img/tt/580tt.jpg","null","mooney1","image-keyboard-response","252","889227","0.0-6.0-1.35","2738945","co37615","norming","","","","","","",""
"4158.114999999991","","","post_mooney1_questions","survey-likert","253","893388","0.0-6.0-2.35","2738945","co37615","norming","","","{""curiosity"":5,""confidence"":1}","[0,1]","../img/tt/580tt.jpg","",""
"3150.079999999958","","","recognition","survey-text","254","896540","0.0-6.0-3.35","2738945","co37615","norming","","","{""guess"":""human face""}","","../img/tt/580tt.jpg","",""
"null","../img/gs/580gs.jpg","null","reveal","image-keyboard-response","255","898548","0.0-6.0-4.35","2738945","co37615","norming","","","","","","",""
"null","../img/tt/580tt.jpg","null","mooney2","image-keyboard-response","256","900553","0.0-6.0-5.35","2738945","co37615","norming","","","","","","",""
"1905.1499999997905","","","post_reveal_questions","survey-likert","257","902460","0.0-6.0-6.35","2738945","co37615","norming","","","{""aha"":5}","[0]","../img/tt/580tt.jpg","",""
"null","<div style=""font-size:60px;""> </div>","null","fixation","html-keyboard-response","258","902670","0.0-6.0-0.36","2738945","co37615","norming","","","","","","",""
"null","../img/tt/060tt.jpg","null","mooney1","image-keyboard-response","259","905673","0.0-6.0-1.36","2738945","co37615","norming","","","","","","",""
"3311.859999999986","","","post_mooney1_questions","survey-likert","260","908988","0.0-6.0-2.36","2738945","co37615","norming","","","{""curiosity"":6,""confidence"":0}","[0,1]","../img/tt/060tt.jpg","",""
"5485.834999999963","","","recognition","survey-text","261","914475","0.0-6.0-3.36","2738945","co37615","norming","","","{""guess"":""bubble""}","","../img/tt/060tt.jpg","",""
"null","../img/gs/060gs.jpg","null","reveal","image-keyboard-response","262","916483","0.0-6.0-4.36","2738945","co37615","norming","","","","","","",""
"null","../img/tt/060tt.jpg","null","mooney2","image-keyboard-response","263","918484","0.0-6.0-5.36","2738945","co37615","norming","","","","","","",""
"1397.844999999972","","","post_reveal_questions","survey-likert","264","919883","0.0-6.0-6.36","2738945","co37615","norming","","","{""aha"":3}","[0]","../img/tt/060tt.jpg","",""
"null","<div style=""font-size:60px;""> </div>","null","fixation","html-keyboard-response","265","920088","0.0-6.0-0.37","2738945","co37615","norming","","","","","","",""
"null","../img/tt/1012tt.jpg","null","mooney1","image-keyboard-response","266","923089","0.0-6.0-1.37","2738945","co37615","norming","","","","","","",""
"3281.420000000042","","","post_mooney1_questions","survey-likert","267","926372","0.0-6.0-2.37","2738945","co37615","norming","","","{""curiosity"":6,""confidence"":1}","[0,1]","../img/tt/1012tt.jpg","",""
"5869.995000000112","","","recognition","survey-text","268","932243","0.0-6.0-3.37","2738945","co37615","norming","","","{""guess"":""front window""}","","../img/tt/1012tt.jpg","",""
"null","../img/gs/1012gs.jpg","null","reveal","image-keyboard-response","269","934252","0.0-6.0-4.37","2738945","co37615","norming","","","","","","",""
"null","../img/tt/1012tt.jpg","null","mooney2","image-keyboard-response","270","936255","0.0-6.0-5.37","2738945","co37615","norming","","","","","","",""
"3667.844999999972","","","post_reveal_questions","survey-likert","271","939923","0.0-6.0-6.37","2738945","co37615","norming","","","{""aha"":5}","[0]","../img/tt/1012tt.jpg","",""
"null","<div style=""font-size:60px;""> </div>","null","fixation","html-keyboard-response","272","940134","0.0-6.0-0.38","2738945","co37615","norming","","","","","","",""
"null","../img/tt/440tt.jpg","null","mooney1","image-keyboard-response","273","943140","0.0-6.0-1.38","2738945","co37615","norming","","","","","","",""
"3101.9850000001024","","","post_mooney1_questions","survey-likert","274","946244","0.0-6.0-2.38","2738945","co37615","norming","","","{""curiosity"":5,""confidence"":1}","[0,1]","../img/tt/440tt.jpg","",""
"1574.2150000000838","","","recognition","survey-text","275","947819","0.0-6.0-3.38","2738945","co37615","norming","","","{""guess"":""house""}","","../img/tt/440tt.jpg","",""
"null","../img/gs/440gs.jpg","null","reveal","image-keyboard-response","276","949814","0.0-6.0-4.38","2738945","co37615","norming","","","","","","",""
"null","../img/tt/440tt.jpg","null","mooney2","image-keyboard-response","277","951818","0.0-6.0-5.38","2738945","co37615","norming","","","","","","",""
"2752.9000000000233","","","post_reveal_questions","survey-likert","278","954572","0.0-6.0-6.38","2738945","co37615","norming","","","{""aha"":5}","[0]","../img/tt/440tt.jpg","",""
"null","<div style=""font-size:60px;""> </div>","null","fixation","html-keyboard-response","279","954775","0.0-6.0-0.39","2738945","co37615","norming","","","","","","",""
"null","../img/tt/1043tt.jpg","null","mooney1","image-keyboard-response","280","957776","0.0-6.0-1.39","2738945","co37615","norming","","","","","","",""
"3331.055000000051","","","post_mooney1_questions","survey-likert","281","961108","0.0-6.0-2.39","2738945","co37615","norming","","","{""curiosity"":5,""confidence"":3}","[0,1]","../img/tt/1043tt.jpg","",""
"2454.015000000014","","","recognition","survey-text","282","963564","0.0-6.0-3.39","2738945","co37615","norming","","","{""guess"":""wheel""}","","../img/tt/1043tt.jpg","",""
"null","../img/gs/1043gs.jpg","null","reveal","image-keyboard-response","283","965565","0.0-6.0-4.39","2738945","co37615","norming","","","","","","",""
"null","../img/tt/1043tt.jpg","null","mooney2","image-keyboard-response","284","967572","0.0-6.0-5.39","2738945","co37615","norming","","","","","","",""
"1990.5249999999069","","","post_reveal_questions","survey-likert","285","969564","0.0-6.0-6.39","2738945","co37615","norming","","","{""aha"":2}","[0]","../img/tt/1043tt.jpg","",""
"null","<div style=""font-size:60px;""> </div>","null","fixation","html-keyboard-response","286","969770","0.0-6.0-0.40","2738945","co37615","norming","","","","","","",""
"null","../img/tt/1290tt.jpg","null","mooney1","image-keyboard-response","287","972772","0.0-6.0-1.40","2738945","co37615","norming","","","","","","",""
"2678.7249999999767","","","post_mooney1_questions","survey-likert","288","975452","0.0-6.0-2.40","2738945","co37615","norming","","","{""curiosity"":5,""confidence"":2}","[0,1]","../img/tt/1290tt.jpg","",""
"1686.0599999999395","","","recognition","survey-text","289","977140","0.0-6.0-3.40","2738945","co37615","norming","","","{""guess"":""hut""}","","../img/tt/1290tt.jpg","",""
"null","../img/gs/1290gs.jpg","null","reveal","image-keyboard-response","290","979144","0.0-6.0-4.40","2738945","co37615","norming","","","","","","",""
"null","../img/tt/1290tt.jpg","null","mooney2","image-keyboard-response","291","981145","0.0-6.0-5.40","2738945","co37615","norming","","","","","","",""
"5017.459999999963","","","post_reveal_questions","survey-likert","292","986163","0.0-6.0-6.40","2738945","co37615","norming","","","{""aha"":3}","[0]","../img/tt/1290tt.jpg","",""
"null","<div style=""font-size:60px;""> </div>","null","fixation","html-keyboard-response","293","986366","0.0-6.0-0.41","2738945","co37615","norming","","","","","","",""
"null","../img/tt/1004tt.jpg","null","mooney1","image-keyboard-response","294","989368","0.0-6.0-1.41","2738945","co37615","norming","","","","","","",""
"3730.645000000135","","","post_mooney1_questions","survey-likert","295","993100","0.0-6.0-2.41","2738945","co37615","norming","","","{""curiosity"":5,""confidence"":2}","[0,1]","../img/tt/1004tt.jpg","",""
"6062.515000000014","","","recognition","survey-text","296","999164","0.0-6.0-3.41","2738945","co37615","norming","","","{""guess"":""horses""}","","../img/tt/1004tt.jpg","",""
"null","../img/gs/1004gs.jpg","null","reveal","image-keyboard-response","297","1001180","0.0-6.0-4.41","2738945","co37615","norming","","","","","","",""
"null","../img/tt/1004tt.jpg","null","mooney2","image-keyboard-response","298","1003181","0.0-6.0-5.41","2738945","co37615","norming","","","","","","",""
"2027.7750000000233","","","post_reveal_questions","survey-likert","299","1005212","0.0-6.0-6.41","2738945","co37615","norming","","","{""aha"":1}","[0]","../img/tt/1004tt.jpg","",""
"null","<div style=""font-size:60px;""> </div>","null","fixation","html-keyboard-response","300","1005413","0.0-6.0-0.42","2738945","co37615","norming","","","","","","",""
"null","../img/tt/1037tt.jpg","null","mooney1","image-keyboard-response","301","1008423","0.0-6.0-1.42","2738945","co37615","norming","","","","","","",""
"3339.7550000000047","","","post_mooney1_questions","survey-likert","302","1011766","0.0-6.0-2.42","2738945","co37615","norming","","","{""curiosity"":4,""confidence"":2}","[0,1]","../img/tt/1037tt.jpg","",""
"2942.2199999998556","","","recognition","survey-text","303","1014710","0.0-6.0-3.42","2738945","co37615","norming","","","{""guess"":""owl""}","","../img/tt/1037tt.jpg","",""
"null","../img/gs/1037gs.jpg","null","reveal","image-keyboard-response","304","1016712","0.0-6.0-4.42","2738945","co37615","norming","","","","","","",""
"null","../img/tt/1037tt.jpg","null","mooney2","image-keyboard-response","305","1018720","0.0-6.0-5.42","2738945","co37615","norming","","","","","","",""
"2211.5000000001164","","","post_reveal_questions","survey-likert","306","1020934","0.0-6.0-6.42","2738945","co37615","norming","","","{""aha"":2}","[0]","../img/tt/1037tt.jpg","",""
"null","<div style=""font-size:60px;""> </div>","null","fixation","html-keyboard-response","307","1021141","0.0-6.0-0.43","2738945","co37615","norming","","","","","","",""
"null","../img/tt/1024tt.jpg","null","mooney1","image-keyboard-response","308","1024144","0.0-6.0-1.43","2738945","co37615","norming","","","","","","",""
"3250.530000000028","","","post_mooney1_questions","survey-likert","309","1027397","0.0-6.0-2.43","2738945","co37615","norming","","","{""curiosity"":3,""confidence"":6}","[0,1]","../img/tt/1024tt.jpg","",""
"6222.209999999963","","","recognition","survey-text","310","1033621","0.0-6.0-3.43","2738945","co37615","norming","","","{""guess"":""tennis player""}","","../img/tt/1024tt.jpg","",""
"null","../img/gs/1024gs.jpg","null","reveal","image-keyboard-response","311","1035629","0.0-6.0-4.43","2738945","co37615","norming","","","","","","",""
"null","../img/tt/1024tt.jpg","null","mooney2","image-keyboard-response","312","1037631","0.0-6.0-5.43","2738945","co37615","norming","","","","","","",""
"3130.2050000000745","","","post_reveal_questions","survey-likert","313","1040765","0.0-6.0-6.43","2738945","co37615","norming","","","{""aha"":0}","[0]","../img/tt/1024tt.jpg","",""
"null","<div style=""font-size:60px;""> </div>","null","fixation","html-keyboard-response","314","1040967","0.0-6.0-0.44","2738945","co37615","norming","","","","","","",""
"null","../img/tt/1123tt.jpg","null","mooney1","image-keyboard-response","315","1043979","0.0-6.0-1.44","2738945","co37615","norming","","","","","","",""
"3711.9150000000373","","","post_mooney1_questions","survey-likert","316","1047694","0.0-6.0-2.44","2738945","co37615","norming","","","{""curiosity"":3,""confidence"":5}","[0,1]","../img/tt/1123tt.jpg","",""
"4693.814999999944","","","recognition","survey-text","317","1052389","0.0-6.0-3.44","2738945","co37615","norming","","","{""guess"":""soccer player""}","","../img/tt/1123tt.jpg","",""
"null","../img/gs/1123gs.jpg","null","reveal","image-keyboard-response","318","1054391","0.0-6.0-4.44","2738945","co37615","norming","","","","","","",""
"null","../img/tt/1123tt.jpg","null","mooney2","image-keyboard-response","319","1056396","0.0-6.0-5.44","2738945","co37615","norming","","","","","","",""
"3286.975000000093","","","post_reveal_questions","survey-likert","320","1059686","0.0-6.0-6.44","2738945","co37615","norming","","","{""aha"":3}","[0]","../img/tt/1123tt.jpg","",""
"null","<div style=""font-size:60px;""> </div>","null","fixation","html-keyboard-response","321","1059895","0.0-6.0-0.45","2738945","co37615","norming","","","","","","",""
"null","../img/tt/524tt.jpg","null","mooney1","image-keyboard-response","322","1062903","0.0-6.0-1.45","2738945","co37615","norming","","","","","","",""
"3635.619999999879","","","post_mooney1_questions","survey-likert","323","1066542","0.0-6.0-2.45","2738945","co37615","norming","","","{""curiosity"":4,""confidence"":3}","[0,1]","../img/tt/524tt.jpg","",""
"4702.094999999972","","","recognition","survey-text","324","1071250","0.0-6.0-3.45","2738945","co37615","norming","","","{""guess"":""elephant""}","","../img/tt/524tt.jpg","",""
"null","../img/gs/524gs.jpg","null","reveal","image-keyboard-response","325","1073257","0.0-6.0-4.45","2738945","co37615","norming","","","","","","",""
"null","../img/tt/524tt.jpg","null","mooney2","image-keyboard-response","326","1075259","0.0-6.0-5.45","2738945","co37615","norming","","","","","","",""
"1932.905000000028","","","post_reveal_questions","survey-likert","327","1077194","0.0-6.0-6.45","2738945","co37615","norming","","","{""aha"":4}","[0]","../img/tt/524tt.jpg","",""
"null","<div style=""font-size:60px;""> </div>","null","fixation","html-keyboard-response","328","1077396","0.0-6.0-0.46","2738945","co37615","norming","","","","","","",""
"null","../img/tt/1188tt.jpg","null","mooney1","image-keyboard-response","329","1080405","0.0-6.0-1.46","2738945","co37615","norming","","","","","","",""
"3753.8000000000466","","","post_mooney1_questions","survey-likert","330","1084162","0.0-6.0-2.46","2738945","co37615","norming","","","{""curiosity"":4,""confidence"":3}","[0,1]","../img/tt/1188tt.jpg","",""
"7134.280000000028","","","recognition","survey-text","331","1091298","0.0-6.0-3.46","2738945","co37615","norming","","","{""guess"":""american football player""}","","../img/tt/1188tt.jpg","",""
"null","../img/gs/1188gs.jpg","null","reveal","image-keyboard-response","332","1093308","0.0-6.0-4.46","2738945","co37615","norming","","","","","","",""
"null","../img/tt/1188tt.jpg","null","mooney2","image-keyboard-response","333","1095319","0.0-6.0-5.46","2738945","co37615","norming","","","","","","",""
"2696.5849999999627","","","post_reveal_questions","survey-likert","334","1098018","0.0-6.0-6.46","2738945","co37615","norming","","","{""aha"":3}","[0]","../img/tt/1188tt.jpg","",""
"null","<div style=""font-size:60px;""> </div>","null","fixation","html-keyboard-response","335","1098220","0.0-6.0-0.47","2738945","co37615","norming","","","","","","",""
"null","../img/tt/163tt.jpg","null","mooney1","image-keyboard-response","336","1101231","0.0-6.0-1.47","2738945","co37615","norming","","","","","","",""
"3463.9849999998696","","","post_mooney1_questions","survey-likert","337","1104698","0.0-6.0-2.47","2738945","co37615","norming","","","{""curiosity"":5,""confidence"":2}","[0,1]","../img/tt/163tt.jpg","",""
"3845.894999999786","","","recognition","survey-text","338","1108546","0.0-6.0-3.47","2738945","co37615","norming","","","{""guess"":""woman crying""}","","../img/tt/163tt.jpg","",""
"null","../img/gs/163gs.jpg","null","reveal","image-keyboard-response","339","1110549","0.0-6.0-4.47","2738945","co37615","norming","","","","","","",""
"null","../img/tt/163tt.jpg","null","mooney2","image-keyboard-response","340","1112552","0.0-6.0-5.47","2738945","co37615","norming","","","","","","",""
"1847.6099999998696","","","post_reveal_questions","survey-likert","341","1114402","0.0-6.0-6.47","2738945","co37615","norming","","","{""aha"":4}","[0]","../img/tt/163tt.jpg","",""
"null","<div style=""font-size:60px;""> </div>","null","fixation","html-keyboard-response","342","1114611","0.0-6.0-0.48","2738945","co37615","norming","","","","","","",""
"null","../img/tt/010tt.jpg","null","mooney1","image-keyboard-response","343","1117622","0.0-6.0-1.48","2738945","co37615","norming","","","","","","",""
"3809.6699999999255","","","post_mooney1_questions","survey-likert","344","1121435","0.0-6.0-2.48","2738945","co37615","norming","","","{""curiosity"":4,""confidence"":1}","[0,1]","../img/tt/010tt.jpg","",""
"2486.269999999786","","","recognition","survey-text","345","1123922","0.0-6.0-3.48","2738945","co37615","norming","","","{""guess"":""frog""}","","../img/tt/010tt.jpg","",""
"null","../img/gs/010gs.jpg","null","reveal","image-keyboard-response","346","1125929","0.0-6.0-4.48","2738945","co37615","norming","","","","","","",""
"null","../img/tt/010tt.jpg","null","mooney2","image-keyboard-response","347","1127933","0.0-6.0-5.48","2738945","co37615","norming","","","","","","",""
"2482.719999999972","","","post_reveal_questions","survey-likert","348","1130423","0.0-6.0-6.48","2738945","co37615","norming","","","{""aha"":1}","[0]","../img/tt/010tt.jpg","",""
"null","<div style=""font-size:60px;""> </div>","null","fixation","html-keyboard-response","349","1130625","0.0-6.0-0.49","2738945","co37615","norming","","","","","","",""
"null","../img/tt/126tt.jpg","null","mooney1","image-keyboard-response","350","1133630","0.0-6.0-1.49","2738945","co37615","norming","","","","","","",""
"5027.6699999999255","","","post_mooney1_questions","survey-likert","351","1138663","0.0-6.0-2.49","2738945","co37615","norming","","","{""curiosity"":4,""confidence"":2}","[0,1]","../img/tt/126tt.jpg","",""
"11182.360000000102","","","recognition","survey-text","352","1149847","0.0-6.0-3.49","2738945","co37615","norming","","","{""guess"":""landscape with cow""}","","../img/tt/126tt.jpg","",""
"null","../img/gs/126gs.jpg","null","reveal","image-keyboard-response","353","1151858","0.0-6.0-4.49","2738945","co37615","norming","","","","","","",""
"null","../img/tt/126tt.jpg","null","mooney2","image-keyboard-response","354","1153861","0.0-6.0-5.49","2738945","co37615","norming","","","","","","",""
"1639.2100000001956","","","post_reveal_questions","survey-likert","355","1155503","0.0-6.0-6.49","2738945","co37615","norming","","","{""aha"":0}","[0]","../img/tt/126tt.jpg","",""
"null","<div style=""font-size:60px;""> </div>","null","fixation","html-keyboard-response","356","1155704","0.0-6.0-0.50","2738945","co37615","norming","","","","","","",""
"null","../img/tt/1159tt.jpg","null","mooney1","image-keyboard-response","357","1158708","0.0-6.0-1.50","2738945","co37615","norming","","","","","","",""
"6105.560000000056","","","post_mooney1_questions","survey-likert","358","1164815","0.0-6.0-2.50","2738945","co37615","norming","","","{""curiosity"":5,""confidence"":3}","[0,1]","../img/tt/1159tt.jpg","",""
"2430.1200000001118","","","recognition","survey-text","359","1167247","0.0-6.0-3.50","2738945","co37615","norming","","","{""guess"":""skater""}","","../img/tt/1159tt.jpg","",""
"null","../img/gs/1159gs.jpg","null","reveal","image-keyboard-response","360","1169250","0.0-6.0-4.50","2738945","co37615","norming","","","","","","",""
"null","../img/tt/1159tt.jpg","null","mooney2","image-keyboard-response","361","1171261","0.0-6.0-5.50","2738945","co37615","norming","","","","","","",""
"2991.160000000149","","","post_reveal_questions","survey-likert","362","1174255","0.0-6.0-6.50","2738945","co37615","norming","","","{""aha"":0}","[0]","../img/tt/1159tt.jpg","",""
"null","<div style=""font-size:60px;""> </div>","null","fixation","html-keyboard-response","363","1174462","0.0-6.0-0.51","2738945","co37615","norming","","","","","","",""
"null","../img/tt/1353tt.jpg","null","mooney1","image-keyboard-response","364","1177473","0.0-6.0-1.51","2738945","co37615","norming","","","","","","",""
"3195.1750000000466","","","post_mooney1_questions","survey-likert","365","1180671","0.0-6.0-2.51","2738945","co37615","norming","","","{""curiosity"":5,""confidence"":2}","[0,1]","../img/tt/1353tt.jpg","",""
"4382.135000000009","","","recognition","survey-text","366","1185055","0.0-6.0-3.51","2738945","co37615","norming","","","{""guess"":""coffe cup""}","","../img/tt/1353tt.jpg","",""
"null","../img/gs/1353gs.jpg","null","reveal","image-keyboard-response","367","1187062","0.0-6.0-4.51","2738945","co37615","norming","","","","","","",""
"null","../img/tt/1353tt.jpg","null","mooney2","image-keyboard-response","368","1189064","0.0-6.0-5.51","2738945","co37615","norming","","","","","","",""
"1708.094999999972","","","post_reveal_questions","survey-likert","369","1190774","0.0-6.0-6.51","2738945","co37615","norming","","","{""aha"":3}","[0]","../img/tt/1353tt.jpg","",""
"null","<div style=""font-size:60px;""> </div>","null","fixation","html-keyboard-response","370","1190979","0.0-6.0-0.52","2738945","co37615","norming","","","","","","",""
"null","../img/tt/1069tt.jpg","null","mooney1","image-keyboard-response","371","1193980","0.0-6.0-1.52","2738945","co37615","norming","","","","","","",""
"2710.929999999935","","","post_mooney1_questions","survey-likert","372","1196694","0.0-6.0-2.52","2738945","co37615","norming","","","{""curiosity"":5,""confidence"":4}","[0,1]","../img/tt/1069tt.jpg","",""
"6342.229999999981","","","recognition","survey-text","373","1203038","0.0-6.0-3.52","2738945","co37615","norming","","","{""guess"":""sheep""}","","../img/tt/1069tt.jpg","",""
"null","../img/gs/1069gs.jpg","null","reveal","image-keyboard-response","374","1205039","0.0-6.0-4.52","2738945","co37615","norming","","","","","","",""
"null","../img/tt/1069tt.jpg","null","mooney2","image-keyboard-response","375","1207042","0.0-6.0-5.52","2738945","co37615","norming","","","","","","",""
"1873.9900000002235","","","post_reveal_questions","survey-likert","376","1208918","0.0-6.0-6.52","2738945","co37615","norming","","","{""aha"":0}","[0]","../img/tt/1069tt.jpg","",""
"null","<div style=""font-size:60px;""> </div>","null","fixation","html-keyboard-response","377","1209121","0.0-6.0-0.53","2738945","co37615","norming","","","","","","",""
"null","../img/tt/1247tt.jpg","null","mooney1","image-keyboard-response","378","1212125","0.0-6.0-1.53","2738945","co37615","norming","","","","","","",""
"8398.024999999907","","","post_mooney1_questions","survey-likert","379","1220526","0.0-6.0-2.53","2738945","co37615","norming","","","{""curiosity"":4,""confidence"":1}","[0,1]","../img/tt/1247tt.jpg","",""
"2117.8249999999534","","","recognition","survey-text","380","1222646","0.0-6.0-3.53","2738945","co37615","norming","","","{""guess"":""tomato""}","","../img/tt/1247tt.jpg","",""
"null","../img/gs/1247gs.jpg","null","reveal","image-keyboard-response","381","1224653","0.0-6.0-4.53","2738945","co37615","norming","","","","","","",""
"null","../img/tt/1247tt.jpg","null","mooney2","image-keyboard-response","382","1226663","0.0-6.0-5.53","2738945","co37615","norming","","","","","","",""
"1973.559999999823","","","post_reveal_questions","survey-likert","383","1228638","0.0-6.0-6.53","2738945","co37615","norming","","","{""aha"":5}","[0]","../img/tt/1247tt.jpg","",""
"null","<div style=""font-size:60px;""> </div>","null","fixation","html-keyboard-response","384","1228841","0.0-6.0-0.54","2738945","co37615","norming","","","","","","",""
"null","../img/tt/378tt.jpg","null","mooney1","image-keyboard-response","385","1231843","0.0-6.0-1.54","2738945","co37615","norming","","","","","","",""
"3129.4599999999627","","","post_mooney1_questions","survey-likert","386","1234974","0.0-6.0-2.54","2738945","co37615","norming","","","{""curiosity"":5,""confidence"":2}","[0,1]","../img/tt/378tt.jpg","",""
"3613.6450000000186","","","recognition","survey-text","387","1238590","0.0-6.0-3.54","2738945","co37615","norming","","","{""guess"":""tiger""}","","../img/tt/378tt.jpg","",""
"null","../img/gs/378gs.jpg","null","reveal","image-keyboard-response","388","1240592","0.0-6.0-4.54","2738945","co37615","norming","","","","","","",""
"null","../img/tt/378tt.jpg","null","mooney2","image-keyboard-response","389","1242597","0.0-6.0-5.54","2738945","co37615","norming","","","","","","",""
"8214.10999999987","","","post_reveal_questions","survey-likert","390","1250816","0.0-6.0-6.54","2738945","co37615","norming","","","{""aha"":0}","[0]","../img/tt/378tt.jpg","",""
"null","<div style=""font-size:60px;""> </div>","null","fixation","html-keyboard-response","391","1251019","0.0-6.0-0.55","2738945","co37615","norming","","","","","","",""
"null","../img/tt/084tt.jpg","null","mooney1","image-keyboard-response","392","1254023","0.0-6.0-1.55","2738945","co37615","norming","","","","","","",""
"4541.114999999991","","","post_mooney1_questions","survey-likert","393","1258568","0.0-6.0-2.55","2738945","co37615","norming","","","{""curiosity"":3,""confidence"":4}","[0,1]","../img/tt/084tt.jpg","",""
"5653.969999999972","","","recognition","survey-text","394","1264224","0.0-6.0-3.55","2738945","co37615","norming","","","{""guess"":""peacock""}","","../img/tt/084tt.jpg","",""
"null","../img/gs/084gs.jpg","null","reveal","image-keyboard-response","395","1266231","0.0-6.0-4.55","2738945","co37615","norming","","","","","","",""
"null","../img/tt/084tt.jpg","null","mooney2","image-keyboard-response","396","1268235","0.0-6.0-5.55","2738945","co37615","norming","","","","","","",""
"1618.1500000001397","","","post_reveal_questions","survey-likert","397","1269855","0.0-6.0-6.55","2738945","co37615","norming","","","{""aha"":3}","[0]","../img/tt/084tt.jpg","",""
"null","<div style=""font-size:60px;""> </div>","null","fixation","html-keyboard-response","398","1270062","0.0-6.0-0.56","2738945","co37615","norming","","","","","","",""
"null","../img/tt/405tt.jpg","null","mooney1","image-keyboard-response","399","1273071","0.0-6.0-1.56","2738945","co37615","norming","","","","","","",""
"3805.624999999767","","","post_mooney1_questions","survey-likert","400","1276880","0.0-6.0-2.56","2738945","co37615","norming","","","{""curiosity"":3,""confidence"":5}","[0,1]","../img/tt/405tt.jpg","",""
"2006.2300000002142","","","recognition","survey-text","401","1278888","0.0-6.0-3.56","2738945","co37615","norming","","","{""guess"":""koala""}","","../img/tt/405tt.jpg","",""
"null","../img/gs/405gs.jpg","null","reveal","image-keyboard-response","402","1280894","0.0-6.0-4.56","2738945","co37615","norming","","","","","","",""
"null","../img/tt/405tt.jpg","null","mooney2","image-keyboard-response","403","1282896","0.0-6.0-5.56","2738945","co37615","norming","","","","","","",""
"6340.489999999991","","","post_reveal_questions","survey-likert","404","1289239","0.0-6.0-6.56","2738945","co37615","norming","","","{""aha"":0}","[0]","../img/tt/405tt.jpg","",""
"null","<div style=""font-size:60px;""> </div>","null","fixation","html-keyboard-response","405","1289450","0.0-6.0-0.57","2738945","co37615","norming","","","","","","",""
"null","../img/tt/091tt.jpg","null","mooney1","image-keyboard-response","406","1292453","0.0-6.0-1.57","2738945","co37615","norming","","","","","","",""
"3046.7650000001304","","","post_mooney1_questions","survey-likert","407","1295503","0.0-6.0-2.57","2738945","co37615","norming","","","{""curiosity"":4,""confidence"":3}","[0,1]","../img/tt/091tt.jpg","",""
"4478.299999999814","","","recognition","survey-text","408","1299983","0.0-6.0-3.57","2738945","co37615","norming","","","{""guess"":""crocodile""}","","../img/tt/091tt.jpg","",""
"null","../img/gs/091gs.jpg","null","reveal","image-keyboard-response","409","1301989","0.0-6.0-4.57","2738945","co37615","norming","","","","","","",""
"null","../img/tt/091tt.jpg","null","mooney2","image-keyboard-response","410","1303991","0.0-6.0-5.57","2738945","co37615","norming","","","","","","",""
"1229.9250000000466","","","post_reveal_questions","survey-likert","411","1305223","0.0-6.0-6.57","2738945","co37615","norming","","","{""aha"":2}","[0]","../img/tt/091tt.jpg","",""
"null","<div style=""font-size:60px;""> </div>","null","fixation","html-keyboard-response","412","1305426","0.0-6.0-0.58","2738945","co37615","norming","","","","","","",""
"null","../img/tt/1228tt.jpg","null","mooney1","image-keyboard-response","413","1308434","0.0-6.0-1.58","2738945","co37615","norming","","","","","","",""
"4642.550000000047","","","post_mooney1_questions","survey-likert","414","1313080","0.0-6.0-2.58","2738945","co37615","norming","","","{""curiosity"":4,""confidence"":1}","[0,1]","../img/tt/1228tt.jpg","",""
"3198.1650000000373","","","recognition","survey-text","415","1316280","0.0-6.0-3.58","2738945","co37615","norming","","","{""guess"":""flamingo""}","","../img/tt/1228tt.jpg","",""
"null","../img/gs/1228gs.jpg","null","reveal","image-keyboard-response","416","1318287","0.0-6.0-4.58","2738945","co37615","norming","","","","","","",""
"null","../img/tt/1228tt.jpg","null","mooney2","image-keyboard-response","417","1320289","0.0-6.0-5.58","2738945","co37615","norming","","","","","","",""
"1659.9399999999441","","","post_reveal_questions","survey-likert","418","1321952","0.0-6.0-6.58","2738945","co37615","norming","","","{""aha"":4}","[0]","../img/tt/1228tt.jpg","",""
"null","<div style=""font-size:60px;""> </div>","null","fixation","html-keyboard-response","419","1322159","0.0-6.0-0.59","2738945","co37615","norming","","","","","","",""
"null","../img/tt/1143tt.jpg","null","mooney1","image-keyboard-response","420","1325172","0.0-6.0-1.59","2738945","co37615","norming","","","","","","",""
"4664.630000000121","","","post_mooney1_questions","survey-likert","421","1329840","0.0-6.0-2.59","2738945","co37615","norming","","","{""curiosity"":4,""confidence"":6}","[0,1]","../img/tt/1143tt.jpg","",""
"3677.8000000000466","","","recognition","survey-text","422","1333519","0.0-6.0-3.59","2738945","co37615","norming","","","{""guess"":""fitness biking""}","","../img/tt/1143tt.jpg","",""
"null","../img/gs/1143gs.jpg","null","reveal","image-keyboard-response","423","1335525","0.0-6.0-4.59","2738945","co37615","norming","","","","","","",""
"null","../img/tt/1143tt.jpg","null","mooney2","image-keyboard-response","424","1337528","0.0-6.0-5.59","2738945","co37615","norming","","","","","","",""
"2597.190000000177","","","post_reveal_questions","survey-likert","425","1340128","0.0-6.0-6.59","2738945","co37615","norming","","","{""aha"":0}","[0]","../img/tt/1143tt.jpg","",""
"null","<div style=""font-size:60px;""> </div>","null","fixation","html-keyboard-response","426","1340331","0.0-6.0-0.60","2738945","co37615","norming","","","","","","",""
"null","../img/tt/063tt.jpg","null","mooney1","image-keyboard-response","427","1343335","0.0-6.0-1.60","2738945","co37615","norming","","","","","","",""
"3501.059999999823","","","post_mooney1_questions","survey-likert","428","1346840","0.0-6.0-2.60","2738945","co37615","norming","","","{""curiosity"":5,""confidence"":2}","[0,1]","../img/tt/063tt.jpg","",""
"7062.145000000019","","","recognition","survey-text","429","1353903","0.0-6.0-3.60","2738945","co37615","norming","","","{""guess"":""vending machine""}","","../img/tt/063tt.jpg","",""
"null","../img/gs/063gs.jpg","null","reveal","image-keyboard-response","430","1355908","0.0-6.0-4.60","2738945","co37615","norming","","","","","","",""
"null","../img/tt/063tt.jpg","null","mooney2","image-keyboard-response","431","1357914","0.0-6.0-5.60","2738945","co37615","norming","","","","","","",""
"1091.0500000000466","","","post_reveal_questions","survey-likert","432","1359007","0.0-6.0-6.60","2738945","co37615","norming","","","{""aha"":2}","[0]","../img/tt/063tt.jpg","",""
"null","<div style=""font-size:60px;""> </div>","null","fixation","html-keyboard-response","433","1359217","0.0-6.0-0.61","2738945","co37615","norming","","","","","","",""
"null","../img/tt/1269tt.jpg","null","mooney1","image-keyboard-response","434","1362228","0.0-6.0-1.61","2738945","co37615","norming","","","","","","",""
"5562.604999999981","","","post_mooney1_questions","survey-likert","435","1367792","0.0-6.0-2.61","2738945","co37615","norming","","","{""curiosity"":5,""confidence"":1}","[0,1]","../img/tt/1269tt.jpg","",""
"2413.840000000084","","","recognition","survey-text","436","1370207","0.0-6.0-3.61","2738945","co37615","norming","","","{""guess"":""kangeroo""}","","../img/tt/1269tt.jpg","",""
"null","../img/gs/1269gs.jpg","null","reveal","image-keyboard-response","437","1372219","0.0-6.0-4.61","2738945","co37615","norming","","","","","","",""
"null","../img/tt/1269tt.jpg","null","mooney2","image-keyboard-response","438","1374221","0.0-6.0-5.61","2738945","co37615","norming","","","","","","",""
"1961.4499999999534","","","post_reveal_questions","survey-likert","439","1376186","0.0-6.0-6.61","2738945","co37615","norming","","","{""aha"":3}","[0]","../img/tt/1269tt.jpg","",""
"null","<div style=""font-size:60px;""> </div>","null","fixation","html-keyboard-response","440","1376391","0.0-6.0-0.62","2738945","co37615","norming","","","","","","",""
"null","../img/tt/055tt.jpg","null","mooney1","image-keyboard-response","441","1379400","0.0-6.0-1.62","2738945","co37615","norming","","","","","","",""
"4197.745000000112","","","post_mooney1_questions","survey-likert","442","1383602","0.0-6.0-2.62","2738945","co37615","norming","","","{""curiosity"":4,""confidence"":4}","[0,1]","../img/tt/055tt.jpg","",""
"6542.0800000000745","","","recognition","survey-text","443","1390146","0.0-6.0-3.62","2738945","co37615","norming","","","{""guess"":""horseriding saddle""}","","../img/tt/055tt.jpg","",""
"null","../img/gs/055gs.jpg","null","reveal","image-keyboard-response","444","1392153","0.0-6.0-4.62","2738945","co37615","norming","","","","","","",""
"null","../img/tt/055tt.jpg","null","mooney2","image-keyboard-response","445","1394155","0.0-6.0-5.62","2738945","co37615","norming","","","","","","",""
"2332.219999999972","","","post_reveal_questions","survey-likert","446","1396490","0.0-6.0-6.62","2738945","co37615","norming","","","{""aha"":0}","[0]","../img/tt/055tt.jpg","",""
"null","<div style=""font-size:60px;""> </div>","null","fixation","html-keyboard-response","447","1396691","0.0-6.0-0.63","2738945","co37615","norming","","","","","","",""
"null","../img/tt/1270tt.jpg","null","mooney1","image-keyboard-response","448","1399700","0.0-6.0-1.63","2738945","co37615","norming","","","","","","",""
"4769.834999999963","","","post_mooney1_questions","survey-likert","449","1404474","0.0-6.0-2.63","2738945","co37615","norming","","","{""curiosity"":5,""confidence"":1}","[0,1]","../img/tt/1270tt.jpg","",""
"3422.1699999999255","","","recognition","survey-text","450","1407898","0.0-6.0-3.63","2738945","co37615","norming","","","{""guess"":""water fall""}","","../img/tt/1270tt.jpg","",""
"null","../img/gs/1270gs.jpg","null","reveal","image-keyboard-response","451","1409902","0.0-6.0-4.63","2738945","co37615","norming","","","","","","",""
"null","../img/tt/1270tt.jpg","null","mooney2","image-keyboard-response","452","1411910","0.0-6.0-5.63","2738945","co37615","norming","","","","","","",""
"2792.5449999999255","","","post_reveal_questions","survey-likert","453","1414705","0.0-6.0-6.63","2738945","co37615","norming","","","{""aha"":3}","[0]","../img/tt/1270tt.jpg","",""
"null","<div style=""font-size:60px;""> </div>","null","fixation","html-keyboard-response","454","1414908","0.0-6.0-0.64","2738945","co37615","norming","","","","","","",""
"null","../img/tt/1080tt.jpg","null","mooney1","image-keyboard-response","455","1417919","0.0-6.0-1.64","2738945","co37615","norming","","","","","","",""
"3887.2450000001118","","","post_mooney1_questions","survey-likert","456","1421810","0.0-6.0-2.64","2738945","co37615","norming","","","{""curiosity"":5,""confidence"":0}","[0,1]","../img/tt/1080tt.jpg","",""
"6150.060000000056","","","recognition","survey-text","457","1427962","0.0-6.0-3.64","2738945","co37615","norming","","","{""guess"":""no idea""}","","../img/tt/1080tt.jpg","",""
"null","../img/gs/1080gs.jpg","null","reveal","image-keyboard-response","458","1429964","0.0-6.0-4.64","2738945","co37615","norming","","","","","","",""
"null","../img/tt/1080tt.jpg","null","mooney2","image-keyboard-response","459","1431967","0.0-6.0-5.64","2738945","co37615","norming","","","","","","",""
"2287.6800000001676","","","post_reveal_questions","survey-likert","460","1434256","0.0-6.0-6.64","2738945","co37615","norming","","","{""aha"":2}","[0]","../img/tt/1080tt.jpg","",""
"null","<div style=""font-size:60px;""> </div>","null","fixation","html-keyboard-response","461","1434457","0.0-6.0-0.65","2738945","co37615","norming","","","","","","",""
"null","../img/tt/1084tt.jpg","null","mooney1","image-keyboard-response","462","1437468","0.0-6.0-1.65","2738945","co37615","norming","","","","","","",""
"2976.7299999999814","","","post_mooney1_questions","survey-likert","463","1440448","0.0-6.0-2.65","2738945","co37615","norming","","","{""curiosity"":5,""confidence"":2}","[0,1]","../img/tt/1084tt.jpg","",""
"1822.3300000000745","","","recognition","survey-text","464","1442272","0.0-6.0-3.65","2738945","co37615","norming","","","{""guess"":""cheese""}","","../img/tt/1084tt.jpg","",""
"null","../img/gs/1084gs.jpg","null","reveal","image-keyboard-response","465","1444273","0.0-6.0-4.65","2738945","co37615","norming","","","","","","",""
"null","../img/tt/1084tt.jpg","null","mooney2","image-keyboard-response","466","1446278","0.0-6.0-5.65","2738945","co37615","norming","","","","","","",""
"3687.560000000056","","","post_reveal_questions","survey-likert","467","1449968","0.0-6.0-6.65","2738945","co37615","norming","","","{""aha"":2}","[0]","../img/tt/1084tt.jpg","",""
"null","<div style=""font-size:60px;""> </div>","null","fixation","html-keyboard-response","468","1450171","0.0-6.0-0.66","2738945","co37615","norming","","","","","","",""
"null","../img/tt/1063tt.jpg","null","mooney1","image-keyboard-response","469","1453174","0.0-6.0-1.66","2738945","co37615","norming","","","","","","",""
"3406.1500000001397","","","post_mooney1_questions","survey-likert","470","1456584","0.0-6.0-2.66","2738945","co37615","norming","","","{""curiosity"":5,""confidence"":4}","[0,1]","../img/tt/1063tt.jpg","",""
"2630.2099999999627","","","recognition","survey-text","471","1459216","0.0-6.0-3.66","2738945","co37615","norming","","","{""guess"":""horses""}","","../img/tt/1063tt.jpg","",""
"null","../img/gs/1063gs.jpg","null","reveal","image-keyboard-response","472","1461218","0.0-6.0-4.66","2738945","co37615","norming","","","","","","",""
"null","../img/tt/1063tt.jpg","null","mooney2","image-keyboard-response","473","1463220","0.0-6.0-5.66","2738945","co37615","norming","","","","","","",""
"2561.1450000002515","","","post_reveal_questions","survey-likert","474","1465784","0.0-6.0-6.66","2738945","co37615","norming","","","{""aha"":0}","[0]","../img/tt/1063tt.jpg","",""
"null","<div style=""font-size:60px;""> </div>","null","fixation","html-keyboard-response","475","1465991","0.0-6.0-0.67","2738945","co37615","norming","","","","","","",""
"null","../img/tt/1254tt.jpg","null","mooney1","image-keyboard-response","476","1469003","0.0-6.0-1.67","2738945","co37615","norming","","","","","","",""
"2961.005000000121","","","post_mooney1_questions","survey-likert","477","1471968","0.0-6.0-2.67","2738945","co37615","norming","","","{""curiosity"":5,""confidence"":3}","[0,1]","../img/tt/1254tt.jpg","",""
"7262.239999999991","","","recognition","survey-text","478","1479232","0.0-6.0-3.67","2738945","co37615","norming","","","{""guess"":""woman with donkey""}","","../img/tt/1254tt.jpg","",""
"null","../img/gs/1254gs.jpg","null","reveal","image-keyboard-response","479","1481238","0.0-6.0-4.67","2738945","co37615","norming","","","","","","",""
"null","../img/tt/1254tt.jpg","null","mooney2","image-keyboard-response","480","1483251","0.0-6.0-5.67","2738945","co37615","norming","","","","","","",""
"1889.75","","","post_reveal_questions","survey-likert","481","1485144","0.0-6.0-6.67","2738945","co37615","norming","","","{""aha"":4}","[0]","../img/tt/1254tt.jpg","",""
"null","<div style=""font-size:60px;""> </div>","null","fixation","html-keyboard-response","482","1485349","0.0-6.0-0.68","2738945","co37615","norming","","","","","","",""
"null","../img/tt/1171tt.jpg","null","mooney1","image-keyboard-response","483","1488359","0.0-6.0-1.68","2738945","co37615","norming","","","","","","",""
"3045.225000000093","","","post_mooney1_questions","survey-likert","484","1491408","0.0-6.0-2.68","2738945","co37615","norming","","","{""curiosity"":5,""confidence"":2}","[0,1]","../img/tt/1171tt.jpg","",""
"3598.1200000001118","","","recognition","survey-text","485","1495007","0.0-6.0-3.68","2738945","co37615","norming","","","{""guess"":""scary man""}","","../img/tt/1171tt.jpg","",""
"null","../img/gs/1171gs.jpg","null","reveal","image-keyboard-response","486","1497009","0.0-6.0-4.68","2738945","co37615","norming","","","","","","",""
"null","../img/tt/1171tt.jpg","null","mooney2","image-keyboard-response","487","1499010","0.0-6.0-5.68","2738945","co37615","norming","","","","","","",""
"1865.7250000000931","","","post_reveal_questions","survey-likert","488","1500879","0.0-6.0-6.68","2738945","co37615","norming","","","{""aha"":4}","[0]","../img/tt/1171tt.jpg","",""
"null","<div style=""font-size:60px;""> </div>","null","fixation","html-keyboard-response","489","1501081","0.0-6.0-0.69","2738945","co37615","norming","","","","","","",""
"null","../img/tt/584tt.jpg","null","mooney1","image-keyboard-response","490","1504092","0.0-6.0-1.69","2738945","co37615","norming","","","","","","",""
"5194.135000000009","","","post_mooney1_questions","survey-likert","491","1509295","0.0-6.0-2.69","2738945","co37615","norming","","","{""curiosity"":5,""confidence"":6}","[0,1]","../img/tt/584tt.jpg","",""
"3694.030000000028","","","recognition","survey-text","492","1512991","0.0-6.0-3.69","2738945","co37615","norming","","","{""guess"":""fingers making star""}","","../img/tt/584tt.jpg","",""
"null","../img/gs/584gs.jpg","null","reveal","image-keyboard-response","493","1514998","0.0-6.0-4.69","2738945","co37615","norming","","","","","","",""
"null","../img/tt/584tt.jpg","null","mooney2","image-keyboard-response","494","1517000","0.0-6.0-5.69","2738945","co37615","norming","","","","","","",""
"3533.559999999823","","","post_reveal_questions","survey-likert","495","1520535","0.0-6.0-6.69","2738945","co37615","norming","","","{""aha"":5}","[0]","../img/tt/584tt.jpg","",""
"null","<div style=""font-size:60px;""> </div>","null","fixation","html-keyboard-response","496","1520738","0.0-6.0-0.70","2738945","co37615","norming","","","","","","",""
"null","../img/tt/1226tt.jpg","null","mooney1","image-keyboard-response","497","1523740","0.0-6.0-1.70","2738945","co37615","norming","","","","","","",""
"2471.249999999767","","","post_mooney1_questions","survey-likert","498","1526215","0.0-6.0-2.70","2738945","co37615","norming","","","{""curiosity"":5,""confidence"":3}","[0,1]","../img/tt/1226tt.jpg","",""
"1982.2750000001397","","","recognition","survey-text","499","1528199","0.0-6.0-3.70","2738945","co37615","norming","","","{""guess"":""chickens""}","","../img/tt/1226tt.jpg","",""
"null","../img/gs/1226gs.jpg","null","reveal","image-keyboard-response","500","1530210","0.0-6.0-4.70","2738945","co37615","norming","","","","","","",""
"null","../img/tt/1226tt.jpg","null","mooney2","image-keyboard-response","501","1532212","0.0-6.0-5.70","2738945","co37615","norming","","","","","","",""
"2055.5200000000186","","","post_reveal_questions","survey-likert","502","1534271","0.0-6.0-6.70","2738945","co37615","norming","","","{""aha"":0}","[0]","../img/tt/1226tt.jpg","",""
"null","<div style=""font-size:60px;""> </div>","null","fixation","html-keyboard-response","503","1534473","0.0-6.0-0.71","2738945","co37615","norming","","","","","","",""
"null","../img/tt/121tt.jpg","null","mooney1","image-keyboard-response","504","1537482","0.0-6.0-1.71","2738945","co37615","norming","","","","","","",""
"3049.6399999998976","","","post_mooney1_questions","survey-likert","505","1540535","0.0-6.0-2.71","2738945","co37615","norming","","","{""curiosity"":5,""confidence"":4}","[0,1]","../img/tt/121tt.jpg","",""
"2734.25","","","recognition","survey-text","506","1543271","0.0-6.0-3.71","2738945","co37615","norming","","","{""guess"":""kangeroo""}","","../img/tt/121tt.jpg","",""
"null","../img/gs/121gs.jpg","null","reveal","image-keyboard-response","507","1545280","0.0-6.0-4.71","2738945","co37615","norming","","","","","","",""
"null","../img/tt/121tt.jpg","null","mooney2","image-keyboard-response","508","1547283","0.0-6.0-5.71","2738945","co37615","norming","","","","","","",""
"2897.090000000084","","","post_reveal_questions","survey-likert","509","1550183","0.0-6.0-6.71","2738945","co37615","norming","","","{""aha"":0}","[0]","../img/tt/121tt.jpg","",""
"null","<div style=""font-size:60px;""> </div>","null","fixation","html-keyboard-response","510","1550391","0.0-6.0-0.72","2738945","co37615","norming","","","","","","",""
"null","../img/tt/318tt.jpg","null","mooney1","image-keyboard-response","511","1553397","0.0-6.0-1.72","2738945","co37615","norming","","","","","","",""
"4201.405000000028","","","post_mooney1_questions","survey-likert","512","1557601","0.0-6.0-2.72","2738945","co37615","norming","","","{""curiosity"":5,""confidence"":5}","[0,1]","../img/tt/318tt.jpg","",""
"2166.1749999998137","","","recognition","survey-text","513","1559769","0.0-6.0-3.72","2738945","co37615","norming","","","{""guess"":""inside car""}","","../img/tt/318tt.jpg","",""
"null","../img/gs/318gs.jpg","null","reveal","image-keyboard-response","514","1561773","0.0-6.0-4.72","2738945","co37615","norming","","","","","","",""
"null","../img/tt/318tt.jpg","null","mooney2","image-keyboard-response","515","1563776","0.0-6.0-5.72","2738945","co37615","norming","","","","","","",""
"2398.6099999998696","","","post_reveal_questions","survey-likert","516","1566177","0.0-6.0-6.72","2738945","co37615","norming","","","{""aha"":0}","[0]","../img/tt/318tt.jpg","",""
"null","<div style=""font-size:60px;""> </div>","null","fixation","html-keyboard-response","517","1566381","0.0-6.0-0.73","2738945","co37615","norming","","","","","","",""
"null","../img/tt/1255tt.jpg","null","mooney1","image-keyboard-response","518","1569388","0.0-6.0-1.73","2738945","co37615","norming","","","","","","",""
"2201.679999999935","","","post_mooney1_questions","survey-likert","519","1571594","0.0-6.0-2.73","2738945","co37615","norming","","","{""curiosity"":5,""confidence"":3}","[0,1]","../img/tt/1255tt.jpg","",""
"5766.125","","","recognition","survey-text","520","1577361","0.0-6.0-3.73","2738945","co37615","norming","","","{""guess"":""dancing woman""}","","../img/tt/1255tt.jpg","",""
"null","../img/gs/1255gs.jpg","null","reveal","image-keyboard-response","521","1579366","0.0-6.0-4.73","2738945","co37615","norming","","","","","","",""
"null","../img/tt/1255tt.jpg","null","mooney2","image-keyboard-response","522","1581367","0.0-6.0-5.73","2738945","co37615","norming","","","","","","",""
"2760.2549999998882","","","post_reveal_questions","survey-likert","523","1584129","0.0-6.0-6.73","2738945","co37615","norming","","","{""aha"":3}","[0]","../img/tt/1255tt.jpg","",""
"null","<div style=""font-size:60px;""> </div>","null","fixation","html-keyboard-response","524","1584334","0.0-6.0-0.74","2738945","co37615","norming","","","","","","",""
"null","../img/tt/1048tt.jpg","null","mooney1","image-keyboard-response","525","1587337","0.0-6.0-1.74","2738945","co37615","norming","","","","","","",""
"4324.75","","","post_mooney1_questions","survey-likert","526","1591666","0.0-6.0-2.74","2738945","co37615","norming","","","{""curiosity"":4,""confidence"":2}","[0,1]","../img/tt/1048tt.jpg","",""
"1733.9199999999255","","","recognition","survey-text","527","1593401","0.0-6.0-3.74","2738945","co37615","norming","","","{""guess"":""horse""}","","../img/tt/1048tt.jpg","",""
"null","../img/gs/1048gs.jpg","null","reveal","image-keyboard-response","528","1595404","0.0-6.0-4.74","2738945","co37615","norming","","","","","","",""
"null","../img/tt/1048tt.jpg","null","mooney2","image-keyboard-response","529","1597406","0.0-6.0-5.74","2738945","co37615","norming","","","","","","",""
"3864.695000000065","","","post_reveal_questions","survey-likert","530","1601273","0.0-6.0-6.74","2738945","co37615","norming","","","{""aha"":4}","[0]","../img/tt/1048tt.jpg","",""
"null","<div style=""font-size:60px;""> </div>","null","fixation","html-keyboard-response","531","1601475","0.0-6.0-0.75","2738945","co37615","norming","","","","","","",""
"null","../img/tt/590tt.jpg","null","mooney1","image-keyboard-response","532","1604478","0.0-6.0-1.75","2738945","co37615","norming","","","","","","",""
"2974.939999999944","","","post_mooney1_questions","survey-likert","533","1607457","0.0-6.0-2.75","2738945","co37615","norming","","","{""curiosity"":5,""confidence"":3}","[0,1]","../img/tt/590tt.jpg","",""
"2150.405000000028","","","recognition","survey-text","534","1609609","0.0-6.0-3.75","2738945","co37615","norming","","","{""guess"":""desk""}","","../img/tt/590tt.jpg","",""
"null","../img/gs/590gs.jpg","null","reveal","image-keyboard-response","535","1611618","0.0-6.0-4.75","2738945","co37615","norming","","","","","","",""
"null","../img/tt/590tt.jpg","null","mooney2","image-keyboard-response","536","1613626","0.0-6.0-5.75","2738945","co37615","norming","","","","","","",""
"1284.094999999972","","","post_reveal_questions","survey-likert","537","1614913","0.0-6.0-6.75","2738945","co37615","norming","","","{""aha"":4}","[0]","../img/tt/590tt.jpg","",""
"null","<div style=""font-size:60px;""> </div>","null","fixation","html-keyboard-response","538","1615120","0.0-6.0-0.76","2738945","co37615","norming","","","","","","",""
"null","../img/tt/1044tt.jpg","null","mooney1","image-keyboard-response","539","1618125","0.0-6.0-1.76","2738945","co37615","norming","","","","","","",""
"2751.9000000001397","","","post_mooney1_questions","survey-likert","540","1620881","0.0-6.0-2.76","2738945","co37615","norming","","","{""curiosity"":5,""confidence"":0}","[0,1]","../img/tt/1044tt.jpg","",""
"3118.185000000056","","","recognition","survey-text","541","1624001","0.0-6.0-3.76","2738945","co37615","norming","","","{""guess"":""butterfly""}","","../img/tt/1044tt.jpg","",""
"null","../img/gs/1044gs.jpg","null","reveal","image-keyboard-response","542","1626006","0.0-6.0-4.76","2738945","co37615","norming","","","","","","",""
"null","../img/tt/1044tt.jpg","null","mooney2","image-keyboard-response","543","1628007","0.0-6.0-5.76","2738945","co37615","norming","","","","","","",""
"2369.695000000065","","","post_reveal_questions","survey-likert","544","1630377","0.0-6.0-6.76","2738945","co37615","norming","","","{""aha"":4}","[0]","../img/tt/1044tt.jpg","",""
"null","<div style=""font-size:60px;""> </div>","null","fixation","html-keyboard-response","545","1630579","0.0-6.0-0.77","2738945","co37615","norming","","","","","","",""
"null","../img/tt/456tt.jpg","null","mooney1","image-keyboard-response","546","1633584","0.0-6.0-1.77","2738945","co37615","norming","","","","","","",""
"3133.6500000001397","","","post_mooney1_questions","survey-likert","547","1636721","0.0-6.0-2.77","2738945","co37615","norming","","","{""curiosity"":5,""confidence"":0}","[0,1]","../img/tt/456tt.jpg","",""
"1702.0200000000186","","","recognition","survey-text","548","1638425","0.0-6.0-3.77","2738945","co37615","norming","","","{""guess"":""arm""}","","../img/tt/456tt.jpg","",""
"null","../img/gs/456gs.jpg","null","reveal","image-keyboard-response","549","1640426","0.0-6.0-4.77","2738945","co37615","norming","","","","","","",""
"null","../img/tt/456tt.jpg","null","mooney2","image-keyboard-response","550","1642429","0.0-6.0-5.77","2738945","co37615","norming","","","","","","",""
