"rt","stimulus","key_press","test_part","trial_type","trial_index","time_elapsed","internal_node_id","totalTime","subject","experiment_name","button_pressed","success","responses","question_order","currentStim","old","correct"
"30490.829999907874","Welcome to the experiment. This is an online experiment so please don't close the tab/window until we say goodbye.  Press any key to begin.","16","instructions","html-keyboard-response","0","30502","0.0-0.0","2648554","co37882","norming","","","","","","",""
"4147.969999932684","<div style='word-wrap: break-word; width: 900px'><h3>Please consider this information carefully before deciding whether to participate in this research</h3><ul style='text-align: left; font-size: .8em;'><li><b>Purpose of the research</b>: To examine how people process images.</li><li><b>What you will do in this research</b>:  Stimuli (images) will be presented on the computer and you will be asked different questions about them.</li><li><b>Time required</b>: Participation will take between 45 and 60 minutes to complete.</li><li><b>Risks</b>:  There are no anticipated risks associated with participating in this study. The effects of participating should be comparable to those you would experience from viewing a computer monitor for 30 minutes and using a mouse or keyboard.</li><li><b>Benefits</b>:  This study provides no benefits to you individually except for the credit. The study provides important information about the nature of perception and learning.</li><li><b>Confidentiality</b>:  Your participation in this study will remain confidential. No personally identifiable information will be associated with your data. Your de-identified data may be shared with other researchers and used in future projects.</li><li><b>Participation and withdrawal</b>:  Your participation in this study is completely voluntary and you may refuse to participate or you may choose to withdraw at any time without penalty.</li><li><b>How to contact the researchers</b>: If you have questions or concerns about your participation or payment, or want to request a summary of research findings, please contact Sander Van de Cruys (KU Leuven), at sander.vandecruys@kuleuven.be.</li></ul><p>The nature and purpose of this research have been sufficiently explained and I agree to participate in this study.  I understand that I am free to withdraw at any time without incurring any penalty.</p><p>Please consent by clicking the button below to continue. Otherwise, please exit the study at this time.</p></div>","","instructions","html-button-response","1","34654","0.0-1.0","2648554","co37882","norming","0","","","","","",""
"","","","instructions","fullscreen","2","41570","0.0-2.0","2648554","co37882","norming","","true","","","","",""
"39472.30999998283","","","sona","survey-html-form","3","81048","0.0-3.0","2648554","co37882","norming","","","[{""name"":""sonaid"",""value"":""37882""},{""name"":""debrief"",""value"":""no""},{""name"":""datajoin"",""value"":""yes""}]","","","",""
"149035.28000006918","<div style='word-wrap: break-word; width: 900px'><h3>Instructions</h3><p>This experiment will have 3 parts. In the first part you will see a series of distorted images like the one below on the left. As you can see in the righthand image, the distorted images are derived from actual photographs. In what follows, you will <strong>briefly</strong> be presented with <strong>only</strong> the distorted image.</p> <div style='float: left; margin-right: 20px;'><img src='../img/018tt.jpg' height='250' width='250'></img></div><div style='float: right; margin-left: 20px;'><img src='../img/018gs.jpg' height='250' width='250'></img></div><p>Subsequently you will be asked a few questions about the image: One question on how <strong>curious</strong> you are about the solution and one on how <strong>confident</strong> you are that you know the solution.</p>Next, we ask you to make a guess on what is in the image. Note that it is OK to name just the <strong>basic level category</strong>. For example when you see a parrot in the image, 'parrot' will obviously be a correct answer but also correct is 'bird'. However, 'animal' will <strong>not</strong> be counted as a correct response. For the example above, 'rose' would be correct or 'flower', but not 'plant'. When soccer players are depicted, 'soccer', 'football', 'soccer players' will be correct, but not 'humans', 'outdoors', or 'sports'. You do not need to describe the image in full, just name the main object in it <strong>in one or two words</strong>. All images depict objects from one of the following broad level categories: animals, inanimate objects, plants, sports, vehicles, and food. Recognizing means knowing <strong>more</strong> than these broad labels for a given image. But we always encourage you to <strong>make a guess</strong> if you can. Note that you are allowed to use <strong>Dutch and English</strong> in your answers, whatever comes easiest for you.</p><p>Press any key to continue.</p></div>","39","instructions","html-keyboard-response","4","230089","0.0-4.0","2648554","co37882","norming","","","","","","",""
"50973.28000003472","<div style='word-wrap: break-word; width: 900px'><h3>Instructions</h3> <p>Next, the solution image will be revealed to you and you'll be asked to indicate how strong your <strong>aha-experience</strong> was after seeing the solution. This describes the positive feeling of the 'click' you sometimes experience, when the pieces of the 'puzzle' fall together and you suddenly have 'insight' in the image.</p><img src='aha.jpg' height='188' width='250'></img><p>Note that there are no right or wrong answers. We are interested in what <strong>you</strong> see in the image and how <strong>you</strong> feel about it.</p><p>Press any key to start the experiment.</p></div>","39","instructions","html-keyboard-response","5","281064","0.0-5.0","2648554","co37882","norming","","","","","","",""
"null","<div style=""font-size:60px;""> </div>","null","fixation","html-keyboard-response","6","281267","0.0-6.0-0.0","2648554","co37882","norming","","","","","","",""
"null","../img/tt/040tt.jpg","null","mooney1","image-keyboard-response","7","284273","0.0-6.0-1.0","2648554","co37882","norming","","","","","","",""
"10134.194999933243","","","post_mooney1_questions","survey-likert","8","294412","0.0-6.0-2.0","2648554","co37882","norming","","","{""curiosity"":3,""confidence"":0}","[0,1]","../img/tt/040tt.jpg","",""
"3956.069999956526","","","recognition","survey-text","9","298377","0.0-6.0-3.0","2648554","co37882","norming","","","{""guess"":""""}","","../img/tt/040tt.jpg","",""
"null","../img/gs/040gs.jpg","null","reveal","image-keyboard-response","10","300380","0.0-6.0-4.0","2648554","co37882","norming","","","","","","",""
"null","../img/tt/040tt.jpg","null","mooney2","image-keyboard-response","11","302383","0.0-6.0-5.0","2648554","co37882","norming","","","","","","",""
"4433.655000058934","","","post_reveal_questions","survey-likert","12","306819","0.0-6.0-6.0","2648554","co37882","norming","","","{""aha"":1}","[0]","../img/tt/040tt.jpg","",""
"null","<div style=""font-size:60px;""> </div>","null","fixation","html-keyboard-response","13","307029","0.0-6.0-0.1","2648554","co37882","norming","","","","","","",""
"null","../img/tt/1080tt.jpg","null","mooney1","image-keyboard-response","14","310031","0.0-6.0-1.1","2648554","co37882","norming","","","","","","",""
"6039.7050000028685","","","post_mooney1_questions","survey-likert","15","316073","0.0-6.0-2.1","2648554","co37882","norming","","","{""curiosity"":2,""confidence"":0}","[0,1]","../img/tt/1080tt.jpg","",""
"3340.8249999629334","","","recognition","survey-text","16","319422","0.0-6.0-3.1","2648554","co37882","norming","","","{""guess"":""human""}","","../img/tt/1080tt.jpg","",""
"null","../img/gs/1080gs.jpg","null","reveal","image-keyboard-response","17","321425","0.0-6.0-4.1","2648554","co37882","norming","","","","","","",""
"null","../img/tt/1080tt.jpg","null","mooney2","image-keyboard-response","18","323427","0.0-6.0-5.1","2648554","co37882","norming","","","","","","",""
"2209.6550000132993","","","post_reveal_questions","survey-likert","19","325639","0.0-6.0-6.1","2648554","co37882","norming","","","{""aha"":0}","[0]","../img/tt/1080tt.jpg","",""
"null","<div style=""font-size:60px;""> </div>","null","fixation","html-keyboard-response","20","325847","0.0-6.0-0.2","2648554","co37882","norming","","","","","","",""
"null","../img/tt/300tt.jpg","null","mooney1","image-keyboard-response","21","328850","0.0-6.0-1.2","2648554","co37882","norming","","","","","","",""
"5974.114999989979","","","post_mooney1_questions","survey-likert","22","334827","0.0-6.0-2.2","2648554","co37882","norming","","","{""curiosity"":2,""confidence"":0}","[0,1]","../img/tt/300tt.jpg","",""
"2100.990000064485","","","recognition","survey-text","23","336936","0.0-6.0-3.2","2648554","co37882","norming","","","{""guess"":""""}","","../img/tt/300tt.jpg","",""
"null","../img/gs/300gs.jpg","null","reveal","image-keyboard-response","24","338939","0.0-6.0-4.2","2648554","co37882","norming","","","","","","",""
"null","../img/tt/300tt.jpg","null","mooney2","image-keyboard-response","25","340941","0.0-6.0-5.2","2648554","co37882","norming","","","","","","",""
"2769.3399999989197","","","post_reveal_questions","survey-likert","26","343713","0.0-6.0-6.2","2648554","co37882","norming","","","{""aha"":0}","[0]","../img/tt/300tt.jpg","",""
"null","<div style=""font-size:60px;""> </div>","null","fixation","html-keyboard-response","27","343920","0.0-6.0-0.3","2648554","co37882","norming","","","","","","",""
"null","../img/tt/559tt.jpg","null","mooney1","image-keyboard-response","28","346923","0.0-6.0-1.3","2648554","co37882","norming","","","","","","",""
"3727.3300000233576","","","post_mooney1_questions","survey-likert","29","350653","0.0-6.0-2.3","2648554","co37882","norming","","","{""curiosity"":2,""confidence"":0}","[0,1]","../img/tt/559tt.jpg","",""
"645.1699999161065","","","recognition","survey-text","30","351307","0.0-6.0-3.3","2648554","co37882","norming","","","{""guess"":""""}","","../img/tt/559tt.jpg","",""
"null","../img/gs/559gs.jpg","null","reveal","image-keyboard-response","31","353309","0.0-6.0-4.3","2648554","co37882","norming","","","","","","",""
"null","../img/tt/559tt.jpg","null","mooney2","image-keyboard-response","32","355312","0.0-6.0-5.3","2648554","co37882","norming","","","","","","",""
"2471.625000005588","","","post_reveal_questions","survey-likert","33","357786","0.0-6.0-6.3","2648554","co37882","norming","","","{""aha"":0}","[0]","../img/tt/559tt.jpg","",""
"null","<div style=""font-size:60px;""> </div>","null","fixation","html-keyboard-response","34","357994","0.0-6.0-0.4","2648554","co37882","norming","","","","","","",""
"null","../img/tt/056tt.jpg","null","mooney1","image-keyboard-response","35","360997","0.0-6.0-1.4","2648554","co37882","norming","","","","","","",""
"3550.74999993667","","","post_mooney1_questions","survey-likert","36","364551","0.0-6.0-2.4","2648554","co37882","norming","","","{""curiosity"":1,""confidence"":0}","[0,1]","../img/tt/056tt.jpg","",""
"1126.479999977164","","","recognition","survey-text","37","365686","0.0-6.0-3.4","2648554","co37882","norming","","","{""guess"":""""}","","../img/tt/056tt.jpg","",""
"null","../img/gs/056gs.jpg","null","reveal","image-keyboard-response","38","367688","0.0-6.0-4.4","2648554","co37882","norming","","","","","","",""
"null","../img/tt/056tt.jpg","null","mooney2","image-keyboard-response","39","369692","0.0-6.0-5.4","2648554","co37882","norming","","","","","","",""
"2884.955000015907","","","post_reveal_questions","survey-likert","40","372580","0.0-6.0-6.4","2648554","co37882","norming","","","{""aha"":0}","[0]","../img/tt/056tt.jpg","",""
"null","<div style=""font-size:60px;""> </div>","null","fixation","html-keyboard-response","41","372787","0.0-6.0-0.5","2648554","co37882","norming","","","","","","",""
"null","../img/tt/567tt.jpg","null","mooney1","image-keyboard-response","42","375790","0.0-6.0-1.5","2648554","co37882","norming","","","","","","",""
"5161.324999993667","","","post_mooney1_questions","survey-likert","43","380955","0.0-6.0-2.5","2648554","co37882","norming","","","{""curiosity"":0,""confidence"":4}","[0,1]","../img/tt/567tt.jpg","",""
"2678.4100000513718","","","recognition","survey-text","44","383642","0.0-6.0-3.5","2648554","co37882","norming","","","{""guess"":""toaster""}","","../img/tt/567tt.jpg","",""
"null","../img/gs/567gs.jpg","null","reveal","image-keyboard-response","45","385645","0.0-6.0-4.5","2648554","co37882","norming","","","","","","",""
"null","../img/tt/567tt.jpg","null","mooney2","image-keyboard-response","46","387646","0.0-6.0-5.5","2648554","co37882","norming","","","","","","",""
"2771.5200000675395","","","post_reveal_questions","survey-likert","47","390421","0.0-6.0-6.5","2648554","co37882","norming","","","{""aha"":0}","[0]","../img/tt/567tt.jpg","",""
"null","<div style=""font-size:60px;""> </div>","null","fixation","html-keyboard-response","48","390628","0.0-6.0-0.6","2648554","co37882","norming","","","","","","",""
"null","../img/tt/112tt.jpg","null","mooney1","image-keyboard-response","49","393631","0.0-6.0-1.6","2648554","co37882","norming","","","","","","",""
"5874.900000053458","","","post_mooney1_questions","survey-likert","50","399509","0.0-6.0-2.6","2648554","co37882","norming","","","{""curiosity"":0,""confidence"":6}","[0,1]","../img/tt/112tt.jpg","",""
"3746.5650000376627","","","recognition","survey-text","51","403264","0.0-6.0-3.6","2648554","co37882","norming","","","{""guess"":""fluit""}","","../img/tt/112tt.jpg","",""
"null","../img/gs/112gs.jpg","null","reveal","image-keyboard-response","52","405267","0.0-6.0-4.6","2648554","co37882","norming","","","","","","",""
"null","../img/tt/112tt.jpg","null","mooney2","image-keyboard-response","53","407271","0.0-6.0-5.6","2648554","co37882","norming","","","","","","",""
"1694.690000033006","","","post_reveal_questions","survey-likert","54","408968","0.0-6.0-6.6","2648554","co37882","norming","","","{""aha"":0}","[0]","../img/tt/112tt.jpg","",""
"null","<div style=""font-size:60px;""> </div>","null","fixation","html-keyboard-response","55","409176","0.0-6.0-0.7","2648554","co37882","norming","","","","","","",""
"null","../img/tt/163tt.jpg","null","mooney1","image-keyboard-response","56","412179","0.0-6.0-1.7","2648554","co37882","norming","","","","","","",""
"4996.305000036955","","","post_mooney1_questions","survey-likert","57","417179","0.0-6.0-2.7","2648554","co37882","norming","","","{""curiosity"":1,""confidence"":2}","[0,1]","../img/tt/163tt.jpg","",""
"1606.9399999687448","","","recognition","survey-text","58","418794","0.0-6.0-3.7","2648554","co37882","norming","","","{""guess"":""frog""}","","../img/tt/163tt.jpg","",""
"null","../img/gs/163gs.jpg","null","reveal","image-keyboard-response","59","420797","0.0-6.0-4.7","2648554","co37882","norming","","","","","","",""
"null","../img/tt/163tt.jpg","null","mooney2","image-keyboard-response","60","422798","0.0-6.0-5.7","2648554","co37882","norming","","","","","","",""
"1295.2799999620765","","","post_reveal_questions","survey-likert","61","424097","0.0-6.0-6.7","2648554","co37882","norming","","","{""aha"":0}","[0]","../img/tt/163tt.jpg","",""
"null","<div style=""font-size:60px;""> </div>","null","fixation","html-keyboard-response","62","424304","0.0-6.0-0.8","2648554","co37882","norming","","","","","","",""
"null","../img/tt/1353tt.jpg","null","mooney1","image-keyboard-response","63","427308","0.0-6.0-1.8","2648554","co37882","norming","","","","","","",""
"3946.08500006143","","","post_mooney1_questions","survey-likert","64","431257","0.0-6.0-2.8","2648554","co37882","norming","","","{""curiosity"":1,""confidence"":0}","[0,1]","../img/tt/1353tt.jpg","",""
"605.2199999103323","","","recognition","survey-text","65","431870","0.0-6.0-3.8","2648554","co37882","norming","","","{""guess"":""""}","","../img/tt/1353tt.jpg","",""
"null","../img/gs/1353gs.jpg","null","reveal","image-keyboard-response","66","433872","0.0-6.0-4.8","2648554","co37882","norming","","","","","","",""
"null","../img/tt/1353tt.jpg","null","mooney2","image-keyboard-response","67","435875","0.0-6.0-5.8","2648554","co37882","norming","","","","","","",""
"1445.0149999465793","","","post_reveal_questions","survey-likert","68","437323","0.0-6.0-6.8","2648554","co37882","norming","","","{""aha"":1}","[0]","../img/tt/1353tt.jpg","",""
"null","<div style=""font-size:60px;""> </div>","null","fixation","html-keyboard-response","69","437531","0.0-6.0-0.9","2648554","co37882","norming","","","","","","",""
"null","../img/tt/1241tt.jpg","null","mooney1","image-keyboard-response","70","440533","0.0-6.0-1.9","2648554","co37882","norming","","","","","","",""
"4042.795000015758","","","post_mooney1_questions","survey-likert","71","444579","0.0-6.0-2.9","2648554","co37882","norming","","","{""curiosity"":1,""confidence"":1}","[0,1]","../img/tt/1241tt.jpg","",""
"4099.780000047758","","","recognition","survey-text","72","448687","0.0-6.0-3.9","2648554","co37882","norming","","","{""guess"":""animal""}","","../img/tt/1241tt.jpg","",""
"null","../img/gs/1241gs.jpg","null","reveal","image-keyboard-response","73","450690","0.0-6.0-4.9","2648554","co37882","norming","","","","","","",""
"null","../img/tt/1241tt.jpg","null","mooney2","image-keyboard-response","74","452692","0.0-6.0-5.9","2648554","co37882","norming","","","","","","",""
"3612.1900000143796","","","post_reveal_questions","survey-likert","75","456307","0.0-6.0-6.9","2648554","co37882","norming","","","{""aha"":0}","[0]","../img/tt/1241tt.jpg","",""
"null","<div style=""font-size:60px;""> </div>","null","fixation","html-keyboard-response","76","456514","0.0-6.0-0.10","2648554","co37882","norming","","","","","","",""
"null","../img/tt/1276tt.jpg","null","mooney1","image-keyboard-response","77","459517","0.0-6.0-1.10","2648554","co37882","norming","","","","","","",""
"5020.980000030249","","","post_mooney1_questions","survey-likert","78","464541","0.0-6.0-2.10","2648554","co37882","norming","","","{""curiosity"":1,""confidence"":1}","[0,1]","../img/tt/1276tt.jpg","",""
"1982.1849999716505","","","recognition","survey-text","79","466532","0.0-6.0-3.10","2648554","co37882","norming","","","{""guess"":""zwijn""}","","../img/tt/1276tt.jpg","",""
"null","../img/gs/1276gs.jpg","null","reveal","image-keyboard-response","80","468535","0.0-6.0-4.10","2648554","co37882","norming","","","","","","",""
"null","../img/tt/1276tt.jpg","null","mooney2","image-keyboard-response","81","470538","0.0-6.0-5.10","2648554","co37882","norming","","","","","","",""
"3656.1750000109896","","","post_reveal_questions","survey-likert","82","474197","0.0-6.0-6.10","2648554","co37882","norming","","","{""aha"":0}","[0]","../img/tt/1276tt.jpg","",""
"null","<div style=""font-size:60px;""> </div>","null","fixation","html-keyboard-response","83","474403","0.0-6.0-0.11","2648554","co37882","norming","","","","","","",""
"null","../img/tt/1366tt.jpg","null","mooney1","image-keyboard-response","84","477405","0.0-6.0-1.11","2648554","co37882","norming","","","","","","",""
"4556.089999969117","","","post_mooney1_questions","survey-likert","85","481965","0.0-6.0-2.11","2648554","co37882","norming","","","{""curiosity"":2,""confidence"":2}","[0,1]","../img/tt/1366tt.jpg","",""
"2553.665000014007","","","recognition","survey-text","86","484527","0.0-6.0-3.11","2648554","co37882","norming","","","{""guess"":""burrito""}","","../img/tt/1366tt.jpg","",""
"null","../img/gs/1366gs.jpg","null","reveal","image-keyboard-response","87","486530","0.0-6.0-4.11","2648554","co37882","norming","","","","","","",""
"null","../img/tt/1366tt.jpg","null","mooney2","image-keyboard-response","88","488533","0.0-6.0-5.11","2648554","co37882","norming","","","","","","",""
"2078.6300000036135","","","post_reveal_questions","survey-likert","89","490615","0.0-6.0-6.11","2648554","co37882","norming","","","{""aha"":0}","[0]","../img/tt/1366tt.jpg","",""
"null","<div style=""font-size:60px;""> </div>","null","fixation","html-keyboard-response","90","490821","0.0-6.0-0.12","2648554","co37882","norming","","","","","","",""
"null","../img/tt/1260tt.jpg","null","mooney1","image-keyboard-response","91","493825","0.0-6.0-1.12","2648554","co37882","norming","","","","","","",""
"4258.9399999706075","","","post_mooney1_questions","survey-likert","92","498087","0.0-6.0-2.12","2648554","co37882","norming","","","{""curiosity"":1,""confidence"":0}","[0,1]","../img/tt/1260tt.jpg","",""
"818.7300000572577","","","recognition","survey-text","93","498914","0.0-6.0-3.12","2648554","co37882","norming","","","{""guess"":""""}","","../img/tt/1260tt.jpg","",""
"null","../img/gs/1260gs.jpg","null","reveal","image-keyboard-response","94","500916","0.0-6.0-4.12","2648554","co37882","norming","","","","","","",""
"null","../img/tt/1260tt.jpg","null","mooney2","image-keyboard-response","95","502919","0.0-6.0-5.12","2648554","co37882","norming","","","","","","",""
"2526.964999968186","","","post_reveal_questions","survey-likert","96","505448","0.0-6.0-6.12","2648554","co37882","norming","","","{""aha"":1}","[0]","../img/tt/1260tt.jpg","",""
"null","<div style=""font-size:60px;""> </div>","null","fixation","html-keyboard-response","97","505655","0.0-6.0-0.13","2648554","co37882","norming","","","","","","",""
"null","../img/tt/1268tt.jpg","null","mooney1","image-keyboard-response","98","508658","0.0-6.0-1.13","2648554","co37882","norming","","","","","","",""
"3603.1899999361485","","","post_mooney1_questions","survey-likert","99","512265","0.0-6.0-2.13","2648554","co37882","norming","","","{""curiosity"":1,""confidence"":2}","[0,1]","../img/tt/1268tt.jpg","",""
"4666.620000032708","","","recognition","survey-text","100","516940","0.0-6.0-3.13","2648554","co37882","norming","","","{""guess"":""eekhoorn""}","","../img/tt/1268tt.jpg","",""
"null","../img/gs/1268gs.jpg","null","reveal","image-keyboard-response","101","518942","0.0-6.0-4.13","2648554","co37882","norming","","","","","","",""
"null","../img/tt/1268tt.jpg","null","mooney2","image-keyboard-response","102","520944","0.0-6.0-5.13","2648554","co37882","norming","","","","","","",""
"1835.3349999524653","","","post_reveal_questions","survey-likert","103","522783","0.0-6.0-6.13","2648554","co37882","norming","","","{""aha"":0}","[0]","../img/tt/1268tt.jpg","",""
"null","<div style=""font-size:60px;""> </div>","null","fixation","html-keyboard-response","104","522990","0.0-6.0-0.14","2648554","co37882","norming","","","","","","",""
"null","../img/tt/418tt.jpg","null","mooney1","image-keyboard-response","105","525992","0.0-6.0-1.14","2648554","co37882","norming","","","","","","",""
"8231.715000001714","","","post_mooney1_questions","survey-likert","106","534227","0.0-6.0-2.14","2648554","co37882","norming","","","{""curiosity"":1,""confidence"":4}","[0,1]","../img/tt/418tt.jpg","",""
"2012.0099999476224","","","recognition","survey-text","107","536247","0.0-6.0-3.14","2648554","co37882","norming","","","{""guess"":""tomato""}","","../img/tt/418tt.jpg","",""
"null","../img/gs/418gs.jpg","null","reveal","image-keyboard-response","108","538251","0.0-6.0-4.14","2648554","co37882","norming","","","","","","",""
"null","../img/tt/418tt.jpg","null","mooney2","image-keyboard-response","109","540253","0.0-6.0-5.14","2648554","co37882","norming","","","","","","",""
"4222.690000082366","","","post_reveal_questions","survey-likert","110","544479","0.0-6.0-6.14","2648554","co37882","norming","","","{""aha"":0}","[0]","../img/tt/418tt.jpg","",""
"null","<div style=""font-size:60px;""> </div>","null","fixation","html-keyboard-response","111","544686","0.0-6.0-0.15","2648554","co37882","norming","","","","","","",""
"null","../img/tt/1061tt.jpg","null","mooney1","image-keyboard-response","112","547690","0.0-6.0-1.15","2648554","co37882","norming","","","","","","",""
"6687.23499996122","","","post_mooney1_questions","survey-likert","113","554381","0.0-6.0-2.15","2648554","co37882","norming","","","{""curiosity"":1,""confidence"":3}","[0,1]","../img/tt/1061tt.jpg","",""
"8697.234999970533","","","recognition","survey-text","114","563086","0.0-6.0-3.15","2648554","co37882","norming","","","{""guess"":""walking person""}","","../img/tt/1061tt.jpg","",""
"null","../img/gs/1061gs.jpg","null","reveal","image-keyboard-response","115","565090","0.0-6.0-4.15","2648554","co37882","norming","","","","","","",""
"null","../img/tt/1061tt.jpg","null","mooney2","image-keyboard-response","116","567093","0.0-6.0-5.15","2648554","co37882","norming","","","","","","",""
"2784.69000000041","","","post_reveal_questions","survey-likert","117","569880","0.0-6.0-6.15","2648554","co37882","norming","","","{""aha"":1}","[0]","../img/tt/1061tt.jpg","",""
"null","<div style=""font-size:60px;""> </div>","null","fixation","html-keyboard-response","118","570089","0.0-6.0-0.16","2648554","co37882","norming","","","","","","",""
"null","../img/tt/189tt.jpg","null","mooney1","image-keyboard-response","119","573093","0.0-6.0-1.16","2648554","co37882","norming","","","","","","",""
"4605.105000082403","","","post_mooney1_questions","survey-likert","120","577701","0.0-6.0-2.16","2648554","co37882","norming","","","{""curiosity"":1,""confidence"":1}","[0,1]","../img/tt/189tt.jpg","",""
"8453.295000013895","","","recognition","survey-text","121","586162","0.0-6.0-3.16","2648554","co37882","norming","","","{""guess"":""persoon in hangmat""}","","../img/tt/189tt.jpg","",""
"null","../img/gs/189gs.jpg","null","reveal","image-keyboard-response","122","588165","0.0-6.0-4.16","2648554","co37882","norming","","","","","","",""
"null","../img/tt/189tt.jpg","null","mooney2","image-keyboard-response","123","590166","0.0-6.0-5.16","2648554","co37882","norming","","","","","","",""
"1521.4449999621138","","","post_reveal_questions","survey-likert","124","591690","0.0-6.0-6.16","2648554","co37882","norming","","","{""aha"":1}","[0]","../img/tt/189tt.jpg","",""
"null","<div style=""font-size:60px;""> </div>","null","fixation","html-keyboard-response","125","591898","0.0-6.0-0.17","2648554","co37882","norming","","","","","","",""
"null","../img/tt/1128tt.jpg","null","mooney1","image-keyboard-response","126","594901","0.0-6.0-1.17","2648554","co37882","norming","","","","","","",""
"2607.2649999987334","","","post_mooney1_questions","survey-likert","127","597511","0.0-6.0-2.17","2648554","co37882","norming","","","{""curiosity"":1,""confidence"":0}","[0,1]","../img/tt/1128tt.jpg","",""
"693.265000008978","","","recognition","survey-text","128","598212","0.0-6.0-3.17","2648554","co37882","norming","","","{""guess"":""""}","","../img/tt/1128tt.jpg","",""
"null","../img/gs/1128gs.jpg","null","reveal","image-keyboard-response","129","600215","0.0-6.0-4.17","2648554","co37882","norming","","","","","","",""
"null","../img/tt/1128tt.jpg","null","mooney2","image-keyboard-response","130","602218","0.0-6.0-5.17","2648554","co37882","norming","","","","","","",""
"4649.925000034273","","","post_reveal_questions","survey-likert","131","606870","0.0-6.0-6.17","2648554","co37882","norming","","","{""aha"":0}","[0]","../img/tt/1128tt.jpg","",""
"null","<div style=""font-size:60px;""> </div>","null","fixation","html-keyboard-response","132","607076","0.0-6.0-0.18","2648554","co37882","norming","","","","","","",""
"null","../img/tt/1154tt.jpg","null","mooney1","image-keyboard-response","133","610080","0.0-6.0-1.18","2648554","co37882","norming","","","","","","",""
"3485.400000005029","","","post_mooney1_questions","survey-likert","134","613569","0.0-6.0-2.18","2648554","co37882","norming","","","{""curiosity"":1,""confidence"":0}","[0,1]","../img/tt/1154tt.jpg","",""
"2377.2850000532344","","","recognition","survey-text","135","615955","0.0-6.0-3.18","2648554","co37882","norming","","","{""guess"":""""}","","../img/tt/1154tt.jpg","",""
"null","../img/gs/1154gs.jpg","null","reveal","image-keyboard-response","136","617956","0.0-6.0-4.18","2648554","co37882","norming","","","","","","",""
"null","../img/tt/1154tt.jpg","null","mooney2","image-keyboard-response","137","619959","0.0-6.0-5.18","2648554","co37882","norming","","","","","","",""
"4663.255000021309","","","post_reveal_questions","survey-likert","138","624625","0.0-6.0-6.18","2648554","co37882","norming","","","{""aha"":2}","[0]","../img/tt/1154tt.jpg","",""
"null","<div style=""font-size:60px;""> </div>","null","fixation","html-keyboard-response","139","624832","0.0-6.0-0.19","2648554","co37882","norming","","","","","","",""
"null","../img/tt/1055tt.jpg","null","mooney1","image-keyboard-response","140","627835","0.0-6.0-1.19","2648554","co37882","norming","","","","","","",""
"3532.744999974966","","","post_mooney1_questions","survey-likert","141","631371","0.0-6.0-2.19","2648554","co37882","norming","","","{""curiosity"":1,""confidence"":0}","[0,1]","../img/tt/1055tt.jpg","",""
"525.4949999507517","","","recognition","survey-text","142","631904","0.0-6.0-3.19","2648554","co37882","norming","","","{""guess"":""""}","","../img/tt/1055tt.jpg","",""
"null","../img/gs/1055gs.jpg","null","reveal","image-keyboard-response","143","633908","0.0-6.0-4.19","2648554","co37882","norming","","","","","","",""
"null","../img/tt/1055tt.jpg","null","mooney2","image-keyboard-response","144","635911","0.0-6.0-5.19","2648554","co37882","norming","","","","","","",""
"2124.589999904856","","","post_reveal_questions","survey-likert","145","638038","0.0-6.0-6.19","2648554","co37882","norming","","","{""aha"":2}","[0]","../img/tt/1055tt.jpg","",""
"null","<div style=""font-size:60px;""> </div>","null","fixation","html-keyboard-response","146","638244","0.0-6.0-0.20","2648554","co37882","norming","","","","","","",""
"null","../img/tt/1255tt.jpg","null","mooney1","image-keyboard-response","147","641248","0.0-6.0-1.20","2648554","co37882","norming","","","","","","",""
"3514.0000000828877","","","post_mooney1_questions","survey-likert","148","644765","0.0-6.0-2.20","2648554","co37882","norming","","","{""curiosity"":1,""confidence"":1}","[0,1]","../img/tt/1255tt.jpg","",""
"4753.400000045076","","","recognition","survey-text","149","649526","0.0-6.0-3.20","2648554","co37882","norming","","","{""guess"":""rabbity""}","","../img/tt/1255tt.jpg","",""
"null","../img/gs/1255gs.jpg","null","reveal","image-keyboard-response","150","651530","0.0-6.0-4.20","2648554","co37882","norming","","","","","","",""
"null","../img/tt/1255tt.jpg","null","mooney2","image-keyboard-response","151","653533","0.0-6.0-5.20","2648554","co37882","norming","","","","","","",""
"1561.6399999707937","","","post_reveal_questions","survey-likert","152","655097","0.0-6.0-6.20","2648554","co37882","norming","","","{""aha"":0}","[0]","../img/tt/1255tt.jpg","",""
"null","<div style=""font-size:60px;""> </div>","null","fixation","html-keyboard-response","153","655303","0.0-6.0-0.21","2648554","co37882","norming","","","","","","",""
"null","../img/tt/552tt.jpg","null","mooney1","image-keyboard-response","154","658306","0.0-6.0-1.21","2648554","co37882","norming","","","","","","",""
"5002.089999965392","","","post_mooney1_questions","survey-likert","155","663311","0.0-6.0-2.21","2648554","co37882","norming","","","{""curiosity"":1,""confidence"":5}","[0,1]","../img/tt/552tt.jpg","",""
"2389.549999963492","","","recognition","survey-text","156","665709","0.0-6.0-3.21","2648554","co37882","norming","","","{""guess"":""skunk""}","","../img/tt/552tt.jpg","",""
"null","../img/gs/552gs.jpg","null","reveal","image-keyboard-response","157","667711","0.0-6.0-4.21","2648554","co37882","norming","","","","","","",""
"null","../img/tt/552tt.jpg","null","mooney2","image-keyboard-response","158","669713","0.0-6.0-5.21","2648554","co37882","norming","","","","","","",""
"3736.9399999734014","","","post_reveal_questions","survey-likert","159","673453","0.0-6.0-6.21","2648554","co37882","norming","","","{""aha"":0}","[0]","../img/tt/552tt.jpg","",""
"null","<div style=""font-size:60px;""> </div>","null","fixation","html-keyboard-response","160","673660","0.0-6.0-0.22","2648554","co37882","norming","","","","","","",""
"null","../img/tt/1239tt.jpg","null","mooney1","image-keyboard-response","161","676664","0.0-6.0-1.22","2648554","co37882","norming","","","","","","",""
"3889.6500000264496","","","post_mooney1_questions","survey-likert","162","680557","0.0-6.0-2.22","2648554","co37882","norming","","","{""curiosity"":1,""confidence"":5}","[0,1]","../img/tt/1239tt.jpg","",""
"2694.389999960549","","","recognition","survey-text","163","683259","0.0-6.0-3.22","2648554","co37882","norming","","","{""guess"":""dog""}","","../img/tt/1239tt.jpg","",""
"null","../img/gs/1239gs.jpg","null","reveal","image-keyboard-response","164","685262","0.0-6.0-4.22","2648554","co37882","norming","","","","","","",""
"null","../img/tt/1239tt.jpg","null","mooney2","image-keyboard-response","165","687266","0.0-6.0-5.22","2648554","co37882","norming","","","","","","",""
"2760.3450000751764","","","post_reveal_questions","survey-likert","166","690029","0.0-6.0-6.22","2648554","co37882","norming","","","{""aha"":0}","[0]","../img/tt/1239tt.jpg","",""
"null","<div style=""font-size:60px;""> </div>","null","fixation","html-keyboard-response","167","690237","0.0-6.0-0.23","2648554","co37882","norming","","","","","","",""
"null","../img/tt/435tt.jpg","null","mooney1","image-keyboard-response","168","693241","0.0-6.0-1.23","2648554","co37882","norming","","","","","","",""
"4704.995000036433","","","post_mooney1_questions","survey-likert","169","697949","0.0-6.0-2.23","2648554","co37882","norming","","","{""curiosity"":0,""confidence"":5}","[0,1]","../img/tt/435tt.jpg","",""
"3193.585000000894","","","recognition","survey-text","170","701151","0.0-6.0-3.23","2648554","co37882","norming","","","{""guess"":""pool table""}","","../img/tt/435tt.jpg","",""
"null","../img/gs/435gs.jpg","null","reveal","image-keyboard-response","171","703153","0.0-6.0-4.23","2648554","co37882","norming","","","","","","",""
"null","../img/tt/435tt.jpg","null","mooney2","image-keyboard-response","172","705154","0.0-6.0-5.23","2648554","co37882","norming","","","","","","",""
"4321.890000021085","","","post_reveal_questions","survey-likert","173","709479","0.0-6.0-6.23","2648554","co37882","norming","","","{""aha"":0}","[0]","../img/tt/435tt.jpg","",""
"null","<div style=""font-size:60px;""> </div>","null","fixation","html-keyboard-response","174","709686","0.0-6.0-0.24","2648554","co37882","norming","","","","","","",""
"null","../img/tt/1102tt.jpg","null","mooney1","image-keyboard-response","175","712689","0.0-6.0-1.24","2648554","co37882","norming","","","","","","",""
"6595.079999999143","","","post_mooney1_questions","survey-likert","176","719287","0.0-6.0-2.24","2648554","co37882","norming","","","{""curiosity"":1,""confidence"":0}","[0,1]","../img/tt/1102tt.jpg","",""
"770.7800000207499","","","recognition","survey-text","177","720066","0.0-6.0-3.24","2648554","co37882","norming","","","{""guess"":""""}","","../img/tt/1102tt.jpg","",""
"null","../img/gs/1102gs.jpg","null","reveal","image-keyboard-response","178","722069","0.0-6.0-4.24","2648554","co37882","norming","","","","","","",""
"null","../img/tt/1102tt.jpg","null","mooney2","image-keyboard-response","179","724071","0.0-6.0-5.24","2648554","co37882","norming","","","","","","",""
"1238.9950000215322","","","post_reveal_questions","survey-likert","180","725313","0.0-6.0-6.24","2648554","co37882","norming","","","{""aha"":1}","[0]","../img/tt/1102tt.jpg","",""
"null","<div style=""font-size:60px;""> </div>","null","fixation","html-keyboard-response","181","725520","0.0-6.0-0.25","2648554","co37882","norming","","","","","","",""
"null","../img/tt/098tt.jpg","null","mooney1","image-keyboard-response","182","728523","0.0-6.0-1.25","2648554","co37882","norming","","","","","","",""
"5085.145000019111","","","post_mooney1_questions","survey-likert","183","733611","0.0-6.0-2.25","2648554","co37882","norming","","","{""curiosity"":1,""confidence"":0}","[0,1]","../img/tt/098tt.jpg","",""
"691.2699999520555","","","recognition","survey-text","184","734311","0.0-6.0-3.25","2648554","co37882","norming","","","{""guess"":""""}","","../img/tt/098tt.jpg","",""
"null","../img/gs/098gs.jpg","null","reveal","image-keyboard-response","185","736314","0.0-6.0-4.25","2648554","co37882","norming","","","","","","",""
"null","../img/tt/098tt.jpg","null","mooney2","image-keyboard-response","186","738316","0.0-6.0-5.25","2648554","co37882","norming","","","","","","",""
"1816.0500000230968","","","post_reveal_questions","survey-likert","187","740135","0.0-6.0-6.25","2648554","co37882","norming","","","{""aha"":1}","[0]","../img/tt/098tt.jpg","",""
"null","<div style=""font-size:60px;""> </div>","null","fixation","html-keyboard-response","188","740342","0.0-6.0-0.26","2648554","co37882","norming","","","","","","",""
"null","../img/tt/1186tt.jpg","null","mooney1","image-keyboard-response","189","743345","0.0-6.0-1.26","2648554","co37882","norming","","","","","","",""
"2908.9849999872968","","","post_mooney1_questions","survey-likert","190","746257","0.0-6.0-2.26","2648554","co37882","norming","","","{""curiosity"":1,""confidence"":1}","[0,1]","../img/tt/1186tt.jpg","",""
"4596.314999973401","","","recognition","survey-text","191","750862","0.0-6.0-3.26","2648554","co37882","norming","","","{""guess"":""person rollerskating""}","","../img/tt/1186tt.jpg","",""
"null","../img/gs/1186gs.jpg","null","reveal","image-keyboard-response","192","752864","0.0-6.0-4.26","2648554","co37882","norming","","","","","","",""
"null","../img/tt/1186tt.jpg","null","mooney2","image-keyboard-response","193","754866","0.0-6.0-5.26","2648554","co37882","norming","","","","","","",""
"1523.7300000153482","","","post_reveal_questions","survey-likert","194","756393","0.0-6.0-6.26","2648554","co37882","norming","","","{""aha"":0}","[0]","../img/tt/1186tt.jpg","",""
"null","<div style=""font-size:60px;""> </div>","null","fixation","html-keyboard-response","195","756600","0.0-6.0-0.27","2648554","co37882","norming","","","","","","",""
"null","../img/tt/123tt.jpg","null","mooney1","image-keyboard-response","196","759604","0.0-6.0-1.27","2648554","co37882","norming","","","","","","",""
"2754.4899999629706","","","post_mooney1_questions","survey-likert","197","762361","0.0-6.0-2.27","2648554","co37882","norming","","","{""curiosity"":1,""confidence"":1}","[0,1]","../img/tt/123tt.jpg","",""
"2395.850000088103","","","recognition","survey-text","198","764765","0.0-6.0-3.27","2648554","co37882","norming","","","{""guess"":""suitcase""}","","../img/tt/123tt.jpg","",""
"null","../img/gs/123gs.jpg","null","reveal","image-keyboard-response","199","766768","0.0-6.0-4.27","2648554","co37882","norming","","","","","","",""
"null","../img/tt/123tt.jpg","null","mooney2","image-keyboard-response","200","768771","0.0-6.0-5.27","2648554","co37882","norming","","","","","","",""
"5289.0400000615045","","","post_reveal_questions","survey-likert","201","774063","0.0-6.0-6.27","2648554","co37882","norming","","","{""aha"":0}","[0]","../img/tt/123tt.jpg","",""
"null","<div style=""font-size:60px;""> </div>","null","fixation","html-keyboard-response","202","774269","0.0-6.0-0.28","2648554","co37882","norming","","","","","","",""
"null","../img/tt/1175tt.jpg","null","mooney1","image-keyboard-response","203","777272","0.0-6.0-1.28","2648554","co37882","norming","","","","","","",""
"4655.960000003688","","","post_mooney1_questions","survey-likert","204","781931","0.0-6.0-2.28","2648554","co37882","norming","","","{""curiosity"":1,""confidence"":0}","[0,1]","../img/tt/1175tt.jpg","",""
"712.9100000020117","","","recognition","survey-text","205","782653","0.0-6.0-3.28","2648554","co37882","norming","","","{""guess"":""""}","","../img/tt/1175tt.jpg","",""
"null","../img/gs/1175gs.jpg","null","reveal","image-keyboard-response","206","784655","0.0-6.0-4.28","2648554","co37882","norming","","","","","","",""
"null","../img/tt/1175tt.jpg","null","mooney2","image-keyboard-response","207","786658","0.0-6.0-5.28","2648554","co37882","norming","","","","","","",""
"9350.035000010394","","","post_reveal_questions","survey-likert","208","796011","0.0-6.0-6.28","2648554","co37882","norming","","","{""aha"":0}","[0]","../img/tt/1175tt.jpg","",""
"null","<div style=""font-size:60px;""> </div>","null","fixation","html-keyboard-response","209","796219","0.0-6.0-0.29","2648554","co37882","norming","","","","","","",""
"null","../img/tt/1148tt.jpg","null","mooney1","image-keyboard-response","210","799223","0.0-6.0-1.29","2648554","co37882","norming","","","","","","",""
"8369.925000006333","","","post_mooney1_questions","survey-likert","211","807596","0.0-6.0-2.29","2648554","co37882","norming","","","{""curiosity"":1,""confidence"":1}","[0,1]","../img/tt/1148tt.jpg","",""
"1906.029999954626","","","recognition","survey-text","212","809510","0.0-6.0-3.29","2648554","co37882","norming","","","{""guess"":""person""}","","../img/tt/1148tt.jpg","",""
"null","../img/gs/1148gs.jpg","null","reveal","image-keyboard-response","213","811513","0.0-6.0-4.29","2648554","co37882","norming","","","","","","",""
"null","../img/tt/1148tt.jpg","null","mooney2","image-keyboard-response","214","813514","0.0-6.0-5.29","2648554","co37882","norming","","","","","","",""
"3072.4349999800324","","","post_reveal_questions","survey-likert","215","816589","0.0-6.0-6.29","2648554","co37882","norming","","","{""aha"":1}","[0]","../img/tt/1148tt.jpg","",""
"null","<div style=""font-size:60px;""> </div>","null","fixation","html-keyboard-response","216","816796","0.0-6.0-0.30","2648554","co37882","norming","","","","","","",""
"null","../img/tt/1181tt.jpg","null","mooney1","image-keyboard-response","217","819799","0.0-6.0-1.30","2648554","co37882","norming","","","","","","",""
"4334.950000047684","","","post_mooney1_questions","survey-likert","218","824137","0.0-6.0-2.30","2648554","co37882","norming","","","{""curiosity"":1,""confidence"":1}","[0,1]","../img/tt/1181tt.jpg","",""
"5820.445000077598","","","recognition","survey-text","219","829966","0.0-6.0-3.30","2648554","co37882","norming","","","{""guess"":""two baseballplayers""}","","../img/tt/1181tt.jpg","",""
"null","../img/gs/1181gs.jpg","null","reveal","image-keyboard-response","220","831969","0.0-6.0-4.30","2648554","co37882","norming","","","","","","",""
"null","../img/tt/1181tt.jpg","null","mooney2","image-keyboard-response","221","833971","0.0-6.0-5.30","2648554","co37882","norming","","","","","","",""
"9575.550000066869","","","post_reveal_questions","survey-likert","222","843549","0.0-6.0-6.30","2648554","co37882","norming","","","{""aha"":0}","[0]","../img/tt/1181tt.jpg","",""
"null","<div style=""font-size:60px;""> </div>","null","fixation","html-keyboard-response","223","843756","0.0-6.0-0.31","2648554","co37882","norming","","","","","","",""
"null","../img/tt/1156tt.jpg","null","mooney1","image-keyboard-response","224","846759","0.0-6.0-1.31","2648554","co37882","norming","","","","","","",""
"2963.5299999499694","","","post_mooney1_questions","survey-likert","225","849726","0.0-6.0-2.31","2648554","co37882","norming","","","{""curiosity"":1,""confidence"":0}","[0,1]","../img/tt/1156tt.jpg","",""
"728.7299999734387","","","recognition","survey-text","226","850462","0.0-6.0-3.31","2648554","co37882","norming","","","{""guess"":""""}","","../img/tt/1156tt.jpg","",""
"null","../img/gs/1156gs.jpg","null","reveal","image-keyboard-response","227","852465","0.0-6.0-4.31","2648554","co37882","norming","","","","","","",""
"null","../img/tt/1156tt.jpg","null","mooney2","image-keyboard-response","228","854468","0.0-6.0-5.31","2648554","co37882","norming","","","","","","",""
"11406.085000024177","","","post_reveal_questions","survey-likert","229","865877","0.0-6.0-6.31","2648554","co37882","norming","","","{""aha"":0}","[0]","../img/tt/1156tt.jpg","",""
"null","<div style=""font-size:60px;""> </div>","null","fixation","html-keyboard-response","230","866083","0.0-6.0-0.32","2648554","co37882","norming","","","","","","",""
"null","../img/tt/438tt.jpg","null","mooney1","image-keyboard-response","231","869087","0.0-6.0-1.32","2648554","co37882","norming","","","","","","",""
"5539.510000031441","","","post_mooney1_questions","survey-likert","232","874630","0.0-6.0-2.32","2648554","co37882","norming","","","{""curiosity"":1,""confidence"":1}","[0,1]","../img/tt/438tt.jpg","",""
"2879.109999979846","","","recognition","survey-text","233","877517","0.0-6.0-3.32","2648554","co37882","norming","","","{""guess"":""alligator""}","","../img/tt/438tt.jpg","",""
"null","../img/gs/438gs.jpg","null","reveal","image-keyboard-response","234","879519","0.0-6.0-4.32","2648554","co37882","norming","","","","","","",""
"null","../img/tt/438tt.jpg","null","mooney2","image-keyboard-response","235","881522","0.0-6.0-5.32","2648554","co37882","norming","","","","","","",""
"3024.820000049658","","","post_reveal_questions","survey-likert","236","884550","0.0-6.0-6.32","2648554","co37882","norming","","","{""aha"":1}","[0]","../img/tt/438tt.jpg","",""
"null","<div style=""font-size:60px;""> </div>","null","fixation","html-keyboard-response","237","884756","0.0-6.0-0.33","2648554","co37882","norming","","","","","","",""
"null","../img/tt/1024tt.jpg","null","mooney1","image-keyboard-response","238","887761","0.0-6.0-1.33","2648554","co37882","norming","","","","","","",""
"3717.780000064522","","","post_mooney1_questions","survey-likert","239","891482","0.0-6.0-2.33","2648554","co37882","norming","","","{""curiosity"":1,""confidence"":1}","[0,1]","../img/tt/1024tt.jpg","",""
"4023.8700000336394","","","recognition","survey-text","240","895514","0.0-6.0-3.33","2648554","co37882","norming","","","{""guess"":""tennis player""}","","../img/tt/1024tt.jpg","",""
"null","../img/gs/1024gs.jpg","null","reveal","image-keyboard-response","241","897517","0.0-6.0-4.33","2648554","co37882","norming","","","","","","",""
"null","../img/tt/1024tt.jpg","null","mooney2","image-keyboard-response","242","899520","0.0-6.0-5.33","2648554","co37882","norming","","","","","","",""
"1628.3400000538677","","","post_reveal_questions","survey-likert","243","901151","0.0-6.0-6.33","2648554","co37882","norming","","","{""aha"":1}","[0]","../img/tt/1024tt.jpg","",""
"null","<div style=""font-size:60px;""> </div>","null","fixation","html-keyboard-response","244","901359","0.0-6.0-0.34","2648554","co37882","norming","","","","","","",""
"null","../img/tt/1232tt.jpg","null","mooney1","image-keyboard-response","245","904362","0.0-6.0-1.34","2648554","co37882","norming","","","","","","",""
"2816.6699999710545","","","post_mooney1_questions","survey-likert","246","907181","0.0-6.0-2.34","2648554","co37882","norming","","","{""curiosity"":1,""confidence"":0}","[0,1]","../img/tt/1232tt.jpg","",""
"792.8599999286234","","","recognition","survey-text","247","907982","0.0-6.0-3.34","2648554","co37882","norming","","","{""guess"":""""}","","../img/tt/1232tt.jpg","",""
"null","../img/gs/1232gs.jpg","null","reveal","image-keyboard-response","248","909986","0.0-6.0-4.34","2648554","co37882","norming","","","","","","",""
"null","../img/tt/1232tt.jpg","null","mooney2","image-keyboard-response","249","911987","0.0-6.0-5.34","2648554","co37882","norming","","","","","","",""
"5234.995000064373","","","post_reveal_questions","survey-likert","250","917225","0.0-6.0-6.34","2648554","co37882","norming","","","{""aha"":1}","[0]","../img/tt/1232tt.jpg","",""
"null","<div style=""font-size:60px;""> </div>","null","fixation","html-keyboard-response","251","917432","0.0-6.0-0.35","2648554","co37882","norming","","","","","","",""
"null","../img/tt/1269tt.jpg","null","mooney1","image-keyboard-response","252","920436","0.0-6.0-1.35","2648554","co37882","norming","","","","","","",""
"4474.069999996573","","","post_mooney1_questions","survey-likert","253","924913","0.0-6.0-2.35","2648554","co37882","norming","","","{""curiosity"":1,""confidence"":1}","[0,1]","../img/tt/1269tt.jpg","",""
"6284.269999945536","","","recognition","survey-text","254","931206","0.0-6.0-3.35","2648554","co37882","norming","","","{""guess"":""rodent""}","","../img/tt/1269tt.jpg","",""
"null","../img/gs/1269gs.jpg","null","reveal","image-keyboard-response","255","933208","0.0-6.0-4.35","2648554","co37882","norming","","","","","","",""
"null","../img/tt/1269tt.jpg","null","mooney2","image-keyboard-response","256","935212","0.0-6.0-5.35","2648554","co37882","norming","","","","","","",""
"2048.2250000350177","","","post_reveal_questions","survey-likert","257","937263","0.0-6.0-6.35","2648554","co37882","norming","","","{""aha"":1}","[0]","../img/tt/1269tt.jpg","",""
"null","<div style=""font-size:60px;""> </div>","null","fixation","html-keyboard-response","258","937470","0.0-6.0-0.36","2648554","co37882","norming","","","","","","",""
"null","../img/tt/1091tt.jpg","null","mooney1","image-keyboard-response","259","940473","0.0-6.0-1.36","2648554","co37882","norming","","","","","","",""
"3083.059999975376","","","post_mooney1_questions","survey-likert","260","943559","0.0-6.0-2.36","2648554","co37882","norming","","","{""curiosity"":1,""confidence"":4}","[0,1]","../img/tt/1091tt.jpg","",""
"1733.9249999495223","","","recognition","survey-text","261","945302","0.0-6.0-3.36","2648554","co37882","norming","","","{""guess"":""horse""}","","../img/tt/1091tt.jpg","",""
"null","../img/gs/1091gs.jpg","null","reveal","image-keyboard-response","262","947304","0.0-6.0-4.36","2648554","co37882","norming","","","","","","",""
"null","../img/tt/1091tt.jpg","null","mooney2","image-keyboard-response","263","949307","0.0-6.0-5.36","2648554","co37882","norming","","","","","","",""
"2863.0999999586493","","","post_reveal_questions","survey-likert","264","952173","0.0-6.0-6.36","2648554","co37882","norming","","","{""aha"":0}","[0]","../img/tt/1091tt.jpg","",""
"null","<div style=""font-size:60px;""> </div>","null","fixation","html-keyboard-response","265","952380","0.0-6.0-0.37","2648554","co37882","norming","","","","","","",""
"null","../img/tt/1250tt.jpg","null","mooney1","image-keyboard-response","266","955384","0.0-6.0-1.37","2648554","co37882","norming","","","","","","",""
"3180.3400000790134","","","post_mooney1_questions","survey-likert","267","958567","0.0-6.0-2.37","2648554","co37882","norming","","","{""curiosity"":1,""confidence"":0}","[0,1]","../img/tt/1250tt.jpg","",""
"791.2999999243766","","","recognition","survey-text","268","959367","0.0-6.0-3.37","2648554","co37882","norming","","","{""guess"":""""}","","../img/tt/1250tt.jpg","",""
"null","../img/gs/1250gs.jpg","null","reveal","image-keyboard-response","269","961370","0.0-6.0-4.37","2648554","co37882","norming","","","","","","",""
"null","../img/tt/1250tt.jpg","null","mooney2","image-keyboard-response","270","963372","0.0-6.0-5.37","2648554","co37882","norming","","","","","","",""
"2171.900000073947","","","post_reveal_questions","survey-likert","271","965547","0.0-6.0-6.37","2648554","co37882","norming","","","{""aha"":0}","[0]","../img/tt/1250tt.jpg","",""
"null","<div style=""font-size:60px;""> </div>","null","fixation","html-keyboard-response","272","965754","0.0-6.0-0.38","2648554","co37882","norming","","","","","","",""
"null","../img/tt/126tt.jpg","null","mooney1","image-keyboard-response","273","968757","0.0-6.0-1.38","2648554","co37882","norming","","","","","","",""
"3073.164999950677","","","post_mooney1_questions","survey-likert","274","971833","0.0-6.0-2.38","2648554","co37882","norming","","","{""curiosity"":1,""confidence"":1}","[0,1]","../img/tt/126tt.jpg","",""
"1734.5600000116974","","","recognition","survey-text","275","973576","0.0-6.0-3.38","2648554","co37882","norming","","","{""guess"":""cow""}","","../img/tt/126tt.jpg","",""
"null","../img/gs/126gs.jpg","null","reveal","image-keyboard-response","276","975579","0.0-6.0-4.38","2648554","co37882","norming","","","","","","",""
"null","../img/tt/126tt.jpg","null","mooney2","image-keyboard-response","277","977581","0.0-6.0-5.38","2648554","co37882","norming","","","","","","",""
"6490.914999973029","","","post_reveal_questions","survey-likert","278","984075","0.0-6.0-6.38","2648554","co37882","norming","","","{""aha"":0}","[0]","../img/tt/126tt.jpg","",""
"null","<div style=""font-size:60px;""> </div>","null","fixation","html-keyboard-response","279","984281","0.0-6.0-0.39","2648554","co37882","norming","","","","","","",""
"null","../img/tt/1234tt.jpg","null","mooney1","image-keyboard-response","280","987284","0.0-6.0-1.39","2648554","co37882","norming","","","","","","",""
"2655.254999990575","","","post_mooney1_questions","survey-likert","281","989943","0.0-6.0-2.39","2648554","co37882","norming","","","{""curiosity"":1,""confidence"":0}","[0,1]","../img/tt/1234tt.jpg","",""
"651.4199998928234","","","recognition","survey-text","282","990603","0.0-6.0-3.39","2648554","co37882","norming","","","{""guess"":""""}","","../img/tt/1234tt.jpg","",""
"null","../img/gs/1234gs.jpg","null","reveal","image-keyboard-response","283","992605","0.0-6.0-4.39","2648554","co37882","norming","","","","","","",""
"null","../img/tt/1234tt.jpg","null","mooney2","image-keyboard-response","284","994608","0.0-6.0-5.39","2648554","co37882","norming","","","","","","",""
"3712.989999912679","","","post_reveal_questions","survey-likert","285","998323","0.0-6.0-6.39","2648554","co37882","norming","","","{""aha"":1}","[0]","../img/tt/1234tt.jpg","",""
"null","<div style=""font-size:60px;""> </div>","null","fixation","html-keyboard-response","286","998530","0.0-6.0-0.40","2648554","co37882","norming","","","","","","",""
"null","../img/tt/1107tt.jpg","null","mooney1","image-keyboard-response","287","1001534","0.0-6.0-1.40","2648554","co37882","norming","","","","","","",""
"3024.089999962598","","","post_mooney1_questions","survey-likert","288","1004561","0.0-6.0-2.40","2648554","co37882","norming","","","{""curiosity"":1,""confidence"":4}","[0,1]","../img/tt/1107tt.jpg","",""
"1648.674999945797","","","recognition","survey-text","289","1006218","0.0-6.0-3.40","2648554","co37882","norming","","","{""guess"":""kitten""}","","../img/tt/1107tt.jpg","",""
"null","../img/gs/1107gs.jpg","null","reveal","image-keyboard-response","290","1008221","0.0-6.0-4.40","2648554","co37882","norming","","","","","","",""
"null","../img/tt/1107tt.jpg","null","mooney2","image-keyboard-response","291","1010222","0.0-6.0-5.40","2648554","co37882","norming","","","","","","",""
"1674.6600000187755","","","post_reveal_questions","survey-likert","292","1011899","0.0-6.0-6.40","2648554","co37882","norming","","","{""aha"":0}","[0]","../img/tt/1107tt.jpg","",""
"null","<div style=""font-size:60px;""> </div>","null","fixation","html-keyboard-response","293","1012106","0.0-6.0-0.41","2648554","co37882","norming","","","","","","",""
"null","../img/tt/1084tt.jpg","null","mooney1","image-keyboard-response","294","1015110","0.0-6.0-1.41","2648554","co37882","norming","","","","","","",""
"3823.4700000612065","","","post_mooney1_questions","survey-likert","295","1018937","0.0-6.0-2.41","2648554","co37882","norming","","","{""curiosity"":0,""confidence"":6}","[0,1]","../img/tt/1084tt.jpg","",""
"1281.6349999047816","","","recognition","survey-text","296","1020227","0.0-6.0-3.41","2648554","co37882","norming","","","{""guess"":""pie""}","","../img/tt/1084tt.jpg","",""
"null","../img/gs/1084gs.jpg","null","reveal","image-keyboard-response","297","1022230","0.0-6.0-4.41","2648554","co37882","norming","","","","","","",""
"null","../img/tt/1084tt.jpg","null","mooney2","image-keyboard-response","298","1024233","0.0-6.0-5.41","2648554","co37882","norming","","","","","","",""
"2256.539999973029","","","post_reveal_questions","survey-likert","299","1026493","0.0-6.0-6.41","2648554","co37882","norming","","","{""aha"":0}","[0]","../img/tt/1084tt.jpg","",""
"null","<div style=""font-size:60px;""> </div>","null","fixation","html-keyboard-response","300","1026700","0.0-6.0-0.42","2648554","co37882","norming","","","","","","",""
"null","../img/tt/1196tt.jpg","null","mooney1","image-keyboard-response","301","1029704","0.0-6.0-1.42","2648554","co37882","norming","","","","","","",""
"4082.0700000040233","","","post_mooney1_questions","survey-likert","302","1033789","0.0-6.0-2.42","2648554","co37882","norming","","","{""curiosity"":1,""confidence"":0}","[0,1]","../img/tt/1196tt.jpg","",""
"947.2749999258667","","","recognition","survey-text","303","1034744","0.0-6.0-3.42","2648554","co37882","norming","","","{""guess"":""""}","","../img/tt/1196tt.jpg","",""
"null","../img/gs/1196gs.jpg","null","reveal","image-keyboard-response","304","1036747","0.0-6.0-4.42","2648554","co37882","norming","","","","","","",""
"null","../img/tt/1196tt.jpg","null","mooney2","image-keyboard-response","305","1038749","0.0-6.0-5.42","2648554","co37882","norming","","","","","","",""
"1751.6550000291318","","","post_reveal_questions","survey-likert","306","1040503","0.0-6.0-6.42","2648554","co37882","norming","","","{""aha"":1}","[0]","../img/tt/1196tt.jpg","",""
"null","<div style=""font-size:60px;""> </div>","null","fixation","html-keyboard-response","307","1040710","0.0-6.0-0.43","2648554","co37882","norming","","","","","","",""
"null","../img/tt/1097tt.jpg","null","mooney1","image-keyboard-response","308","1043719","0.0-6.0-1.43","2648554","co37882","norming","","","","","","",""
"3264.8599999956787","","","post_mooney1_questions","survey-likert","309","1046985","0.0-6.0-2.43","2648554","co37882","norming","","","{""curiosity"":1,""confidence"":1}","[0,1]","../img/tt/1097tt.jpg","",""
"2303.82999998983","","","recognition","survey-text","310","1049298","0.0-6.0-3.43","2648554","co37882","norming","","","{""guess"":""farmer""}","","../img/tt/1097tt.jpg","",""
"null","../img/gs/1097gs.jpg","null","reveal","image-keyboard-response","311","1051301","0.0-6.0-4.43","2648554","co37882","norming","","","","","","",""
"null","../img/tt/1097tt.jpg","null","mooney2","image-keyboard-response","312","1053304","0.0-6.0-5.43","2648554","co37882","norming","","","","","","",""
"5548.655000049621","","","post_reveal_questions","survey-likert","313","1058855","0.0-6.0-6.43","2648554","co37882","norming","","","{""aha"":1}","[0]","../img/tt/1097tt.jpg","",""
"null","<div style=""font-size:60px;""> </div>","null","fixation","html-keyboard-response","314","1059063","0.0-6.0-0.44","2648554","co37882","norming","","","","","","",""
"null","../img/tt/1048tt.jpg","null","mooney1","image-keyboard-response","315","1062067","0.0-6.0-1.44","2648554","co37882","norming","","","","","","",""
"4369.049999979325","","","post_mooney1_questions","survey-likert","316","1066439","0.0-6.0-2.44","2648554","co37882","norming","","","{""curiosity"":1,""confidence"":0}","[0,1]","../img/tt/1048tt.jpg","",""
"1207.1749999886379","","","recognition","survey-text","317","1067655","0.0-6.0-3.44","2648554","co37882","norming","","","{""guess"":""""}","","../img/tt/1048tt.jpg","",""
"null","../img/gs/1048gs.jpg","null","reveal","image-keyboard-response","318","1069657","0.0-6.0-4.44","2648554","co37882","norming","","","","","","",""
"null","../img/tt/1048tt.jpg","null","mooney2","image-keyboard-response","319","1071660","0.0-6.0-5.44","2648554","co37882","norming","","","","","","",""
"2888.384999940172","","","post_reveal_questions","survey-likert","320","1074551","0.0-6.0-6.44","2648554","co37882","norming","","","{""aha"":1}","[0]","../img/tt/1048tt.jpg","",""
"null","<div style=""font-size:60px;""> </div>","null","fixation","html-keyboard-response","321","1074758","0.0-6.0-0.45","2648554","co37882","norming","","","","","","",""
"null","../img/tt/1279tt.jpg","null","mooney1","image-keyboard-response","322","1077762","0.0-6.0-1.45","2648554","co37882","norming","","","","","","",""
"4446.800000034273","","","post_mooney1_questions","survey-likert","323","1082212","0.0-6.0-2.45","2648554","co37882","norming","","","{""curiosity"":1,""confidence"":0}","[0,1]","../img/tt/1279tt.jpg","",""
"973.0199999175966","","","recognition","survey-text","324","1083193","0.0-6.0-3.45","2648554","co37882","norming","","","{""guess"":""""}","","../img/tt/1279tt.jpg","",""
"null","../img/gs/1279gs.jpg","null","reveal","image-keyboard-response","325","1085196","0.0-6.0-4.45","2648554","co37882","norming","","","","","","",""
"null","../img/tt/1279tt.jpg","null","mooney2","image-keyboard-response","326","1087199","0.0-6.0-5.45","2648554","co37882","norming","","","","","","",""
"12551.33000004571","","","post_reveal_questions","survey-likert","327","1099753","0.0-6.0-6.45","2648554","co37882","norming","","","{""aha"":0}","[0]","../img/tt/1279tt.jpg","",""
"null","<div style=""font-size:60px;""> </div>","null","fixation","html-keyboard-response","328","1099960","0.0-6.0-0.46","2648554","co37882","norming","","","","","","",""
"null","../img/tt/063tt.jpg","null","mooney1","image-keyboard-response","329","1102964","0.0-6.0-1.46","2648554","co37882","norming","","","","","","",""
"4163.060000049882","","","post_mooney1_questions","survey-likert","330","1107130","0.0-6.0-2.46","2648554","co37882","norming","","","{""curiosity"":1,""confidence"":1}","[0,1]","../img/tt/063tt.jpg","",""
"1400.7950000232086","","","recognition","survey-text","331","1108539","0.0-6.0-3.46","2648554","co37882","norming","","","{""guess"":""books""}","","../img/tt/063tt.jpg","",""
"null","../img/gs/063gs.jpg","null","reveal","image-keyboard-response","332","1110543","0.0-6.0-4.46","2648554","co37882","norming","","","","","","",""
"null","../img/tt/063tt.jpg","null","mooney2","image-keyboard-response","333","1112545","0.0-6.0-5.46","2648554","co37882","norming","","","","","","",""
"14486.049999948591","","","post_reveal_questions","survey-likert","334","1127034","0.0-6.0-6.46","2648554","co37882","norming","","","{""aha"":1}","[0]","../img/tt/063tt.jpg","",""
"null","<div style=""font-size:60px;""> </div>","null","fixation","html-keyboard-response","335","1127240","0.0-6.0-0.47","2648554","co37882","norming","","","","","","",""
"null","../img/tt/010tt.jpg","null","mooney1","image-keyboard-response","336","1130243","0.0-6.0-1.47","2648554","co37882","norming","","","","","","",""
"3176.8999999621883","","","post_mooney1_questions","survey-likert","337","1133424","0.0-6.0-2.47","2648554","co37882","norming","","","{""curiosity"":1,""confidence"":0}","[0,1]","../img/tt/010tt.jpg","",""
"666.2599999690428","","","recognition","survey-text","338","1134099","0.0-6.0-3.47","2648554","co37882","norming","","","{""guess"":""""}","","../img/tt/010tt.jpg","",""
"null","../img/gs/010gs.jpg","null","reveal","image-keyboard-response","339","1136102","0.0-6.0-4.47","2648554","co37882","norming","","","","","","",""
"null","../img/tt/010tt.jpg","null","mooney2","image-keyboard-response","340","1138105","0.0-6.0-5.47","2648554","co37882","norming","","","","","","",""
"3880.8300000382587","","","post_reveal_questions","survey-likert","341","1141987","0.0-6.0-6.47","2648554","co37882","norming","","","{""aha"":1}","[0]","../img/tt/010tt.jpg","",""
"null","<div style=""font-size:60px;""> </div>","null","fixation","html-keyboard-response","342","1142195","0.0-6.0-0.48","2648554","co37882","norming","","","","","","",""
"null","../img/tt/032tt.jpg","null","mooney1","image-keyboard-response","343","1145199","0.0-6.0-1.48","2648554","co37882","norming","","","","","","",""
"4866.205000085756","","","post_mooney1_questions","survey-likert","344","1150067","0.0-6.0-2.48","2648554","co37882","norming","","","{""curiosity"":1,""confidence"":1}","[0,1]","../img/tt/032tt.jpg","",""
"2090.914999949746","","","recognition","survey-text","345","1152170","0.0-6.0-3.48","2648554","co37882","norming","","","{""guess"":""monkey""}","","../img/tt/032tt.jpg","",""
"null","../img/gs/032gs.jpg","null","reveal","image-keyboard-response","346","1154172","0.0-6.0-4.48","2648554","co37882","norming","","","","","","",""
"null","../img/tt/032tt.jpg","null","mooney2","image-keyboard-response","347","1156174","0.0-6.0-5.48","2648554","co37882","norming","","","","","","",""
"2502.420000033453","","","post_reveal_questions","survey-likert","348","1158678","0.0-6.0-6.48","2648554","co37882","norming","","","{""aha"":1}","[0]","../img/tt/032tt.jpg","",""
"null","<div style=""font-size:60px;""> </div>","null","fixation","html-keyboard-response","349","1158885","0.0-6.0-0.49","2648554","co37882","norming","","","","","","",""
"null","../img/tt/1190tt.jpg","null","mooney1","image-keyboard-response","350","1161887","0.0-6.0-1.49","2648554","co37882","norming","","","","","","",""
"4432.54499998875","","","post_mooney1_questions","survey-likert","351","1166323","0.0-6.0-2.49","2648554","co37882","norming","","","{""curiosity"":1,""confidence"":1}","[0,1]","../img/tt/1190tt.jpg","",""
"6044.860000023618","","","recognition","survey-text","352","1172376","0.0-6.0-3.49","2648554","co37882","norming","","","{""guess"":""person with helmet""}","","../img/tt/1190tt.jpg","",""
"null","../img/gs/1190gs.jpg","null","reveal","image-keyboard-response","353","1174379","0.0-6.0-4.49","2648554","co37882","norming","","","","","","",""
"null","../img/tt/1190tt.jpg","null","mooney2","image-keyboard-response","354","1176381","0.0-6.0-5.49","2648554","co37882","norming","","","","","","",""
"2494.3149999016896","","","post_reveal_questions","survey-likert","355","1178878","0.0-6.0-6.49","2648554","co37882","norming","","","{""aha"":1}","[0]","../img/tt/1190tt.jpg","",""
"null","<div style=""font-size:60px;""> </div>","null","fixation","html-keyboard-response","356","1179085","0.0-6.0-0.50","2648554","co37882","norming","","","","","","",""
"null","../img/tt/1046tt.jpg","null","mooney1","image-keyboard-response","357","1182089","0.0-6.0-1.50","2648554","co37882","norming","","","","","","",""
"2546.60000000149","","","post_mooney1_questions","survey-likert","358","1184639","0.0-6.0-2.50","2648554","co37882","norming","","","{""curiosity"":1,""confidence"":1}","[0,1]","../img/tt/1046tt.jpg","",""
"4105.280000017956","","","recognition","survey-text","359","1188753","0.0-6.0-3.50","2648554","co37882","norming","","","{""guess"":""plate with food""}","","../img/tt/1046tt.jpg","",""
"null","../img/gs/1046gs.jpg","null","reveal","image-keyboard-response","360","1190755","0.0-6.0-4.50","2648554","co37882","norming","","","","","","",""
"null","../img/tt/1046tt.jpg","null","mooney2","image-keyboard-response","361","1192757","0.0-6.0-5.50","2648554","co37882","norming","","","","","","",""
"2760.5599999660626","","","post_reveal_questions","survey-likert","362","1195520","0.0-6.0-6.50","2648554","co37882","norming","","","{""aha"":1}","[0]","../img/tt/1046tt.jpg","",""
"null","<div style=""font-size:60px;""> </div>","null","fixation","html-keyboard-response","363","1195727","0.0-6.0-0.51","2648554","co37882","norming","","","","","","",""
"null","../img/tt/076tt.jpg","null","mooney1","image-keyboard-response","364","1198730","0.0-6.0-1.51","2648554","co37882","norming","","","","","","",""
"2672.184999915771","","","post_mooney1_questions","survey-likert","365","1201407","0.0-6.0-2.51","2648554","co37882","norming","","","{""curiosity"":1,""confidence"":3}","[0,1]","../img/tt/076tt.jpg","",""
"3403.565000044182","","","recognition","survey-text","366","1204818","0.0-6.0-3.51","2648554","co37882","norming","","","{""guess"":""roller skates""}","","../img/tt/076tt.jpg","",""
"null","../img/gs/076gs.jpg","null","reveal","image-keyboard-response","367","1206821","0.0-6.0-4.51","2648554","co37882","norming","","","","","","",""
"null","../img/tt/076tt.jpg","null","mooney2","image-keyboard-response","368","1208824","0.0-6.0-5.51","2648554","co37882","norming","","","","","","",""
"2384.2299999669194","","","post_reveal_questions","survey-likert","369","1211211","0.0-6.0-6.51","2648554","co37882","norming","","","{""aha"":0}","[0]","../img/tt/076tt.jpg","",""
"null","<div style=""font-size:60px;""> </div>","null","fixation","html-keyboard-response","370","1211419","0.0-6.0-0.52","2648554","co37882","norming","","","","","","",""
"null","../img/tt/1123tt.jpg","null","mooney1","image-keyboard-response","371","1214422","0.0-6.0-1.52","2648554","co37882","norming","","","","","","",""
"3145.9699999541044","","","post_mooney1_questions","survey-likert","372","1217571","0.0-6.0-2.52","2648554","co37882","norming","","","{""curiosity"":1,""confidence"":4}","[0,1]","../img/tt/1123tt.jpg","",""
"4393.504999927245","","","recognition","survey-text","373","1221973","0.0-6.0-3.52","2648554","co37882","norming","","","{""guess"":""volleybal player""}","","../img/tt/1123tt.jpg","",""
"null","../img/gs/1123gs.jpg","null","reveal","image-keyboard-response","374","1223976","0.0-6.0-4.52","2648554","co37882","norming","","","","","","",""
"null","../img/tt/1123tt.jpg","null","mooney2","image-keyboard-response","375","1225978","0.0-6.0-5.52","2648554","co37882","norming","","","","","","",""
"2837.7999999793246","","","post_reveal_questions","survey-likert","376","1228819","0.0-6.0-6.52","2648554","co37882","norming","","","{""aha"":1}","[0]","../img/tt/1123tt.jpg","",""
"null","<div style=""font-size:60px;""> </div>","null","fixation","html-keyboard-response","377","1229026","0.0-6.0-0.53","2648554","co37882","norming","","","","","","",""
"null","../img/tt/306tt.jpg","null","mooney1","image-keyboard-response","378","1232030","0.0-6.0-1.53","2648554","co37882","norming","","","","","","",""
"2662.7599999774247","","","post_mooney1_questions","survey-likert","379","1234696","0.0-6.0-2.53","2648554","co37882","norming","","","{""curiosity"":1,""confidence"":0}","[0,1]","../img/tt/306tt.jpg","",""
"609.3099999707192","","","recognition","survey-text","380","1235313","0.0-6.0-3.53","2648554","co37882","norming","","","{""guess"":""""}","","../img/tt/306tt.jpg","",""
"null","../img/gs/306gs.jpg","null","reveal","image-keyboard-response","381","1237316","0.0-6.0-4.53","2648554","co37882","norming","","","","","","",""
"null","../img/tt/306tt.jpg","null","mooney2","image-keyboard-response","382","1239319","0.0-6.0-5.53","2648554","co37882","norming","","","","","","",""
"2672.8100000182167","","","post_reveal_questions","survey-likert","383","1241995","0.0-6.0-6.53","2648554","co37882","norming","","","{""aha"":1}","[0]","../img/tt/306tt.jpg","",""
"null","<div style=""font-size:60px;""> </div>","null","fixation","html-keyboard-response","384","1242203","0.0-6.0-0.54","2648554","co37882","norming","","","","","","",""
"null","../img/tt/1275tt.jpg","null","mooney1","image-keyboard-response","385","1245206","0.0-6.0-1.54","2648554","co37882","norming","","","","","","",""
"3738.2950000464916","","","post_mooney1_questions","survey-likert","386","1248948","0.0-6.0-2.54","2648554","co37882","norming","","","{""curiosity"":1,""confidence"":0}","[0,1]","../img/tt/1275tt.jpg","",""
"584.9249999737367","","","recognition","survey-text","387","1249541","0.0-6.0-3.54","2648554","co37882","norming","","","{""guess"":""""}","","../img/tt/1275tt.jpg","",""
"null","../img/gs/1275gs.jpg","null","reveal","image-keyboard-response","388","1251543","0.0-6.0-4.54","2648554","co37882","norming","","","","","","",""
"null","../img/tt/1275tt.jpg","null","mooney2","image-keyboard-response","389","1253545","0.0-6.0-5.54","2648554","co37882","norming","","","","","","",""
"3401.759999920614","","","post_reveal_questions","survey-likert","390","1256949","0.0-6.0-6.54","2648554","co37882","norming","","","{""aha"":1}","[0]","../img/tt/1275tt.jpg","",""
"null","<div style=""font-size:60px;""> </div>","null","fixation","html-keyboard-response","391","1257156","0.0-6.0-0.55","2648554","co37882","norming","","","","","","",""
"null","../img/tt/1227tt.jpg","null","mooney1","image-keyboard-response","392","1260160","0.0-6.0-1.55","2648554","co37882","norming","","","","","","",""
"4082.0300000486895","","","post_mooney1_questions","survey-likert","393","1264245","0.0-6.0-2.55","2648554","co37882","norming","","","{""curiosity"":1,""confidence"":0}","[0,1]","../img/tt/1227tt.jpg","",""
"1742.5149999326095","","","recognition","survey-text","394","1265996","0.0-6.0-3.55","2648554","co37882","norming","","","{""guess"":""""}","","../img/tt/1227tt.jpg","",""
"null","../img/gs/1227gs.jpg","null","reveal","image-keyboard-response","395","1267999","0.0-6.0-4.55","2648554","co37882","norming","","","","","","",""
"null","../img/tt/1227tt.jpg","null","mooney2","image-keyboard-response","396","1270001","0.0-6.0-5.55","2648554","co37882","norming","","","","","","",""
"2532.8300000401214","","","post_reveal_questions","survey-likert","397","1272537","0.0-6.0-6.55","2648554","co37882","norming","","","{""aha"":1}","[0]","../img/tt/1227tt.jpg","",""
"null","<div style=""font-size:60px;""> </div>","null","fixation","html-keyboard-response","398","1272744","0.0-6.0-0.56","2648554","co37882","norming","","","","","","",""
"null","../img/tt/456tt.jpg","null","mooney1","image-keyboard-response","399","1275748","0.0-6.0-1.56","2648554","co37882","norming","","","","","","",""
"4732.550000073388","","","post_mooney1_questions","survey-likert","400","1280483","0.0-6.0-2.56","2648554","co37882","norming","","","{""curiosity"":1,""confidence"":1}","[0,1]","../img/tt/456tt.jpg","",""
"2454.854999901727","","","recognition","survey-text","401","1282947","0.0-6.0-3.56","2648554","co37882","norming","","","{""guess"":""snake""}","","../img/tt/456tt.jpg","",""
"null","../img/gs/456gs.jpg","null","reveal","image-keyboard-response","402","1284949","0.0-6.0-4.56","2648554","co37882","norming","","","","","","",""
"null","../img/tt/456tt.jpg","null","mooney2","image-keyboard-response","403","1286951","0.0-6.0-5.56","2648554","co37882","norming","","","","","","",""
"1910.8100000303239","","","post_reveal_questions","survey-likert","404","1288865","0.0-6.0-6.56","2648554","co37882","norming","","","{""aha"":1}","[0]","../img/tt/456tt.jpg","",""
"null","<div style=""font-size:60px;""> </div>","null","fixation","html-keyboard-response","405","1289072","0.0-6.0-0.57","2648554","co37882","norming","","","","","","",""
"null","../img/tt/358tt.jpg","null","mooney1","image-keyboard-response","406","1292076","0.0-6.0-1.57","2648554","co37882","norming","","","","","","",""
"4708.519999985583","","","post_mooney1_questions","survey-likert","407","1296787","0.0-6.0-2.57","2648554","co37882","norming","","","{""curiosity"":1,""confidence"":0}","[0,1]","../img/tt/358tt.jpg","",""
"728.8200000766665","","","recognition","survey-text","408","1297525","0.0-6.0-3.57","2648554","co37882","norming","","","{""guess"":""""}","","../img/tt/358tt.jpg","",""
"null","../img/gs/358gs.jpg","null","reveal","image-keyboard-response","409","1299527","0.0-6.0-4.57","2648554","co37882","norming","","","","","","",""
"null","../img/tt/358tt.jpg","null","mooney2","image-keyboard-response","410","1301529","0.0-6.0-5.57","2648554","co37882","norming","","","","","","",""
"3827.779999934137","","","post_reveal_questions","survey-likert","411","1305359","0.0-6.0-6.57","2648554","co37882","norming","","","{""aha"":1}","[0]","../img/tt/358tt.jpg","",""
"null","<div style=""font-size:60px;""> </div>","null","fixation","html-keyboard-response","412","1305567","0.0-6.0-0.58","2648554","co37882","norming","","","","","","",""
"null","../img/tt/079tt.jpg","null","mooney1","image-keyboard-response","413","1308571","0.0-6.0-1.58","2648554","co37882","norming","","","","","","",""
"2873.5149999847636","","","post_mooney1_questions","survey-likert","414","1311448","0.0-6.0-2.58","2648554","co37882","norming","","","{""curiosity"":1,""confidence"":5}","[0,1]","../img/tt/079tt.jpg","",""
"1372.0200000097975","","","recognition","survey-text","415","1312828","0.0-6.0-3.58","2648554","co37882","norming","","","{""guess"":""bear""}","","../img/tt/079tt.jpg","",""
"null","../img/gs/079gs.jpg","null","reveal","image-keyboard-response","416","1314832","0.0-6.0-4.58","2648554","co37882","norming","","","","","","",""
"null","../img/tt/079tt.jpg","null","mooney2","image-keyboard-response","417","1316833","0.0-6.0-5.58","2648554","co37882","norming","","","","","","",""
"6371.990000014193","","","post_reveal_questions","survey-likert","418","1323209","0.0-6.0-6.58","2648554","co37882","norming","","","{""aha"":0}","[0]","../img/tt/079tt.jpg","",""
"null","<div style=""font-size:60px;""> </div>","null","fixation","html-keyboard-response","419","1323416","0.0-6.0-0.59","2648554","co37882","norming","","","","","","",""
"null","../img/tt/064tt.jpg","null","mooney1","image-keyboard-response","420","1326420","0.0-6.0-1.59","2648554","co37882","norming","","","","","","",""
"5886.350000044331","","","post_mooney1_questions","survey-likert","421","1332310","0.0-6.0-2.59","2648554","co37882","norming","","","{""curiosity"":1,""confidence"":0}","[0,1]","../img/tt/064tt.jpg","",""
"695.0899999355897","","","recognition","survey-text","422","1333013","0.0-6.0-3.59","2648554","co37882","norming","","","{""guess"":""""}","","../img/tt/064tt.jpg","",""
"null","../img/gs/064gs.jpg","null","reveal","image-keyboard-response","423","1335015","0.0-6.0-4.59","2648554","co37882","norming","","","","","","",""
"null","../img/tt/064tt.jpg","null","mooney2","image-keyboard-response","424","1337018","0.0-6.0-5.59","2648554","co37882","norming","","","","","","",""
"2369.2299999529496","","","post_reveal_questions","survey-likert","425","1339389","0.0-6.0-6.59","2648554","co37882","norming","","","{""aha"":1}","[0]","../img/tt/064tt.jpg","",""
"null","<div style=""font-size:60px;""> </div>","null","fixation","html-keyboard-response","426","1339596","0.0-6.0-0.60","2648554","co37882","norming","","","","","","",""
"null","../img/tt/1211tt.jpg","null","mooney1","image-keyboard-response","427","1342600","0.0-6.0-1.60","2648554","co37882","norming","","","","","","",""
"5148.86000007391","","","post_mooney1_questions","survey-likert","428","1347752","0.0-6.0-2.60","2648554","co37882","norming","","","{""curiosity"":1,""confidence"":1}","[0,1]","../img/tt/1211tt.jpg","",""
"2453.1400001142174","","","recognition","survey-text","429","1350213","0.0-6.0-3.60","2648554","co37882","norming","","","{""guess"":""dolphin""}","","../img/tt/1211tt.jpg","",""
"null","../img/gs/1211gs.jpg","null","reveal","image-keyboard-response","430","1352216","0.0-6.0-4.60","2648554","co37882","norming","","","","","","",""
"null","../img/tt/1211tt.jpg","null","mooney2","image-keyboard-response","431","1354219","0.0-6.0-5.60","2648554","co37882","norming","","","","","","",""
"5350.515000056475","","","post_reveal_questions","survey-likert","432","1359573","0.0-6.0-6.60","2648554","co37882","norming","","","{""aha"":1}","[0]","../img/tt/1211tt.jpg","",""
"null","<div style=""font-size:60px;""> </div>","null","fixation","html-keyboard-response","433","1359780","0.0-6.0-0.61","2648554","co37882","norming","","","","","","",""
"null","../img/tt/1205tt.jpg","null","mooney1","image-keyboard-response","434","1362784","0.0-6.0-1.61","2648554","co37882","norming","","","","","","",""
"4338.914999971166","","","post_mooney1_questions","survey-likert","435","1367125","0.0-6.0-2.61","2648554","co37882","norming","","","{""curiosity"":1,""confidence"":1}","[0,1]","../img/tt/1205tt.jpg","",""
"1773.215000052005","","","recognition","survey-text","436","1368907","0.0-6.0-3.61","2648554","co37882","norming","","","{""guess"":""flowers""}","","../img/tt/1205tt.jpg","",""
"null","../img/gs/1205gs.jpg","null","reveal","image-keyboard-response","437","1370910","0.0-6.0-4.61","2648554","co37882","norming","","","","","","",""
"null","../img/tt/1205tt.jpg","null","mooney2","image-keyboard-response","438","1372913","0.0-6.0-5.61","2648554","co37882","norming","","","","","","",""
"1689.2900000093505","","","post_reveal_questions","survey-likert","439","1374605","0.0-6.0-6.61","2648554","co37882","norming","","","{""aha"":1}","[0]","../img/tt/1205tt.jpg","",""
"null","<div style=""font-size:60px;""> </div>","null","fixation","html-keyboard-response","440","1374812","0.0-6.0-0.62","2648554","co37882","norming","","","","","","",""
"null","../img/tt/301tt.jpg","null","mooney1","image-keyboard-response","441","1377816","0.0-6.0-1.62","2648554","co37882","norming","","","","","","",""
"2178.3549999818206","","","post_mooney1_questions","survey-likert","442","1379998","0.0-6.0-2.62","2648554","co37882","norming","","","{""curiosity"":1,""confidence"":2}","[0,1]","../img/tt/301tt.jpg","",""
"1618.610000004992","","","recognition","survey-text","443","1381624","0.0-6.0-3.62","2648554","co37882","norming","","","{""guess"":""bells""}","","../img/tt/301tt.jpg","",""
"null","../img/gs/301gs.jpg","null","reveal","image-keyboard-response","444","1383627","0.0-6.0-4.62","2648554","co37882","norming","","","","","","",""
"null","../img/tt/301tt.jpg","null","mooney2","image-keyboard-response","445","1385630","0.0-6.0-5.62","2648554","co37882","norming","","","","","","",""
"3426.3949999585748","","","post_reveal_questions","survey-likert","446","1389059","0.0-6.0-6.62","2648554","co37882","norming","","","{""aha"":0}","[0]","../img/tt/301tt.jpg","",""
"null","<div style=""font-size:60px;""> </div>","null","fixation","html-keyboard-response","447","1389267","0.0-6.0-0.63","2648554","co37882","norming","","","","","","",""
"null","../img/tt/091tt.jpg","null","mooney1","image-keyboard-response","448","1392272","0.0-6.0-1.63","2648554","co37882","norming","","","","","","",""
"3142.50999991782","","","post_mooney1_questions","survey-likert","449","1395417","0.0-6.0-2.63","2648554","co37882","norming","","","{""curiosity"":1,""confidence"":1}","[0,1]","../img/tt/091tt.jpg","",""
"1930.8250000467524","","","recognition","survey-text","450","1397357","0.0-6.0-3.63","2648554","co37882","norming","","","{""guess"":""lizard""}","","../img/tt/091tt.jpg","",""
"null","../img/gs/091gs.jpg","null","reveal","image-keyboard-response","451","1399360","0.0-6.0-4.63","2648554","co37882","norming","","","","","","",""
"null","../img/tt/091tt.jpg","null","mooney2","image-keyboard-response","452","1401363","0.0-6.0-5.63","2648554","co37882","norming","","","","","","",""
"2383.04500002414","","","post_reveal_questions","survey-likert","453","1403747","0.0-6.0-6.63","2648554","co37882","norming","","","{""aha"":0}","[0]","../img/tt/091tt.jpg","",""
"null","<div style=""font-size:60px;""> </div>","null","fixation","html-keyboard-response","454","1403954","0.0-6.0-0.64","2648554","co37882","norming","","","","","","",""
"null","../img/tt/515tt.jpg","null","mooney1","image-keyboard-response","455","1406958","0.0-6.0-1.64","2648554","co37882","norming","","","","","","",""
"4344.690000056289","","","post_mooney1_questions","survey-likert","456","1411306","0.0-6.0-2.64","2648554","co37882","norming","","","{""curiosity"":1,""confidence"":0}","[0,1]","../img/tt/515tt.jpg","",""
"721.4399999938905","","","recognition","survey-text","457","1412035","0.0-6.0-3.64","2648554","co37882","norming","","","{""guess"":""""}","","../img/tt/515tt.jpg","",""
"null","../img/gs/515gs.jpg","null","reveal","image-keyboard-response","458","1414037","0.0-6.0-4.64","2648554","co37882","norming","","","","","","",""
"null","../img/tt/515tt.jpg","null","mooney2","image-keyboard-response","459","1416040","0.0-6.0-5.64","2648554","co37882","norming","","","","","","",""
"4749.91500005126","","","post_reveal_questions","survey-likert","460","1420793","0.0-6.0-6.64","2648554","co37882","norming","","","{""aha"":1}","[0]","../img/tt/515tt.jpg","",""
"null","<div style=""font-size:60px;""> </div>","null","fixation","html-keyboard-response","461","1421000","0.0-6.0-0.65","2648554","co37882","norming","","","","","","",""
"null","../img/tt/1043tt.jpg","null","mooney1","image-keyboard-response","462","1424004","0.0-6.0-1.65","2648554","co37882","norming","","","","","","",""
"3692.4400000134483","","","post_mooney1_questions","survey-likert","463","1427700","0.0-6.0-2.65","2648554","co37882","norming","","","{""curiosity"":1,""confidence"":1}","[0,1]","../img/tt/1043tt.jpg","",""
"2345.9999999031425","","","recognition","survey-text","464","1430054","0.0-6.0-3.65","2648554","co37882","norming","","","{""guess"":""snake""}","","../img/tt/1043tt.jpg","",""
"null","../img/gs/1043gs.jpg","null","reveal","image-keyboard-response","465","1432056","0.0-6.0-4.65","2648554","co37882","norming","","","","","","",""
"null","../img/tt/1043tt.jpg","null","mooney2","image-keyboard-response","466","1434059","0.0-6.0-5.65","2648554","co37882","norming","","","","","","",""
"3051.2200000230223","","","post_reveal_questions","survey-likert","467","1437113","0.0-6.0-6.65","2648554","co37882","norming","","","{""aha"":1}","[0]","../img/tt/1043tt.jpg","",""
"null","<div style=""font-size:60px;""> </div>","null","fixation","html-keyboard-response","468","1437320","0.0-6.0-0.66","2648554","co37882","norming","","","","","","",""
"null","../img/tt/1142tt.jpg","null","mooney1","image-keyboard-response","469","1440324","0.0-6.0-1.66","2648554","co37882","norming","","","","","","",""
"4968.555000028573","","","post_mooney1_questions","survey-likert","470","1445295","0.0-6.0-2.66","2648554","co37882","norming","","","{""curiosity"":1,""confidence"":2}","[0,1]","../img/tt/1142tt.jpg","",""
"1936.8750000139698","","","recognition","survey-text","471","1447241","0.0-6.0-3.66","2648554","co37882","norming","","","{""guess"":""dancer""}","","../img/tt/1142tt.jpg","",""
"null","../img/gs/1142gs.jpg","null","reveal","image-keyboard-response","472","1449243","0.0-6.0-4.66","2648554","co37882","norming","","","","","","",""
"null","../img/tt/1142tt.jpg","null","mooney2","image-keyboard-response","473","1451245","0.0-6.0-5.66","2648554","co37882","norming","","","","","","",""
"56897.824999992736","","","post_reveal_questions","survey-likert","474","1508145","0.0-6.0-6.66","2648554","co37882","norming","","","{""aha"":1}","[0]","../img/tt/1142tt.jpg","",""
"null","<div style=""font-size:60px;""> </div>","null","fixation","html-keyboard-response","475","1508352","0.0-6.0-0.67","2648554","co37882","norming","","","","","","",""
"null","../img/tt/517tt.jpg","null","mooney1","image-keyboard-response","476","1511356","0.0-6.0-1.67","2648554","co37882","norming","","","","","","",""
"2324.4449999183416","","","post_mooney1_questions","survey-likert","477","1513685","0.0-6.0-2.67","2648554","co37882","norming","","","{""curiosity"":1,""confidence"":0}","[0,1]","../img/tt/517tt.jpg","",""
"1629.4350000098348","","","recognition","survey-text","478","1515329","0.0-6.0-3.67","2648554","co37882","norming","","","{""guess"":""""}","","../img/tt/517tt.jpg","",""
"null","../img/gs/517gs.jpg","null","reveal","image-keyboard-response","479","1517332","0.0-6.0-4.67","2648554","co37882","norming","","","","","","",""
"null","../img/tt/517tt.jpg","null","mooney2","image-keyboard-response","480","1519335","0.0-6.0-5.67","2648554","co37882","norming","","","","","","",""
"2033.4900000598282","","","post_reveal_questions","survey-likert","481","1521371","0.0-6.0-6.67","2648554","co37882","norming","","","{""aha"":1}","[0]","../img/tt/517tt.jpg","",""
"null","<div style=""font-size:60px;""> </div>","null","fixation","html-keyboard-response","482","1521580","0.0-6.0-0.68","2648554","co37882","norming","","","","","","",""
"null","../img/tt/1151tt.jpg","null","mooney1","image-keyboard-response","483","1524583","0.0-6.0-1.68","2648554","co37882","norming","","","","","","",""
"4367.955000023358","","","post_mooney1_questions","survey-likert","484","1528955","0.0-6.0-2.68","2648554","co37882","norming","","","{""curiosity"":1,""confidence"":1}","[0,1]","../img/tt/1151tt.jpg","",""
"4005.225000088103","","","recognition","survey-text","485","1532968","0.0-6.0-3.68","2648554","co37882","norming","","","{""guess"":""person""}","","../img/tt/1151tt.jpg","",""
"null","../img/gs/1151gs.jpg","null","reveal","image-keyboard-response","486","1534971","0.0-6.0-4.68","2648554","co37882","norming","","","","","","",""
"null","../img/tt/1151tt.jpg","null","mooney2","image-keyboard-response","487","1536974","0.0-6.0-5.68","2648554","co37882","norming","","","","","","",""
"4796.824999968521","","","post_reveal_questions","survey-likert","488","1541773","0.0-6.0-6.68","2648554","co37882","norming","","","{""aha"":1}","[0]","../img/tt/1151tt.jpg","",""
"null","<div style=""font-size:60px;""> </div>","null","fixation","html-keyboard-response","489","1541980","0.0-6.0-0.69","2648554","co37882","norming","","","","","","",""
"null","../img/tt/1188tt.jpg","null","mooney1","image-keyboard-response","490","1544983","0.0-6.0-1.69","2648554","co37882","norming","","","","","","",""
"3960.3799999458715","","","post_mooney1_questions","survey-likert","491","1548947","0.0-6.0-2.69","2648554","co37882","norming","","","{""curiosity"":1,""confidence"":1}","[0,1]","../img/tt/1188tt.jpg","",""
"2669.664999935776","","","recognition","survey-text","492","1551626","0.0-6.0-3.69","2648554","co37882","norming","","","{""guess"":""person""}","","../img/tt/1188tt.jpg","",""
"null","../img/gs/1188gs.jpg","null","reveal","image-keyboard-response","493","1553628","0.0-6.0-4.69","2648554","co37882","norming","","","","","","",""
"null","../img/tt/1188tt.jpg","null","mooney2","image-keyboard-response","494","1555632","0.0-6.0-5.69","2648554","co37882","norming","","","","","","",""
"2383.4950000746176","","","post_reveal_questions","survey-likert","495","1558020","0.0-6.0-6.69","2648554","co37882","norming","","","{""aha"":1}","[0]","../img/tt/1188tt.jpg","",""
"null","<div style=""font-size:60px;""> </div>","null","fixation","html-keyboard-response","496","1558227","0.0-6.0-0.70","2648554","co37882","norming","","","","","","",""
"null","../img/tt/013tt.jpg","null","mooney1","image-keyboard-response","497","1561232","0.0-6.0-1.70","2648554","co37882","norming","","","","","","",""
"3257.234999909997","","","post_mooney1_questions","survey-likert","498","1564494","0.0-6.0-2.70","2648554","co37882","norming","","","{""curiosity"":1,""confidence"":0}","[0,1]","../img/tt/013tt.jpg","",""
"604.1650000261143","","","recognition","survey-text","499","1565107","0.0-6.0-3.70","2648554","co37882","norming","","","{""guess"":""""}","","../img/tt/013tt.jpg","",""
"null","../img/gs/013gs.jpg","null","reveal","image-keyboard-response","500","1567110","0.0-6.0-4.70","2648554","co37882","norming","","","","","","",""
"null","../img/tt/013tt.jpg","null","mooney2","image-keyboard-response","501","1569113","0.0-6.0-5.70","2648554","co37882","norming","","","","","","",""
"2027.5100000435486","","","post_reveal_questions","survey-likert","502","1571143","0.0-6.0-6.70","2648554","co37882","norming","","","{""aha"":1}","[0]","../img/tt/013tt.jpg","",""
"null","<div style=""font-size:60px;""> </div>","null","fixation","html-keyboard-response","503","1571351","0.0-6.0-0.71","2648554","co37882","norming","","","","","","",""
"null","../img/tt/357tt.jpg","null","mooney1","image-keyboard-response","504","1574355","0.0-6.0-1.71","2648554","co37882","norming","","","","","","",""
"5943.654999951832","","","post_mooney1_questions","survey-likert","505","1580302","0.0-6.0-2.71","2648554","co37882","norming","","","{""curiosity"":1,""confidence"":1}","[0,1]","../img/tt/357tt.jpg","",""
"1366.649999981746","","","recognition","survey-text","506","1581677","0.0-6.0-3.71","2648554","co37882","norming","","","{""guess"":""bird""}","","../img/tt/357tt.jpg","",""
"null","../img/gs/357gs.jpg","null","reveal","image-keyboard-response","507","1583679","0.0-6.0-4.71","2648554","co37882","norming","","","","","","",""
"null","../img/tt/357tt.jpg","null","mooney2","image-keyboard-response","508","1585682","0.0-6.0-5.71","2648554","co37882","norming","","","","","","",""
"8017.565000103787","","","post_reveal_questions","survey-likert","509","1593702","0.0-6.0-6.71","2648554","co37882","norming","","","{""aha"":1}","[0]","../img/tt/357tt.jpg","",""
"null","<div style=""font-size:60px;""> </div>","null","fixation","html-keyboard-response","510","1593909","0.0-6.0-0.72","2648554","co37882","norming","","","","","","",""
"null","../img/tt/319tt.jpg","null","mooney1","image-keyboard-response","511","1596914","0.0-6.0-1.72","2648554","co37882","norming","","","","","","",""
"4878.460000036284","","","post_mooney1_questions","survey-likert","512","1601796","0.0-6.0-2.72","2648554","co37882","norming","","","{""curiosity"":1,""confidence"":1}","[0,1]","../img/tt/319tt.jpg","",""
"727.1750000072643","","","recognition","survey-text","513","1602532","0.0-6.0-3.72","2648554","co37882","norming","","","{""guess"":""""}","","../img/tt/319tt.jpg","",""
"null","../img/gs/319gs.jpg","null","reveal","image-keyboard-response","514","1604534","0.0-6.0-4.72","2648554","co37882","norming","","","","","","",""
"null","../img/tt/319tt.jpg","null","mooney2","image-keyboard-response","515","1606536","0.0-6.0-5.72","2648554","co37882","norming","","","","","","",""
"4418.055000016466","","","post_reveal_questions","survey-likert","516","1610957","0.0-6.0-6.72","2648554","co37882","norming","","","{""aha"":1}","[0]","../img/tt/319tt.jpg","",""
"null","<div style=""font-size:60px;""> </div>","null","fixation","html-keyboard-response","517","1611164","0.0-6.0-0.73","2648554","co37882","norming","","","","","","",""
"null","../img/tt/1146tt.jpg","null","mooney1","image-keyboard-response","518","1614167","0.0-6.0-1.73","2648554","co37882","norming","","","","","","",""
"3287.2450000140816","","","post_mooney1_questions","survey-likert","519","1617458","0.0-6.0-2.73","2648554","co37882","norming","","","{""curiosity"":1,""confidence"":1}","[0,1]","../img/tt/1146tt.jpg","",""
"3209.870000020601","","","recognition","survey-text","520","1620676","0.0-6.0-3.73","2648554","co37882","norming","","","{""guess"":""achery""}","","../img/tt/1146tt.jpg","",""
"null","../img/gs/1146gs.jpg","null","reveal","image-keyboard-response","521","1622679","0.0-6.0-4.73","2648554","co37882","norming","","","","","","",""
"null","../img/tt/1146tt.jpg","null","mooney2","image-keyboard-response","522","1624681","0.0-6.0-5.73","2648554","co37882","norming","","","","","","",""
"2483.0500000389293","","","post_reveal_questions","survey-likert","523","1627168","0.0-6.0-6.73","2648554","co37882","norming","","","{""aha"":0}","[0]","../img/tt/1146tt.jpg","",""
"null","<div style=""font-size:60px;""> </div>","null","fixation","html-keyboard-response","524","1627375","0.0-6.0-0.74","2648554","co37882","norming","","","","","","",""
"null","../img/tt/140tt.jpg","null","mooney1","image-keyboard-response","525","1630378","0.0-6.0-1.74","2648554","co37882","norming","","","","","","",""
"2350.6300000008196","","","post_mooney1_questions","survey-likert","526","1632732","0.0-6.0-2.74","2648554","co37882","norming","","","{""curiosity"":1,""confidence"":4}","[0,1]","../img/tt/140tt.jpg","",""
"5655.339999939315","","","recognition","survey-text","527","1638396","0.0-6.0-3.74","2648554","co37882","norming","","","{""guess"":""two forks""}","","../img/tt/140tt.jpg","",""
"null","../img/gs/140gs.jpg","null","reveal","image-keyboard-response","528","1640398","0.0-6.0-4.74","2648554","co37882","norming","","","","","","",""
"null","../img/tt/140tt.jpg","null","mooney2","image-keyboard-response","529","1642401","0.0-6.0-5.74","2648554","co37882","norming","","","","","","",""
"3371.995000052266","","","post_reveal_questions","survey-likert","530","1645775","0.0-6.0-6.74","2648554","co37882","norming","","","{""aha"":0}","[0]","../img/tt/140tt.jpg","",""
"null","<div style=""font-size:60px;""> </div>","null","fixation","html-keyboard-response","531","1645982","0.0-6.0-0.75","2648554","co37882","norming","","","","","","",""
"null","../img/tt/1002tt.jpg","null","mooney1","image-keyboard-response","532","1648986","0.0-6.0-1.75","2648554","co37882","norming","","","","","","",""
"3160.245000035502","","","post_mooney1_questions","survey-likert","533","1652148","0.0-6.0-2.75","2648554","co37882","norming","","","{""curiosity"":1,""confidence"":2}","[0,1]","../img/tt/1002tt.jpg","",""
"2281.7000000504777","","","recognition","survey-text","534","1654438","0.0-6.0-3.75","2648554","co37882","norming","","","{""guess"":""donkey""}","","../img/tt/1002tt.jpg","",""
"null","../img/gs/1002gs.jpg","null","reveal","image-keyboard-response","535","1656441","0.0-6.0-4.75","2648554","co37882","norming","","","","","","",""
"null","../img/tt/1002tt.jpg","null","mooney2","image-keyboard-response","536","1658444","0.0-6.0-5.75","2648554","co37882","norming","","","","","","",""
"2280.960000003688","","","post_reveal_questions","survey-likert","537","1660728","0.0-6.0-6.75","2648554","co37882","norming","","","{""aha"":1}","[0]","../img/tt/1002tt.jpg","",""
"null","<div style=""font-size:60px;""> </div>","null","fixation","html-keyboard-response","538","1660935","0.0-6.0-0.76","2648554","co37882","norming","","","","","","",""
"null","../img/tt/1087tt.jpg","null","mooney1","image-keyboard-response","539","1663939","0.0-6.0-1.76","2648554","co37882","norming","","","","","","",""
"2671.764999977313","","","post_mooney1_questions","survey-likert","540","1666614","0.0-6.0-2.76","2648554","co37882","norming","","","{""curiosity"":1,""confidence"":2}","[0,1]","../img/tt/1087tt.jpg","",""
"1342.9199999663979","","","recognition","survey-text","541","1667965","0.0-6.0-3.76","2648554","co37882","norming","","","{""guess"":""sheep""}","","../img/tt/1087tt.jpg","",""
"null","../img/gs/1087gs.jpg","null","reveal","image-keyboard-response","542","1669969","0.0-6.0-4.76","2648554","co37882","norming","","","","","","",""
"null","../img/tt/1087tt.jpg","null","mooney2","image-keyboard-response","543","1671972","0.0-6.0-5.76","2648554","co37882","norming","","","","","","",""
"2501.1149999918416","","","post_reveal_questions","survey-likert","544","1674476","0.0-6.0-6.76","2648554","co37882","norming","","","{""aha"":0}","[0]","../img/tt/1087tt.jpg","",""
"null","<div style=""font-size:60px;""> </div>","null","fixation","html-keyboard-response","545","1674683","0.0-6.0-0.77","2648554","co37882","norming","","","","","","",""
"null","../img/tt/001tt.jpg","null","mooney1","image-keyboard-response","546","1677687","0.0-6.0-1.77","2648554","co37882","norming","","","","","","",""
"4032.2549999691546","","","post_mooney1_questions","survey-likert","547","1681722","0.0-6.0-2.77","2648554","co37882","norming","","","{""curiosity"":1,""confidence"":0}","[0,1]","../img/tt/001tt.jpg","",""
"708.3400000119582","","","recognition","survey-text","548","1682439","0.0-6.0-3.77","2648554","co37882","norming","","","{""guess"":""""}","","../img/tt/001tt.jpg","",""
"null","../img/gs/001gs.jpg","null","reveal","image-keyboard-response","549","1684441","0.0-6.0-4.77","2648554","co37882","norming","","","","","","",""
"null","../img/tt/001tt.jpg","null","mooney2","image-keyboard-response","550","1686443","0.0-6.0-5.77","2648554","co37882","norming","","","","","","",""
"3653.840000042692","","","post_reveal_questions","survey-likert","551","1690100","0.0-6.0-6.77","2648554","co37882","norming","","","{""aha"":0}","[0]","../img/tt/001tt.jpg","",""
"null","<div style=""font-size:60px;""> </div>","null","fixation","html-keyboard-response","552","1690307","0.0-6.0-0.78","2648554","co37882","norming","","","","","","",""
