"rt","stimulus","key_press","test_part","trial_type","trial_index","time_elapsed","internal_node_id","totalTime","subject","experiment_name","button_pressed","success","responses","question_order","currentStim","old","correct"
"7950.395000000015","Welcome to the experiment. This is an online experiment so please don't close the tab/window until we say goodbye.  Press any key to begin.","32","instructions","html-keyboard-response","0","7965","0.0-0.0","3425225","co37669","norming","","","","","","",""
"24880.16499999998","<div style='word-wrap: break-word; width: 900px'><h3>Please consider this information carefully before deciding whether to participate in this research</h3><ul style='text-align: left; font-size: .8em;'><li><b>Purpose of the research</b>: To examine how people process images.</li><li><b>What you will do in this research</b>:  Stimuli (images) will be presented on the computer and you will be asked different questions about them.</li><li><b>Time required</b>: Participation will take between 45 and 60 minutes to complete.</li><li><b>Risks</b>:  There are no anticipated risks associated with participating in this study. The effects of participating should be comparable to those you would experience from viewing a computer monitor for 30 minutes and using a mouse or keyboard.</li><li><b>Benefits</b>:  This study provides no benefits to you individually except for the credit. The study provides important information about the nature of perception and learning.</li><li><b>Confidentiality</b>:  Your participation in this study will remain confidential. No personally identifiable information will be associated with your data. Your de-identified data may be shared with other researchers and used in future projects.</li><li><b>Participation and withdrawal</b>:  Your participation in this study is completely voluntary and you may refuse to participate or you may choose to withdraw at any time without penalty.</li><li><b>How to contact the researchers</b>: If you have questions or concerns about your participation or payment, or want to request a summary of research findings, please contact Sander Van de Cruys (KU Leuven), at sander.vandecruys@kuleuven.be.</li></ul><p>The nature and purpose of this research have been sufficiently explained and I agree to participate in this study.  I understand that I am free to withdraw at any time without incurring any penalty.</p><p>Please consent by clicking the button below to continue. Otherwise, please exit the study at this time.</p></div>","","instructions","html-button-response","1","32848","0.0-1.0","3425225","co37669","norming","0","","","","","",""
"","","","instructions","fullscreen","2","36827","0.0-2.0","3425225","co37669","norming","","true","","","","",""
"33483.72","","","sona","survey-html-form","3","70199","0.0-3.0","3425225","co37669","norming","","","[{""name"":""sonaid"",""value"":""37669""},{""name"":""debrief"",""value"":""yes""},{""name"":""datajoin"",""value"":""yes""}]","","","",""
"89052.19999999998","<div style='word-wrap: break-word; width: 900px'><h3>Instructions</h3><p>This experiment will have 3 parts. In the first part you will see a series of distorted images like the one below on the left. As you can see in the righthand image, the distorted images are derived from actual photographs. In what follows, you will <strong>briefly</strong> be presented with <strong>only</strong> the distorted image.</p> <div style='float: left; margin-right: 20px;'><img src='../img/018tt.jpg' height='250' width='250'></img></div><div style='float: right; margin-left: 20px;'><img src='../img/018gs.jpg' height='250' width='250'></img></div><p>Subsequently you will be asked a few questions about the image: One question on how <strong>curious</strong> you are about the solution and one on how <strong>confident</strong> you are that you know the solution.</p>Next, we ask you to make a guess on what is in the image. Note that it is OK to name just the <strong>basic level category</strong>. For example when you see a parrot in the image, 'parrot' will obviously be a correct answer but also correct is 'bird'. However, 'animal' will <strong>not</strong> be counted as a correct response. For the example above, 'rose' would be correct or 'flower', but not 'plant'. When soccer players are depicted, 'soccer', 'football', 'soccer players' will be correct, but not 'humans', 'outdoors', or 'sports'. You do not need to describe the image in full, just name the main object in it <strong>in one or two words</strong>. All images depict objects from one of the following broad level categories: animals, inanimate objects, plants, sports, vehicles, and food. Recognizing means knowing <strong>more</strong> than these broad labels for a given image. But we always encourage you to <strong>make a guess</strong> if you can. Note that you are allowed to use <strong>Dutch and English</strong> in your answers, whatever comes easiest for you.</p><p>Press any key to continue.</p></div>","32","instructions","html-keyboard-response","4","159056","0.0-4.0","3425225","co37669","norming","","","","","","",""
"29086.130000000005","<div style='word-wrap: break-word; width: 900px'><h3>Instructions</h3> <p>Next, the solution image will be revealed to you and you'll be asked to indicate how strong your <strong>aha-experience</strong> was after seeing the solution. This describes the positive feeling of the 'click' you sometimes experience, when the pieces of the 'puzzle' fall together and you suddenly have 'insight' in the image.</p><img src='aha.jpg' height='188' width='250'></img><p>Note that there are no right or wrong answers. We are interested in what <strong>you</strong> see in the image and how <strong>you</strong> feel about it.</p><p>Press any key to start the experiment.</p></div>","32","instructions","html-keyboard-response","5","188145","0.0-5.0","3425225","co37669","norming","","","","","","",""
"null","<div style=""font-size:60px;""> </div>","null","fixation","html-keyboard-response","6","188352","0.0-6.0-0.0","3425225","co37669","norming","","","","","","",""
"null","../img/tt/1269tt.jpg","null","mooney1","image-keyboard-response","7","191358","0.0-6.0-1.0","3425225","co37669","norming","","","","","","",""
"14861.994999999995","","","post_mooney1_questions","survey-likert","8","206223","0.0-6.0-2.0","3425225","co37669","norming","","","{""curiosity"":5,""confidence"":6}","[0,1]","../img/tt/1269tt.jpg","",""
"5757.214999999967","","","recognition","survey-text","9","211983","0.0-6.0-3.0","3425225","co37669","norming","","","{""guess"":""dog""}","","../img/tt/1269tt.jpg","",""
"null","../img/gs/1269gs.jpg","null","reveal","image-keyboard-response","10","213992","0.0-6.0-4.0","3425225","co37669","norming","","","","","","",""
"null","../img/tt/1269tt.jpg","null","mooney2","image-keyboard-response","11","215993","0.0-6.0-5.0","3425225","co37669","norming","","","","","","",""
"8530.849999999977","","","post_reveal_questions","survey-likert","12","224483","0.0-6.0-6.0","3425225","co37669","norming","","","{""aha"":6}","[0]","../img/tt/1269tt.jpg","",""
"null","<div style=""font-size:60px;""> </div>","null","fixation","html-keyboard-response","13","224694","0.0-6.0-0.1","3425225","co37669","norming","","","","","","",""
"null","../img/tt/1154tt.jpg","null","mooney1","image-keyboard-response","14","227698","0.0-6.0-1.1","3425225","co37669","norming","","","","","","",""
"10783.255000000063","","","post_mooney1_questions","survey-likert","15","238483","0.0-6.0-2.1","3425225","co37669","norming","","","{""curiosity"":6,""confidence"":0}","[0,1]","../img/tt/1154tt.jpg","",""
"10389.694999999949","","","recognition","survey-text","16","248875","0.0-6.0-3.1","3425225","co37669","norming","","","{""guess"":""""}","","../img/tt/1154tt.jpg","",""
"null","../img/gs/1154gs.jpg","null","reveal","image-keyboard-response","17","250884","0.0-6.0-4.1","3425225","co37669","norming","","","","","","",""
"null","../img/tt/1154tt.jpg","null","mooney2","image-keyboard-response","18","252886","0.0-6.0-5.1","3425225","co37669","norming","","","","","","",""
"5539.549999999959","","","post_reveal_questions","survey-likert","19","258427","0.0-6.0-6.1","3425225","co37669","norming","","","{""aha"":6}","[0]","../img/tt/1154tt.jpg","",""
"null","<div style=""font-size:60px;""> </div>","null","fixation","html-keyboard-response","20","258634","0.0-6.0-0.2","3425225","co37669","norming","","","","","","",""
"null","../img/tt/084tt.jpg","null","mooney1","image-keyboard-response","21","261643","0.0-6.0-1.2","3425225","co37669","norming","","","","","","",""
"6597.899999999965","","","post_mooney1_questions","survey-likert","22","268243","0.0-6.0-2.2","3425225","co37669","norming","","","{""curiosity"":3,""confidence"":6}","[0,1]","../img/tt/084tt.jpg","",""
"3630.0050000000047","","","recognition","survey-text","23","271875","0.0-6.0-3.2","3425225","co37669","norming","","","{""guess"":""bird""}","","../img/tt/084tt.jpg","",""
"null","../img/gs/084gs.jpg","null","reveal","image-keyboard-response","24","273876","0.0-6.0-4.2","3425225","co37669","norming","","","","","","",""
"null","../img/tt/084tt.jpg","null","mooney2","image-keyboard-response","25","275881","0.0-6.0-5.2","3425225","co37669","norming","","","","","","",""
"15071.640000000014","","","post_reveal_questions","survey-likert","26","290958","0.0-6.0-6.2","3425225","co37669","norming","","","{""aha"":3}","[0]","../img/tt/084tt.jpg","",""
"null","<div style=""font-size:60px;""> </div>","null","fixation","html-keyboard-response","27","291161","0.0-6.0-0.3","3425225","co37669","norming","","","","","","",""
"null","../img/tt/1270tt.jpg","null","mooney1","image-keyboard-response","28","294174","0.0-6.0-1.3","3425225","co37669","norming","","","","","","",""
"9621.314999999944","","","post_mooney1_questions","survey-likert","29","303798","0.0-6.0-2.3","3425225","co37669","norming","","","{""curiosity"":6,""confidence"":0}","[0,1]","../img/tt/1270tt.jpg","",""
"4125.989999999991","","","recognition","survey-text","30","307925","0.0-6.0-3.3","3425225","co37669","norming","","","{""guess"":""""}","","../img/tt/1270tt.jpg","",""
"null","../img/gs/1270gs.jpg","null","reveal","image-keyboard-response","31","309927","0.0-6.0-4.3","3425225","co37669","norming","","","","","","",""
"null","../img/tt/1270tt.jpg","null","mooney2","image-keyboard-response","32","311934","0.0-6.0-5.3","3425225","co37669","norming","","","","","","",""
"5831.4400000000605","","","post_reveal_questions","survey-likert","33","317766","0.0-6.0-6.3","3425225","co37669","norming","","","{""aha"":6}","[0]","../img/tt/1270tt.jpg","",""
"null","<div style=""font-size:60px;""> </div>","null","fixation","html-keyboard-response","34","317971","0.0-6.0-0.4","3425225","co37669","norming","","","","","","",""
"null","../img/tt/296tt.jpg","null","mooney1","image-keyboard-response","35","320978","0.0-6.0-1.4","3425225","co37669","norming","","","","","","",""
"18489.149999999965","","","post_mooney1_questions","survey-likert","36","339470","0.0-6.0-2.4","3425225","co37669","norming","","","{""curiosity"":6,""confidence"":0}","[0,1]","../img/tt/296tt.jpg","",""
"2182.125000000058","","","recognition","survey-text","37","341654","0.0-6.0-3.4","3425225","co37669","norming","","","{""guess"":""""}","","../img/tt/296tt.jpg","",""
"null","../img/gs/296gs.jpg","null","reveal","image-keyboard-response","38","343662","0.0-6.0-4.4","3425225","co37669","norming","","","","","","",""
"null","../img/tt/296tt.jpg","null","mooney2","image-keyboard-response","39","345667","0.0-6.0-5.4","3425225","co37669","norming","","","","","","",""
"3680.480000000098","","","post_reveal_questions","survey-likert","40","349347","0.0-6.0-6.4","3425225","co37669","norming","","","{""aha"":2}","[0]","../img/tt/296tt.jpg","",""
"null","<div style=""font-size:60px;""> </div>","null","fixation","html-keyboard-response","41","349550","0.0-6.0-0.5","3425225","co37669","norming","","","","","","",""
"null","../img/tt/1044tt.jpg","null","mooney1","image-keyboard-response","42","352556","0.0-6.0-1.5","3425225","co37669","norming","","","","","","",""
"13958.284999999916","","","post_mooney1_questions","survey-likert","43","366515","0.0-6.0-2.5","3425225","co37669","norming","","","{""curiosity"":5,""confidence"":0}","[0,1]","../img/tt/1044tt.jpg","",""
"1310.0100000000093","","","recognition","survey-text","44","367827","0.0-6.0-3.5","3425225","co37669","norming","","","{""guess"":""""}","","../img/tt/1044tt.jpg","",""
"null","../img/gs/1044gs.jpg","null","reveal","image-keyboard-response","45","369833","0.0-6.0-4.5","3425225","co37669","norming","","","","","","",""
"null","../img/tt/1044tt.jpg","null","mooney2","image-keyboard-response","46","371842","0.0-6.0-5.5","3425225","co37669","norming","","","","","","",""
"4117.95000000007","","","post_reveal_questions","survey-likert","47","375963","0.0-6.0-6.5","3425225","co37669","norming","","","{""aha"":6}","[0]","../img/tt/1044tt.jpg","",""
"null","<div style=""font-size:60px;""> </div>","null","fixation","html-keyboard-response","48","376168","0.0-6.0-0.6","3425225","co37669","norming","","","","","","",""
"null","../img/tt/078tt.jpg","null","mooney1","image-keyboard-response","49","379175","0.0-6.0-1.6","3425225","co37669","norming","","","","","","",""
"5832.560000000056","","","post_mooney1_questions","survey-likert","50","385011","0.0-6.0-2.6","3425225","co37669","norming","","","{""curiosity"":6,""confidence"":5}","[0,1]","../img/tt/078tt.jpg","",""
"5133.8649999999325","","","recognition","survey-text","51","390146","0.0-6.0-3.6","3425225","co37669","norming","","","{""guess"":""grapes""}","","../img/tt/078tt.jpg","",""
"null","../img/gs/078gs.jpg","null","reveal","image-keyboard-response","52","392150","0.0-6.0-4.6","3425225","co37669","norming","","","","","","",""
"null","../img/tt/078tt.jpg","null","mooney2","image-keyboard-response","53","394152","0.0-6.0-5.6","3425225","co37669","norming","","","","","","",""
"3559.929999999993","","","post_reveal_questions","survey-likert","54","397714","0.0-6.0-6.6","3425225","co37669","norming","","","{""aha"":1}","[0]","../img/tt/078tt.jpg","",""
"null","<div style=""font-size:60px;""> </div>","null","fixation","html-keyboard-response","55","397919","0.0-6.0-0.7","3425225","co37669","norming","","","","","","",""
"null","../img/tt/1127tt.jpg","null","mooney1","image-keyboard-response","56","400922","0.0-6.0-1.7","3425225","co37669","norming","","","","","","",""
"20461.969999999972","","","post_mooney1_questions","survey-likert","57","421385","0.0-6.0-2.7","3425225","co37669","norming","","","{""curiosity"":5,""confidence"":5}","[0,1]","../img/tt/1127tt.jpg","",""
"9214.119999999995","","","recognition","survey-text","58","430601","0.0-6.0-3.7","3425225","co37669","norming","","","{""guess"":""drawing class""}","","../img/tt/1127tt.jpg","",""
"null","../img/gs/1127gs.jpg","null","reveal","image-keyboard-response","59","432609","0.0-6.0-4.7","3425225","co37669","norming","","","","","","",""
"null","../img/tt/1127tt.jpg","null","mooney2","image-keyboard-response","60","434609","0.0-6.0-5.7","3425225","co37669","norming","","","","","","",""
"2574.8899999999558","","","post_reveal_questions","survey-likert","61","437185","0.0-6.0-6.7","3425225","co37669","norming","","","{""aha"":6}","[0]","../img/tt/1127tt.jpg","",""
"null","<div style=""font-size:60px;""> </div>","null","fixation","html-keyboard-response","62","437394","0.0-6.0-0.8","3425225","co37669","norming","","","","","","",""
"null","../img/tt/1063tt.jpg","null","mooney1","image-keyboard-response","63","440400","0.0-6.0-1.8","3425225","co37669","norming","","","","","","",""
"7477.524999999965","","","post_mooney1_questions","survey-likert","64","447881","0.0-6.0-2.8","3425225","co37669","norming","","","{""curiosity"":6,""confidence"":0}","[0,1]","../img/tt/1063tt.jpg","",""
"1958.009999999951","","","recognition","survey-text","65","449841","0.0-6.0-3.8","3425225","co37669","norming","","","{""guess"":""""}","","../img/tt/1063tt.jpg","",""
"null","../img/gs/1063gs.jpg","null","reveal","image-keyboard-response","66","451845","0.0-6.0-4.8","3425225","co37669","norming","","","","","","",""
"null","../img/tt/1063tt.jpg","null","mooney2","image-keyboard-response","67","453854","0.0-6.0-5.8","3425225","co37669","norming","","","","","","",""
"6320.734999999986","","","post_reveal_questions","survey-likert","68","460177","0.0-6.0-6.8","3425225","co37669","norming","","","{""aha"":4}","[0]","../img/tt/1063tt.jpg","",""
"null","<div style=""font-size:60px;""> </div>","null","fixation","html-keyboard-response","69","460383","0.0-6.0-0.9","3425225","co37669","norming","","","","","","",""
"null","../img/tt/1279tt.jpg","null","mooney1","image-keyboard-response","70","463390","0.0-6.0-1.9","3425225","co37669","norming","","","","","","",""
"8408.369999999937","","","post_mooney1_questions","survey-likert","71","471806","0.0-6.0-2.9","3425225","co37669","norming","","","{""curiosity"":6,""confidence"":0}","[0,1]","../img/tt/1279tt.jpg","",""
"1581.9949999999953","","","recognition","survey-text","72","473390","0.0-6.0-3.9","3425225","co37669","norming","","","{""guess"":""""}","","../img/tt/1279tt.jpg","",""
"null","../img/gs/1279gs.jpg","null","reveal","image-keyboard-response","73","475397","0.0-6.0-4.9","3425225","co37669","norming","","","","","","",""
"null","../img/tt/1279tt.jpg","null","mooney2","image-keyboard-response","74","477399","0.0-6.0-5.9","3425225","co37669","norming","","","","","","",""
"9206.120000000054","","","post_reveal_questions","survey-likert","75","486606","0.0-6.0-6.9","3425225","co37669","norming","","","{""aha"":5}","[0]","../img/tt/1279tt.jpg","",""
"null","<div style=""font-size:60px;""> </div>","null","fixation","html-keyboard-response","76","486812","0.0-6.0-0.10","3425225","co37669","norming","","","","","","",""
"null","../img/tt/1189tt.jpg","null","mooney1","image-keyboard-response","77","489821","0.0-6.0-1.10","3425225","co37669","norming","","","","","","",""
"7427.23000000004","","","post_mooney1_questions","survey-likert","78","497254","0.0-6.0-2.10","3425225","co37669","norming","","","{""curiosity"":5,""confidence"":4}","[0,1]","../img/tt/1189tt.jpg","",""
"4813.940000000002","","","recognition","survey-text","79","502070","0.0-6.0-3.10","3425225","co37669","norming","","","{""guess"":""swimmer""}","","../img/tt/1189tt.jpg","",""
"null","../img/gs/1189gs.jpg","null","reveal","image-keyboard-response","80","504079","0.0-6.0-4.10","3425225","co37669","norming","","","","","","",""
"null","../img/tt/1189tt.jpg","null","mooney2","image-keyboard-response","81","506088","0.0-6.0-5.10","3425225","co37669","norming","","","","","","",""
"11067.895000000019","","","post_reveal_questions","survey-likert","82","517158","0.0-6.0-6.10","3425225","co37669","norming","","","{""aha"":2}","[0]","../img/tt/1189tt.jpg","",""
"null","<div style=""font-size:60px;""> </div>","null","fixation","html-keyboard-response","83","517366","0.0-6.0-0.11","3425225","co37669","norming","","","","","","",""
"null","../img/tt/515tt.jpg","null","mooney1","image-keyboard-response","84","520376","0.0-6.0-1.11","3425225","co37669","norming","","","","","","",""
"12603.46000000008","","","post_mooney1_questions","survey-likert","85","532980","0.0-6.0-2.11","3425225","co37669","norming","","","{""curiosity"":5,""confidence"":0}","[0,1]","../img/tt/515tt.jpg","",""
"1422.0900000000838","","","recognition","survey-text","86","534404","0.0-6.0-3.11","3425225","co37669","norming","","","{""guess"":""""}","","../img/tt/515tt.jpg","",""
"null","../img/gs/515gs.jpg","null","reveal","image-keyboard-response","87","536415","0.0-6.0-4.11","3425225","co37669","norming","","","","","","",""
"null","../img/tt/515tt.jpg","null","mooney2","image-keyboard-response","88","538416","0.0-6.0-5.11","3425225","co37669","norming","","","","","","",""
"3825.664999999921","","","post_reveal_questions","survey-likert","89","542244","0.0-6.0-6.11","3425225","co37669","norming","","","{""aha"":5}","[0]","../img/tt/515tt.jpg","",""
"null","<div style=""font-size:60px;""> </div>","null","fixation","html-keyboard-response","90","542446","0.0-6.0-0.12","3425225","co37669","norming","","","","","","",""
"null","../img/tt/1260tt.jpg","null","mooney1","image-keyboard-response","91","545456","0.0-6.0-1.12","3425225","co37669","norming","","","","","","",""
"18753.240000000224","","","post_mooney1_questions","survey-likert","92","564212","0.0-6.0-2.12","3425225","co37669","norming","","","{""curiosity"":6,""confidence"":1}","[0,1]","../img/tt/1260tt.jpg","",""
"8014.370000000112","","","recognition","survey-text","93","572228","0.0-6.0-3.12","3425225","co37669","norming","","","{""guess"":""grass""}","","../img/tt/1260tt.jpg","",""
"null","../img/gs/1260gs.jpg","null","reveal","image-keyboard-response","94","574235","0.0-6.0-4.12","3425225","co37669","norming","","","","","","",""
"null","../img/tt/1260tt.jpg","null","mooney2","image-keyboard-response","95","576237","0.0-6.0-5.12","3425225","co37669","norming","","","","","","",""
"4972.464999999851","","","post_reveal_questions","survey-likert","96","581212","0.0-6.0-6.12","3425225","co37669","norming","","","{""aha"":4}","[0]","../img/tt/1260tt.jpg","",""
"null","<div style=""font-size:60px;""> </div>","null","fixation","html-keyboard-response","97","581417","0.0-6.0-0.13","3425225","co37669","norming","","","","","","",""
"null","../img/tt/082tt.jpg","null","mooney1","image-keyboard-response","98","584427","0.0-6.0-1.13","3425225","co37669","norming","","","","","","",""
"14198.479999999865","","","post_mooney1_questions","survey-likert","99","598625","0.0-6.0-2.13","3425225","co37669","norming","","","{""curiosity"":5,""confidence"":1}","[0,1]","../img/tt/082tt.jpg","",""
"7166.270000000019","","","recognition","survey-text","100","605793","0.0-6.0-3.13","3425225","co37669","norming","","","{""guess"":""""}","","../img/tt/082tt.jpg","",""
"null","../img/gs/082gs.jpg","null","reveal","image-keyboard-response","101","607802","0.0-6.0-4.13","3425225","co37669","norming","","","","","","",""
"null","../img/tt/082tt.jpg","null","mooney2","image-keyboard-response","102","609804","0.0-6.0-5.13","3425225","co37669","norming","","","","","","",""
"8323.284999999916","","","post_reveal_questions","survey-likert","103","618129","0.0-6.0-6.13","3425225","co37669","norming","","","{""aha"":1}","[0]","../img/tt/082tt.jpg","",""
"null","<div style=""font-size:60px;""> </div>","null","fixation","html-keyboard-response","104","618334","0.0-6.0-0.14","3425225","co37669","norming","","","","","","",""
"null","../img/tt/524tt.jpg","null","mooney1","image-keyboard-response","105","621346","0.0-6.0-1.14","3425225","co37669","norming","","","","","","",""
"14005.010000000126","","","post_mooney1_questions","survey-likert","106","635353","0.0-6.0-2.14","3425225","co37669","norming","","","{""curiosity"":6,""confidence"":3}","[0,1]","../img/tt/524tt.jpg","",""
"3365.9250000000466","","","recognition","survey-text","107","638721","0.0-6.0-3.14","3425225","co37669","norming","","","{""guess"":""bear""}","","../img/tt/524tt.jpg","",""
"null","../img/gs/524gs.jpg","null","reveal","image-keyboard-response","108","640726","0.0-6.0-4.14","3425225","co37669","norming","","","","","","",""
"null","../img/tt/524tt.jpg","null","mooney2","image-keyboard-response","109","642734","0.0-6.0-5.14","3425225","co37669","norming","","","","","","",""
"3202.1550000002608","","","post_reveal_questions","survey-likert","110","645937","0.0-6.0-6.14","3425225","co37669","norming","","","{""aha"":5}","[0]","../img/tt/524tt.jpg","",""
"null","<div style=""font-size:60px;""> </div>","null","fixation","html-keyboard-response","111","646139","0.0-6.0-0.15","3425225","co37669","norming","","","","","","",""
"null","../img/tt/123tt.jpg","null","mooney1","image-keyboard-response","112","649146","0.0-6.0-1.15","3425225","co37669","norming","","","","","","",""
"19348.840000000084","","","post_mooney1_questions","survey-likert","113","668504","0.0-6.0-2.15","3425225","co37669","norming","","","{""curiosity"":3,""confidence"":4}","[0,1]","../img/tt/123tt.jpg","",""
"15438.014999999898","","","recognition","survey-text","114","683944","0.0-6.0-3.15","3425225","co37669","norming","","","{""guess"":""tasje""}","","../img/tt/123tt.jpg","",""
"null","../img/gs/123gs.jpg","null","reveal","image-keyboard-response","115","685948","0.0-6.0-4.15","3425225","co37669","norming","","","","","","",""
"null","../img/tt/123tt.jpg","null","mooney2","image-keyboard-response","116","687959","0.0-6.0-5.15","3425225","co37669","norming","","","","","","",""
"4350.554999999935","","","post_reveal_questions","survey-likert","117","692312","0.0-6.0-6.15","3425225","co37669","norming","","","{""aha"":1}","[0]","../img/tt/123tt.jpg","",""
"null","<div style=""font-size:60px;""> </div>","null","fixation","html-keyboard-response","118","692523","0.0-6.0-0.16","3425225","co37669","norming","","","","","","",""
"null","../img/tt/1040tt.jpg","null","mooney1","image-keyboard-response","119","695530","0.0-6.0-1.16","3425225","co37669","norming","","","","","","",""
"4379.339999999967","","","post_mooney1_questions","survey-likert","120","699912","0.0-6.0-2.16","3425225","co37669","norming","","","{""curiosity"":6,""confidence"":0}","[0,1]","../img/tt/1040tt.jpg","",""
"2685.7550000000047","","","recognition","survey-text","121","702599","0.0-6.0-3.16","3425225","co37669","norming","","","{""guess"":""""}","","../img/tt/1040tt.jpg","",""
"null","../img/gs/1040gs.jpg","null","reveal","image-keyboard-response","122","704606","0.0-6.0-4.16","3425225","co37669","norming","","","","","","",""
"null","../img/tt/1040tt.jpg","null","mooney2","image-keyboard-response","123","706616","0.0-6.0-5.16","3425225","co37669","norming","","","","","","",""
"3502.774999999907","","","post_reveal_questions","survey-likert","124","710119","0.0-6.0-6.16","3425225","co37669","norming","","","{""aha"":6}","[0]","../img/tt/1040tt.jpg","",""
"null","<div style=""font-size:60px;""> </div>","null","fixation","html-keyboard-response","125","710324","0.0-6.0-0.17","3425225","co37669","norming","","","","","","",""
"null","../img/tt/013tt.jpg","null","mooney1","image-keyboard-response","126","713329","0.0-6.0-1.17","3425225","co37669","norming","","","","","","",""
"8629.435000000056","","","post_mooney1_questions","survey-likert","127","721957","0.0-6.0-2.17","3425225","co37669","norming","","","{""curiosity"":5,""confidence"":3}","[0,1]","../img/tt/013tt.jpg","",""
"6798.115000000107","","","recognition","survey-text","128","728757","0.0-6.0-3.17","3425225","co37669","norming","","","{""guess"":""station""}","","../img/tt/013tt.jpg","",""
"null","../img/gs/013gs.jpg","null","reveal","image-keyboard-response","129","730765","0.0-6.0-4.17","3425225","co37669","norming","","","","","","",""
"null","../img/tt/013tt.jpg","null","mooney2","image-keyboard-response","130","732776","0.0-6.0-5.17","3425225","co37669","norming","","","","","","",""
"1698.8800000000047","","","post_reveal_questions","survey-likert","131","734477","0.0-6.0-6.17","3425225","co37669","norming","","","{""aha"":6}","[0]","../img/tt/013tt.jpg","",""
"null","<div style=""font-size:60px;""> </div>","null","fixation","html-keyboard-response","132","734687","0.0-6.0-0.18","3425225","co37669","norming","","","","","","",""
"null","../img/tt/135tt.jpg","null","mooney1","image-keyboard-response","133","737694","0.0-6.0-1.18","3425225","co37669","norming","","","","","","",""
"7500.340000000084","","","post_mooney1_questions","survey-likert","134","745197","0.0-6.0-2.18","3425225","co37669","norming","","","{""curiosity"":1,""confidence"":6}","[0,1]","../img/tt/135tt.jpg","",""
"4053.9550000000745","","","recognition","survey-text","135","749253","0.0-6.0-3.18","3425225","co37669","norming","","","{""guess"":""toilet""}","","../img/tt/135tt.jpg","",""
"null","../img/gs/135gs.jpg","null","reveal","image-keyboard-response","136","751258","0.0-6.0-4.18","3425225","co37669","norming","","","","","","",""
"null","../img/tt/135tt.jpg","null","mooney2","image-keyboard-response","137","753260","0.0-6.0-5.18","3425225","co37669","norming","","","","","","",""
"2351.8800000002375","","","post_reveal_questions","survey-likert","138","755613","0.0-6.0-6.18","3425225","co37669","norming","","","{""aha"":0}","[0]","../img/tt/135tt.jpg","",""
"null","<div style=""font-size:60px;""> </div>","null","fixation","html-keyboard-response","139","755814","0.0-6.0-0.19","3425225","co37669","norming","","","","","","",""
"null","../img/tt/1261tt.jpg","null","mooney1","image-keyboard-response","140","758818","0.0-6.0-1.19","3425225","co37669","norming","","","","","","",""
"20305.939999999944","","","post_mooney1_questions","survey-likert","141","779125","0.0-6.0-2.19","3425225","co37669","norming","","","{""curiosity"":6,""confidence"":3}","[0,1]","../img/tt/1261tt.jpg","",""
"4125.869999999995","","","recognition","survey-text","142","783260","0.0-6.0-3.19","3425225","co37669","norming","","","{""guess"":""window""}","","../img/tt/1261tt.jpg","",""
"null","../img/gs/1261gs.jpg","null","reveal","image-keyboard-response","143","785265","0.0-6.0-4.19","3425225","co37669","norming","","","","","","",""
"null","../img/tt/1261tt.jpg","null","mooney2","image-keyboard-response","144","787266","0.0-6.0-5.19","3425225","co37669","norming","","","","","","",""
"2193.1749999998137","","","post_reveal_questions","survey-likert","145","789460","0.0-6.0-6.19","3425225","co37669","norming","","","{""aha"":6}","[0]","../img/tt/1261tt.jpg","",""
"null","<div style=""font-size:60px;""> </div>","null","fixation","html-keyboard-response","146","789662","0.0-6.0-0.20","3425225","co37669","norming","","","","","","",""
"null","../img/tt/126tt.jpg","null","mooney1","image-keyboard-response","147","792663","0.0-6.0-1.20","3425225","co37669","norming","","","","","","",""
"16363.775000000023","","","post_mooney1_questions","survey-likert","148","809028","0.0-6.0-2.20","3425225","co37669","norming","","","{""curiosity"":6,""confidence"":0}","[0,1]","../img/tt/126tt.jpg","",""
"4718.039999999921","","","recognition","survey-text","149","813747","0.0-6.0-3.20","3425225","co37669","norming","","","{""guess"":""""}","","../img/tt/126tt.jpg","",""
"null","../img/gs/126gs.jpg","null","reveal","image-keyboard-response","150","815749","0.0-6.0-4.20","3425225","co37669","norming","","","","","","",""
"null","../img/tt/126tt.jpg","null","mooney2","image-keyboard-response","151","817758","0.0-6.0-5.20","3425225","co37669","norming","","","","","","",""
"2717.265000000014","","","post_reveal_questions","survey-likert","152","820476","0.0-6.0-6.20","3425225","co37669","norming","","","{""aha"":3}","[0]","../img/tt/126tt.jpg","",""
"null","<div style=""font-size:60px;""> </div>","null","fixation","html-keyboard-response","153","820686","0.0-6.0-0.21","3425225","co37669","norming","","","","","","",""
"null","../img/tt/438tt.jpg","null","mooney1","image-keyboard-response","154","823690","0.0-6.0-1.21","3425225","co37669","norming","","","","","","",""
"6321.2200000000885","","","post_mooney1_questions","survey-likert","155","830012","0.0-6.0-2.21","3425225","co37669","norming","","","{""curiosity"":3,""confidence"":3}","[0,1]","../img/tt/438tt.jpg","",""
"3069.564999999944","","","recognition","survey-text","156","833084","0.0-6.0-3.21","3425225","co37669","norming","","","{""guess"":""bird""}","","../img/tt/438tt.jpg","",""
"null","../img/gs/438gs.jpg","null","reveal","image-keyboard-response","157","835086","0.0-6.0-4.21","3425225","co37669","norming","","","","","","",""
"null","../img/tt/438tt.jpg","null","mooney2","image-keyboard-response","158","837093","0.0-6.0-5.21","3425225","co37669","norming","","","","","","",""
"2365.425000000163","","","post_reveal_questions","survey-likert","159","839460","0.0-6.0-6.21","3425225","co37669","norming","","","{""aha"":3}","[0]","../img/tt/438tt.jpg","",""
"null","<div style=""font-size:60px;""> </div>","null","fixation","html-keyboard-response","160","839670","0.0-6.0-0.22","3425225","co37669","norming","","","","","","",""
"null","../img/tt/049tt.jpg","null","mooney1","image-keyboard-response","161","842684","0.0-6.0-1.22","3425225","co37669","norming","","","","","","",""
"5359.445000000065","","","post_mooney1_questions","survey-likert","162","848045","0.0-6.0-2.22","3425225","co37669","norming","","","{""curiosity"":5,""confidence"":0}","[0,1]","../img/tt/049tt.jpg","",""
"1478.2449999999953","","","recognition","survey-text","163","849524","0.0-6.0-3.22","3425225","co37669","norming","","","{""guess"":""""}","","../img/tt/049tt.jpg","",""
"null","../img/gs/049gs.jpg","null","reveal","image-keyboard-response","164","851529","0.0-6.0-4.22","3425225","co37669","norming","","","","","","",""
"null","../img/tt/049tt.jpg","null","mooney2","image-keyboard-response","165","853531","0.0-6.0-5.22","3425225","co37669","norming","","","","","","",""
"3176.5599999999395","","","post_reveal_questions","survey-likert","166","856708","0.0-6.0-6.22","3425225","co37669","norming","","","{""aha"":0}","[0]","../img/tt/049tt.jpg","",""
"null","<div style=""font-size:60px;""> </div>","null","fixation","html-keyboard-response","167","856912","0.0-6.0-0.23","3425225","co37669","norming","","","","","","",""
"null","../img/tt/222tt.jpg","null","mooney1","image-keyboard-response","168","859914","0.0-6.0-1.23","3425225","co37669","norming","","","","","","",""
"16431.555000000168","","","post_mooney1_questions","survey-likert","169","876349","0.0-6.0-2.23","3425225","co37669","norming","","","{""curiosity"":1,""confidence"":0}","[0,1]","../img/tt/222tt.jpg","",""
"989.9199999999255","","","recognition","survey-text","170","877340","0.0-6.0-3.23","3425225","co37669","norming","","","{""guess"":""""}","","../img/tt/222tt.jpg","",""
"null","../img/gs/222gs.jpg","null","reveal","image-keyboard-response","171","879351","0.0-6.0-4.23","3425225","co37669","norming","","","","","","",""
"null","../img/tt/222tt.jpg","null","mooney2","image-keyboard-response","172","881360","0.0-6.0-5.23","3425225","co37669","norming","","","","","","",""
"5034.380000000005","","","post_reveal_questions","survey-likert","173","886396","0.0-6.0-6.23","3425225","co37669","norming","","","{""aha"":1}","[0]","../img/tt/222tt.jpg","",""
"null","<div style=""font-size:60px;""> </div>","null","fixation","html-keyboard-response","174","886597","0.0-6.0-0.24","3425225","co37669","norming","","","","","","",""
"null","../img/tt/1251tt.jpg","null","mooney1","image-keyboard-response","175","889600","0.0-6.0-1.24","3425225","co37669","norming","","","","","","",""
"7265.644999999902","","","post_mooney1_questions","survey-likert","176","896869","0.0-6.0-2.24","3425225","co37669","norming","","","{""curiosity"":3,""confidence"":0}","[0,1]","../img/tt/1251tt.jpg","",""
"1141.6600000000326","","","recognition","survey-text","177","898012","0.0-6.0-3.24","3425225","co37669","norming","","","{""guess"":""""}","","../img/tt/1251tt.jpg","",""
"null","../img/gs/1251gs.jpg","null","reveal","image-keyboard-response","178","900016","0.0-6.0-4.24","3425225","co37669","norming","","","","","","",""
"null","../img/tt/1251tt.jpg","null","mooney2","image-keyboard-response","179","902018","0.0-6.0-5.24","3425225","co37669","norming","","","","","","",""
"2305.6500000000233","","","post_reveal_questions","survey-likert","180","904320","0.0-6.0-6.24","3425225","co37669","norming","","","{""aha"":1}","[0]","../img/tt/1251tt.jpg","",""
"null","<div style=""font-size:60px;""> </div>","null","fixation","html-keyboard-response","181","904522","0.0-6.0-0.25","3425225","co37669","norming","","","","","","",""
"null","../img/tt/094tt.jpg","null","mooney1","image-keyboard-response","182","907528","0.0-6.0-1.25","3425225","co37669","norming","","","","","","",""
"10855.090000000084","","","post_mooney1_questions","survey-likert","183","918384","0.0-6.0-2.25","3425225","co37669","norming","","","{""curiosity"":4,""confidence"":0}","[0,1]","../img/tt/094tt.jpg","",""
"1525.9499999999534","","","recognition","survey-text","184","919912","0.0-6.0-3.25","3425225","co37669","norming","","","{""guess"":""""}","","../img/tt/094tt.jpg","",""
"null","../img/gs/094gs.jpg","null","reveal","image-keyboard-response","185","921923","0.0-6.0-4.25","3425225","co37669","norming","","","","","","",""
"null","../img/tt/094tt.jpg","null","mooney2","image-keyboard-response","186","923930","0.0-6.0-5.25","3425225","co37669","norming","","","","","","",""
"2363.75","","","post_reveal_questions","survey-likert","187","926296","0.0-6.0-6.25","3425225","co37669","norming","","","{""aha"":1}","[0]","../img/tt/094tt.jpg","",""
"null","<div style=""font-size:60px;""> </div>","null","fixation","html-keyboard-response","188","926500","0.0-6.0-0.26","3425225","co37669","norming","","","","","","",""
"null","../img/tt/046tt.jpg","null","mooney1","image-keyboard-response","189","929504","0.0-6.0-1.26","3425225","co37669","norming","","","","","","",""
"4446.094999999972","","","post_mooney1_questions","survey-likert","190","933952","0.0-6.0-2.26","3425225","co37669","norming","","","{""curiosity"":4,""confidence"":0}","[0,1]","../img/tt/046tt.jpg","",""
"998.0999999999767","","","recognition","survey-text","191","934952","0.0-6.0-3.26","3425225","co37669","norming","","","{""guess"":""""}","","../img/tt/046tt.jpg","",""
"null","../img/gs/046gs.jpg","null","reveal","image-keyboard-response","192","936960","0.0-6.0-4.26","3425225","co37669","norming","","","","","","",""
"null","../img/tt/046tt.jpg","null","mooney2","image-keyboard-response","193","938963","0.0-6.0-5.26","3425225","co37669","norming","","","","","","",""
"7715.270000000135","","","post_reveal_questions","survey-likert","194","946680","0.0-6.0-6.26","3425225","co37669","norming","","","{""aha"":5}","[0]","../img/tt/046tt.jpg","",""
"null","<div style=""font-size:60px;""> </div>","null","fixation","html-keyboard-response","195","946887","0.0-6.0-0.27","3425225","co37669","norming","","","","","","",""
"null","../img/tt/080tt.jpg","null","mooney1","image-keyboard-response","196","949890","0.0-6.0-1.27","3425225","co37669","norming","","","","","","",""
"5259.70000000007","","","post_mooney1_questions","survey-likert","197","955152","0.0-6.0-2.27","3425225","co37669","norming","","","{""curiosity"":5,""confidence"":5}","[0,1]","../img/tt/080tt.jpg","",""
"12533.899999999907","","","recognition","survey-text","198","967690","0.0-6.0-3.27","3425225","co37669","norming","","","{""guess"":""mushroom""}","","../img/tt/080tt.jpg","",""
"null","../img/gs/080gs.jpg","null","reveal","image-keyboard-response","199","969693","0.0-6.0-4.27","3425225","co37669","norming","","","","","","",""
"null","../img/tt/080tt.jpg","null","mooney2","image-keyboard-response","200","971696","0.0-6.0-5.27","3425225","co37669","norming","","","","","","",""
"7152.284999999916","","","post_reveal_questions","survey-likert","201","978850","0.0-6.0-6.27","3425225","co37669","norming","","","{""aha"":5}","[0]","../img/tt/080tt.jpg","",""
"null","<div style=""font-size:60px;""> </div>","null","fixation","html-keyboard-response","202","979053","0.0-6.0-0.28","3425225","co37669","norming","","","","","","",""
"null","../img/tt/163tt.jpg","null","mooney1","image-keyboard-response","203","982064","0.0-6.0-1.28","3425225","co37669","norming","","","","","","",""
"11055.635000000126","","","post_mooney1_questions","survey-likert","204","993122","0.0-6.0-2.28","3425225","co37669","norming","","","{""curiosity"":5,""confidence"":1}","[0,1]","../img/tt/163tt.jpg","",""
"9918.229999999981","","","recognition","survey-text","205","1003042","0.0-6.0-3.28","3425225","co37669","norming","","","{""guess"":""pet""}","","../img/tt/163tt.jpg","",""
"null","../img/gs/163gs.jpg","null","reveal","image-keyboard-response","206","1005044","0.0-6.0-4.28","3425225","co37669","norming","","","","","","",""
"null","../img/tt/163tt.jpg","null","mooney2","image-keyboard-response","207","1007046","0.0-6.0-5.28","3425225","co37669","norming","","","","","","",""
"2778.0650000000605","","","post_reveal_questions","survey-likert","208","1009826","0.0-6.0-6.28","3425225","co37669","norming","","","{""aha"":1}","[0]","../img/tt/163tt.jpg","",""
"null","<div style=""font-size:60px;""> </div>","null","fixation","html-keyboard-response","209","1010028","0.0-6.0-0.29","3425225","co37669","norming","","","","","","",""
"null","../img/tt/1151tt.jpg","null","mooney1","image-keyboard-response","210","1013035","0.0-6.0-1.29","3425225","co37669","norming","","","","","","",""
"6540.749999999884","","","post_mooney1_questions","survey-likert","211","1019579","0.0-6.0-2.29","3425225","co37669","norming","","","{""curiosity"":3,""confidence"":0}","[0,1]","../img/tt/1151tt.jpg","",""
"1589.7900000000373","","","recognition","survey-text","212","1021170","0.0-6.0-3.29","3425225","co37669","norming","","","{""guess"":""""}","","../img/tt/1151tt.jpg","",""
"null","../img/gs/1151gs.jpg","null","reveal","image-keyboard-response","213","1023179","0.0-6.0-4.29","3425225","co37669","norming","","","","","","",""
"null","../img/tt/1151tt.jpg","null","mooney2","image-keyboard-response","214","1025185","0.0-6.0-5.29","3425225","co37669","norming","","","","","","",""
"1279.7999999998137","","","post_reveal_questions","survey-likert","215","1026467","0.0-6.0-6.29","3425225","co37669","norming","","","{""aha"":3}","[0]","../img/tt/1151tt.jpg","",""
"null","<div style=""font-size:60px;""> </div>","null","fixation","html-keyboard-response","216","1026668","0.0-6.0-0.30","3425225","co37669","norming","","","","","","",""
"null","../img/tt/1196tt.jpg","null","mooney1","image-keyboard-response","217","1029670","0.0-6.0-1.30","3425225","co37669","norming","","","","","","",""
"11026.340000000433","","","post_mooney1_questions","survey-likert","218","1040699","0.0-6.0-2.30","3425225","co37669","norming","","","{""curiosity"":2,""confidence"":0}","[0,1]","../img/tt/1196tt.jpg","",""
"1261.8750000001164","","","recognition","survey-text","219","1041963","0.0-6.0-3.30","3425225","co37669","norming","","","{""guess"":""""}","","../img/tt/1196tt.jpg","",""
"null","../img/gs/1196gs.jpg","null","reveal","image-keyboard-response","220","1043970","0.0-6.0-4.30","3425225","co37669","norming","","","","","","",""
"null","../img/tt/1196tt.jpg","null","mooney2","image-keyboard-response","221","1045979","0.0-6.0-5.30","3425225","co37669","norming","","","","","","",""
"5181.845000000205","","","post_reveal_questions","survey-likert","222","1051163","0.0-6.0-6.30","3425225","co37669","norming","","","{""aha"":1}","[0]","../img/tt/1196tt.jpg","",""
"null","<div style=""font-size:60px;""> </div>","null","fixation","html-keyboard-response","223","1051369","0.0-6.0-0.31","3425225","co37669","norming","","","","","","",""
"null","../img/tt/036tt.jpg","null","mooney1","image-keyboard-response","224","1054376","0.0-6.0-1.31","3425225","co37669","norming","","","","","","",""
"9200.975000000093","","","post_mooney1_questions","survey-likert","225","1063579","0.0-6.0-2.31","3425225","co37669","norming","","","{""curiosity"":4,""confidence"":1}","[0,1]","../img/tt/036tt.jpg","",""
"4390.169999999693","","","recognition","survey-text","226","1067971","0.0-6.0-3.31","3425225","co37669","norming","","","{""guess"":""""}","","../img/tt/036tt.jpg","",""
"null","../img/gs/036gs.jpg","null","reveal","image-keyboard-response","227","1069972","0.0-6.0-4.31","3425225","co37669","norming","","","","","","",""
"null","../img/tt/036tt.jpg","null","mooney2","image-keyboard-response","228","1071978","0.0-6.0-5.31","3425225","co37669","norming","","","","","","",""
"3766.5800000000745","","","post_reveal_questions","survey-likert","229","1075747","0.0-6.0-6.31","3425225","co37669","norming","","","{""aha"":2}","[0]","../img/tt/036tt.jpg","",""
"null","<div style=""font-size:60px;""> </div>","null","fixation","html-keyboard-response","230","1075950","0.0-6.0-0.32","3425225","co37669","norming","","","","","","",""
"null","../img/tt/1142tt.jpg","null","mooney1","image-keyboard-response","231","1078954","0.0-6.0-1.32","3425225","co37669","norming","","","","","","",""
"13222.459999999963","","","post_mooney1_questions","survey-likert","232","1092177","0.0-6.0-2.32","3425225","co37669","norming","","","{""curiosity"":5,""confidence"":3}","[0,1]","../img/tt/1142tt.jpg","",""
"16046.0550000004","","","recognition","survey-text","233","1108224","0.0-6.0-3.32","3425225","co37669","norming","","","{""guess"":""sporter""}","","../img/tt/1142tt.jpg","",""
"null","../img/gs/1142gs.jpg","null","reveal","image-keyboard-response","234","1110226","0.0-6.0-4.32","3425225","co37669","norming","","","","","","",""
"null","../img/tt/1142tt.jpg","null","mooney2","image-keyboard-response","235","1112228","0.0-6.0-5.32","3425225","co37669","norming","","","","","","",""
"3329.7649999998976","","","post_reveal_questions","survey-likert","236","1115560","0.0-6.0-6.32","3425225","co37669","norming","","","{""aha"":4}","[0]","../img/tt/1142tt.jpg","",""
"null","<div style=""font-size:60px;""> </div>","null","fixation","html-keyboard-response","237","1115771","0.0-6.0-0.33","3425225","co37669","norming","","","","","","",""
"null","../img/tt/412tt.jpg","null","mooney1","image-keyboard-response","238","1118774","0.0-6.0-1.33","3425225","co37669","norming","","","","","","",""
"14023.569999999832","","","post_mooney1_questions","survey-likert","239","1132801","0.0-6.0-2.33","3425225","co37669","norming","","","{""curiosity"":2,""confidence"":0}","[0,1]","../img/tt/412tt.jpg","",""
"3525.940000000177","","","recognition","survey-text","240","1136328","0.0-6.0-3.33","3425225","co37669","norming","","","{""guess"":""""}","","../img/tt/412tt.jpg","",""
"null","../img/gs/412gs.jpg","null","reveal","image-keyboard-response","241","1138333","0.0-6.0-4.33","3425225","co37669","norming","","","","","","",""
"null","../img/tt/412tt.jpg","null","mooney2","image-keyboard-response","242","1140340","0.0-6.0-5.33","3425225","co37669","norming","","","","","","",""
"5026.3300000000745","","","post_reveal_questions","survey-likert","243","1145368","0.0-6.0-6.33","3425225","co37669","norming","","","{""aha"":1}","[0]","../img/tt/412tt.jpg","",""
"null","<div style=""font-size:60px;""> </div>","null","fixation","html-keyboard-response","244","1145569","0.0-6.0-0.34","3425225","co37669","norming","","","","","","",""
"null","../img/tt/1033tt.jpg","null","mooney1","image-keyboard-response","245","1148585","0.0-6.0-1.34","3425225","co37669","norming","","","","","","",""
"9547.26500000013","","","post_mooney1_questions","survey-likert","246","1158135","0.0-6.0-2.34","3425225","co37669","norming","","","{""curiosity"":6,""confidence"":3}","[0,1]","../img/tt/1033tt.jpg","",""
"9806.199999999953","","","recognition","survey-text","247","1167943","0.0-6.0-3.34","3425225","co37669","norming","","","{""guess"":""horse""}","","../img/tt/1033tt.jpg","",""
"null","../img/gs/1033gs.jpg","null","reveal","image-keyboard-response","248","1169947","0.0-6.0-4.34","3425225","co37669","norming","","","","","","",""
"null","../img/tt/1033tt.jpg","null","mooney2","image-keyboard-response","249","1171949","0.0-6.0-5.34","3425225","co37669","norming","","","","","","",""
"1585.6650000000373","","","post_reveal_questions","survey-likert","250","1173535","0.0-6.0-6.34","3425225","co37669","norming","","","{""aha"":1}","[0]","../img/tt/1033tt.jpg","",""
"null","<div style=""font-size:60px;""> </div>","null","fixation","html-keyboard-response","251","1173746","0.0-6.0-0.35","3425225","co37669","norming","","","","","","",""
"null","../img/tt/098tt.jpg","null","mooney1","image-keyboard-response","252","1176750","0.0-6.0-1.35","3425225","co37669","norming","","","","","","",""
"10160.314999999944","","","post_mooney1_questions","survey-likert","253","1186911","0.0-6.0-2.35","3425225","co37669","norming","","","{""curiosity"":3,""confidence"":0}","[0,1]","../img/tt/098tt.jpg","",""
"1926.1350000002421","","","recognition","survey-text","254","1188839","0.0-6.0-3.35","3425225","co37669","norming","","","{""guess"":""""}","","../img/tt/098tt.jpg","",""
"null","../img/gs/098gs.jpg","null","reveal","image-keyboard-response","255","1190845","0.0-6.0-4.35","3425225","co37669","norming","","","","","","",""
"null","../img/tt/098tt.jpg","null","mooney2","image-keyboard-response","256","1192847","0.0-6.0-5.35","3425225","co37669","norming","","","","","","",""
"7342.40000000014","","","post_reveal_questions","survey-likert","257","1200191","0.0-6.0-6.35","3425225","co37669","norming","","","{""aha"":1}","[0]","../img/tt/098tt.jpg","",""
"null","<div style=""font-size:60px;""> </div>","null","fixation","html-keyboard-response","258","1200402","0.0-6.0-0.36","3425225","co37669","norming","","","","","","",""
"null","../img/tt/1080tt.jpg","null","mooney1","image-keyboard-response","259","1203406","0.0-6.0-1.36","3425225","co37669","norming","","","","","","",""
"21894.764999999432","","","post_mooney1_questions","survey-likert","260","1225303","0.0-6.0-2.36","3425225","co37669","norming","","","{""curiosity"":6,""confidence"":0}","[0,1]","../img/tt/1080tt.jpg","",""
"1829.8749999997672","","","recognition","survey-text","261","1227135","0.0-6.0-3.36","3425225","co37669","norming","","","{""guess"":""""}","","../img/tt/1080tt.jpg","",""
"null","../img/gs/1080gs.jpg","null","reveal","image-keyboard-response","262","1229144","0.0-6.0-4.36","3425225","co37669","norming","","","","","","",""
"null","../img/tt/1080tt.jpg","null","mooney2","image-keyboard-response","263","1231151","0.0-6.0-5.36","3425225","co37669","norming","","","","","","",""
"2653.5600000002887","","","post_reveal_questions","survey-likert","264","1233807","0.0-6.0-6.36","3425225","co37669","norming","","","{""aha"":0}","[0]","../img/tt/1080tt.jpg","",""
"null","<div style=""font-size:60px;""> </div>","null","fixation","html-keyboard-response","265","1234009","0.0-6.0-0.37","3425225","co37669","norming","","","","","","",""
"null","../img/tt/1037tt.jpg","null","mooney1","image-keyboard-response","266","1237012","0.0-6.0-1.37","3425225","co37669","norming","","","","","","",""
"12287.970000000438","","","post_mooney1_questions","survey-likert","267","1249303","0.0-6.0-2.37","3425225","co37669","norming","","","{""curiosity"":6,""confidence"":0}","[0,1]","../img/tt/1037tt.jpg","",""
"2805.850000000093","","","recognition","survey-text","268","1252111","0.0-6.0-3.37","3425225","co37669","norming","","","{""guess"":""""}","","../img/tt/1037tt.jpg","",""
"null","../img/gs/1037gs.jpg","null","reveal","image-keyboard-response","269","1254119","0.0-6.0-4.37","3425225","co37669","norming","","","","","","",""
"null","../img/tt/1037tt.jpg","null","mooney2","image-keyboard-response","270","1256121","0.0-6.0-5.37","3425225","co37669","norming","","","","","","",""
"4164.04000000027","","","post_reveal_questions","survey-likert","271","1260287","0.0-6.0-6.37","3425225","co37669","norming","","","{""aha"":1}","[0]","../img/tt/1037tt.jpg","",""
"null","<div style=""font-size:60px;""> </div>","null","fixation","html-keyboard-response","272","1260493","0.0-6.0-0.38","3425225","co37669","norming","","","","","","",""
"null","../img/tt/1125tt.jpg","null","mooney1","image-keyboard-response","273","1263500","0.0-6.0-1.38","3425225","co37669","norming","","","","","","",""
"19984.115000000224","","","post_mooney1_questions","survey-likert","274","1283488","0.0-6.0-2.38","3425225","co37669","norming","","","{""curiosity"":6,""confidence"":0}","[0,1]","../img/tt/1125tt.jpg","",""
"12405.850000000093","","","recognition","survey-text","275","1295895","0.0-6.0-3.38","3425225","co37669","norming","","","{""guess"":""""}","","../img/tt/1125tt.jpg","",""
"null","../img/gs/1125gs.jpg","null","reveal","image-keyboard-response","276","1297902","0.0-6.0-4.38","3425225","co37669","norming","","","","","","",""
"null","../img/tt/1125tt.jpg","null","mooney2","image-keyboard-response","277","1299904","0.0-6.0-5.38","3425225","co37669","norming","","","","","","",""
"3804.7950000001583","","","post_reveal_questions","survey-likert","278","1303711","0.0-6.0-6.38","3425225","co37669","norming","","","{""aha"":0}","[0]","../img/tt/1125tt.jpg","",""
"null","<div style=""font-size:60px;""> </div>","null","fixation","html-keyboard-response","279","1303913","0.0-6.0-0.39","3425225","co37669","norming","","","","","","",""
"null","../img/tt/1089tt.jpg","null","mooney1","image-keyboard-response","280","1306920","0.0-6.0-1.39","3425225","co37669","norming","","","","","","",""
"5796.449999999953","","","post_mooney1_questions","survey-likert","281","1312720","0.0-6.0-2.39","3425225","co37669","norming","","","{""curiosity"":3,""confidence"":6}","[0,1]","../img/tt/1089tt.jpg","",""
"5814.030000000028","","","recognition","survey-text","282","1318535","0.0-6.0-3.39","3425225","co37669","norming","","","{""guess"":""elephants""}","","../img/tt/1089tt.jpg","",""
"null","../img/gs/1089gs.jpg","null","reveal","image-keyboard-response","283","1320538","0.0-6.0-4.39","3425225","co37669","norming","","","","","","",""
"null","../img/tt/1089tt.jpg","null","mooney2","image-keyboard-response","284","1322543","0.0-6.0-5.39","3425225","co37669","norming","","","","","","",""
"3829.970000000205","","","post_reveal_questions","survey-likert","285","1326376","0.0-6.0-6.39","3425225","co37669","norming","","","{""aha"":5}","[0]","../img/tt/1089tt.jpg","",""
"null","<div style=""font-size:60px;""> </div>","null","fixation","html-keyboard-response","286","1326582","0.0-6.0-0.40","3425225","co37669","norming","","","","","","",""
"null","../img/tt/001tt.jpg","null","mooney1","image-keyboard-response","287","1329591","0.0-6.0-1.40","3425225","co37669","norming","","","","","","",""
"8237.369999999879","","","post_mooney1_questions","survey-likert","288","1337832","0.0-6.0-2.40","3425225","co37669","norming","","","{""curiosity"":5,""confidence"":1}","[0,1]","../img/tt/001tt.jpg","",""
"1198.095000000205","","","recognition","survey-text","289","1339031","0.0-6.0-3.40","3425225","co37669","norming","","","{""guess"":""""}","","../img/tt/001tt.jpg","",""
"null","../img/gs/001gs.jpg","null","reveal","image-keyboard-response","290","1341041","0.0-6.0-4.40","3425225","co37669","norming","","","","","","",""
"null","../img/tt/001tt.jpg","null","mooney2","image-keyboard-response","291","1343049","0.0-6.0-5.40","3425225","co37669","norming","","","","","","",""
"1507.7899999995716","","","post_reveal_questions","survey-likert","292","1344559","0.0-6.0-6.40","3425225","co37669","norming","","","{""aha"":1}","[0]","../img/tt/001tt.jpg","",""
"null","<div style=""font-size:60px;""> </div>","null","fixation","html-keyboard-response","293","1344766","0.0-6.0-0.41","3425225","co37669","norming","","","","","","",""
"null","../img/tt/580tt.jpg","null","mooney1","image-keyboard-response","294","1347777","0.0-6.0-1.41","3425225","co37669","norming","","","","","","",""
"7386.854999999981","","","post_mooney1_questions","survey-likert","295","1355168","0.0-6.0-2.41","3425225","co37669","norming","","","{""curiosity"":2,""confidence"":0}","[0,1]","../img/tt/580tt.jpg","",""
"1157.9900000002235","","","recognition","survey-text","296","1356327","0.0-6.0-3.41","3425225","co37669","norming","","","{""guess"":""""}","","../img/tt/580tt.jpg","",""
"null","../img/gs/580gs.jpg","null","reveal","image-keyboard-response","297","1358329","0.0-6.0-4.41","3425225","co37669","norming","","","","","","",""
"null","../img/tt/580tt.jpg","null","mooney2","image-keyboard-response","298","1360331","0.0-6.0-5.41","3425225","co37669","norming","","","","","","",""
"2433.7700000000186","","","post_reveal_questions","survey-likert","299","1362767","0.0-6.0-6.41","3425225","co37669","norming","","","{""aha"":1}","[0]","../img/tt/580tt.jpg","",""
"null","<div style=""font-size:60px;""> </div>","null","fixation","html-keyboard-response","300","1362978","0.0-6.0-0.42","3425225","co37669","norming","","","","","","",""
"null","../img/tt/435tt.jpg","null","mooney1","image-keyboard-response","301","1365985","0.0-6.0-1.42","3425225","co37669","norming","","","","","","",""
"5586.844999999739","","","post_mooney1_questions","survey-likert","302","1371575","0.0-6.0-2.42","3425225","co37669","norming","","","{""curiosity"":3,""confidence"":6}","[0,1]","../img/tt/435tt.jpg","",""
"7950.455000000307","","","recognition","survey-text","303","1379527","0.0-6.0-3.42","3425225","co37669","norming","","","{""guess"":""billards""}","","../img/tt/435tt.jpg","",""
"null","../img/gs/435gs.jpg","null","reveal","image-keyboard-response","304","1381534","0.0-6.0-4.42","3425225","co37669","norming","","","","","","",""
"null","../img/tt/435tt.jpg","null","mooney2","image-keyboard-response","305","1383536","0.0-6.0-5.42","3425225","co37669","norming","","","","","","",""
"2554.279999999795","","","post_reveal_questions","survey-likert","306","1386095","0.0-6.0-6.42","3425225","co37669","norming","","","{""aha"":6}","[0]","../img/tt/435tt.jpg","",""
"null","<div style=""font-size:60px;""> </div>","null","fixation","html-keyboard-response","307","1386300","0.0-6.0-0.43","3425225","co37669","norming","","","","","","",""
"null","../img/tt/063tt.jpg","null","mooney1","image-keyboard-response","308","1389307","0.0-6.0-1.43","3425225","co37669","norming","","","","","","",""
"8112.730000000214","","","post_mooney1_questions","survey-likert","309","1397424","0.0-6.0-2.43","3425225","co37669","norming","","","{""curiosity"":0,""confidence"":6}","[0,1]","../img/tt/063tt.jpg","",""
"13557.964999999851","","","recognition","survey-text","310","1410978","0.0-6.0-3.43","3425225","co37669","norming","","","{""guess"":""typingmachine""}","","../img/tt/063tt.jpg","",""
"null","../img/gs/063gs.jpg","null","reveal","image-keyboard-response","311","1412987","0.0-6.0-4.43","3425225","co37669","norming","","","","","","",""
"null","../img/tt/063tt.jpg","null","mooney2","image-keyboard-response","312","1414992","0.0-6.0-5.43","3425225","co37669","norming","","","","","","",""
"2681.399999999907","","","post_reveal_questions","survey-likert","313","1417674","0.0-6.0-6.43","3425225","co37669","norming","","","{""aha"":6}","[0]","../img/tt/063tt.jpg","",""
"null","<div style=""font-size:60px;""> </div>","null","fixation","html-keyboard-response","314","1417883","0.0-6.0-0.44","3425225","co37669","norming","","","","","","",""
"null","../img/tt/380tt.jpg","null","mooney1","image-keyboard-response","315","1420895","0.0-6.0-1.44","3425225","co37669","norming","","","","","","",""
"4072.774999999674","","","post_mooney1_questions","survey-likert","316","1424971","0.0-6.0-2.44","3425225","co37669","norming","","","{""curiosity"":6,""confidence"":0}","[0,1]","../img/tt/380tt.jpg","",""
"2573.440000000177","","","recognition","survey-text","317","1427546","0.0-6.0-3.44","3425225","co37669","norming","","","{""guess"":""""}","","../img/tt/380tt.jpg","",""
"null","../img/gs/380gs.jpg","null","reveal","image-keyboard-response","318","1429547","0.0-6.0-4.44","3425225","co37669","norming","","","","","","",""
"null","../img/tt/380tt.jpg","null","mooney2","image-keyboard-response","319","1431549","0.0-6.0-5.44","3425225","co37669","norming","","","","","","",""
"2243.1649999998044","","","post_reveal_questions","survey-likert","320","1433794","0.0-6.0-6.44","3425225","co37669","norming","","","{""aha"":0}","[0]","../img/tt/380tt.jpg","",""
"null","<div style=""font-size:60px;""> </div>","null","fixation","html-keyboard-response","321","1433998","0.0-6.0-0.45","3425225","co37669","norming","","","","","","",""
"null","../img/tt/319tt.jpg","null","mooney1","image-keyboard-response","322","1437005","0.0-6.0-1.45","3425225","co37669","norming","","","","","","",""
"25739.88500000001","","","post_mooney1_questions","survey-likert","323","1462752","0.0-6.0-2.45","3425225","co37669","norming","","","{""curiosity"":3,""confidence"":0}","[0,1]","../img/tt/319tt.jpg","",""
"1774.0649999999441","","","recognition","survey-text","324","1464527","0.0-6.0-3.45","3425225","co37669","norming","","","{""guess"":""""}","","../img/tt/319tt.jpg","",""
"null","../img/gs/319gs.jpg","null","reveal","image-keyboard-response","325","1466537","0.0-6.0-4.45","3425225","co37669","norming","","","","","","",""
"null","../img/tt/319tt.jpg","null","mooney2","image-keyboard-response","326","1468539","0.0-6.0-5.45","3425225","co37669","norming","","","","","","",""
"4649.620000000112","","","post_reveal_questions","survey-likert","327","1473192","0.0-6.0-6.45","3425225","co37669","norming","","","{""aha"":0}","[0]","../img/tt/319tt.jpg","",""
"null","<div style=""font-size:60px;""> </div>","null","fixation","html-keyboard-response","328","1473402","0.0-6.0-0.46","3425225","co37669","norming","","","","","","",""
"null","../img/tt/1309tt.jpg","null","mooney1","image-keyboard-response","329","1476409","0.0-6.0-1.46","3425225","co37669","norming","","","","","","",""
"9899.090000000084","","","post_mooney1_questions","survey-likert","330","1486312","0.0-6.0-2.46","3425225","co37669","norming","","","{""curiosity"":4,""confidence"":3}","[0,1]","../img/tt/1309tt.jpg","",""
"6190.030000000261","","","recognition","survey-text","331","1492504","0.0-6.0-3.46","3425225","co37669","norming","","","{""guess"":""forest""}","","../img/tt/1309tt.jpg","",""
"null","../img/gs/1309gs.jpg","null","reveal","image-keyboard-response","332","1494511","0.0-6.0-4.46","3425225","co37669","norming","","","","","","",""
"null","../img/tt/1309tt.jpg","null","mooney2","image-keyboard-response","333","1496513","0.0-6.0-5.46","3425225","co37669","norming","","","","","","",""
"1580.0000000002328","","","post_reveal_questions","survey-likert","334","1498096","0.0-6.0-6.46","3425225","co37669","norming","","","{""aha"":5}","[0]","../img/tt/1309tt.jpg","",""
"null","<div style=""font-size:60px;""> </div>","null","fixation","html-keyboard-response","335","1498300","0.0-6.0-0.47","3425225","co37669","norming","","","","","","",""
"null","../img/tt/1235tt.jpg","null","mooney1","image-keyboard-response","336","1501310","0.0-6.0-1.47","3425225","co37669","norming","","","","","","",""
"5430.154999999795","","","post_mooney1_questions","survey-likert","337","1506743","0.0-6.0-2.47","3425225","co37669","norming","","","{""curiosity"":5,""confidence"":1}","[0,1]","../img/tt/1235tt.jpg","",""
"9069.715000000084","","","recognition","survey-text","338","1515815","0.0-6.0-3.47","3425225","co37669","norming","","","{""guess"":""animals""}","","../img/tt/1235tt.jpg","",""
"null","../img/gs/1235gs.jpg","null","reveal","image-keyboard-response","339","1517819","0.0-6.0-4.47","3425225","co37669","norming","","","","","","",""
"null","../img/tt/1235tt.jpg","null","mooney2","image-keyboard-response","340","1519821","0.0-6.0-5.47","3425225","co37669","norming","","","","","","",""
"6383.559999999823","","","post_reveal_questions","survey-likert","341","1526199","0.0-6.0-6.47","3425225","co37669","norming","","","{""aha"":3}","[0]","../img/tt/1235tt.jpg","",""
"null","<div style=""font-size:60px;""> </div>","null","fixation","html-keyboard-response","342","1526402","0.0-6.0-0.48","3425225","co37669","norming","","","","","","",""
"null","../img/tt/1227tt.jpg","null","mooney1","image-keyboard-response","343","1529410","0.0-6.0-1.48","3425225","co37669","norming","","","","","","",""
"5930.23499999987","","","post_mooney1_questions","survey-likert","344","1535343","0.0-6.0-2.48","3425225","co37669","norming","","","{""curiosity"":5,""confidence"":0}","[0,1]","../img/tt/1227tt.jpg","",""
"957.7100000001956","","","recognition","survey-text","345","1536303","0.0-6.0-3.48","3425225","co37669","norming","","","{""guess"":""""}","","../img/tt/1227tt.jpg","",""
"null","../img/gs/1227gs.jpg","null","reveal","image-keyboard-response","346","1538307","0.0-6.0-4.48","3425225","co37669","norming","","","","","","",""
"null","../img/tt/1227tt.jpg","null","mooney2","image-keyboard-response","347","1540311","0.0-6.0-5.48","3425225","co37669","norming","","","","","","",""
"2748.8300000000745","","","post_reveal_questions","survey-likert","348","1543063","0.0-6.0-6.48","3425225","co37669","norming","","","{""aha"":0}","[0]","../img/tt/1227tt.jpg","",""
"null","<div style=""font-size:60px;""> </div>","null","fixation","html-keyboard-response","349","1543264","0.0-6.0-0.49","3425225","co37669","norming","","","","","","",""
"null","../img/tt/1205tt.jpg","null","mooney1","image-keyboard-response","350","1546269","0.0-6.0-1.49","3425225","co37669","norming","","","","","","",""
"16654.840000000084","","","post_mooney1_questions","survey-likert","351","1562927","0.0-6.0-2.49","3425225","co37669","norming","","","{""curiosity"":3,""confidence"":6}","[0,1]","../img/tt/1205tt.jpg","",""
"4909.969999999739","","","recognition","survey-text","352","1567839","0.0-6.0-3.49","3425225","co37669","norming","","","{""guess"":""aikido""}","","../img/tt/1205tt.jpg","",""
"null","../img/gs/1205gs.jpg","null","reveal","image-keyboard-response","353","1569840","0.0-6.0-4.49","3425225","co37669","norming","","","","","","",""
"null","../img/tt/1205tt.jpg","null","mooney2","image-keyboard-response","354","1571845","0.0-6.0-5.49","3425225","co37669","norming","","","","","","",""
"2295.185000000056","","","post_reveal_questions","survey-likert","355","1574143","0.0-6.0-6.49","3425225","co37669","norming","","","{""aha"":6}","[0]","../img/tt/1205tt.jpg","",""
"null","<div style=""font-size:60px;""> </div>","null","fixation","html-keyboard-response","356","1574349","0.0-6.0-0.50","3425225","co37669","norming","","","","","","",""
"null","../img/tt/1043tt.jpg","null","mooney1","image-keyboard-response","357","1577353","0.0-6.0-1.50","3425225","co37669","norming","","","","","","",""
"8147.04000000027","","","post_mooney1_questions","survey-likert","358","1585504","0.0-6.0-2.50","3425225","co37669","norming","","","{""curiosity"":6,""confidence"":0}","[0,1]","../img/tt/1043tt.jpg","",""
"14861.985000000102","","","recognition","survey-text","359","1600368","0.0-6.0-3.50","3425225","co37669","norming","","","{""guess"":""""}","","../img/tt/1043tt.jpg","",""
"null","../img/gs/1043gs.jpg","null","reveal","image-keyboard-response","360","1602376","0.0-6.0-4.50","3425225","co37669","norming","","","","","","",""
"null","../img/tt/1043tt.jpg","null","mooney2","image-keyboard-response","361","1604383","0.0-6.0-5.50","3425225","co37669","norming","","","","","","",""
"9158.835000000196","","","post_reveal_questions","survey-likert","362","1613544","0.0-6.0-6.50","3425225","co37669","norming","","","{""aha"":3}","[0]","../img/tt/1043tt.jpg","",""
"null","<div style=""font-size:60px;""> </div>","null","fixation","html-keyboard-response","363","1613748","0.0-6.0-0.51","3425225","co37669","norming","","","","","","",""
"null","../img/tt/1217tt.jpg","null","mooney1","image-keyboard-response","364","1616756","0.0-6.0-1.51","3425225","co37669","norming","","","","","","",""
"7219.255000000121","","","post_mooney1_questions","survey-likert","365","1623976","0.0-6.0-2.51","3425225","co37669","norming","","","{""curiosity"":6,""confidence"":0}","[0,1]","../img/tt/1217tt.jpg","",""
"5469.854999999981","","","recognition","survey-text","366","1629448","0.0-6.0-3.51","3425225","co37669","norming","","","{""guess"":""""}","","../img/tt/1217tt.jpg","",""
"null","../img/gs/1217gs.jpg","null","reveal","image-keyboard-response","367","1631454","0.0-6.0-4.51","3425225","co37669","norming","","","","","","",""
"null","../img/tt/1217tt.jpg","null","mooney2","image-keyboard-response","368","1633464","0.0-6.0-5.51","3425225","co37669","norming","","","","","","",""
"1845.5250000001397","","","post_reveal_questions","survey-likert","369","1635312","0.0-6.0-6.51","3425225","co37669","norming","","","{""aha"":3}","[0]","../img/tt/1217tt.jpg","",""
"null","<div style=""font-size:60px;""> </div>","null","fixation","html-keyboard-response","370","1635520","0.0-6.0-0.52","3425225","co37669","norming","","","","","","",""
"null","../img/tt/1024tt.jpg","null","mooney1","image-keyboard-response","371","1638526","0.0-6.0-1.52","3425225","co37669","norming","","","","","","",""
"7854.744999999646","","","post_mooney1_questions","survey-likert","372","1646383","0.0-6.0-2.52","3425225","co37669","norming","","","{""curiosity"":5,""confidence"":1}","[0,1]","../img/tt/1024tt.jpg","",""
"4133.654999999562","","","recognition","survey-text","373","1650519","0.0-6.0-3.52","3425225","co37669","norming","","","{""guess"":""""}","","../img/tt/1024tt.jpg","",""
"null","../img/gs/1024gs.jpg","null","reveal","image-keyboard-response","374","1652525","0.0-6.0-4.52","3425225","co37669","norming","","","","","","",""
"null","../img/tt/1024tt.jpg","null","mooney2","image-keyboard-response","375","1654527","0.0-6.0-5.52","3425225","co37669","norming","","","","","","",""
"6789.714999999851","","","post_reveal_questions","survey-likert","376","1661319","0.0-6.0-6.52","3425225","co37669","norming","","","{""aha"":3}","[0]","../img/tt/1024tt.jpg","",""
"null","<div style=""font-size:60px;""> </div>","null","fixation","html-keyboard-response","377","1661528","0.0-6.0-0.53","3425225","co37669","norming","","","","","","",""
"null","../img/tt/603tt.jpg","null","mooney1","image-keyboard-response","378","1664537","0.0-6.0-1.53","3425225","co37669","norming","","","","","","",""
"5330.910000000149","","","post_mooney1_questions","survey-likert","379","1669871","0.0-6.0-2.53","3425225","co37669","norming","","","{""curiosity"":6,""confidence"":3}","[0,1]","../img/tt/603tt.jpg","",""
"5101.944999999832","","","recognition","survey-text","380","1674975","0.0-6.0-3.53","3425225","co37669","norming","","","{""guess"":""portrait""}","","../img/tt/603tt.jpg","",""
"null","../img/gs/603gs.jpg","null","reveal","image-keyboard-response","381","1676982","0.0-6.0-4.53","3425225","co37669","norming","","","","","","",""
"null","../img/tt/603tt.jpg","null","mooney2","image-keyboard-response","382","1678993","0.0-6.0-5.53","3425225","co37669","norming","","","","","","",""
"3875.7249999998603","","","post_reveal_questions","survey-likert","383","1682871","0.0-6.0-6.53","3425225","co37669","norming","","","{""aha"":4}","[0]","../img/tt/603tt.jpg","",""
"null","<div style=""font-size:60px;""> </div>","null","fixation","html-keyboard-response","384","1683082","0.0-6.0-0.54","3425225","co37669","norming","","","","","","",""
"null","../img/tt/1232tt.jpg","null","mooney1","image-keyboard-response","385","1686091","0.0-6.0-1.54","3425225","co37669","norming","","","","","","",""
"18400.459999999963","","","post_mooney1_questions","survey-likert","386","1704495","0.0-6.0-2.54","3425225","co37669","norming","","","{""curiosity"":1,""confidence"":0}","[0,1]","../img/tt/1232tt.jpg","",""
"966.0549999999348","","","recognition","survey-text","387","1705463","0.0-6.0-3.54","3425225","co37669","norming","","","{""guess"":""""}","","../img/tt/1232tt.jpg","",""
"null","../img/gs/1232gs.jpg","null","reveal","image-keyboard-response","388","1707477","0.0-6.0-4.54","3425225","co37669","norming","","","","","","",""
"null","../img/tt/1232tt.jpg","null","mooney2","image-keyboard-response","389","1709482","0.0-6.0-5.54","3425225","co37669","norming","","","","","","",""
"1893.3849999997765","","","post_reveal_questions","survey-likert","390","1711378","0.0-6.0-6.54","3425225","co37669","norming","","","{""aha"":3}","[0]","../img/tt/1232tt.jpg","",""
"null","<div style=""font-size:60px;""> </div>","null","fixation","html-keyboard-response","391","1711587","0.0-6.0-0.55","3425225","co37669","norming","","","","","","",""
"null","../img/tt/405tt.jpg","null","mooney1","image-keyboard-response","392","1714590","0.0-6.0-1.55","3425225","co37669","norming","","","","","","",""
"3528.399999999674","","","post_mooney1_questions","survey-likert","393","1718122","0.0-6.0-2.55","3425225","co37669","norming","","","{""curiosity"":3,""confidence"":4}","[0,1]","../img/tt/405tt.jpg","",""
"6093.8650000002235","","","recognition","survey-text","394","1724217","0.0-6.0-3.55","3425225","co37669","norming","","","{""guess"":""baseballer""}","","../img/tt/405tt.jpg","",""
"null","../img/gs/405gs.jpg","null","reveal","image-keyboard-response","395","1726228","0.0-6.0-4.55","3425225","co37669","norming","","","","","","",""
"null","../img/tt/405tt.jpg","null","mooney2","image-keyboard-response","396","1728232","0.0-6.0-5.55","3425225","co37669","norming","","","","","","",""
"3665.1200000001118","","","post_reveal_questions","survey-likert","397","1731898","0.0-6.0-6.55","3425225","co37669","norming","","","{""aha"":5}","[0]","../img/tt/405tt.jpg","",""
"null","<div style=""font-size:60px;""> </div>","null","fixation","html-keyboard-response","398","1732107","0.0-6.0-0.56","3425225","co37669","norming","","","","","","",""
"null","../img/tt/598tt.jpg","null","mooney1","image-keyboard-response","399","1735112","0.0-6.0-1.56","3425225","co37669","norming","","","","","","",""
"4502.550000000047","","","post_mooney1_questions","survey-likert","400","1739618","0.0-6.0-2.56","3425225","co37669","norming","","","{""curiosity"":3,""confidence"":0}","[0,1]","../img/tt/598tt.jpg","",""
"805.9849999998696","","","recognition","survey-text","401","1740426","0.0-6.0-3.56","3425225","co37669","norming","","","{""guess"":""""}","","../img/tt/598tt.jpg","",""
"null","../img/gs/598gs.jpg","null","reveal","image-keyboard-response","402","1742428","0.0-6.0-4.56","3425225","co37669","norming","","","","","","",""
"null","../img/tt/598tt.jpg","null","mooney2","image-keyboard-response","403","1744433","0.0-6.0-5.56","3425225","co37669","norming","","","","","","",""
"1542.2400000002235","","","post_reveal_questions","survey-likert","404","1745978","0.0-6.0-6.56","3425225","co37669","norming","","","{""aha"":3}","[0]","../img/tt/598tt.jpg","",""
"null","<div style=""font-size:60px;""> </div>","null","fixation","html-keyboard-response","405","1746187","0.0-6.0-0.57","3425225","co37669","norming","","","","","","",""
"null","../img/tt/1254tt.jpg","null","mooney1","image-keyboard-response","406","1749198","0.0-6.0-1.57","3425225","co37669","norming","","","","","","",""
"3528.0749999997206","","","post_mooney1_questions","survey-likert","407","1752730","0.0-6.0-2.57","3425225","co37669","norming","","","{""curiosity"":4,""confidence"":1}","[0,1]","../img/tt/1254tt.jpg","",""
"3630.160000000149","","","recognition","survey-text","408","1756362","0.0-6.0-3.57","3425225","co37669","norming","","","{""guess"":""""}","","../img/tt/1254tt.jpg","",""
"null","../img/gs/1254gs.jpg","null","reveal","image-keyboard-response","409","1758365","0.0-6.0-4.57","3425225","co37669","norming","","","","","","",""
"null","../img/tt/1254tt.jpg","null","mooney2","image-keyboard-response","410","1760367","0.0-6.0-5.57","3425225","co37669","norming","","","","","","",""
"6239.980000000214","","","post_reveal_questions","survey-likert","411","1766613","0.0-6.0-6.57","3425225","co37669","norming","","","{""aha"":0}","[0]","../img/tt/1254tt.jpg","",""
"null","<div style=""font-size:60px;""> </div>","null","fixation","html-keyboard-response","412","1766818","0.0-6.0-0.58","3425225","co37669","norming","","","","","","",""
"null","../img/tt/1283tt.jpg","null","mooney1","image-keyboard-response","413","1769824","0.0-6.0-1.58","3425225","co37669","norming","","","","","","",""
"5450.945000000065","","","post_mooney1_questions","survey-likert","414","1775277","0.0-6.0-2.58","3425225","co37669","norming","","","{""curiosity"":4,""confidence"":0}","[0,1]","../img/tt/1283tt.jpg","",""
"1558.0450000001583","","","recognition","survey-text","415","1776837","0.0-6.0-3.58","3425225","co37669","norming","","","{""guess"":""""}","","../img/tt/1283tt.jpg","",""
"null","../img/gs/1283gs.jpg","null","reveal","image-keyboard-response","416","1778840","0.0-6.0-4.58","3425225","co37669","norming","","","","","","",""
"null","../img/tt/1283tt.jpg","null","mooney2","image-keyboard-response","417","1780841","0.0-6.0-5.58","3425225","co37669","norming","","","","","","",""
"1505.3149999999441","","","post_reveal_questions","survey-likert","418","1782349","0.0-6.0-6.58","3425225","co37669","norming","","","{""aha"":3}","[0]","../img/tt/1283tt.jpg","",""
"null","<div style=""font-size:60px;""> </div>","null","fixation","html-keyboard-response","419","1782559","0.0-6.0-0.59","3425225","co37669","norming","","","","","","",""
"null","../img/tt/010tt.jpg","null","mooney1","image-keyboard-response","420","1785569","0.0-6.0-1.59","3425225","co37669","norming","","","","","","",""
"6560.624999999767","","","post_mooney1_questions","survey-likert","421","1792133","0.0-6.0-2.59","3425225","co37669","norming","","","{""curiosity"":4,""confidence"":0}","[0,1]","../img/tt/010tt.jpg","",""
"942.149999999674","","","recognition","survey-text","422","1793077","0.0-6.0-3.59","3425225","co37669","norming","","","{""guess"":""""}","","../img/tt/010tt.jpg","",""
"null","../img/gs/010gs.jpg","null","reveal","image-keyboard-response","423","1795078","0.0-6.0-4.59","3425225","co37669","norming","","","","","","",""
"null","../img/tt/010tt.jpg","null","mooney2","image-keyboard-response","424","1797080","0.0-6.0-5.59","3425225","co37669","norming","","","","","","",""
"3393.5149999996647","","","post_reveal_questions","survey-likert","425","1800477","0.0-6.0-6.59","3425225","co37669","norming","","","{""aha"":2}","[0]","../img/tt/010tt.jpg","",""
"null","<div style=""font-size:60px;""> </div>","null","fixation","html-keyboard-response","426","1800685","0.0-6.0-0.60","3425225","co37669","norming","","","","","","",""
"null","../img/tt/418tt.jpg","null","mooney1","image-keyboard-response","427","1803694","0.0-6.0-1.60","3425225","co37669","norming","","","","","","",""
"4235.569999999832","","","post_mooney1_questions","survey-likert","428","1807933","0.0-6.0-2.60","3425225","co37669","norming","","","{""curiosity"":6,""confidence"":0}","[0,1]","../img/tt/418tt.jpg","",""
"1717.994999999879","","","recognition","survey-text","429","1809653","0.0-6.0-3.60","3425225","co37669","norming","","","{""guess"":""""}","","../img/tt/418tt.jpg","",""
"null","../img/gs/418gs.jpg","null","reveal","image-keyboard-response","430","1811655","0.0-6.0-4.60","3425225","co37669","norming","","","","","","",""
"null","../img/tt/418tt.jpg","null","mooney2","image-keyboard-response","431","1813656","0.0-6.0-5.60","3425225","co37669","norming","","","","","","",""
"1658.2549999998882","","","post_reveal_questions","survey-likert","432","1815317","0.0-6.0-6.60","3425225","co37669","norming","","","{""aha"":6}","[0]","../img/tt/418tt.jpg","",""
"null","<div style=""font-size:60px;""> </div>","null","fixation","html-keyboard-response","433","1815525","0.0-6.0-0.61","3425225","co37669","norming","","","","","","",""
"null","../img/tt/008tt.jpg","null","mooney1","image-keyboard-response","434","1818533","0.0-6.0-1.61","3425225","co37669","norming","","","","","","",""
"4845.034999999916","","","post_mooney1_questions","survey-likert","435","1823381","0.0-6.0-2.61","3425225","co37669","norming","","","{""curiosity"":5,""confidence"":0}","[0,1]","../img/tt/008tt.jpg","",""
"910.0150000003632","","","recognition","survey-text","436","1824293","0.0-6.0-3.61","3425225","co37669","norming","","","{""guess"":""""}","","../img/tt/008tt.jpg","",""
"null","../img/gs/008gs.jpg","null","reveal","image-keyboard-response","437","1826301","0.0-6.0-4.61","3425225","co37669","norming","","","","","","",""
"null","../img/tt/008tt.jpg","null","mooney2","image-keyboard-response","438","1828310","0.0-6.0-5.61","3425225","co37669","norming","","","","","","",""
"4209.689999999711","","","post_reveal_questions","survey-likert","439","1832522","0.0-6.0-6.61","3425225","co37669","norming","","","{""aha"":3}","[0]","../img/tt/008tt.jpg","",""
"null","<div style=""font-size:60px;""> </div>","null","fixation","html-keyboard-response","440","1832723","0.0-6.0-0.62","3425225","co37669","norming","","","","","","",""
"null","../img/tt/105tt.jpg","null","mooney1","image-keyboard-response","441","1835725","0.0-6.0-1.62","3425225","co37669","norming","","","","","","",""
"12745.889999999665","","","post_mooney1_questions","survey-likert","442","1848474","0.0-6.0-2.62","3425225","co37669","norming","","","{""curiosity"":3,""confidence"":1}","[0,1]","../img/tt/105tt.jpg","",""
"3830.054999999935","","","recognition","survey-text","443","1852306","0.0-6.0-3.62","3425225","co37669","norming","","","{""guess"":""book""}","","../img/tt/105tt.jpg","",""
"null","../img/gs/105gs.jpg","null","reveal","image-keyboard-response","444","1854308","0.0-6.0-4.62","3425225","co37669","norming","","","","","","",""
"null","../img/tt/105tt.jpg","null","mooney2","image-keyboard-response","445","1856313","0.0-6.0-5.62","3425225","co37669","norming","","","","","","",""
"3581.855000000447","","","post_reveal_questions","survey-likert","446","1859898","0.0-6.0-6.62","3425225","co37669","norming","","","{""aha"":3}","[0]","../img/tt/105tt.jpg","",""
"null","<div style=""font-size:60px;""> </div>","null","fixation","html-keyboard-response","447","1860107","0.0-6.0-0.63","3425225","co37669","norming","","","","","","",""
"null","../img/tt/1027tt.jpg","null","mooney1","image-keyboard-response","448","1863110","0.0-6.0-1.63","3425225","co37669","norming","","","","","","",""
"5264.219999999972","","","post_mooney1_questions","survey-likert","449","1868378","0.0-6.0-2.63","3425225","co37669","norming","","","{""curiosity"":0,""confidence"":0}","[0,1]","../img/tt/1027tt.jpg","",""
"3422.010000000242","","","recognition","survey-text","450","1871802","0.0-6.0-3.63","3425225","co37669","norming","","","{""guess"":""""}","","../img/tt/1027tt.jpg","",""
"null","../img/gs/1027gs.jpg","null","reveal","image-keyboard-response","451","1873803","0.0-6.0-4.63","3425225","co37669","norming","","","","","","",""
"null","../img/tt/1027tt.jpg","null","mooney2","image-keyboard-response","452","1875805","0.0-6.0-5.63","3425225","co37669","norming","","","","","","",""
"2226.094999999972","","","post_reveal_questions","survey-likert","453","1878034","0.0-6.0-6.63","3425225","co37669","norming","","","{""aha"":1}","[0]","../img/tt/1027tt.jpg","",""
"null","<div style=""font-size:60px;""> </div>","null","fixation","html-keyboard-response","454","1878242","0.0-6.0-0.64","3425225","co37669","norming","","","","","","",""
"null","../img/tt/1181tt.jpg","null","mooney1","image-keyboard-response","455","1881248","0.0-6.0-1.64","3425225","co37669","norming","","","","","","",""
"7613.575000000186","","","post_mooney1_questions","survey-likert","456","1888869","0.0-6.0-2.64","3425225","co37669","norming","","","{""curiosity"":3,""confidence"":0}","[0,1]","../img/tt/1181tt.jpg","",""
"862.065000000177","","","recognition","survey-text","457","1889733","0.0-6.0-3.64","3425225","co37669","norming","","","{""guess"":""""}","","../img/tt/1181tt.jpg","",""
"null","../img/gs/1181gs.jpg","null","reveal","image-keyboard-response","458","1891736","0.0-6.0-4.64","3425225","co37669","norming","","","","","","",""
"null","../img/tt/1181tt.jpg","null","mooney2","image-keyboard-response","459","1893743","0.0-6.0-5.64","3425225","co37669","norming","","","","","","",""
"12131.459999999963","","","post_reveal_questions","survey-likert","460","1905877","0.0-6.0-6.64","3425225","co37669","norming","","","{""aha"":3}","[0]","../img/tt/1181tt.jpg","",""
"null","<div style=""font-size:60px;""> </div>","null","fixation","html-keyboard-response","461","1906080","0.0-6.0-0.65","3425225","co37669","norming","","","","","","",""
"null","../img/tt/007tt.jpg","null","mooney1","image-keyboard-response","462","1909089","0.0-6.0-1.65","3425225","co37669","norming","","","","","","",""
"18160.79000000027","","","post_mooney1_questions","survey-likert","463","1927253","0.0-6.0-2.65","3425225","co37669","norming","","","{""curiosity"":6,""confidence"":3}","[0,1]","../img/tt/007tt.jpg","",""
"7821.605000000214","","","recognition","survey-text","464","1935077","0.0-6.0-3.65","3425225","co37669","norming","","","{""guess"":""seafood""}","","../img/tt/007tt.jpg","",""
"null","../img/gs/007gs.jpg","null","reveal","image-keyboard-response","465","1937083","0.0-6.0-4.65","3425225","co37669","norming","","","","","","",""
"null","../img/tt/007tt.jpg","null","mooney2","image-keyboard-response","466","1939089","0.0-6.0-5.65","3425225","co37669","norming","","","","","","",""
"1545.5499999998137","","","post_reveal_questions","survey-likert","467","1940637","0.0-6.0-6.65","3425225","co37669","norming","","","{""aha"":4}","[0]","../img/tt/007tt.jpg","",""
"null","<div style=""font-size:60px;""> </div>","null","fixation","html-keyboard-response","468","1940848","0.0-6.0-0.66","3425225","co37669","norming","","","","","","",""
"null","../img/tt/096tt.jpg","null","mooney1","image-keyboard-response","469","1943851","0.0-6.0-1.66","3425225","co37669","norming","","","","","","",""
"7742.704999999609","","","post_mooney1_questions","survey-likert","470","1951590","0.0-6.0-2.66","3425225","co37669","norming","","","{""curiosity"":3,""confidence"":5}","[0,1]","../img/tt/096tt.jpg","",""
"3125.774999999907","","","recognition","survey-text","471","1954718","0.0-6.0-3.66","3425225","co37669","norming","","","{""guess"":""piano""}","","../img/tt/096tt.jpg","",""
"null","../img/gs/096gs.jpg","null","reveal","image-keyboard-response","472","1956720","0.0-6.0-4.66","3425225","co37669","norming","","","","","","",""
"null","../img/tt/096tt.jpg","null","mooney2","image-keyboard-response","473","1958725","0.0-6.0-5.66","3425225","co37669","norming","","","","","","",""
"2608.5600000002887","","","post_reveal_questions","survey-likert","474","1961334","0.0-6.0-6.66","3425225","co37669","norming","","","{""aha"":5}","[0]","../img/tt/096tt.jpg","",""
"null","<div style=""font-size:60px;""> </div>","null","fixation","html-keyboard-response","475","1961537","0.0-6.0-0.67","3425225","co37669","norming","","","","","","",""
"null","../img/tt/306tt.jpg","null","mooney1","image-keyboard-response","476","1964542","0.0-6.0-1.67","3425225","co37669","norming","","","","","","",""
"10908.590000000084","","","post_mooney1_questions","survey-likert","477","1975454","0.0-6.0-2.67","3425225","co37669","norming","","","{""curiosity"":3,""confidence"":1}","[0,1]","../img/tt/306tt.jpg","",""
"1757.8000000002794","","","recognition","survey-text","478","1977214","0.0-6.0-3.67","3425225","co37669","norming","","","{""guess"":""""}","","../img/tt/306tt.jpg","",""
"null","../img/gs/306gs.jpg","null","reveal","image-keyboard-response","479","1979215","0.0-6.0-4.67","3425225","co37669","norming","","","","","","",""
"null","../img/tt/306tt.jpg","null","mooney2","image-keyboard-response","480","1981219","0.0-6.0-5.67","3425225","co37669","norming","","","","","","",""
"2208.744999999879","","","post_reveal_questions","survey-likert","481","1983430","0.0-6.0-6.67","3425225","co37669","norming","","","{""aha"":3}","[0]","../img/tt/306tt.jpg","",""
"null","<div style=""font-size:60px;""> </div>","null","fixation","html-keyboard-response","482","1983641","0.0-6.0-0.68","3425225","co37669","norming","","","","","","",""
"null","../img/tt/1171tt.jpg","null","mooney1","image-keyboard-response","483","1986648","0.0-6.0-1.68","3425225","co37669","norming","","","","","","",""
"7562.594999999972","","","post_mooney1_questions","survey-likert","484","1994214","0.0-6.0-2.68","3425225","co37669","norming","","","{""curiosity"":2,""confidence"":0}","[0,1]","../img/tt/1171tt.jpg","",""
"3837.875000000233","","","recognition","survey-text","485","1998054","0.0-6.0-3.68","3425225","co37669","norming","","","{""guess"":""""}","","../img/tt/1171tt.jpg","",""
"null","../img/gs/1171gs.jpg","null","reveal","image-keyboard-response","486","2000056","0.0-6.0-4.68","3425225","co37669","norming","","","","","","",""
"null","../img/tt/1171tt.jpg","null","mooney2","image-keyboard-response","487","2002062","0.0-6.0-5.68","3425225","co37669","norming","","","","","","",""
"4461.570000000065","","","post_reveal_questions","survey-likert","488","2006526","0.0-6.0-6.68","3425225","co37669","norming","","","{""aha"":3}","[0]","../img/tt/1171tt.jpg","",""
"null","<div style=""font-size:60px;""> </div>","null","fixation","html-keyboard-response","489","2006730","0.0-6.0-0.69","3425225","co37669","norming","","","","","","",""
"null","../img/tt/307tt.jpg","null","mooney1","image-keyboard-response","490","2009732","0.0-6.0-1.69","3425225","co37669","norming","","","","","","",""
"4471.289999999804","","","post_mooney1_questions","survey-likert","491","2014215","0.0-6.0-2.69","3425225","co37669","norming","","","{""curiosity"":1,""confidence"":1}","[0,1]","../img/tt/307tt.jpg","",""
"1989.880000000121","","","recognition","survey-text","492","2016207","0.0-6.0-3.69","3425225","co37669","norming","","","{""guess"":""""}","","../img/tt/307tt.jpg","",""
"null","../img/gs/307gs.jpg","null","reveal","image-keyboard-response","493","2018216","0.0-6.0-4.69","3425225","co37669","norming","","","","","","",""
"null","../img/tt/307tt.jpg","null","mooney2","image-keyboard-response","494","2020226","0.0-6.0-5.69","3425225","co37669","norming","","","","","","",""
"4066.659999999916","","","post_reveal_questions","survey-likert","495","2024296","0.0-6.0-6.69","3425225","co37669","norming","","","{""aha"":3}","[0]","../img/tt/307tt.jpg","",""
"null","<div style=""font-size:60px;""> </div>","null","fixation","html-keyboard-response","496","2024497","0.0-6.0-0.70","3425225","co37669","norming","","","","","","",""
"null","../img/tt/584tt.jpg","null","mooney1","image-keyboard-response","497","2027502","0.0-6.0-1.70","3425225","co37669","norming","","","","","","",""
"3749.0849999999627","","","post_mooney1_questions","survey-likert","498","2031255","0.0-6.0-2.70","3425225","co37669","norming","","","{""curiosity"":3,""confidence"":4}","[0,1]","../img/tt/584tt.jpg","",""
"4077.909999999916","","","recognition","survey-text","499","2035335","0.0-6.0-3.70","3425225","co37669","norming","","","{""guess"":""flower""}","","../img/tt/584tt.jpg","",""
"null","../img/gs/584gs.jpg","null","reveal","image-keyboard-response","500","2037337","0.0-6.0-4.70","3425225","co37669","norming","","","","","","",""
"null","../img/tt/584tt.jpg","null","mooney2","image-keyboard-response","501","2039341","0.0-6.0-5.70","3425225","co37669","norming","","","","","","",""
"2663.4150000000373","","","post_reveal_questions","survey-likert","502","2042007","0.0-6.0-6.70","3425225","co37669","norming","","","{""aha"":5}","[0]","../img/tt/584tt.jpg","",""
"null","<div style=""font-size:60px;""> </div>","null","fixation","html-keyboard-response","503","2042214","0.0-6.0-0.71","3425225","co37669","norming","","","","","","",""
"null","../img/tt/1006tt.jpg","null","mooney1","image-keyboard-response","504","2045223","0.0-6.0-1.71","3425225","co37669","norming","","","","","","",""
"4181.045000000391","","","post_mooney1_questions","survey-likert","505","2049407","0.0-6.0-2.71","3425225","co37669","norming","","","{""curiosity"":5,""confidence"":4}","[0,1]","../img/tt/1006tt.jpg","",""
"13189.834999999963","","","recognition","survey-text","506","2062599","0.0-6.0-3.71","3425225","co37669","norming","","","{""guess"":""sheep""}","","../img/tt/1006tt.jpg","",""
"null","../img/gs/1006gs.jpg","null","reveal","image-keyboard-response","507","2064601","0.0-6.0-4.71","3425225","co37669","norming","","","","","","",""
"null","../img/tt/1006tt.jpg","null","mooney2","image-keyboard-response","508","2066604","0.0-6.0-5.71","3425225","co37669","norming","","","","","","",""
"3296.3100000002887","","","post_reveal_questions","survey-likert","509","2069903","0.0-6.0-6.71","3425225","co37669","norming","","","{""aha"":4}","[0]","../img/tt/1006tt.jpg","",""
"null","<div style=""font-size:60px;""> </div>","null","fixation","html-keyboard-response","510","2070108","0.0-6.0-0.72","3425225","co37669","norming","","","","","","",""
"null","../img/tt/1143tt.jpg","null","mooney1","image-keyboard-response","511","2073108","0.0-6.0-1.72","3425225","co37669","norming","","","","","","",""
"4291.785000000382","","","post_mooney1_questions","survey-likert","512","2077401","0.0-6.0-2.72","3425225","co37669","norming","","","{""curiosity"":0,""confidence"":6}","[0,1]","../img/tt/1143tt.jpg","",""
"8133.870000000112","","","recognition","survey-text","513","2085537","0.0-6.0-3.72","3425225","co37669","norming","","","{""guess"":""swimmingpool""}","","../img/tt/1143tt.jpg","",""
"null","../img/gs/1143gs.jpg","null","reveal","image-keyboard-response","514","2087544","0.0-6.0-4.72","3425225","co37669","norming","","","","","","",""
"null","../img/tt/1143tt.jpg","null","mooney2","image-keyboard-response","515","2089553","0.0-6.0-5.72","3425225","co37669","norming","","","","","","",""
"3188.8649999999907","","","post_reveal_questions","survey-likert","516","2092745","0.0-6.0-6.72","3425225","co37669","norming","","","{""aha"":5}","[0]","../img/tt/1143tt.jpg","",""
"null","<div style=""font-size:60px;""> </div>","null","fixation","html-keyboard-response","517","2092946","0.0-6.0-0.73","3425225","co37669","norming","","","","","","",""
"null","../img/tt/1242tt.jpg","null","mooney1","image-keyboard-response","518","2095956","0.0-6.0-1.73","3425225","co37669","norming","","","","","","",""
"4217.405000000028","","","post_mooney1_questions","survey-likert","519","2100177","0.0-6.0-2.73","3425225","co37669","norming","","","{""curiosity"":3,""confidence"":0}","[0,1]","../img/tt/1242tt.jpg","",""
"942","","","recognition","survey-text","520","2101121","0.0-6.0-3.73","3425225","co37669","norming","","","{""guess"":""""}","","../img/tt/1242tt.jpg","",""
"null","../img/gs/1242gs.jpg","null","reveal","image-keyboard-response","521","2103127","0.0-6.0-4.73","3425225","co37669","norming","","","","","","",""
"null","../img/tt/1242tt.jpg","null","mooney2","image-keyboard-response","522","2105129","0.0-6.0-5.73","3425225","co37669","norming","","","","","","",""
"1397","","","post_reveal_questions","survey-likert","523","2106529","0.0-6.0-6.73","3425225","co37669","norming","","","{""aha"":3}","[0]","../img/tt/1242tt.jpg","",""
"null","<div style=""font-size:60px;""> </div>","null","fixation","html-keyboard-response","524","2106730","0.0-6.0-0.74","3425225","co37669","norming","","","","","","",""
"null","../img/tt/1255tt.jpg","null","mooney1","image-keyboard-response","525","2109737","0.0-6.0-1.74","3425225","co37669","norming","","","","","","",""
"7940.504999999888","","","post_mooney1_questions","survey-likert","526","2117681","0.0-6.0-2.74","3425225","co37669","norming","","","{""curiosity"":3,""confidence"":0}","[0,1]","../img/tt/1255tt.jpg","",""
"757.894999999553","","","recognition","survey-text","527","2118441","0.0-6.0-3.74","3425225","co37669","norming","","","{""guess"":""""}","","../img/tt/1255tt.jpg","",""
"null","../img/gs/1255gs.jpg","null","reveal","image-keyboard-response","528","2120451","0.0-6.0-4.74","3425225","co37669","norming","","","","","","",""
"null","../img/tt/1255tt.jpg","null","mooney2","image-keyboard-response","529","2122458","0.0-6.0-5.74","3425225","co37669","norming","","","","","","",""
"4139.989999999758","","","post_reveal_questions","survey-likert","530","2126601","0.0-6.0-6.74","3425225","co37669","norming","","","{""aha"":1}","[0]","../img/tt/1255tt.jpg","",""
"null","<div style=""font-size:60px;""> </div>","null","fixation","html-keyboard-response","531","2126807","0.0-6.0-0.75","3425225","co37669","norming","","","","","","",""
"null","../img/tt/468tt.jpg","null","mooney1","image-keyboard-response","532","2129810","0.0-6.0-1.75","3425225","co37669","norming","","","","","","",""
"13587.835000000428","","","post_mooney1_questions","survey-likert","533","2143400","0.0-6.0-2.75","3425225","co37669","norming","","","{""curiosity"":3,""confidence"":4}","[0,1]","../img/tt/468tt.jpg","",""
"3685.689999999944","","","recognition","survey-text","534","2147088","0.0-6.0-3.75","3425225","co37669","norming","","","{""guess"":""kast""}","","../img/tt/468tt.jpg","",""
"null","../img/gs/468gs.jpg","null","reveal","image-keyboard-response","535","2149093","0.0-6.0-4.75","3425225","co37669","norming","","","","","","",""
"null","../img/tt/468tt.jpg","null","mooney2","image-keyboard-response","536","2151104","0.0-6.0-5.75","3425225","co37669","norming","","","","","","",""
"3548.9850000003353","","","post_reveal_questions","survey-likert","537","2154656","0.0-6.0-6.75","3425225","co37669","norming","","","{""aha"":3}","[0]","../img/tt/468tt.jpg","",""
"null","<div style=""font-size:60px;""> </div>","null","fixation","html-keyboard-response","538","2154861","0.0-6.0-0.76","3425225","co37669","norming","","","","","","",""
"null","../img/tt/353tt.jpg","null","mooney1","image-keyboard-response","539","2157864","0.0-6.0-1.76","3425225","co37669","norming","","","","","","",""
"5180.915000000037","","","post_mooney1_questions","survey-likert","540","2163048","0.0-6.0-2.76","3425225","co37669","norming","","","{""curiosity"":5,""confidence"":0}","[0,1]","../img/tt/353tt.jpg","",""
"1157.7250000000931","","","recognition","survey-text","541","2164207","0.0-6.0-3.76","3425225","co37669","norming","","","{""guess"":""""}","","../img/tt/353tt.jpg","",""
"null","../img/gs/353gs.jpg","null","reveal","image-keyboard-response","542","2166209","0.0-6.0-4.76","3425225","co37669","norming","","","","","","",""
"null","../img/tt/353tt.jpg","null","mooney2","image-keyboard-response","543","2168219","0.0-6.0-5.76","3425225","co37669","norming","","","","","","",""
"2929.18499999959","","","post_reveal_questions","survey-likert","544","2171151","0.0-6.0-6.76","3425225","co37669","norming","","","{""aha"":3}","[0]","../img/tt/353tt.jpg","",""
"null","<div style=""font-size:60px;""> </div>","null","fixation","html-keyboard-response","545","2171359","0.0-6.0-0.77","3425225","co37669","norming","","","","","","",""
"null","../img/tt/189tt.jpg","null","mooney1","image-keyboard-response","546","2174363","0.0-6.0-1.77","3425225","co37669","norming","","","","","","",""
"9897.885000000708","","","post_mooney1_questions","survey-likert","547","2184264","0.0-6.0-2.77","3425225","co37669","norming","","","{""curiosity"":6,""confidence"":1}","[0,1]","../img/tt/189tt.jpg","",""
"4054.1099999998696","","","recognition","survey-text","548","2188320","0.0-6.0-3.77","3425225","co37669","norming","","","{""guess"":""dancer""}","","../img/tt/189tt.jpg","",""
"null","../img/gs/189gs.jpg","null","reveal","image-keyboard-response","549","2190326","0.0-6.0-4.77","3425225","co37669","norming","","","","","","",""
"null","../img/tt/189tt.jpg","null","mooney2","image-keyboard-response","550","2192333","0.0-6.0-5.77","3425225","co37669","norming","","","","","","",""
"2695.760000000242","","","post_reveal_questions","survey-likert","551","2195032","0.0-6.0-6.77","3425225","co37669","norming","","","{""aha"":3}","[0]","../img/tt/189tt.jpg","",""
"null","<div style=""font-size:60px;""> </div>","null","fixation","html-keyboard-response","552","2195233","0.0-6.0-0.78","3425225","co37669","norming","","","","","","",""
"null","../img/tt/1091tt.jpg","null","mooney1","image-keyboard-response","553","2198237","0.0-6.0-1.78","3425225","co37669","norming","","","","","","",""
