"rt","stimulus","key_press","test_part","trial_type","trial_index","time_elapsed","internal_node_id","totalTime","subject","experiment_name","button_pressed","success","responses","question_order","currentStim","old","correct"
"6060.979999999972","Welcome to the experiment. This is an online experiment so please don't close the tab/window until we say goodbye.  Press any key to begin.","75","instructions","html-keyboard-response","0","6078","0.0-0.0","2795568","co37558","norming","","","","","","",""
"49539.81500000009","<div style='word-wrap: break-word; width: 900px'><h3>Please consider this information carefully before deciding whether to participate in this research</h3><ul style='text-align: left; font-size: .8em;'><li><b>Purpose of the research</b>: To examine how people process images.</li><li><b>What you will do in this research</b>:  Stimuli (images) will be presented on the computer and you will be asked different questions about them.</li><li><b>Time required</b>: Participation will take between 45 and 60 minutes to complete.</li><li><b>Risks</b>:  There are no anticipated risks associated with participating in this study. The effects of participating should be comparable to those you would experience from viewing a computer monitor for 30 minutes and using a mouse or keyboard.</li><li><b>Benefits</b>:  This study provides no benefits to you individually except for the credit. The study provides important information about the nature of perception and learning.</li><li><b>Confidentiality</b>:  Your participation in this study will remain confidential. No personally identifiable information will be associated with your data. Your de-identified data may be shared with other researchers and used in future projects.</li><li><b>Participation and withdrawal</b>:  Your participation in this study is completely voluntary and you may refuse to participate or you may choose to withdraw at any time without penalty.</li><li><b>How to contact the researchers</b>: If you have questions or concerns about your participation or payment, or want to request a summary of research findings, please contact Sander Van de Cruys (KU Leuven), at sander.vandecruys@kuleuven.be.</li></ul><p>The nature and purpose of this research have been sufficiently explained and I agree to participate in this study.  I understand that I am free to withdraw at any time without incurring any penalty.</p><p>Please consent by clicking the button below to continue. Otherwise, please exit the study at this time.</p></div>","","instructions","html-button-response","1","55620","0.0-1.0","2795568","co37558","norming","0","","","","","",""
"","","","instructions","fullscreen","2","60773","0.0-2.0","2795568","co37558","norming","","true","","","","",""
"41819.58999999995","","","sona","survey-html-form","3","102599","0.0-3.0","2795568","co37558","norming","","","[{""name"":""sonaid"",""value"":""37558""},{""name"":""debrief"",""value"":""yes""},{""name"":""datajoin"",""value"":""yes""}]","","","",""
"74163.59999999996","<div style='word-wrap: break-word; width: 900px'><h3>Instructions</h3><p>This experiment will have 3 parts. In the first part you will see a series of distorted images like the one below on the left. As you can see in the righthand image, the distorted images are derived from actual photographs. In what follows, you will <strong>briefly</strong> be presented with <strong>only</strong> the distorted image.</p> <div style='float: left; margin-right: 20px;'><img src='../img/018tt.jpg' height='250' width='250'></img></div><div style='float: right; margin-left: 20px;'><img src='../img/018gs.jpg' height='250' width='250'></img></div><p>Subsequently you will be asked a few questions about the image: One question on how <strong>curious</strong> you are about the solution and one on how <strong>confident</strong> you are that you know the solution.</p>Next, we ask you to make a guess on what is in the image. Note that it is OK to name just the <strong>basic level category</strong>. For example when you see a parrot in the image, 'parrot' will obviously be a correct answer but also correct is 'bird'. However, 'animal' will <strong>not</strong> be counted as a correct response. For the example above, 'rose' would be correct or 'flower', but not 'plant'. When soccer players are depicted, 'soccer', 'football', 'soccer players' will be correct, but not 'humans', 'outdoors', or 'sports'. You do not need to describe the image in full, just name the main object in it <strong>in one or two words</strong>. All images depict objects from one of the following broad level categories: animals, inanimate objects, plants, sports, vehicles, and food. Recognizing means knowing <strong>more</strong> than these broad labels for a given image. But we always encourage you to <strong>make a guess</strong> if you can. Note that you are allowed to use <strong>Dutch and English</strong> in your answers, whatever comes easiest for you.</p><p>Press any key to continue.</p></div>","32","instructions","html-keyboard-response","4","176771","0.0-4.0","2795568","co37558","norming","","","","","","",""
"74814.03","<div style='word-wrap: break-word; width: 900px'><h3>Instructions</h3> <p>Next, the solution image will be revealed to you and you'll be asked to indicate how strong your <strong>aha-experience</strong> was after seeing the solution. This describes the positive feeling of the 'click' you sometimes experience, when the pieces of the 'puzzle' fall together and you suddenly have 'insight' in the image.</p><img src='aha.jpg' height='188' width='250'></img><p>Note that there are no right or wrong answers. We are interested in what <strong>you</strong> see in the image and how <strong>you</strong> feel about it.</p><p>Press any key to start the experiment.</p></div>","32","instructions","html-keyboard-response","5","251588","0.0-5.0","2795568","co37558","norming","","","","","","",""
"null","<div style=""font-size:60px;""> </div>","null","fixation","html-keyboard-response","6","251791","0.0-6.0-0.0","2795568","co37558","norming","","","","","","",""
"null","../img/tt/184tt.jpg","null","mooney1","image-keyboard-response","7","254796","0.0-6.0-1.0","2795568","co37558","norming","","","","","","",""
"14835.875000000204","","","post_mooney1_questions","survey-likert","8","269636","0.0-6.0-2.0","2795568","co37558","norming","","","{""curiosity"":2,""confidence"":1}","[0,1]","../img/tt/184tt.jpg","",""
"7277.8450000000885","","","recognition","survey-text","9","276915","0.0-6.0-3.0","2795568","co37558","norming","","","{""guess"":""fruitmand""}","","../img/tt/184tt.jpg","",""
"null","../img/gs/184gs.jpg","null","reveal","image-keyboard-response","10","278921","0.0-6.0-4.0","2795568","co37558","norming","","","","","","",""
"null","../img/tt/184tt.jpg","null","mooney2","image-keyboard-response","11","280930","0.0-6.0-5.0","2795568","co37558","norming","","","","","","",""
"5198.915000000212","","","post_reveal_questions","survey-likert","12","286131","0.0-6.0-6.0","2795568","co37558","norming","","","{""aha"":4}","[0]","../img/tt/184tt.jpg","",""
"null","<div style=""font-size:60px;""> </div>","null","fixation","html-keyboard-response","13","286333","0.0-6.0-0.1","2795568","co37558","norming","","","","","","",""
"null","../img/tt/111tt.jpg","null","mooney1","image-keyboard-response","14","289343","0.0-6.0-1.1","2795568","co37558","norming","","","","","","",""
"8785.984999999986","","","post_mooney1_questions","survey-likert","15","298131","0.0-6.0-2.1","2795568","co37558","norming","","","{""curiosity"":5,""confidence"":1}","[0,1]","../img/tt/111tt.jpg","",""
"2798.2750000001397","","","recognition","survey-text","16","300931","0.0-6.0-3.1","2795568","co37558","norming","","","{""guess"":""vogel""}","","../img/tt/111tt.jpg","",""
"null","../img/gs/111gs.jpg","null","reveal","image-keyboard-response","17","302932","0.0-6.0-4.1","2795568","co37558","norming","","","","","","",""
"null","../img/tt/111tt.jpg","null","mooney2","image-keyboard-response","18","304934","0.0-6.0-5.1","2795568","co37558","norming","","","","","","",""
"6843.690000000177","","","post_reveal_questions","survey-likert","19","311776","0.0-6.0-6.1","2795568","co37558","norming","","","{""aha"":2}","[0]","../img/tt/111tt.jpg","",""
"null","<div style=""font-size:60px;""> </div>","null","fixation","html-keyboard-response","20","311978","0.0-6.0-0.2","2795568","co37558","norming","","","","","","",""
"null","../img/tt/1188tt.jpg","null","mooney1","image-keyboard-response","21","314980","0.0-6.0-1.2","2795568","co37558","norming","","","","","","",""
"9267.050000000163","","","post_mooney1_questions","survey-likert","22","324248","0.0-6.0-2.2","2795568","co37558","norming","","","{""curiosity"":5,""confidence"":2}","[0,1]","../img/tt/1188tt.jpg","",""
"1765.9449999998906","","","recognition","survey-text","23","326016","0.0-6.0-3.2","2795568","co37558","norming","","","{""guess"":""hond""}","","../img/tt/1188tt.jpg","",""
"null","../img/gs/1188gs.jpg","null","reveal","image-keyboard-response","24","328025","0.0-6.0-4.2","2795568","co37558","norming","","","","","","",""
"null","../img/tt/1188tt.jpg","null","mooney2","image-keyboard-response","25","330027","0.0-6.0-5.2","2795568","co37558","norming","","","","","","",""
"4859.490000000049","","","post_reveal_questions","survey-likert","26","334888","0.0-6.0-6.2","2795568","co37558","norming","","","{""aha"":5}","[0]","../img/tt/1188tt.jpg","",""
"null","<div style=""font-size:60px;""> </div>","null","fixation","html-keyboard-response","27","335089","0.0-6.0-0.3","2795568","co37558","norming","","","","","","",""
"null","../img/tt/098tt.jpg","null","mooney1","image-keyboard-response","28","338091","0.0-6.0-1.3","2795568","co37558","norming","","","","","","",""
"7075.689999999886","","","post_mooney1_questions","survey-likert","29","345168","0.0-6.0-2.3","2795568","co37558","norming","","","{""curiosity"":1,""confidence"":0}","[0,1]","../img/tt/098tt.jpg","",""
"1621.695000000007","","","recognition","survey-text","30","346791","0.0-6.0-3.3","2795568","co37558","norming","","","{""guess"":""""}","","../img/tt/098tt.jpg","",""
"null","../img/gs/098gs.jpg","null","reveal","image-keyboard-response","31","348798","0.0-6.0-4.3","2795568","co37558","norming","","","","","","",""
"null","../img/tt/098tt.jpg","null","mooney2","image-keyboard-response","32","350802","0.0-6.0-5.3","2795568","co37558","norming","","","","","","",""
"3852.9599999999627","","","post_reveal_questions","survey-likert","33","354655","0.0-6.0-6.3","2795568","co37558","norming","","","{""aha"":4}","[0]","../img/tt/098tt.jpg","",""
"null","<div style=""font-size:60px;""> </div>","null","fixation","html-keyboard-response","34","354858","0.0-6.0-0.4","2795568","co37558","norming","","","","","","",""
"null","../img/tt/1161tt.jpg","null","mooney1","image-keyboard-response","35","357861","0.0-6.0-1.4","2795568","co37558","norming","","","","","","",""
"4345.600000000093","","","post_mooney1_questions","survey-likert","36","362207","0.0-6.0-2.4","2795568","co37558","norming","","","{""curiosity"":4,""confidence"":1}","[0,1]","../img/tt/1161tt.jpg","",""
"2109.8899999999558","","","recognition","survey-text","37","364319","0.0-6.0-3.4","2795568","co37558","norming","","","{""guess"":""paard""}","","../img/tt/1161tt.jpg","",""
"null","../img/gs/1161gs.jpg","null","reveal","image-keyboard-response","38","366329","0.0-6.0-4.4","2795568","co37558","norming","","","","","","",""
"null","../img/tt/1161tt.jpg","null","mooney2","image-keyboard-response","39","368332","0.0-6.0-5.4","2795568","co37558","norming","","","","","","",""
"2658.4749999999185","","","post_reveal_questions","survey-likert","40","370991","0.0-6.0-6.4","2795568","co37558","norming","","","{""aha"":6}","[0]","../img/tt/1161tt.jpg","",""
"null","<div style=""font-size:60px;""> </div>","null","fixation","html-keyboard-response","41","371193","0.0-6.0-0.5","2795568","co37558","norming","","","","","","",""
"null","../img/tt/1189tt.jpg","null","mooney1","image-keyboard-response","42","374211","0.0-6.0-1.5","2795568","co37558","norming","","","","","","",""
"5067.500000000116","","","post_mooney1_questions","survey-likert","43","379280","0.0-6.0-2.5","2795568","co37558","norming","","","{""curiosity"":2,""confidence"":0}","[0,1]","../img/tt/1189tt.jpg","",""
"774.0799999998999","","","recognition","survey-text","44","380055","0.0-6.0-3.5","2795568","co37558","norming","","","{""guess"":""""}","","../img/tt/1189tt.jpg","",""
"null","../img/gs/1189gs.jpg","null","reveal","image-keyboard-response","45","382061","0.0-6.0-4.5","2795568","co37558","norming","","","","","","",""
"null","../img/tt/1189tt.jpg","null","mooney2","image-keyboard-response","46","384062","0.0-6.0-5.5","2795568","co37558","norming","","","","","","",""
"5272.619999999937","","","post_reveal_questions","survey-likert","47","389335","0.0-6.0-6.5","2795568","co37558","norming","","","{""aha"":2}","[0]","../img/tt/1189tt.jpg","",""
"null","<div style=""font-size:60px;""> </div>","null","fixation","html-keyboard-response","48","389537","0.0-6.0-0.6","2795568","co37558","norming","","","","","","",""
"null","../img/tt/318tt.jpg","null","mooney1","image-keyboard-response","49","392547","0.0-6.0-1.6","2795568","co37558","norming","","","","","","",""
"5355.15499999997","","","post_mooney1_questions","survey-likert","50","397904","0.0-6.0-2.6","2795568","co37558","norming","","","{""curiosity"":4,""confidence"":2}","[0,1]","../img/tt/318tt.jpg","",""
"1974.134999999951","","","recognition","survey-text","51","399879","0.0-6.0-3.6","2795568","co37558","norming","","","{""guess"":""auto""}","","../img/tt/318tt.jpg","",""
"null","../img/gs/318gs.jpg","null","reveal","image-keyboard-response","52","401890","0.0-6.0-4.6","2795568","co37558","norming","","","","","","",""
"null","../img/tt/318tt.jpg","null","mooney2","image-keyboard-response","53","403893","0.0-6.0-5.6","2795568","co37558","norming","","","","","","",""
"7273.729999999923","","","post_reveal_questions","survey-likert","54","411167","0.0-6.0-6.6","2795568","co37558","norming","","","{""aha"":5}","[0]","../img/tt/318tt.jpg","",""
"null","<div style=""font-size:60px;""> </div>","null","fixation","html-keyboard-response","55","411369","0.0-6.0-0.7","2795568","co37558","norming","","","","","","",""
"null","../img/tt/010tt.jpg","null","mooney1","image-keyboard-response","56","414378","0.0-6.0-1.7","2795568","co37558","norming","","","","","","",""
"4580.785000000091","","","post_mooney1_questions","survey-likert","57","418960","0.0-6.0-2.7","2795568","co37558","norming","","","{""curiosity"":5,""confidence"":2}","[0,1]","../img/tt/010tt.jpg","",""
"2582.039999999979","","","recognition","survey-text","58","421544","0.0-6.0-3.7","2795568","co37558","norming","","","{""guess"":""micro""}","","../img/tt/010tt.jpg","",""
"null","../img/gs/010gs.jpg","null","reveal","image-keyboard-response","59","423545","0.0-6.0-4.7","2795568","co37558","norming","","","","","","",""
"null","../img/tt/010tt.jpg","null","mooney2","image-keyboard-response","60","425553","0.0-6.0-5.7","2795568","co37558","norming","","","","","","",""
"5477.560000000056","","","post_reveal_questions","survey-likert","61","431032","0.0-6.0-6.7","2795568","co37558","norming","","","{""aha"":1}","[0]","../img/tt/010tt.jpg","",""
"null","<div style=""font-size:60px;""> </div>","null","fixation","html-keyboard-response","62","431234","0.0-6.0-0.8","2795568","co37558","norming","","","","","","",""
"null","../img/tt/603tt.jpg","null","mooney1","image-keyboard-response","63","434239","0.0-6.0-1.8","2795568","co37558","norming","","","","","","",""
"10040.915000000037","","","post_mooney1_questions","survey-likert","64","444281","0.0-6.0-2.8","2795568","co37558","norming","","","{""curiosity"":6,""confidence"":4}","[0,1]","../img/tt/603tt.jpg","",""
"3070.315000000177","","","recognition","survey-text","65","447353","0.0-6.0-3.8","2795568","co37558","norming","","","{""guess"":""katachtige""}","","../img/tt/603tt.jpg","",""
"null","../img/gs/603gs.jpg","null","reveal","image-keyboard-response","66","449356","0.0-6.0-4.8","2795568","co37558","norming","","","","","","",""
"null","../img/tt/603tt.jpg","null","mooney2","image-keyboard-response","67","451363","0.0-6.0-5.8","2795568","co37558","norming","","","","","","",""
"5012.310000000056","","","post_reveal_questions","survey-likert","68","456377","0.0-6.0-6.8","2795568","co37558","norming","","","{""aha"":1}","[0]","../img/tt/603tt.jpg","",""
"null","<div style=""font-size:60px;""> </div>","null","fixation","html-keyboard-response","69","456581","0.0-6.0-0.9","2795568","co37558","norming","","","","","","",""
"null","../img/tt/1080tt.jpg","null","mooney1","image-keyboard-response","70","459583","0.0-6.0-1.9","2795568","co37558","norming","","","","","","",""
"7792.214999999909","","","post_mooney1_questions","survey-likert","71","467377","0.0-6.0-2.9","2795568","co37558","norming","","","{""curiosity"":4,""confidence"":0}","[0,1]","../img/tt/1080tt.jpg","",""
"1494.024999999965","","","recognition","survey-text","72","468873","0.0-6.0-3.9","2795568","co37558","norming","","","{""guess"":""""}","","../img/tt/1080tt.jpg","",""
"null","../img/gs/1080gs.jpg","null","reveal","image-keyboard-response","73","470882","0.0-6.0-4.9","2795568","co37558","norming","","","","","","",""
"null","../img/tt/1080tt.jpg","null","mooney2","image-keyboard-response","74","472884","0.0-6.0-5.9","2795568","co37558","norming","","","","","","",""
"2546.929999999993","","","post_reveal_questions","survey-likert","75","475433","0.0-6.0-6.9","2795568","co37558","norming","","","{""aha"":4}","[0]","../img/tt/1080tt.jpg","",""
"null","<div style=""font-size:60px;""> </div>","null","fixation","html-keyboard-response","76","475635","0.0-6.0-0.10","2795568","co37558","norming","","","","","","",""
"null","../img/tt/584tt.jpg","null","mooney1","image-keyboard-response","77","478639","0.0-6.0-1.10","2795568","co37558","norming","","","","","","",""
"8520.089999999967","","","post_mooney1_questions","survey-likert","78","487161","0.0-6.0-2.10","2795568","co37558","norming","","","{""curiosity"":6,""confidence"":4}","[0,1]","../img/tt/584tt.jpg","",""
"2045.9499999999534","","","recognition","survey-text","79","489209","0.0-6.0-3.10","2795568","co37558","norming","","","{""guess"":""bloem""}","","../img/tt/584tt.jpg","",""
"null","../img/gs/584gs.jpg","null","reveal","image-keyboard-response","80","491214","0.0-6.0-4.10","2795568","co37558","norming","","","","","","",""
"null","../img/tt/584tt.jpg","null","mooney2","image-keyboard-response","81","493223","0.0-6.0-5.10","2795568","co37558","norming","","","","","","",""
"6496.2399999999325","","","post_reveal_questions","survey-likert","82","499721","0.0-6.0-6.10","2795568","co37558","norming","","","{""aha"":5}","[0]","../img/tt/584tt.jpg","",""
"null","<div style=""font-size:60px;""> </div>","null","fixation","html-keyboard-response","83","499922","0.0-6.0-0.11","2795568","co37558","norming","","","","","","",""
"null","../img/tt/567tt.jpg","null","mooney1","image-keyboard-response","84","502933","0.0-6.0-1.11","2795568","co37558","norming","","","","","","",""
"6153.869999999821","","","post_mooney1_questions","survey-likert","85","509089","0.0-6.0-2.11","2795568","co37558","norming","","","{""curiosity"":3,""confidence"":1}","[0,1]","../img/tt/567tt.jpg","",""
"4662.169999999867","","","recognition","survey-text","86","513753","0.0-6.0-3.11","2795568","co37558","norming","","","{""guess"":""auto""}","","../img/tt/567tt.jpg","",""
"null","../img/gs/567gs.jpg","null","reveal","image-keyboard-response","87","515754","0.0-6.0-4.11","2795568","co37558","norming","","","","","","",""
"null","../img/tt/567tt.jpg","null","mooney2","image-keyboard-response","88","517757","0.0-6.0-5.11","2795568","co37558","norming","","","","","","",""
"2785.804999999993","","","post_reveal_questions","survey-likert","89","520545","0.0-6.0-6.11","2795568","co37558","norming","","","{""aha"":1}","[0]","../img/tt/567tt.jpg","",""
"null","<div style=""font-size:60px;""> </div>","null","fixation","html-keyboard-response","90","520747","0.0-6.0-0.12","2795568","co37558","norming","","","","","","",""
"null","../img/tt/052tt.jpg","null","mooney1","image-keyboard-response","91","523757","0.0-6.0-1.12","2795568","co37558","norming","","","","","","",""
"6209.765000000014","","","post_mooney1_questions","survey-likert","92","529969","0.0-6.0-2.12","2795568","co37558","norming","","","{""curiosity"":5,""confidence"":2}","[0,1]","../img/tt/052tt.jpg","",""
"2517.895000000135","","","recognition","survey-text","93","532489","0.0-6.0-3.12","2795568","co37558","norming","","","{""guess"":""zwembad""}","","../img/tt/052tt.jpg","",""
"null","../img/gs/052gs.jpg","null","reveal","image-keyboard-response","94","534490","0.0-6.0-4.12","2795568","co37558","norming","","","","","","",""
"null","../img/tt/052tt.jpg","null","mooney2","image-keyboard-response","95","536498","0.0-6.0-5.12","2795568","co37558","norming","","","","","","",""
"2669.399999999907","","","post_reveal_questions","survey-likert","96","539169","0.0-6.0-6.12","2795568","co37558","norming","","","{""aha"":1}","[0]","../img/tt/052tt.jpg","",""
"null","<div style=""font-size:60px;""> </div>","null","fixation","html-keyboard-response","97","539370","0.0-6.0-0.13","2795568","co37558","norming","","","","","","",""
"null","../img/tt/1171tt.jpg","null","mooney1","image-keyboard-response","98","542373","0.0-6.0-1.13","2795568","co37558","norming","","","","","","",""
"5329.98499999987","","","post_mooney1_questions","survey-likert","99","547705","0.0-6.0-2.13","2795568","co37558","norming","","","{""curiosity"":5,""confidence"":2}","[0,1]","../img/tt/1171tt.jpg","",""
"2542.145000000135","","","recognition","survey-text","100","550249","0.0-6.0-3.13","2795568","co37558","norming","","","{""guess"":""uil""}","","../img/tt/1171tt.jpg","",""
"null","../img/gs/1171gs.jpg","null","reveal","image-keyboard-response","101","552257","0.0-6.0-4.13","2795568","co37558","norming","","","","","","",""
"null","../img/tt/1171tt.jpg","null","mooney2","image-keyboard-response","102","554257","0.0-6.0-5.13","2795568","co37558","norming","","","","","","",""
"1966.390000000014","","","post_reveal_questions","survey-likert","103","556225","0.0-6.0-6.13","2795568","co37558","norming","","","{""aha"":6}","[0]","../img/tt/1171tt.jpg","",""
"null","<div style=""font-size:60px;""> </div>","null","fixation","html-keyboard-response","104","556426","0.0-6.0-0.14","2795568","co37558","norming","","","","","","",""
"null","../img/tt/1127tt.jpg","null","mooney1","image-keyboard-response","105","559432","0.0-6.0-1.14","2795568","co37558","norming","","","","","","",""
"9342.710000000196","","","post_mooney1_questions","survey-likert","106","568777","0.0-6.0-2.14","2795568","co37558","norming","","","{""curiosity"":5,""confidence"":2}","[0,1]","../img/tt/1127tt.jpg","",""
"3374.17499999993","","","recognition","survey-text","107","572153","0.0-6.0-3.14","2795568","co37558","norming","","","{""guess"":""basketbalveld""}","","../img/tt/1127tt.jpg","",""
"null","../img/gs/1127gs.jpg","null","reveal","image-keyboard-response","108","574155","0.0-6.0-4.14","2795568","co37558","norming","","","","","","",""
"null","../img/tt/1127tt.jpg","null","mooney2","image-keyboard-response","109","576159","0.0-6.0-5.14","2795568","co37558","norming","","","","","","",""
"2264.2350000001024","","","post_reveal_questions","survey-likert","110","578425","0.0-6.0-6.14","2795568","co37558","norming","","","{""aha"":6}","[0]","../img/tt/1127tt.jpg","",""
"null","<div style=""font-size:60px;""> </div>","null","fixation","html-keyboard-response","111","578626","0.0-6.0-0.15","2795568","co37558","norming","","","","","","",""
"null","../img/tt/108tt.jpg","null","mooney1","image-keyboard-response","112","581633","0.0-6.0-1.15","2795568","co37558","norming","","","","","","",""
"4870.360000000102","","","post_mooney1_questions","survey-likert","113","586505","0.0-6.0-2.15","2795568","co37558","norming","","","{""curiosity"":2,""confidence"":1}","[0,1]","../img/tt/108tt.jpg","",""
"1501.5200000000186","","","recognition","survey-text","114","588009","0.0-6.0-3.15","2795568","co37558","norming","","","{""guess"":""ram""}","","../img/tt/108tt.jpg","",""
"null","../img/gs/108gs.jpg","null","reveal","image-keyboard-response","115","590011","0.0-6.0-4.15","2795568","co37558","norming","","","","","","",""
"null","../img/tt/108tt.jpg","null","mooney2","image-keyboard-response","116","592016","0.0-6.0-5.15","2795568","co37558","norming","","","","","","",""
"2567.895000000135","","","post_reveal_questions","survey-likert","117","594585","0.0-6.0-6.15","2795568","co37558","norming","","","{""aha"":5}","[0]","../img/tt/108tt.jpg","",""
"null","<div style=""font-size:60px;""> </div>","null","fixation","html-keyboard-response","118","594786","0.0-6.0-0.16","2795568","co37558","norming","","","","","","",""
"null","../img/tt/189tt.jpg","null","mooney1","image-keyboard-response","119","597792","0.0-6.0-1.16","2795568","co37558","norming","","","","","","",""
"6103.554999999935","","","post_mooney1_questions","survey-likert","120","603897","0.0-6.0-2.16","2795568","co37558","norming","","","{""curiosity"":4,""confidence"":1}","[0,1]","../img/tt/189tt.jpg","",""
"5502.354999999865","","","recognition","survey-text","121","609401","0.0-6.0-3.16","2795568","co37558","norming","","","{""guess"":""vlinder""}","","../img/tt/189tt.jpg","",""
"null","../img/gs/189gs.jpg","null","reveal","image-keyboard-response","122","611406","0.0-6.0-4.16","2795568","co37558","norming","","","","","","",""
"null","../img/tt/189tt.jpg","null","mooney2","image-keyboard-response","123","613409","0.0-6.0-5.16","2795568","co37558","norming","","","","","","",""
"1853.9300000000512","","","post_reveal_questions","survey-likert","124","615265","0.0-6.0-6.16","2795568","co37558","norming","","","{""aha"":1}","[0]","../img/tt/189tt.jpg","",""
"null","<div style=""font-size:60px;""> </div>","null","fixation","html-keyboard-response","125","615466","0.0-6.0-0.17","2795568","co37558","norming","","","","","","",""
"null","../img/tt/053tt.jpg","null","mooney1","image-keyboard-response","126","618474","0.0-6.0-1.17","2795568","co37558","norming","","","","","","",""
"5556.524999999907","","","post_mooney1_questions","survey-likert","127","624028","0.0-6.0-2.17","2795568","co37558","norming","","","{""curiosity"":0,""confidence"":0}","[0,1]","../img/tt/053tt.jpg","",""
"701.7250000002095","","","recognition","survey-text","128","624732","0.0-6.0-3.17","2795568","co37558","norming","","","{""guess"":""""}","","../img/tt/053tt.jpg","",""
"null","../img/gs/053gs.jpg","null","reveal","image-keyboard-response","129","626739","0.0-6.0-4.17","2795568","co37558","norming","","","","","","",""
"null","../img/tt/053tt.jpg","null","mooney2","image-keyboard-response","130","628740","0.0-6.0-5.17","2795568","co37558","norming","","","","","","",""
"5077.555000000051","","","post_reveal_questions","survey-likert","131","633820","0.0-6.0-6.17","2795568","co37558","norming","","","{""aha"":1}","[0]","../img/tt/053tt.jpg","",""
"null","<div style=""font-size:60px;""> </div>","null","fixation","html-keyboard-response","132","634021","0.0-6.0-0.18","2795568","co37558","norming","","","","","","",""
"null","../img/tt/163tt.jpg","null","mooney1","image-keyboard-response","133","637029","0.0-6.0-1.18","2795568","co37558","norming","","","","","","",""
"6620.64999999979","","","post_mooney1_questions","survey-likert","134","643652","0.0-6.0-2.18","2795568","co37558","norming","","","{""curiosity"":4,""confidence"":1}","[0,1]","../img/tt/163tt.jpg","",""
"2622.350000000093","","","recognition","survey-text","135","646276","0.0-6.0-3.18","2795568","co37558","norming","","","{""guess"":""katachtige""}","","../img/tt/163tt.jpg","",""
"null","../img/gs/163gs.jpg","null","reveal","image-keyboard-response","136","648277","0.0-6.0-4.18","2795568","co37558","norming","","","","","","",""
"null","../img/tt/163tt.jpg","null","mooney2","image-keyboard-response","137","650278","0.0-6.0-5.18","2795568","co37558","norming","","","","","","",""
"3413.0999999999767","","","post_reveal_questions","survey-likert","138","653692","0.0-6.0-6.18","2795568","co37558","norming","","","{""aha"":5}","[0]","../img/tt/163tt.jpg","",""
"null","<div style=""font-size:60px;""> </div>","null","fixation","html-keyboard-response","139","653894","0.0-6.0-0.19","2795568","co37558","norming","","","","","","",""
"null","../img/tt/036tt.jpg","null","mooney1","image-keyboard-response","140","656901","0.0-6.0-1.19","2795568","co37558","norming","","","","","","",""
"4316.324999999953","","","post_mooney1_questions","survey-likert","141","661220","0.0-6.0-2.19","2795568","co37558","norming","","","{""curiosity"":0,""confidence"":0}","[0,1]","../img/tt/036tt.jpg","",""
"902.1950000000652","","","recognition","survey-text","142","662124","0.0-6.0-3.19","2795568","co37558","norming","","","{""guess"":""""}","","../img/tt/036tt.jpg","",""
"null","../img/gs/036gs.jpg","null","reveal","image-keyboard-response","143","664132","0.0-6.0-4.19","2795568","co37558","norming","","","","","","",""
"null","../img/tt/036tt.jpg","null","mooney2","image-keyboard-response","144","666134","0.0-6.0-5.19","2795568","co37558","norming","","","","","","",""
"3684.3499999999767","","","post_reveal_questions","survey-likert","145","669820","0.0-6.0-6.19","2795568","co37558","norming","","","{""aha"":2}","[0]","../img/tt/036tt.jpg","",""
"null","<div style=""font-size:60px;""> </div>","null","fixation","html-keyboard-response","146","670021","0.0-6.0-0.20","2795568","co37558","norming","","","","","","",""
"null","../img/tt/1123tt.jpg","null","mooney1","image-keyboard-response","147","673027","0.0-6.0-1.20","2795568","co37558","norming","","","","","","",""
"4934.520000000019","","","post_mooney1_questions","survey-likert","148","677964","0.0-6.0-2.20","2795568","co37558","norming","","","{""curiosity"":5,""confidence"":2}","[0,1]","../img/tt/1123tt.jpg","",""
"2822.454999999958","","","recognition","survey-text","149","680789","0.0-6.0-3.20","2795568","co37558","norming","","","{""guess"":""baksetball""}","","../img/tt/1123tt.jpg","",""
"null","../img/gs/1123gs.jpg","null","reveal","image-keyboard-response","150","682799","0.0-6.0-4.20","2795568","co37558","norming","","","","","","",""
"null","../img/tt/1123tt.jpg","null","mooney2","image-keyboard-response","151","684801","0.0-6.0-5.20","2795568","co37558","norming","","","","","","",""
"1945.530000000028","","","post_reveal_questions","survey-likert","152","686748","0.0-6.0-6.20","2795568","co37558","norming","","","{""aha"":5}","[0]","../img/tt/1123tt.jpg","",""
"null","<div style=""font-size:60px;""> </div>","null","fixation","html-keyboard-response","153","686950","0.0-6.0-0.21","2795568","co37558","norming","","","","","","",""
"null","../img/tt/1142tt.jpg","null","mooney1","image-keyboard-response","154","689958","0.0-6.0-1.21","2795568","co37558","norming","","","","","","",""
"7492.204999999958","","","post_mooney1_questions","survey-likert","155","697453","0.0-6.0-2.21","2795568","co37558","norming","","","{""curiosity"":2,""confidence"":6}","[0,1]","../img/tt/1142tt.jpg","",""
"2902.0499999998137","","","recognition","survey-text","156","700356","0.0-6.0-3.21","2795568","co37558","norming","","","{""guess"":""hoogspringen""}","","../img/tt/1142tt.jpg","",""
"null","../img/gs/1142gs.jpg","null","reveal","image-keyboard-response","157","702358","0.0-6.0-4.21","2795568","co37558","norming","","","","","","",""
"null","../img/tt/1142tt.jpg","null","mooney2","image-keyboard-response","158","704365","0.0-6.0-5.21","2795568","co37558","norming","","","","","","",""
"5237.980000000098","","","post_reveal_questions","survey-likert","159","709604","0.0-6.0-6.21","2795568","co37558","norming","","","{""aha"":4}","[0]","../img/tt/1142tt.jpg","",""
"null","<div style=""font-size:60px;""> </div>","null","fixation","html-keyboard-response","160","709806","0.0-6.0-0.22","2795568","co37558","norming","","","","","","",""
"null","../img/tt/1275tt.jpg","null","mooney1","image-keyboard-response","161","712817","0.0-6.0-1.22","2795568","co37558","norming","","","","","","",""
"5025.625","","","post_mooney1_questions","survey-likert","162","717845","0.0-6.0-2.22","2795568","co37558","norming","","","{""curiosity"":5,""confidence"":2}","[0,1]","../img/tt/1275tt.jpg","",""
"2110.2650000001304","","","recognition","survey-text","163","719956","0.0-6.0-3.22","2795568","co37558","norming","","","{""guess"":""varken""}","","../img/tt/1275tt.jpg","",""
"null","../img/gs/1275gs.jpg","null","reveal","image-keyboard-response","164","721963","0.0-6.0-4.22","2795568","co37558","norming","","","","","","",""
"null","../img/tt/1275tt.jpg","null","mooney2","image-keyboard-response","165","723966","0.0-6.0-5.22","2795568","co37558","norming","","","","","","",""
"3996.644999999902","","","post_reveal_questions","survey-likert","166","727964","0.0-6.0-6.22","2795568","co37558","norming","","","{""aha"":2}","[0]","../img/tt/1275tt.jpg","",""
"null","<div style=""font-size:60px;""> </div>","null","fixation","html-keyboard-response","167","728167","0.0-6.0-0.23","2795568","co37558","norming","","","","","","",""
"null","../img/tt/078tt.jpg","null","mooney1","image-keyboard-response","168","731175","0.0-6.0-1.23","2795568","co37558","norming","","","","","","",""
"4034.9600000001956","","","post_mooney1_questions","survey-likert","169","735213","0.0-6.0-2.23","2795568","co37558","norming","","","{""curiosity"":1,""confidence"":0}","[0,1]","../img/tt/078tt.jpg","",""
"1101.8950000000186","","","recognition","survey-text","170","736316","0.0-6.0-3.23","2795568","co37558","norming","","","{""guess"":""""}","","../img/tt/078tt.jpg","",""
"null","../img/gs/078gs.jpg","null","reveal","image-keyboard-response","171","738317","0.0-6.0-4.23","2795568","co37558","norming","","","","","","",""
"null","../img/tt/078tt.jpg","null","mooney2","image-keyboard-response","172","740319","0.0-6.0-5.23","2795568","co37558","norming","","","","","","",""
"1708.1350000000093","","","post_reveal_questions","survey-likert","173","742025","0.0-6.0-6.23","2795568","co37558","norming","","","{""aha"":1}","[0]","../img/tt/078tt.jpg","",""
"null","<div style=""font-size:60px;""> </div>","null","fixation","html-keyboard-response","174","742228","0.0-6.0-0.24","2795568","co37558","norming","","","","","","",""
"null","../img/tt/1004tt.jpg","null","mooney1","image-keyboard-response","175","745231","0.0-6.0-1.24","2795568","co37558","norming","","","","","","",""
"6327.540000000037","","","post_mooney1_questions","survey-likert","176","751562","0.0-6.0-2.24","2795568","co37558","norming","","","{""curiosity"":5,""confidence"":2}","[0,1]","../img/tt/1004tt.jpg","",""
"1878.0699999999488","","","recognition","survey-text","177","753441","0.0-6.0-3.24","2795568","co37558","norming","","","{""guess"":""leeuw""}","","../img/tt/1004tt.jpg","",""
"null","../img/gs/1004gs.jpg","null","reveal","image-keyboard-response","178","755450","0.0-6.0-4.24","2795568","co37558","norming","","","","","","",""
"null","../img/tt/1004tt.jpg","null","mooney2","image-keyboard-response","179","757453","0.0-6.0-5.24","2795568","co37558","norming","","","","","","",""
"2826.409999999916","","","post_reveal_questions","survey-likert","180","760281","0.0-6.0-6.24","2795568","co37558","norming","","","{""aha"":5}","[0]","../img/tt/1004tt.jpg","",""
"null","<div style=""font-size:60px;""> </div>","null","fixation","html-keyboard-response","181","760482","0.0-6.0-0.25","2795568","co37558","norming","","","","","","",""
"null","../img/tt/118tt.jpg","null","mooney1","image-keyboard-response","182","763488","0.0-6.0-1.25","2795568","co37558","norming","","","","","","",""
"6950.679999999935","","","post_mooney1_questions","survey-likert","183","770441","0.0-6.0-2.25","2795568","co37558","norming","","","{""curiosity"":5,""confidence"":3}","[0,1]","../img/tt/118tt.jpg","",""
"2678.045000000042","","","recognition","survey-text","184","773121","0.0-6.0-3.25","2795568","co37558","norming","","","{""guess"":""tuinslang""}","","../img/tt/118tt.jpg","",""
"null","../img/gs/118gs.jpg","null","reveal","image-keyboard-response","185","775124","0.0-6.0-4.25","2795568","co37558","norming","","","","","","",""
"null","../img/tt/118tt.jpg","null","mooney2","image-keyboard-response","186","777127","0.0-6.0-5.25","2795568","co37558","norming","","","","","","",""
"2824.4599999998463","","","post_reveal_questions","survey-likert","187","779953","0.0-6.0-6.25","2795568","co37558","norming","","","{""aha"":5}","[0]","../img/tt/118tt.jpg","",""
"null","<div style=""font-size:60px;""> </div>","null","fixation","html-keyboard-response","188","780154","0.0-6.0-0.26","2795568","co37558","norming","","","","","","",""
"null","../img/tt/590tt.jpg","null","mooney1","image-keyboard-response","189","783162","0.0-6.0-1.26","2795568","co37558","norming","","","","","","",""
"7373.300000000047","","","post_mooney1_questions","survey-likert","190","790537","0.0-6.0-2.26","2795568","co37558","norming","","","{""curiosity"":4,""confidence"":1}","[0,1]","../img/tt/590tt.jpg","",""
"1574.115000000107","","","recognition","survey-text","191","792113","0.0-6.0-3.26","2795568","co37558","norming","","","{""guess"":""balk""}","","../img/tt/590tt.jpg","",""
"null","../img/gs/590gs.jpg","null","reveal","image-keyboard-response","192","794118","0.0-6.0-4.26","2795568","co37558","norming","","","","","","",""
"null","../img/tt/590tt.jpg","null","mooney2","image-keyboard-response","193","796119","0.0-6.0-5.26","2795568","co37558","norming","","","","","","",""
"1513.2450000001118","","","post_reveal_questions","survey-likert","194","797633","0.0-6.0-6.26","2795568","co37558","norming","","","{""aha"":6}","[0]","../img/tt/590tt.jpg","",""
"null","<div style=""font-size:60px;""> </div>","null","fixation","html-keyboard-response","195","797835","0.0-6.0-0.27","2795568","co37558","norming","","","","","","",""
"null","../img/tt/1055tt.jpg","null","mooney1","image-keyboard-response","196","800839","0.0-6.0-1.27","2795568","co37558","norming","","","","","","",""
"7135.620000000112","","","post_mooney1_questions","survey-likert","197","807985","0.0-6.0-2.27","2795568","co37558","norming","","","{""curiosity"":4,""confidence"":1}","[0,1]","../img/tt/1055tt.jpg","",""
"2038.2699999999022","","","recognition","survey-text","198","810025","0.0-6.0-3.27","2795568","co37558","norming","","","{""guess"":""riool""}","","../img/tt/1055tt.jpg","",""
"null","../img/gs/1055gs.jpg","null","reveal","image-keyboard-response","199","812026","0.0-6.0-4.27","2795568","co37558","norming","","","","","","",""
"null","../img/tt/1055tt.jpg","null","mooney2","image-keyboard-response","200","814029","0.0-6.0-5.27","2795568","co37558","norming","","","","","","",""
"1537.0700000000652","","","post_reveal_questions","survey-likert","201","815568","0.0-6.0-6.27","2795568","co37558","norming","","","{""aha"":6}","[0]","../img/tt/1055tt.jpg","",""
"null","<div style=""font-size:60px;""> </div>","null","fixation","html-keyboard-response","202","815769","0.0-6.0-0.28","2795568","co37558","norming","","","","","","",""
"null","../img/tt/517tt.jpg","null","mooney1","image-keyboard-response","203","818778","0.0-6.0-1.28","2795568","co37558","norming","","","","","","",""
"3395.6500000001397","","","post_mooney1_questions","survey-likert","204","822176","0.0-6.0-2.28","2795568","co37558","norming","","","{""curiosity"":1,""confidence"":0}","[0,1]","../img/tt/517tt.jpg","",""
"694.5050000001211","","","recognition","survey-text","205","822873","0.0-6.0-3.28","2795568","co37558","norming","","","{""guess"":""""}","","../img/tt/517tt.jpg","",""
"null","../img/gs/517gs.jpg","null","reveal","image-keyboard-response","206","824882","0.0-6.0-4.28","2795568","co37558","norming","","","","","","",""
"null","../img/tt/517tt.jpg","null","mooney2","image-keyboard-response","207","826884","0.0-6.0-5.28","2795568","co37558","norming","","","","","","",""
"2410.875","","","post_reveal_questions","survey-likert","208","829296","0.0-6.0-6.28","2795568","co37558","norming","","","{""aha"":2}","[0]","../img/tt/517tt.jpg","",""
"null","<div style=""font-size:60px;""> </div>","null","fixation","html-keyboard-response","209","829497","0.0-6.0-0.29","2795568","co37558","norming","","","","","","",""
"null","../img/tt/1242tt.jpg","null","mooney1","image-keyboard-response","210","832502","0.0-6.0-1.29","2795568","co37558","norming","","","","","","",""
"7552.100000000093","","","post_mooney1_questions","survey-likert","211","840057","0.0-6.0-2.29","2795568","co37558","norming","","","{""curiosity"":4,""confidence"":3}","[0,1]","../img/tt/1242tt.jpg","",""
"1518.3749999998836","","","recognition","survey-text","212","841577","0.0-6.0-3.29","2795568","co37558","norming","","","{""guess"":""hond""}","","../img/tt/1242tt.jpg","",""
"null","../img/gs/1242gs.jpg","null","reveal","image-keyboard-response","213","843579","0.0-6.0-4.29","2795568","co37558","norming","","","","","","",""
"null","../img/tt/1242tt.jpg","null","mooney2","image-keyboard-response","214","845583","0.0-6.0-5.29","2795568","co37558","norming","","","","","","",""
"3807.7750000000233","","","post_reveal_questions","survey-likert","215","849392","0.0-6.0-6.29","2795568","co37558","norming","","","{""aha"":2}","[0]","../img/tt/1242tt.jpg","",""
"null","<div style=""font-size:60px;""> </div>","null","fixation","html-keyboard-response","216","849593","0.0-6.0-0.30","2795568","co37558","norming","","","","","","",""
"null","../img/tt/222tt.jpg","null","mooney1","image-keyboard-response","217","852603","0.0-6.0-1.30","2795568","co37558","norming","","","","","","",""
"4195.400000000023","","","post_mooney1_questions","survey-likert","218","856801","0.0-6.0-2.30","2795568","co37558","norming","","","{""curiosity"":2,""confidence"":1}","[0,1]","../img/tt/222tt.jpg","",""
"1813.9499999999534","","","recognition","survey-text","219","858616","0.0-6.0-3.30","2795568","co37558","norming","","","{""guess"":""tafel""}","","../img/tt/222tt.jpg","",""
"null","../img/gs/222gs.jpg","null","reveal","image-keyboard-response","220","860619","0.0-6.0-4.30","2795568","co37558","norming","","","","","","",""
"null","../img/tt/222tt.jpg","null","mooney2","image-keyboard-response","221","862622","0.0-6.0-5.30","2795568","co37558","norming","","","","","","",""
"3424.875000000233","","","post_reveal_questions","survey-likert","222","866048","0.0-6.0-6.30","2795568","co37558","norming","","","{""aha"":1}","[0]","../img/tt/222tt.jpg","",""
"null","<div style=""font-size:60px;""> </div>","null","fixation","html-keyboard-response","223","866250","0.0-6.0-0.31","2795568","co37558","norming","","","","","","",""
"null","../img/tt/1130tt.jpg","null","mooney1","image-keyboard-response","224","869255","0.0-6.0-1.31","2795568","co37558","norming","","","","","","",""
"5495.164999999804","","","post_mooney1_questions","survey-likert","225","874752","0.0-6.0-2.31","2795568","co37558","norming","","","{""curiosity"":1,""confidence"":5}","[0,1]","../img/tt/1130tt.jpg","",""
"2357.914999999921","","","recognition","survey-text","226","877112","0.0-6.0-3.31","2795568","co37558","norming","","","{""guess"":""wielrennen""}","","../img/tt/1130tt.jpg","",""
"null","../img/gs/1130gs.jpg","null","reveal","image-keyboard-response","227","879116","0.0-6.0-4.31","2795568","co37558","norming","","","","","","",""
"null","../img/tt/1130tt.jpg","null","mooney2","image-keyboard-response","228","881121","0.0-6.0-5.31","2795568","co37558","norming","","","","","","",""
"2292.7199999998556","","","post_reveal_questions","survey-likert","229","883416","0.0-6.0-6.31","2795568","co37558","norming","","","{""aha"":0}","[0]","../img/tt/1130tt.jpg","",""
"null","<div style=""font-size:60px;""> </div>","null","fixation","html-keyboard-response","230","883617","0.0-6.0-0.32","2795568","co37558","norming","","","","","","",""
"null","../img/tt/442tt.jpg","null","mooney1","image-keyboard-response","231","886622","0.0-6.0-1.32","2795568","co37558","norming","","","","","","",""
"5168.160000000149","","","post_mooney1_questions","survey-likert","232","891792","0.0-6.0-2.32","2795568","co37558","norming","","","{""curiosity"":1,""confidence"":1}","[0,1]","../img/tt/442tt.jpg","",""
"2806.2650000001304","","","recognition","survey-text","233","894600","0.0-6.0-3.32","2795568","co37558","norming","","","{""guess"":""eten""}","","../img/tt/442tt.jpg","",""
"null","../img/gs/442gs.jpg","null","reveal","image-keyboard-response","234","896603","0.0-6.0-4.32","2795568","co37558","norming","","","","","","",""
"null","../img/tt/442tt.jpg","null","mooney2","image-keyboard-response","235","898605","0.0-6.0-5.32","2795568","co37558","norming","","","","","","",""
"4089.3799999998882","","","post_reveal_questions","survey-likert","236","902696","0.0-6.0-6.32","2795568","co37558","norming","","","{""aha"":1}","[0]","../img/tt/442tt.jpg","",""
"null","<div style=""font-size:60px;""> </div>","null","fixation","html-keyboard-response","237","902897","0.0-6.0-0.33","2795568","co37558","norming","","","","","","",""
"null","../img/tt/1154tt.jpg","null","mooney1","image-keyboard-response","238","905901","0.0-6.0-1.33","2795568","co37558","norming","","","","","","",""
"7968.194999999832","","","post_mooney1_questions","survey-likert","239","913872","0.0-6.0-2.33","2795568","co37558","norming","","","{""curiosity"":4,""confidence"":2}","[0,1]","../img/tt/1154tt.jpg","",""
"6422","","","recognition","survey-text","240","920296","0.0-6.0-3.33","2795568","co37558","norming","","","{""guess"":""verspringen""}","","../img/tt/1154tt.jpg","",""
"null","../img/gs/1154gs.jpg","null","reveal","image-keyboard-response","241","922306","0.0-6.0-4.33","2795568","co37558","norming","","","","","","",""
"null","../img/tt/1154tt.jpg","null","mooney2","image-keyboard-response","242","924307","0.0-6.0-5.33","2795568","co37558","norming","","","","","","",""
"4852.165000000037","","","post_reveal_questions","survey-likert","243","929160","0.0-6.0-6.33","2795568","co37558","norming","","","{""aha"":1}","[0]","../img/tt/1154tt.jpg","",""
"null","<div style=""font-size:60px;""> </div>","null","fixation","html-keyboard-response","244","929362","0.0-6.0-0.34","2795568","co37558","norming","","","","","","",""
"null","../img/tt/1046tt.jpg","null","mooney1","image-keyboard-response","245","932368","0.0-6.0-1.34","2795568","co37558","norming","","","","","","",""
"4159.145000000019","","","post_mooney1_questions","survey-likert","246","936529","0.0-6.0-2.34","2795568","co37558","norming","","","{""curiosity"":1,""confidence"":1}","[0,1]","../img/tt/1046tt.jpg","",""
"1733.655000000028","","","recognition","survey-text","247","938264","0.0-6.0-3.34","2795568","co37558","norming","","","{""guess"":""tafel""}","","../img/tt/1046tt.jpg","",""
"null","../img/gs/1046gs.jpg","null","reveal","image-keyboard-response","248","940269","0.0-6.0-4.34","2795568","co37558","norming","","","","","","",""
"null","../img/tt/1046tt.jpg","null","mooney2","image-keyboard-response","249","942279","0.0-6.0-5.34","2795568","co37558","norming","","","","","","",""
"2241.1650000001537","","","post_reveal_questions","survey-likert","250","944521","0.0-6.0-6.34","2795568","co37558","norming","","","{""aha"":1}","[0]","../img/tt/1046tt.jpg","",""
"null","<div style=""font-size:60px;""> </div>","null","fixation","html-keyboard-response","251","944723","0.0-6.0-0.35","2795568","co37558","norming","","","","","","",""
"null","../img/tt/1063tt.jpg","null","mooney1","image-keyboard-response","252","947725","0.0-6.0-1.35","2795568","co37558","norming","","","","","","",""
"5025.834999999963","","","post_mooney1_questions","survey-likert","253","952753","0.0-6.0-2.35","2795568","co37558","norming","","","{""curiosity"":5,""confidence"":5}","[0,1]","../img/tt/1063tt.jpg","",""
"1558.1850000000559","","","recognition","survey-text","254","954313","0.0-6.0-3.35","2795568","co37558","norming","","","{""guess"":""aap""}","","../img/tt/1063tt.jpg","",""
"null","../img/gs/1063gs.jpg","null","reveal","image-keyboard-response","255","956320","0.0-6.0-4.35","2795568","co37558","norming","","","","","","",""
"null","../img/tt/1063tt.jpg","null","mooney2","image-keyboard-response","256","958321","0.0-6.0-5.35","2795568","co37558","norming","","","","","","",""
"2526.4799999999814","","","post_reveal_questions","survey-likert","257","960849","0.0-6.0-6.35","2795568","co37558","norming","","","{""aha"":4}","[0]","../img/tt/1063tt.jpg","",""
"null","<div style=""font-size:60px;""> </div>","null","fixation","html-keyboard-response","258","961050","0.0-6.0-0.36","2795568","co37558","norming","","","","","","",""
"null","../img/tt/319tt.jpg","null","mooney1","image-keyboard-response","259","964052","0.0-6.0-1.36","2795568","co37558","norming","","","","","","",""
"6362.290000000037","","","post_mooney1_questions","survey-likert","260","970417","0.0-6.0-2.36","2795568","co37558","norming","","","{""curiosity"":5,""confidence"":1}","[0,1]","../img/tt/319tt.jpg","",""
"2038.0600000000559","","","recognition","survey-text","261","972457","0.0-6.0-3.36","2795568","co37558","norming","","","{""guess"":""neushoorn""}","","../img/tt/319tt.jpg","",""
"null","../img/gs/319gs.jpg","null","reveal","image-keyboard-response","262","974459","0.0-6.0-4.36","2795568","co37558","norming","","","","","","",""
"null","../img/tt/319tt.jpg","null","mooney2","image-keyboard-response","263","976462","0.0-6.0-5.36","2795568","co37558","norming","","","","","","",""
"5184.560000000172","","","post_reveal_questions","survey-likert","264","981649","0.0-6.0-6.36","2795568","co37558","norming","","","{""aha"":4}","[0]","../img/tt/319tt.jpg","",""
"null","<div style=""font-size:60px;""> </div>","null","fixation","html-keyboard-response","265","981850","0.0-6.0-0.37","2795568","co37558","norming","","","","","","",""
"null","../img/tt/1283tt.jpg","null","mooney1","image-keyboard-response","266","984861","0.0-6.0-1.37","2795568","co37558","norming","","","","","","",""
"4448.965000000084","","","post_mooney1_questions","survey-likert","267","989313","0.0-6.0-2.37","2795568","co37558","norming","","","{""curiosity"":2,""confidence"":1}","[0,1]","../img/tt/1283tt.jpg","",""
"1397.9449999999488","","","recognition","survey-text","268","990712","0.0-6.0-3.37","2795568","co37558","norming","","","{""guess"":""uil""}","","../img/tt/1283tt.jpg","",""
"null","../img/gs/1283gs.jpg","null","reveal","image-keyboard-response","269","992715","0.0-6.0-4.37","2795568","co37558","norming","","","","","","",""
"null","../img/tt/1283tt.jpg","null","mooney2","image-keyboard-response","270","994719","0.0-6.0-5.37","2795568","co37558","norming","","","","","","",""
"2695.315000000177","","","post_reveal_questions","survey-likert","271","997416","0.0-6.0-6.37","2795568","co37558","norming","","","{""aha"":2}","[0]","../img/tt/1283tt.jpg","",""
"null","<div style=""font-size:60px;""> </div>","null","fixation","html-keyboard-response","272","997618","0.0-6.0-0.38","2795568","co37558","norming","","","","","","",""
"null","../img/tt/270tt.jpg","null","mooney1","image-keyboard-response","273","1000621","0.0-6.0-1.38","2795568","co37558","norming","","","","","","",""
"4943.614999999991","","","post_mooney1_questions","survey-likert","274","1005569","0.0-6.0-2.38","2795568","co37558","norming","","","{""curiosity"":5,""confidence"":2}","[0,1]","../img/tt/270tt.jpg","",""
"2038.1550000002608","","","recognition","survey-text","275","1007608","0.0-6.0-3.38","2795568","co37558","norming","","","{""guess"":""dansen""}","","../img/tt/270tt.jpg","",""
"null","../img/gs/270gs.jpg","null","reveal","image-keyboard-response","276","1009618","0.0-6.0-4.38","2795568","co37558","norming","","","","","","",""
"null","../img/tt/270tt.jpg","null","mooney2","image-keyboard-response","277","1011620","0.0-6.0-5.38","2795568","co37558","norming","","","","","","",""
"3369.8199999998324","","","post_reveal_questions","survey-likert","278","1014992","0.0-6.0-6.38","2795568","co37558","norming","","","{""aha"":1}","[0]","../img/tt/270tt.jpg","",""
"null","<div style=""font-size:60px;""> </div>","null","fixation","html-keyboard-response","279","1015194","0.0-6.0-0.39","2795568","co37558","norming","","","","","","",""
"null","../img/tt/1237tt.jpg","null","mooney1","image-keyboard-response","280","1018203","0.0-6.0-1.39","2795568","co37558","norming","","","","","","",""
"9586.829999999958","","","post_mooney1_questions","survey-likert","281","1027792","0.0-6.0-2.39","2795568","co37558","norming","","","{""curiosity"":5,""confidence"":2}","[0,1]","../img/tt/1237tt.jpg","",""
"1910.2950000001583","","","recognition","survey-text","282","1029704","0.0-6.0-3.39","2795568","co37558","norming","","","{""guess"":""kayak""}","","../img/tt/1237tt.jpg","",""
"null","../img/gs/1237gs.jpg","null","reveal","image-keyboard-response","283","1031714","0.0-6.0-4.39","2795568","co37558","norming","","","","","","",""
"null","../img/tt/1237tt.jpg","null","mooney2","image-keyboard-response","284","1033715","0.0-6.0-5.39","2795568","co37558","norming","","","","","","",""
"3283.179999999935","","","post_reveal_questions","survey-likert","285","1037000","0.0-6.0-6.39","2795568","co37558","norming","","","{""aha"":2}","[0]","../img/tt/1237tt.jpg","",""
"null","<div style=""font-size:60px;""> </div>","null","fixation","html-keyboard-response","286","1037202","0.0-6.0-0.40","2795568","co37558","norming","","","","","","",""
"null","../img/tt/380tt.jpg","null","mooney1","image-keyboard-response","287","1040212","0.0-6.0-1.40","2795568","co37558","norming","","","","","","",""
"4497.900000000023","","","post_mooney1_questions","survey-likert","288","1044712","0.0-6.0-2.40","2795568","co37558","norming","","","{""curiosity"":0,""confidence"":0}","[0,1]","../img/tt/380tt.jpg","",""
"958.0250000001397","","","recognition","survey-text","289","1045664","0.0-6.0-3.40","2795568","co37558","norming","","","{""guess"":""""}","","../img/tt/380tt.jpg","",""
"null","../img/gs/380gs.jpg","null","reveal","image-keyboard-response","290","1047666","0.0-6.0-4.40","2795568","co37558","norming","","","","","","",""
"null","../img/tt/380tt.jpg","null","mooney2","image-keyboard-response","291","1049675","0.0-6.0-5.40","2795568","co37558","norming","","","","","","",""
"2411.809999999823","","","post_reveal_questions","survey-likert","292","1052088","0.0-6.0-6.40","2795568","co37558","norming","","","{""aha"":5}","[0]","../img/tt/380tt.jpg","",""
"null","<div style=""font-size:60px;""> </div>","null","fixation","html-keyboard-response","293","1052290","0.0-6.0-0.41","2795568","co37558","norming","","","","","","",""
"null","../img/tt/1255tt.jpg","null","mooney1","image-keyboard-response","294","1055293","0.0-6.0-1.41","2795568","co37558","norming","","","","","","",""
"4689.110000000102","","","post_mooney1_questions","survey-likert","295","1059985","0.0-6.0-2.41","2795568","co37558","norming","","","{""curiosity"":1,""confidence"":2}","[0,1]","../img/tt/1255tt.jpg","",""
"2094.0749999999534","","","recognition","survey-text","296","1062080","0.0-6.0-3.41","2795568","co37558","norming","","","{""guess"":""konijn""}","","../img/tt/1255tt.jpg","",""
"null","../img/gs/1255gs.jpg","null","reveal","image-keyboard-response","297","1064091","0.0-6.0-4.41","2795568","co37558","norming","","","","","","",""
"null","../img/tt/1255tt.jpg","null","mooney2","image-keyboard-response","298","1066094","0.0-6.0-5.41","2795568","co37558","norming","","","","","","",""
"3800.8899999998976","","","post_reveal_questions","survey-likert","299","1069897","0.0-6.0-6.41","2795568","co37558","norming","","","{""aha"":4}","[0]","../img/tt/1255tt.jpg","",""
"null","<div style=""font-size:60px;""> </div>","null","fixation","html-keyboard-response","300","1070098","0.0-6.0-0.42","2795568","co37558","norming","","","","","","",""
"null","../img/tt/123tt.jpg","null","mooney1","image-keyboard-response","301","1073103","0.0-6.0-1.42","2795568","co37558","norming","","","","","","",""
"5415.399999999907","","","post_mooney1_questions","survey-likert","302","1078521","0.0-6.0-2.42","2795568","co37558","norming","","","{""curiosity"":5,""confidence"":2}","[0,1]","../img/tt/123tt.jpg","",""
"4022.1450000002515","","","recognition","survey-text","303","1082545","0.0-6.0-3.42","2795568","co37558","norming","","","{""guess"":""broodrooster""}","","../img/tt/123tt.jpg","",""
"null","../img/gs/123gs.jpg","null","reveal","image-keyboard-response","304","1084549","0.0-6.0-4.42","2795568","co37558","norming","","","","","","",""
"null","../img/tt/123tt.jpg","null","mooney2","image-keyboard-response","305","1086553","0.0-6.0-5.42","2795568","co37558","norming","","","","","","",""
"4227.8300000000745","","","post_reveal_questions","survey-likert","306","1090785","0.0-6.0-6.42","2795568","co37558","norming","","","{""aha"":3}","[0]","../img/tt/123tt.jpg","",""
"null","<div style=""font-size:60px;""> </div>","null","fixation","html-keyboard-response","307","1090987","0.0-6.0-0.43","2795568","co37558","norming","","","","","","",""
"null","../img/tt/440tt.jpg","null","mooney1","image-keyboard-response","308","1093995","0.0-6.0-1.43","2795568","co37558","norming","","","","","","",""
"5387.405000000028","","","post_mooney1_questions","survey-likert","309","1099385","0.0-6.0-2.43","2795568","co37558","norming","","","{""curiosity"":5,""confidence"":1}","[0,1]","../img/tt/440tt.jpg","",""
"2070.0499999998137","","","recognition","survey-text","310","1101456","0.0-6.0-3.43","2795568","co37558","norming","","","{""guess"":""basketbal""}","","../img/tt/440tt.jpg","",""
"null","../img/gs/440gs.jpg","null","reveal","image-keyboard-response","311","1103462","0.0-6.0-4.43","2795568","co37558","norming","","","","","","",""
"null","../img/tt/440tt.jpg","null","mooney2","image-keyboard-response","312","1105472","0.0-6.0-5.43","2795568","co37558","norming","","","","","","",""
"2438.439999999944","","","post_reveal_questions","survey-likert","313","1107913","0.0-6.0-6.43","2795568","co37558","norming","","","{""aha"":5}","[0]","../img/tt/440tt.jpg","",""
"null","<div style=""font-size:60px;""> </div>","null","fixation","html-keyboard-response","314","1108116","0.0-6.0-0.44","2795568","co37558","norming","","","","","","",""
"null","../img/tt/477tt.jpg","null","mooney1","image-keyboard-response","315","1111122","0.0-6.0-1.44","2795568","co37558","norming","","","","","","",""
"6075.454999999842","","","post_mooney1_questions","survey-likert","316","1117201","0.0-6.0-2.44","2795568","co37558","norming","","","{""curiosity"":4,""confidence"":2}","[0,1]","../img/tt/477tt.jpg","",""
"2382.2600000000093","","","recognition","survey-text","317","1119585","0.0-6.0-3.44","2795568","co37558","norming","","","{""guess"":""panda""}","","../img/tt/477tt.jpg","",""
"null","../img/gs/477gs.jpg","null","reveal","image-keyboard-response","318","1121586","0.0-6.0-4.44","2795568","co37558","norming","","","","","","",""
"null","../img/tt/477tt.jpg","null","mooney2","image-keyboard-response","319","1123597","0.0-6.0-5.44","2795568","co37558","norming","","","","","","",""
"3314.320000000298","","","post_reveal_questions","survey-likert","320","1126913","0.0-6.0-6.44","2795568","co37558","norming","","","{""aha"":1}","[0]","../img/tt/477tt.jpg","",""
"null","<div style=""font-size:60px;""> </div>","null","fixation","html-keyboard-response","321","1127116","0.0-6.0-0.45","2795568","co37558","norming","","","","","","",""
"null","../img/tt/416tt.jpg","null","mooney1","image-keyboard-response","322","1130125","0.0-6.0-1.45","2795568","co37558","norming","","","","","","",""
"5193.189999999944","","","post_mooney1_questions","survey-likert","323","1135321","0.0-6.0-2.45","2795568","co37558","norming","","","{""curiosity"":4,""confidence"":3}","[0,1]","../img/tt/416tt.jpg","",""
"3670.3549999997485","","","recognition","survey-text","324","1138993","0.0-6.0-3.45","2795568","co37558","norming","","","{""guess"":""struisvogel""}","","../img/tt/416tt.jpg","",""
"null","../img/gs/416gs.jpg","null","reveal","image-keyboard-response","325","1140994","0.0-6.0-4.45","2795568","co37558","norming","","","","","","",""
"null","../img/tt/416tt.jpg","null","mooney2","image-keyboard-response","326","1142998","0.0-6.0-5.45","2795568","co37558","norming","","","","","","",""
"3424.8250000001863","","","post_reveal_questions","survey-likert","327","1146425","0.0-6.0-6.45","2795568","co37558","norming","","","{""aha"":0}","[0]","../img/tt/416tt.jpg","",""
"null","<div style=""font-size:60px;""> </div>","null","fixation","html-keyboard-response","328","1146626","0.0-6.0-0.46","2795568","co37558","norming","","","","","","",""
"null","../img/tt/1363tt.jpg","null","mooney1","image-keyboard-response","329","1149632","0.0-6.0-1.46","2795568","co37558","norming","","","","","","",""
"7174.270000000019","","","post_mooney1_questions","survey-likert","330","1156809","0.0-6.0-2.46","2795568","co37558","norming","","","{""curiosity"":2,""confidence"":1}","[0,1]","../img/tt/1363tt.jpg","",""
"2198.064999999944","","","recognition","survey-text","331","1159009","0.0-6.0-3.46","2795568","co37558","norming","","","{""guess"":""theekopje""}","","../img/tt/1363tt.jpg","",""
"null","../img/gs/1363gs.jpg","null","reveal","image-keyboard-response","332","1161019","0.0-6.0-4.46","2795568","co37558","norming","","","","","","",""
"null","../img/tt/1363tt.jpg","null","mooney2","image-keyboard-response","333","1163021","0.0-6.0-5.46","2795568","co37558","norming","","","","","","",""
"1882.3750000002328","","","post_reveal_questions","survey-likert","334","1164905","0.0-6.0-6.46","2795568","co37558","norming","","","{""aha"":4}","[0]","../img/tt/1363tt.jpg","",""
"null","<div style=""font-size:60px;""> </div>","null","fixation","html-keyboard-response","335","1165107","0.0-6.0-0.47","2795568","co37558","norming","","","","","","",""
"null","../img/tt/001tt.jpg","null","mooney1","image-keyboard-response","336","1168117","0.0-6.0-1.47","2795568","co37558","norming","","","","","","",""
"3576.404999999795","","","post_mooney1_questions","survey-likert","337","1171696","0.0-6.0-2.47","2795568","co37558","norming","","","{""curiosity"":1,""confidence"":5}","[0,1]","../img/tt/001tt.jpg","",""
"1333.7350000001024","","","recognition","survey-text","338","1173032","0.0-6.0-3.47","2795568","co37558","norming","","","{""guess"":""uil""}","","../img/tt/001tt.jpg","",""
"null","../img/gs/001gs.jpg","null","reveal","image-keyboard-response","339","1175034","0.0-6.0-4.47","2795568","co37558","norming","","","","","","",""
"null","../img/tt/001tt.jpg","null","mooney2","image-keyboard-response","340","1177036","0.0-6.0-5.47","2795568","co37558","norming","","","","","","",""
"1874.369999999879","","","post_reveal_questions","survey-likert","341","1178912","0.0-6.0-6.47","2795568","co37558","norming","","","{""aha"":0}","[0]","../img/tt/001tt.jpg","",""
"null","<div style=""font-size:60px;""> </div>","null","fixation","html-keyboard-response","342","1179114","0.0-6.0-0.48","2795568","co37558","norming","","","","","","",""
"null","../img/tt/079tt.jpg","null","mooney1","image-keyboard-response","343","1182119","0.0-6.0-1.48","2795568","co37558","norming","","","","","","",""
"4910.255000000121","","","post_mooney1_questions","survey-likert","344","1187032","0.0-6.0-2.48","2795568","co37558","norming","","","{""curiosity"":1,""confidence"":6}","[0,1]","../img/tt/079tt.jpg","",""
"1694.119999999879","","","recognition","survey-text","345","1188728","0.0-6.0-3.48","2795568","co37558","norming","","","{""guess"":""beer""}","","../img/tt/079tt.jpg","",""
"null","../img/gs/079gs.jpg","null","reveal","image-keyboard-response","346","1190730","0.0-6.0-4.48","2795568","co37558","norming","","","","","","",""
"null","../img/tt/079tt.jpg","null","mooney2","image-keyboard-response","347","1192737","0.0-6.0-5.48","2795568","co37558","norming","","","","","","",""
"2108.9749999996275","","","post_reveal_questions","survey-likert","348","1194848","0.0-6.0-6.48","2795568","co37558","norming","","","{""aha"":0}","[0]","../img/tt/079tt.jpg","",""
"null","<div style=""font-size:60px;""> </div>","null","fixation","html-keyboard-response","349","1195049","0.0-6.0-0.49","2795568","co37558","norming","","","","","","",""
"null","../img/tt/1362tt.jpg","null","mooney1","image-keyboard-response","350","1198057","0.0-6.0-1.49","2795568","co37558","norming","","","","","","",""
"5451.930000000168","","","post_mooney1_questions","survey-likert","351","1203512","0.0-6.0-2.49","2795568","co37558","norming","","","{""curiosity"":4,""confidence"":2}","[0,1]","../img/tt/1362tt.jpg","",""
"7502.199999999953","","","recognition","survey-text","352","1211016","0.0-6.0-3.49","2795568","co37558","norming","","","{""guess"":""borden""}","","../img/tt/1362tt.jpg","",""
"null","../img/gs/1362gs.jpg","null","reveal","image-keyboard-response","353","1213026","0.0-6.0-4.49","2795568","co37558","norming","","","","","","",""
"null","../img/tt/1362tt.jpg","null","mooney2","image-keyboard-response","354","1215036","0.0-6.0-5.49","2795568","co37558","norming","","","","","","",""
"3305.4600000001956","","","post_reveal_questions","survey-likert","355","1218344","0.0-6.0-6.49","2795568","co37558","norming","","","{""aha"":4}","[0]","../img/tt/1362tt.jpg","",""
"null","<div style=""font-size:60px;""> </div>","null","fixation","html-keyboard-response","356","1218546","0.0-6.0-0.50","2795568","co37558","norming","","","","","","",""
"null","../img/tt/497tt.jpg","null","mooney1","image-keyboard-response","357","1221550","0.0-6.0-1.50","2795568","co37558","norming","","","","","","",""
"5143.0449999999255","","","post_mooney1_questions","survey-likert","358","1226696","0.0-6.0-2.50","2795568","co37558","norming","","","{""curiosity"":4,""confidence"":3}","[0,1]","../img/tt/497tt.jpg","",""
"2718.179999999935","","","recognition","survey-text","359","1229415","0.0-6.0-3.50","2795568","co37558","norming","","","{""guess"":""ventilator""}","","../img/tt/497tt.jpg","",""
"null","../img/gs/497gs.jpg","null","reveal","image-keyboard-response","360","1231426","0.0-6.0-4.50","2795568","co37558","norming","","","","","","",""
"null","../img/tt/497tt.jpg","null","mooney2","image-keyboard-response","361","1233429","0.0-6.0-5.50","2795568","co37558","norming","","","","","","",""
"3568.1399999998976","","","post_reveal_questions","survey-likert","362","1236999","0.0-6.0-6.50","2795568","co37558","norming","","","{""aha"":4}","[0]","../img/tt/497tt.jpg","",""
"null","<div style=""font-size:60px;""> </div>","null","fixation","html-keyboard-response","363","1237201","0.0-6.0-0.51","2795568","co37558","norming","","","","","","",""
"null","../img/tt/1205tt.jpg","null","mooney1","image-keyboard-response","364","1240204","0.0-6.0-1.51","2795568","co37558","norming","","","","","","",""
"3208.91500000027","","","post_mooney1_questions","survey-likert","365","1243415","0.0-6.0-2.51","2795568","co37558","norming","","","{""curiosity"":2,""confidence"":0}","[0,1]","../img/tt/1205tt.jpg","",""
"685.8750000002328","","","recognition","survey-text","366","1244103","0.0-6.0-3.51","2795568","co37558","norming","","","{""guess"":""""}","","../img/tt/1205tt.jpg","",""
"null","../img/gs/1205gs.jpg","null","reveal","image-keyboard-response","367","1246113","0.0-6.0-4.51","2795568","co37558","norming","","","","","","",""
"null","../img/tt/1205tt.jpg","null","mooney2","image-keyboard-response","368","1248121","0.0-6.0-5.51","2795568","co37558","norming","","","","","","",""
"3123.9599999999627","","","post_reveal_questions","survey-likert","369","1251247","0.0-6.0-6.51","2795568","co37558","norming","","","{""aha"":2}","[0]","../img/tt/1205tt.jpg","",""
"null","<div style=""font-size:60px;""> </div>","null","fixation","html-keyboard-response","370","1251448","0.0-6.0-0.52","2795568","co37558","norming","","","","","","",""
"null","../img/tt/496tt.jpg","null","mooney1","image-keyboard-response","371","1254460","0.0-6.0-1.52","2795568","co37558","norming","","","","","","",""
"5497.100000000093","","","post_mooney1_questions","survey-likert","372","1259959","0.0-6.0-2.52","2795568","co37558","norming","","","{""curiosity"":3,""confidence"":0}","[0,1]","../img/tt/496tt.jpg","",""
"1189.8950000000186","","","recognition","survey-text","373","1261151","0.0-6.0-3.52","2795568","co37558","norming","","","{""guess"":""""}","","../img/tt/496tt.jpg","",""
"null","../img/gs/496gs.jpg","null","reveal","image-keyboard-response","374","1263157","0.0-6.0-4.52","2795568","co37558","norming","","","","","","",""
"null","../img/tt/496tt.jpg","null","mooney2","image-keyboard-response","375","1265167","0.0-6.0-5.52","2795568","co37558","norming","","","","","","",""
"4605.980000000447","","","post_reveal_questions","survey-likert","376","1269775","0.0-6.0-6.52","2795568","co37558","norming","","","{""aha"":3}","[0]","../img/tt/496tt.jpg","",""
"null","<div style=""font-size:60px;""> </div>","null","fixation","html-keyboard-response","377","1269976","0.0-6.0-0.53","2795568","co37558","norming","","","","","","",""
"null","../img/tt/081tt.jpg","null","mooney1","image-keyboard-response","378","1272978","0.0-6.0-1.53","2795568","co37558","norming","","","","","","",""
"5491.829999999842","","","post_mooney1_questions","survey-likert","379","1278471","0.0-6.0-2.53","2795568","co37558","norming","","","{""curiosity"":2,""confidence"":3}","[0,1]","../img/tt/081tt.jpg","",""
"1598.160000000149","","","recognition","survey-text","380","1280071","0.0-6.0-3.53","2795568","co37558","norming","","","{""guess"":""kikker""}","","../img/tt/081tt.jpg","",""
"null","../img/gs/081gs.jpg","null","reveal","image-keyboard-response","381","1282078","0.0-6.0-4.53","2795568","co37558","norming","","","","","","",""
"null","../img/tt/081tt.jpg","null","mooney2","image-keyboard-response","382","1284086","0.0-6.0-5.53","2795568","co37558","norming","","","","","","",""
"4790.58499999973","","","post_reveal_questions","survey-likert","383","1288879","0.0-6.0-6.53","2795568","co37558","norming","","","{""aha"":2}","[0]","../img/tt/081tt.jpg","",""
"null","<div style=""font-size:60px;""> </div>","null","fixation","html-keyboard-response","384","1289080","0.0-6.0-0.54","2795568","co37558","norming","","","","","","",""
"null","../img/tt/1251tt.jpg","null","mooney1","image-keyboard-response","385","1292086","0.0-6.0-1.54","2795568","co37558","norming","","","","","","",""
"4734.344999999739","","","post_mooney1_questions","survey-likert","386","1296823","0.0-6.0-2.54","2795568","co37558","norming","","","{""curiosity"":2,""confidence"":0}","[0,1]","../img/tt/1251tt.jpg","",""
"757.9550000000745","","","recognition","survey-text","387","1297583","0.0-6.0-3.54","2795568","co37558","norming","","","{""guess"":""""}","","../img/tt/1251tt.jpg","",""
"null","../img/gs/1251gs.jpg","null","reveal","image-keyboard-response","388","1299585","0.0-6.0-4.54","2795568","co37558","norming","","","","","","",""
"null","../img/tt/1251tt.jpg","null","mooney2","image-keyboard-response","389","1301597","0.0-6.0-5.54","2795568","co37558","norming","","","","","","",""
"5151.869999999646","","","post_reveal_questions","survey-likert","390","1306751","0.0-6.0-6.54","2795568","co37558","norming","","","{""aha"":4}","[0]","../img/tt/1251tt.jpg","",""
"null","<div style=""font-size:60px;""> </div>","null","fixation","html-keyboard-response","391","1306952","0.0-6.0-0.55","2795568","co37558","norming","","","","","","",""
"null","../img/tt/080tt.jpg","null","mooney1","image-keyboard-response","392","1309959","0.0-6.0-1.55","2795568","co37558","norming","","","","","","",""
"6414.030000000494","","","post_mooney1_questions","survey-likert","393","1316374","0.0-6.0-2.55","2795568","co37558","norming","","","{""curiosity"":1,""confidence"":2}","[0,1]","../img/tt/080tt.jpg","",""
"4766.294999999693","","","recognition","survey-text","394","1321142","0.0-6.0-3.55","2795568","co37558","norming","","","{""guess"":""paddestoel""}","","../img/tt/080tt.jpg","",""
"null","../img/gs/080gs.jpg","null","reveal","image-keyboard-response","395","1323146","0.0-6.0-4.55","2795568","co37558","norming","","","","","","",""
"null","../img/tt/080tt.jpg","null","mooney2","image-keyboard-response","396","1325157","0.0-6.0-5.55","2795568","co37558","norming","","","","","","",""
"2542.980000000214","","","post_reveal_questions","survey-likert","397","1327702","0.0-6.0-6.55","2795568","co37558","norming","","","{""aha"":4}","[0]","../img/tt/080tt.jpg","",""
"null","<div style=""font-size:60px;""> </div>","null","fixation","html-keyboard-response","398","1327904","0.0-6.0-0.56","2795568","co37558","norming","","","","","","",""
"null","../img/tt/1226tt.jpg","null","mooney1","image-keyboard-response","399","1330914","0.0-6.0-1.56","2795568","co37558","norming","","","","","","",""
"7425.744999999879","","","post_mooney1_questions","survey-likert","400","1338342","0.0-6.0-2.56","2795568","co37558","norming","","","{""curiosity"":4,""confidence"":2}","[0,1]","../img/tt/1226tt.jpg","",""
"1406.2700000000186","","","recognition","survey-text","401","1339750","0.0-6.0-3.56","2795568","co37558","norming","","","{""guess"":""gans""}","","../img/tt/1226tt.jpg","",""
"null","../img/gs/1226gs.jpg","null","reveal","image-keyboard-response","402","1341757","0.0-6.0-4.56","2795568","co37558","norming","","","","","","",""
"null","../img/tt/1226tt.jpg","null","mooney2","image-keyboard-response","403","1343762","0.0-6.0-5.56","2795568","co37558","norming","","","","","","",""
"2937.7650000001304","","","post_reveal_questions","survey-likert","404","1346702","0.0-6.0-6.56","2795568","co37558","norming","","","{""aha"":2}","[0]","../img/tt/1226tt.jpg","",""
"null","<div style=""font-size:60px;""> </div>","null","fixation","html-keyboard-response","405","1346903","0.0-6.0-0.57","2795568","co37558","norming","","","","","","",""
"null","../img/tt/279tt.jpg","null","mooney1","image-keyboard-response","406","1349913","0.0-6.0-1.57","2795568","co37558","norming","","","","","","",""
"5185.10999999987","","","post_mooney1_questions","survey-likert","407","1355101","0.0-6.0-2.57","2795568","co37558","norming","","","{""curiosity"":4,""confidence"":3}","[0,1]","../img/tt/279tt.jpg","",""
"1598.0749999997206","","","recognition","survey-text","408","1356701","0.0-6.0-3.57","2795568","co37558","norming","","","{""guess"":""koala""}","","../img/tt/279tt.jpg","",""
"null","../img/gs/279gs.jpg","null","reveal","image-keyboard-response","409","1358703","0.0-6.0-4.57","2795568","co37558","norming","","","","","","",""
"null","../img/tt/279tt.jpg","null","mooney2","image-keyboard-response","410","1360705","0.0-6.0-5.57","2795568","co37558","norming","","","","","","",""
"2681.8250000001863","","","post_reveal_questions","survey-likert","411","1363389","0.0-6.0-6.57","2795568","co37558","norming","","","{""aha"":0}","[0]","../img/tt/279tt.jpg","",""
"null","<div style=""font-size:60px;""> </div>","null","fixation","html-keyboard-response","412","1363591","0.0-6.0-0.58","2795568","co37558","norming","","","","","","",""
"null","../img/tt/507tt.jpg","null","mooney1","image-keyboard-response","413","1366595","0.0-6.0-1.58","2795568","co37558","norming","","","","","","",""
"9879.090000000084","","","post_mooney1_questions","survey-likert","414","1376477","0.0-6.0-2.58","2795568","co37558","norming","","","{""curiosity"":2,""confidence"":1}","[0,1]","../img/tt/507tt.jpg","",""
"4142.169999999693","","","recognition","survey-text","415","1380621","0.0-6.0-3.58","2795568","co37558","norming","","","{""guess"":""schermen""}","","../img/tt/507tt.jpg","",""
"null","../img/gs/507gs.jpg","null","reveal","image-keyboard-response","416","1382628","0.0-6.0-4.58","2795568","co37558","norming","","","","","","",""
"null","../img/tt/507tt.jpg","null","mooney2","image-keyboard-response","417","1384636","0.0-6.0-5.58","2795568","co37558","norming","","","","","","",""
"4942.494999999646","","","post_reveal_questions","survey-likert","418","1389581","0.0-6.0-6.58","2795568","co37558","norming","","","{""aha"":1}","[0]","../img/tt/507tt.jpg","",""
"null","<div style=""font-size:60px;""> </div>","null","fixation","html-keyboard-response","419","1389783","0.0-6.0-0.59","2795568","co37558","norming","","","","","","",""
"null","../img/tt/307tt.jpg","null","mooney1","image-keyboard-response","420","1392786","0.0-6.0-1.59","2795568","co37558","norming","","","","","","",""
"5015.905000000261","","","post_mooney1_questions","survey-likert","421","1397805","0.0-6.0-2.59","2795568","co37558","norming","","","{""curiosity"":2,""confidence"":0}","[0,1]","../img/tt/307tt.jpg","",""
"429.9000000001397","","","recognition","survey-text","422","1398237","0.0-6.0-3.59","2795568","co37558","norming","","","{""guess"":""""}","","../img/tt/307tt.jpg","",""
"null","../img/gs/307gs.jpg","null","reveal","image-keyboard-response","423","1400247","0.0-6.0-4.59","2795568","co37558","norming","","","","","","",""
"null","../img/tt/307tt.jpg","null","mooney2","image-keyboard-response","424","1402257","0.0-6.0-5.59","2795568","co37558","norming","","","","","","",""
"4273.90000000014","","","post_reveal_questions","survey-likert","425","1406533","0.0-6.0-6.59","2795568","co37558","norming","","","{""aha"":2}","[0]","../img/tt/307tt.jpg","",""
"null","<div style=""font-size:60px;""> </div>","null","fixation","html-keyboard-response","426","1406735","0.0-6.0-0.60","2795568","co37558","norming","","","","","","",""
"null","../img/tt/1202tt.jpg","null","mooney1","image-keyboard-response","427","1409740","0.0-6.0-1.60","2795568","co37558","norming","","","","","","",""
"7134.1349999997765","","","post_mooney1_questions","survey-likert","428","1416879","0.0-6.0-2.60","2795568","co37558","norming","","","{""curiosity"":2,""confidence"":1}","[0,1]","../img/tt/1202tt.jpg","",""
"2158.4449999998324","","","recognition","survey-text","429","1419039","0.0-6.0-3.60","2795568","co37558","norming","","","{""guess"":""skateboard""}","","../img/tt/1202tt.jpg","",""
"null","../img/gs/1202gs.jpg","null","reveal","image-keyboard-response","430","1421046","0.0-6.0-4.60","2795568","co37558","norming","","","","","","",""
"null","../img/tt/1202tt.jpg","null","mooney2","image-keyboard-response","431","1423049","0.0-6.0-5.60","2795568","co37558","norming","","","","","","",""
"2188.0400000000373","","","post_reveal_questions","survey-likert","432","1425239","0.0-6.0-6.60","2795568","co37558","norming","","","{""aha"":5}","[0]","../img/tt/1202tt.jpg","",""
"null","<div style=""font-size:60px;""> </div>","null","fixation","html-keyboard-response","433","1425441","0.0-6.0-0.61","2795568","co37558","norming","","","","","","",""
"null","../img/tt/306tt.jpg","null","mooney1","image-keyboard-response","434","1428443","0.0-6.0-1.61","2795568","co37558","norming","","","","","","",""
"4513.6949999995995","","","post_mooney1_questions","survey-likert","435","1432959","0.0-6.0-2.61","2795568","co37558","norming","","","{""curiosity"":1,""confidence"":2}","[0,1]","../img/tt/306tt.jpg","",""
"1805.8649999997579","","","recognition","survey-text","436","1434767","0.0-6.0-3.61","2795568","co37558","norming","","","{""guess"":""kikker""}","","../img/tt/306tt.jpg","",""
"null","../img/gs/306gs.jpg","null","reveal","image-keyboard-response","437","1436772","0.0-6.0-4.61","2795568","co37558","norming","","","","","","",""
"null","../img/tt/306tt.jpg","null","mooney2","image-keyboard-response","438","1438779","0.0-6.0-5.61","2795568","co37558","norming","","","","","","",""
"2690.0300000002608","","","post_reveal_questions","survey-likert","439","1441471","0.0-6.0-6.61","2795568","co37558","norming","","","{""aha"":2}","[0]","../img/tt/306tt.jpg","",""
"null","<div style=""font-size:60px;""> </div>","null","fixation","html-keyboard-response","440","1441673","0.0-6.0-0.62","2795568","co37558","norming","","","","","","",""
"null","../img/tt/1070tt.jpg","null","mooney1","image-keyboard-response","441","1444675","0.0-6.0-1.62","2795568","co37558","norming","","","","","","",""
"4521.714999999851","","","post_mooney1_questions","survey-likert","442","1449199","0.0-6.0-2.62","2795568","co37558","norming","","","{""curiosity"":2,""confidence"":2}","[0,1]","../img/tt/1070tt.jpg","",""
"1485.91500000027","","","recognition","survey-text","443","1450687","0.0-6.0-3.62","2795568","co37558","norming","","","{""guess"":""taart""}","","../img/tt/1070tt.jpg","",""
"null","../img/gs/1070gs.jpg","null","reveal","image-keyboard-response","444","1452692","0.0-6.0-4.62","2795568","co37558","norming","","","","","","",""
"null","../img/tt/1070tt.jpg","null","mooney2","image-keyboard-response","445","1454702","0.0-6.0-5.62","2795568","co37558","norming","","","","","","",""
"3046.6049999999814","","","post_reveal_questions","survey-likert","446","1457751","0.0-6.0-6.62","2795568","co37558","norming","","","{""aha"":0}","[0]","../img/tt/1070tt.jpg","",""
"null","<div style=""font-size:60px;""> </div>","null","fixation","html-keyboard-response","447","1457959","0.0-6.0-0.63","2795568","co37558","norming","","","","","","",""
"null","../img/tt/1066tt.jpg","null","mooney1","image-keyboard-response","448","1460965","0.0-6.0-1.63","2795568","co37558","norming","","","","","","",""
"7687.439999999711","","","post_mooney1_questions","survey-likert","449","1468655","0.0-6.0-2.63","2795568","co37558","norming","","","{""curiosity"":5,""confidence"":2}","[0,1]","../img/tt/1066tt.jpg","",""
"3102.0149999998976","","","recognition","survey-text","450","1471759","0.0-6.0-3.63","2795568","co37558","norming","","","{""guess"":""vrachtwagen""}","","../img/tt/1066tt.jpg","",""
"null","../img/gs/1066gs.jpg","null","reveal","image-keyboard-response","451","1473767","0.0-6.0-4.63","2795568","co37558","norming","","","","","","",""
"null","../img/tt/1066tt.jpg","null","mooney2","image-keyboard-response","452","1475769","0.0-6.0-5.63","2795568","co37558","norming","","","","","","",""
"3286.1750000002794","","","post_reveal_questions","survey-likert","453","1479057","0.0-6.0-6.63","2795568","co37558","norming","","","{""aha"":1}","[0]","../img/tt/1066tt.jpg","",""
"null","<div style=""font-size:60px;""> </div>","null","fixation","html-keyboard-response","454","1479259","0.0-6.0-0.64","2795568","co37558","norming","","","","","","",""
"null","../img/tt/1159tt.jpg","null","mooney1","image-keyboard-response","455","1482261","0.0-6.0-1.64","2795568","co37558","norming","","","","","","",""
"4713.3549999997485","","","post_mooney1_questions","survey-likert","456","1486977","0.0-6.0-2.64","2795568","co37558","norming","","","{""curiosity"":2,""confidence"":4}","[0,1]","../img/tt/1159tt.jpg","",""
"4125.994999999879","","","recognition","survey-text","457","1491105","0.0-6.0-3.64","2795568","co37558","norming","","","{""guess"":""golfen""}","","../img/tt/1159tt.jpg","",""
"null","../img/gs/1159gs.jpg","null","reveal","image-keyboard-response","458","1493113","0.0-6.0-4.64","2795568","co37558","norming","","","","","","",""
"null","../img/tt/1159tt.jpg","null","mooney2","image-keyboard-response","459","1495115","0.0-6.0-5.64","2795568","co37558","norming","","","","","","",""
"5563.254999999423","","","post_reveal_questions","survey-likert","460","1500681","0.0-6.0-6.64","2795568","co37558","norming","","","{""aha"":1}","[0]","../img/tt/1159tt.jpg","",""
"null","<div style=""font-size:60px;""> </div>","null","fixation","html-keyboard-response","461","1500882","0.0-6.0-0.65","2795568","co37558","norming","","","","","","",""
"null","../img/tt/1276tt.jpg","null","mooney1","image-keyboard-response","462","1503892","0.0-6.0-1.65","2795568","co37558","norming","","","","","","",""
"6754.454999999609","","","post_mooney1_questions","survey-likert","463","1510649","0.0-6.0-2.65","2795568","co37558","norming","","","{""curiosity"":5,""confidence"":2}","[0,1]","../img/tt/1276tt.jpg","",""
"1845.9000000001397","","","recognition","survey-text","464","1512497","0.0-6.0-3.65","2795568","co37558","norming","","","{""guess"":""schaap""}","","../img/tt/1276tt.jpg","",""
"null","../img/gs/1276gs.jpg","null","reveal","image-keyboard-response","465","1514503","0.0-6.0-4.65","2795568","co37558","norming","","","","","","",""
"null","../img/tt/1276tt.jpg","null","mooney2","image-keyboard-response","466","1516509","0.0-6.0-5.65","2795568","co37558","norming","","","","","","",""
"2281.130000000354","","","post_reveal_questions","survey-likert","467","1518793","0.0-6.0-6.65","2795568","co37558","norming","","","{""aha"":6}","[0]","../img/tt/1276tt.jpg","",""
"null","<div style=""font-size:60px;""> </div>","null","fixation","html-keyboard-response","468","1518994","0.0-6.0-0.66","2795568","co37558","norming","","","","","","",""
"null","../img/tt/468tt.jpg","null","mooney1","image-keyboard-response","469","1521998","0.0-6.0-1.66","2795568","co37558","norming","","","","","","",""
"4120.495000000112","","","post_mooney1_questions","survey-likert","470","1526121","0.0-6.0-2.66","2795568","co37558","norming","","","{""curiosity"":4,""confidence"":2}","[0,1]","../img/tt/468tt.jpg","",""
"1606.1399999998976","","","recognition","survey-text","471","1527729","0.0-6.0-3.66","2795568","co37558","norming","","","{""guess"":""viool""}","","../img/tt/468tt.jpg","",""
"null","../img/gs/468gs.jpg","null","reveal","image-keyboard-response","472","1529731","0.0-6.0-4.66","2795568","co37558","norming","","","","","","",""
"null","../img/tt/468tt.jpg","null","mooney2","image-keyboard-response","473","1531733","0.0-6.0-5.66","2795568","co37558","norming","","","","","","",""
"3169.605000000214","","","post_reveal_questions","survey-likert","474","1534905","0.0-6.0-6.66","2795568","co37558","norming","","","{""aha"":0}","[0]","../img/tt/468tt.jpg","",""
"null","<div style=""font-size:60px;""> </div>","null","fixation","html-keyboard-response","475","1535106","0.0-6.0-0.67","2795568","co37558","norming","","","","","","",""
"null","../img/tt/1186tt.jpg","null","mooney1","image-keyboard-response","476","1538110","0.0-6.0-1.67","2795568","co37558","norming","","","","","","",""
"6952.589999999851","","","post_mooney1_questions","survey-likert","477","1545065","0.0-6.0-2.67","2795568","co37558","norming","","","{""curiosity"":2,""confidence"":2}","[0,1]","../img/tt/1186tt.jpg","",""
"2326.1200000001118","","","recognition","survey-text","478","1547393","0.0-6.0-3.67","2795568","co37558","norming","","","{""guess"":""voetbal""}","","../img/tt/1186tt.jpg","",""
"null","../img/gs/1186gs.jpg","null","reveal","image-keyboard-response","479","1549401","0.0-6.0-4.67","2795568","co37558","norming","","","","","","",""
"null","../img/tt/1186tt.jpg","null","mooney2","image-keyboard-response","480","1551413","0.0-6.0-5.67","2795568","co37558","norming","","","","","","",""
"1769.5499999998137","","","post_reveal_questions","survey-likert","481","1553185","0.0-6.0-6.67","2795568","co37558","norming","","","{""aha"":4}","[0]","../img/tt/1186tt.jpg","",""
"null","<div style=""font-size:60px;""> </div>","null","fixation","html-keyboard-response","482","1553387","0.0-6.0-0.68","2795568","co37558","norming","","","","","","",""
"null","../img/tt/1261tt.jpg","null","mooney1","image-keyboard-response","483","1556395","0.0-6.0-1.68","2795568","co37558","norming","","","","","","",""
"5859.999999999767","","","post_mooney1_questions","survey-likert","484","1562257","0.0-6.0-2.68","2795568","co37558","norming","","","{""curiosity"":5,""confidence"":1}","[0,1]","../img/tt/1261tt.jpg","",""
"1486.0749999999534","","","recognition","survey-text","485","1563745","0.0-6.0-3.68","2795568","co37558","norming","","","{""guess"":""slang""}","","../img/tt/1261tt.jpg","",""
"null","../img/gs/1261gs.jpg","null","reveal","image-keyboard-response","486","1565753","0.0-6.0-4.68","2795568","co37558","norming","","","","","","",""
"null","../img/tt/1261tt.jpg","null","mooney2","image-keyboard-response","487","1567761","0.0-6.0-5.68","2795568","co37558","norming","","","","","","",""
"2005.5800000000745","","","post_reveal_questions","survey-likert","488","1569769","0.0-6.0-6.68","2795568","co37558","norming","","","{""aha"":4}","[0]","../img/tt/1261tt.jpg","",""
"null","<div style=""font-size:60px;""> </div>","null","fixation","html-keyboard-response","489","1569970","0.0-6.0-0.69","2795568","co37558","norming","","","","","","",""
"null","../img/tt/126tt.jpg","null","mooney1","image-keyboard-response","490","1572978","0.0-6.0-1.69","2795568","co37558","norming","","","","","","",""
"5203.895000000019","","","post_mooney1_questions","survey-likert","491","1578185","0.0-6.0-2.69","2795568","co37558","norming","","","{""curiosity"":3,""confidence"":2}","[0,1]","../img/tt/126tt.jpg","",""
"1622.0999999996275","","","recognition","survey-text","492","1579809","0.0-6.0-3.69","2795568","co37558","norming","","","{""guess"":""zeilen""}","","../img/tt/126tt.jpg","",""
"null","../img/gs/126gs.jpg","null","reveal","image-keyboard-response","493","1581813","0.0-6.0-4.69","2795568","co37558","norming","","","","","","",""
"null","../img/tt/126tt.jpg","null","mooney2","image-keyboard-response","494","1583815","0.0-6.0-5.69","2795568","co37558","norming","","","","","","",""
"2071.910000000149","","","post_reveal_questions","survey-likert","495","1585889","0.0-6.0-6.69","2795568","co37558","norming","","","{""aha"":4}","[0]","../img/tt/126tt.jpg","",""
"null","<div style=""font-size:60px;""> </div>","null","fixation","html-keyboard-response","496","1586091","0.0-6.0-0.70","2795568","co37558","norming","","","","","","",""
"null","../img/tt/1217tt.jpg","null","mooney1","image-keyboard-response","497","1589100","0.0-6.0-1.70","2795568","co37558","norming","","","","","","",""
"7913.97499999986","","","post_mooney1_questions","survey-likert","498","1597017","0.0-6.0-2.70","2795568","co37558","norming","","","{""curiosity"":6,""confidence"":2}","[0,1]","../img/tt/1217tt.jpg","",""
"2517.9149999998044","","","recognition","survey-text","499","1599537","0.0-6.0-3.70","2795568","co37558","norming","","","{""guess"":""schaatsen""}","","../img/tt/1217tt.jpg","",""
"null","../img/gs/1217gs.jpg","null","reveal","image-keyboard-response","500","1601542","0.0-6.0-4.70","2795568","co37558","norming","","","","","","",""
"null","../img/tt/1217tt.jpg","null","mooney2","image-keyboard-response","501","1603545","0.0-6.0-5.70","2795568","co37558","norming","","","","","","",""
"2246.4250000002794","","","post_reveal_questions","survey-likert","502","1605793","0.0-6.0-6.70","2795568","co37558","norming","","","{""aha"":4}","[0]","../img/tt/1217tt.jpg","",""
"null","<div style=""font-size:60px;""> </div>","null","fixation","html-keyboard-response","503","1605994","0.0-6.0-0.71","2795568","co37558","norming","","","","","","",""
"null","../img/tt/1102tt.jpg","null","mooney1","image-keyboard-response","504","1609004","0.0-6.0-1.71","2795568","co37558","norming","","","","","","",""
"5425.995000000112","","","post_mooney1_questions","survey-likert","505","1614433","0.0-6.0-2.71","2795568","co37558","norming","","","{""curiosity"":2,""confidence"":0}","[0,1]","../img/tt/1102tt.jpg","",""
"917.8649999999907","","","recognition","survey-text","506","1615353","0.0-6.0-3.71","2795568","co37558","norming","","","{""guess"":""""}","","../img/tt/1102tt.jpg","",""
"null","../img/gs/1102gs.jpg","null","reveal","image-keyboard-response","507","1617355","0.0-6.0-4.71","2795568","co37558","norming","","","","","","",""
"null","../img/tt/1102tt.jpg","null","mooney2","image-keyboard-response","508","1619357","0.0-6.0-5.71","2795568","co37558","norming","","","","","","",""
"1385.345000000205","","","post_reveal_questions","survey-likert","509","1620745","0.0-6.0-6.71","2795568","co37558","norming","","","{""aha"":2}","[0]","../img/tt/1102tt.jpg","",""
"null","<div style=""font-size:60px;""> </div>","null","fixation","html-keyboard-response","510","1620946","0.0-6.0-0.72","2795568","co37558","norming","","","","","","",""
"null","../img/tt/1027tt.jpg","null","mooney1","image-keyboard-response","511","1623949","0.0-6.0-1.72","2795568","co37558","norming","","","","","","",""
"5024.6450000002515","","","post_mooney1_questions","survey-likert","512","1628977","0.0-6.0-2.72","2795568","co37558","norming","","","{""curiosity"":4,""confidence"":2}","[0,1]","../img/tt/1027tt.jpg","",""
"1373.3550000002142","","","recognition","survey-text","513","1630353","0.0-6.0-3.72","2795568","co37558","norming","","","{""guess"":""koe""}","","../img/tt/1027tt.jpg","",""
"null","../img/gs/1027gs.jpg","null","reveal","image-keyboard-response","514","1632358","0.0-6.0-4.72","2795568","co37558","norming","","","","","","",""
"null","../img/tt/1027tt.jpg","null","mooney2","image-keyboard-response","515","1634368","0.0-6.0-5.72","2795568","co37558","norming","","","","","","",""
"3144.1049999999814","","","post_reveal_questions","survey-likert","516","1637513","0.0-6.0-6.72","2795568","co37558","norming","","","{""aha"":2}","[0]","../img/tt/1027tt.jpg","",""
"null","<div style=""font-size:60px;""> </div>","null","fixation","html-keyboard-response","517","1637714","0.0-6.0-0.73","2795568","co37558","norming","","","","","","",""
"null","../img/tt/1086tt.jpg","null","mooney1","image-keyboard-response","518","1640726","0.0-6.0-1.73","2795568","co37558","norming","","","","","","",""
"5536.35999999987","","","post_mooney1_questions","survey-likert","519","1646265","0.0-6.0-2.73","2795568","co37558","norming","","","{""curiosity"":1,""confidence"":0}","[0,1]","../img/tt/1086tt.jpg","",""
"1213.9900000002235","","","recognition","survey-text","520","1647481","0.0-6.0-3.73","2795568","co37558","norming","","","{""guess"":""""}","","../img/tt/1086tt.jpg","",""
"null","../img/gs/1086gs.jpg","null","reveal","image-keyboard-response","521","1649488","0.0-6.0-4.73","2795568","co37558","norming","","","","","","",""
"null","../img/tt/1086tt.jpg","null","mooney2","image-keyboard-response","522","1651496","0.0-6.0-5.73","2795568","co37558","norming","","","","","","",""
"2662.7950000001583","","","post_reveal_questions","survey-likert","523","1654161","0.0-6.0-6.73","2795568","co37558","norming","","","{""aha"":2}","[0]","../img/tt/1086tt.jpg","",""
"null","<div style=""font-size:60px;""> </div>","null","fixation","html-keyboard-response","524","1654362","0.0-6.0-0.74","2795568","co37558","norming","","","","","","",""
"null","../img/tt/124tt.jpg","null","mooney1","image-keyboard-response","525","1657365","0.0-6.0-1.74","2795568","co37558","norming","","","","","","",""
"4729.539999999804","","","post_mooney1_questions","survey-likert","526","1662097","0.0-6.0-2.74","2795568","co37558","norming","","","{""curiosity"":0,""confidence"":6}","[0,1]","../img/tt/124tt.jpg","",""
"1918.2000000001863","","","recognition","survey-text","527","1664017","0.0-6.0-3.74","2795568","co37558","norming","","","{""guess"":""aap""}","","../img/tt/124tt.jpg","",""
"null","../img/gs/124gs.jpg","null","reveal","image-keyboard-response","528","1666023","0.0-6.0-4.74","2795568","co37558","norming","","","","","","",""
"null","../img/tt/124tt.jpg","null","mooney2","image-keyboard-response","529","1668027","0.0-6.0-5.74","2795568","co37558","norming","","","","","","",""
"3035.8249999999534","","","post_reveal_questions","survey-likert","530","1671065","0.0-6.0-6.74","2795568","co37558","norming","","","{""aha"":0}","[0]","../img/tt/124tt.jpg","",""
"null","<div style=""font-size:60px;""> </div>","null","fixation","html-keyboard-response","531","1671267","0.0-6.0-0.75","2795568","co37558","norming","","","","","","",""
"null","../img/tt/056tt.jpg","null","mooney1","image-keyboard-response","532","1674271","0.0-6.0-1.75","2795568","co37558","norming","","","","","","",""
"6279.26500000013","","","post_mooney1_questions","survey-likert","533","1680553","0.0-6.0-2.75","2795568","co37558","norming","","","{""curiosity"":4,""confidence"":1}","[0,1]","../img/tt/056tt.jpg","",""
"1702.070000000298","","","recognition","survey-text","534","1682257","0.0-6.0-3.75","2795568","co37558","norming","","","{""guess"":""koe""}","","../img/tt/056tt.jpg","",""
"null","../img/gs/056gs.jpg","null","reveal","image-keyboard-response","535","1684267","0.0-6.0-4.75","2795568","co37558","norming","","","","","","",""
"null","../img/tt/056tt.jpg","null","mooney2","image-keyboard-response","536","1686273","0.0-6.0-5.75","2795568","co37558","norming","","","","","","",""
"3349.630000000121","","","post_reveal_questions","survey-likert","537","1689625","0.0-6.0-6.75","2795568","co37558","norming","","","{""aha"":3}","[0]","../img/tt/056tt.jpg","",""
"null","<div style=""font-size:60px;""> </div>","null","fixation","html-keyboard-response","538","1689826","0.0-6.0-0.76","2795568","co37558","norming","","","","","","",""
"null","../img/tt/1091tt.jpg","null","mooney1","image-keyboard-response","539","1692829","0.0-6.0-1.76","2795568","co37558","norming","","","","","","",""
"5049.434999999823","","","post_mooney1_questions","survey-likert","540","1697881","0.0-6.0-2.76","2795568","co37558","norming","","","{""curiosity"":0,""confidence"":6}","[0,1]","../img/tt/1091tt.jpg","",""
"1717.6699999999255","","","recognition","survey-text","541","1699601","0.0-6.0-3.76","2795568","co37558","norming","","","{""guess"":""paard""}","","../img/tt/1091tt.jpg","",""
"null","../img/gs/1091gs.jpg","null","reveal","image-keyboard-response","542","1701610","0.0-6.0-4.76","2795568","co37558","norming","","","","","","",""
"null","../img/tt/1091tt.jpg","null","mooney2","image-keyboard-response","543","1703611","0.0-6.0-5.76","2795568","co37558","norming","","","","","","",""
"1610.7950000001583","","","post_reveal_questions","survey-likert","544","1705225","0.0-6.0-6.76","2795568","co37558","norming","","","{""aha"":0}","[0]","../img/tt/1091tt.jpg","",""
"null","<div style=""font-size:60px;""> </div>","null","fixation","html-keyboard-response","545","1705427","0.0-6.0-0.77","2795568","co37558","norming","","","","","","",""
"null","../img/tt/013tt.jpg","null","mooney1","image-keyboard-response","546","1708431","0.0-6.0-1.77","2795568","co37558","norming","","","","","","",""
"5447.120000000345","","","post_mooney1_questions","survey-likert","547","1713881","0.0-6.0-2.77","2795568","co37558","norming","","","{""curiosity"":4,""confidence"":1}","[0,1]","../img/tt/013tt.jpg","",""
"1606.0199999997858","","","recognition","survey-text","548","1715489","0.0-6.0-3.77","2795568","co37558","norming","","","{""guess"":""paard""}","","../img/tt/013tt.jpg","",""
"null","../img/gs/013gs.jpg","null","reveal","image-keyboard-response","549","1717492","0.0-6.0-4.77","2795568","co37558","norming","","","","","","",""
"null","../img/tt/013tt.jpg","null","mooney2","image-keyboard-response","550","1719493","0.0-6.0-5.77","2795568","co37558","norming","","","","","","",""
"3129.159999999916","","","post_reveal_questions","survey-likert","551","1722625","0.0-6.0-6.77","2795568","co37558","norming","","","{""aha"":4}","[0]","../img/tt/013tt.jpg","",""
"null","<div style=""font-size:60px;""> </div>","null","fixation","html-keyboard-response","552","1722827","0.0-6.0-0.78","2795568","co37558","norming","","","","","","",""
