"rt","stimulus","key_press","test_part","trial_type","trial_index","time_elapsed","internal_node_id","totalTime","subject","experiment_name","button_pressed","success","responses","question_order","currentStim","old","correct"
"8649.580000000014","Welcome to the experiment. This is an online experiment so please don't close the tab/window until we say goodbye.  Press any key to begin.","32","instructions","html-keyboard-response","0","8664","0.0-0.0","2981147","co37939","norming","","","","","","",""
"2265.9649999999365","<div style='word-wrap: break-word; width: 900px'><h3>Please consider this information carefully before deciding whether to participate in this research</h3><ul style='text-align: left; font-size: .8em;'><li><b>Purpose of the research</b>: To examine how people process images.</li><li><b>What you will do in this research</b>:  Stimuli (images) will be presented on the computer and you will be asked different questions about them.</li><li><b>Time required</b>: Participation will take between 45 and 60 minutes to complete.</li><li><b>Risks</b>:  There are no anticipated risks associated with participating in this study. The effects of participating should be comparable to those you would experience from viewing a computer monitor for 30 minutes and using a mouse or keyboard.</li><li><b>Benefits</b>:  This study provides no benefits to you individually except for the credit. The study provides important information about the nature of perception and learning.</li><li><b>Confidentiality</b>:  Your participation in this study will remain confidential. No personally identifiable information will be associated with your data. Your de-identified data may be shared with other researchers and used in future projects.</li><li><b>Participation and withdrawal</b>:  Your participation in this study is completely voluntary and you may refuse to participate or you may choose to withdraw at any time without penalty.</li><li><b>How to contact the researchers</b>: If you have questions or concerns about your participation or payment, or want to request a summary of research findings, please contact Sander Van de Cruys (KU Leuven), at sander.vandecruys@kuleuven.be.</li></ul><p>The nature and purpose of this research have been sufficiently explained and I agree to participate in this study.  I understand that I am free to withdraw at any time without incurring any penalty.</p><p>Please consent by clicking the button below to continue. Otherwise, please exit the study at this time.</p></div>","","instructions","html-button-response","1","10933","0.0-1.0","2981147","co37939","norming","0","","","","","",""
"","","","instructions","fullscreen","2","18198","0.0-2.0","2981147","co37939","norming","","true","","","","",""
"27813.909999999967","","","sona","survey-html-form","3","46017","0.0-3.0","2981147","co37939","norming","","","[{""name"":""sonaid"",""value"":""37939""},{""name"":""debrief"",""value"":""yes""},{""name"":""datajoin"",""value"":""yes""}]","","","",""
"67443.08000000002","<div style='word-wrap: break-word; width: 900px'><h3>Instructions</h3><p>This experiment will have 3 parts. In the first part you will see a series of distorted images like the one below on the left. As you can see in the righthand image, the distorted images are derived from actual photographs. In what follows, you will <strong>briefly</strong> be presented with <strong>only</strong> the distorted image.</p> <div style='float: left; margin-right: 20px;'><img src='../img/018tt.jpg' height='250' width='250'></img></div><div style='float: right; margin-left: 20px;'><img src='../img/018gs.jpg' height='250' width='250'></img></div><p>Subsequently you will be asked a few questions about the image: One question on how <strong>curious</strong> you are about the solution and one on how <strong>confident</strong> you are that you know the solution.</p>Next, we ask you to make a guess on what is in the image. Note that it is OK to name just the <strong>basic level category</strong>. For example when you see a parrot in the image, 'parrot' will obviously be a correct answer but also correct is 'bird'. However, 'animal' will <strong>not</strong> be counted as a correct response. For the example above, 'rose' would be correct or 'flower', but not 'plant'. When soccer players are depicted, 'soccer', 'football', 'soccer players' will be correct, but not 'humans', 'outdoors', or 'sports'. You do not need to describe the image in full, just name the main object in it <strong>in one or two words</strong>. All images depict objects from one of the following broad level categories: animals, inanimate objects, plants, sports, vehicles, and food. Recognizing means knowing <strong>more</strong> than these broad labels for a given image. But we always encourage you to <strong>make a guess</strong> if you can. Note that you are allowed to use <strong>Dutch and English</strong> in your answers, whatever comes easiest for you.</p><p>Press any key to continue.</p></div>","32","instructions","html-keyboard-response","4","113458","0.0-4.0","2981147","co37939","norming","","","","","","",""
"128766.27500000007","<div style='word-wrap: break-word; width: 900px'><h3>Instructions</h3> <p>Next, the solution image will be revealed to you and you'll be asked to indicate how strong your <strong>aha-experience</strong> was after seeing the solution. This describes the positive feeling of the 'click' you sometimes experience, when the pieces of the 'puzzle' fall together and you suddenly have 'insight' in the image.</p><img src='aha.jpg' height='188' width='250'></img><p>Note that there are no right or wrong answers. We are interested in what <strong>you</strong> see in the image and how <strong>you</strong> feel about it.</p><p>Press any key to start the experiment.</p></div>","32","instructions","html-keyboard-response","5","242226","0.0-5.0","2981147","co37939","norming","","","","","","",""
"null","<div style=""font-size:60px;""> </div>","null","fixation","html-keyboard-response","6","242436","0.0-6.0-0.0","2981147","co37939","norming","","","","","","",""
"null","../img/tt/1154tt.jpg","null","mooney1","image-keyboard-response","7","245448","0.0-6.0-1.0","2981147","co37939","norming","","","","","","",""
"11784.154999999824","","","post_mooney1_questions","survey-likert","8","257234","0.0-6.0-2.0","2981147","co37939","norming","","","{""curiosity"":5,""confidence"":1}","[0,1]","../img/tt/1154tt.jpg","",""
"9325.114999999845","","","recognition","survey-text","9","266561","0.0-6.0-3.0","2981147","co37939","norming","","","{""guess"":""hond""}","","../img/tt/1154tt.jpg","",""
"null","../img/gs/1154gs.jpg","null","reveal","image-keyboard-response","10","268572","0.0-6.0-4.0","2981147","co37939","norming","","","","","","",""
"null","../img/tt/1154tt.jpg","null","mooney2","image-keyboard-response","11","270574","0.0-6.0-5.0","2981147","co37939","norming","","","","","","",""
"5226.310000000056","","","post_reveal_questions","survey-likert","12","275801","0.0-6.0-6.0","2981147","co37939","norming","","","{""aha"":6}","[0]","../img/tt/1154tt.jpg","",""
"null","<div style=""font-size:60px;""> </div>","null","fixation","html-keyboard-response","13","276005","0.0-6.0-0.1","2981147","co37939","norming","","","","","","",""
"null","../img/tt/270tt.jpg","null","mooney1","image-keyboard-response","14","279006","0.0-6.0-1.1","2981147","co37939","norming","","","","","","",""
"9129.170000000158","","","post_mooney1_questions","survey-likert","15","288138","0.0-6.0-2.1","2981147","co37939","norming","","","{""curiosity"":4,""confidence"":1}","[0,1]","../img/tt/270tt.jpg","",""
"3565.7750000000233","","","recognition","survey-text","16","291705","0.0-6.0-3.1","2981147","co37939","norming","","","{""guess"":""""}","","../img/tt/270tt.jpg","",""
"null","../img/gs/270gs.jpg","null","reveal","image-keyboard-response","17","293706","0.0-6.0-4.1","2981147","co37939","norming","","","","","","",""
"null","../img/tt/270tt.jpg","null","mooney2","image-keyboard-response","18","295717","0.0-6.0-5.1","2981147","co37939","norming","","","","","","",""
"3466.5","","","post_reveal_questions","survey-likert","19","299185","0.0-6.0-6.1","2981147","co37939","norming","","","{""aha"":1}","[0]","../img/tt/270tt.jpg","",""
"null","<div style=""font-size:60px;""> </div>","null","fixation","html-keyboard-response","20","299389","0.0-6.0-0.2","2981147","co37939","norming","","","","","","",""
"null","../img/tt/1102tt.jpg","null","mooney1","image-keyboard-response","21","302396","0.0-6.0-1.2","2981147","co37939","norming","","","","","","",""
"14854.759999999951","","","post_mooney1_questions","survey-likert","22","317253","0.0-6.0-2.2","2981147","co37939","norming","","","{""curiosity"":3,""confidence"":0}","[0,1]","../img/tt/1102tt.jpg","",""
"8405.97000000003","","","recognition","survey-text","23","325660","0.0-6.0-3.2","2981147","co37939","norming","","","{""guess"":""bos""}","","../img/tt/1102tt.jpg","",""
"null","../img/gs/1102gs.jpg","null","reveal","image-keyboard-response","24","327663","0.0-6.0-4.2","2981147","co37939","norming","","","","","","",""
"null","../img/tt/1102tt.jpg","null","mooney2","image-keyboard-response","25","329666","0.0-6.0-5.2","2981147","co37939","norming","","","","","","",""
"3344.5499999998137","","","post_reveal_questions","survey-likert","26","333012","0.0-6.0-6.2","2981147","co37939","norming","","","{""aha"":5}","[0]","../img/tt/1102tt.jpg","",""
"null","<div style=""font-size:60px;""> </div>","null","fixation","html-keyboard-response","27","333216","0.0-6.0-0.3","2981147","co37939","norming","","","","","","",""
"null","../img/tt/1189tt.jpg","null","mooney1","image-keyboard-response","28","336226","0.0-6.0-1.3","2981147","co37939","norming","","","","","","",""
"4464.625000000058","","","post_mooney1_questions","survey-likert","29","340693","0.0-6.0-2.3","2981147","co37939","norming","","","{""curiosity"":4,""confidence"":1}","[0,1]","../img/tt/1189tt.jpg","",""
"4030.060000000056","","","recognition","survey-text","30","344724","0.0-6.0-3.3","2981147","co37939","norming","","","{""guess"":""""}","","../img/tt/1189tt.jpg","",""
"null","../img/gs/1189gs.jpg","null","reveal","image-keyboard-response","31","346731","0.0-6.0-4.3","2981147","co37939","norming","","","","","","",""
"null","../img/tt/1189tt.jpg","null","mooney2","image-keyboard-response","32","348742","0.0-6.0-5.3","2981147","co37939","norming","","","","","","",""
"4236.675000000105","","","post_reveal_questions","survey-likert","33","352981","0.0-6.0-6.3","2981147","co37939","norming","","","{""aha"":4}","[0]","../img/tt/1189tt.jpg","",""
"null","<div style=""font-size:60px;""> </div>","null","fixation","html-keyboard-response","34","353187","0.0-6.0-0.4","2981147","co37939","norming","","","","","","",""
"null","../img/tt/1235tt.jpg","null","mooney1","image-keyboard-response","35","356193","0.0-6.0-1.4","2981147","co37939","norming","","","","","","",""
"8353.125000000116","","","post_mooney1_questions","survey-likert","36","364549","0.0-6.0-2.4","2981147","co37939","norming","","","{""curiosity"":4,""confidence"":1}","[0,1]","../img/tt/1235tt.jpg","",""
"822.2449999998207","","","recognition","survey-text","37","365373","0.0-6.0-3.4","2981147","co37939","norming","","","{""guess"":""""}","","../img/tt/1235tt.jpg","",""
"null","../img/gs/1235gs.jpg","null","reveal","image-keyboard-response","38","367380","0.0-6.0-4.4","2981147","co37939","norming","","","","","","",""
"null","../img/tt/1235tt.jpg","null","mooney2","image-keyboard-response","39","369389","0.0-6.0-5.4","2981147","co37939","norming","","","","","","",""
"2599.2350000001024","","","post_reveal_questions","survey-likert","40","371989","0.0-6.0-6.4","2981147","co37939","norming","","","{""aha"":4}","[0]","../img/tt/1235tt.jpg","",""
"null","<div style=""font-size:60px;""> </div>","null","fixation","html-keyboard-response","41","372193","0.0-6.0-0.5","2981147","co37939","norming","","","","","","",""
"null","../img/tt/301tt.jpg","null","mooney1","image-keyboard-response","42","375197","0.0-6.0-1.5","2981147","co37939","norming","","","","","","",""
"7173.810000000056","","","post_mooney1_questions","survey-likert","43","382373","0.0-6.0-2.5","2981147","co37939","norming","","","{""curiosity"":4,""confidence"":3}","[0,1]","../img/tt/301tt.jpg","",""
"6014.175000000047","","","recognition","survey-text","44","388389","0.0-6.0-3.5","2981147","co37939","norming","","","{""guess"":""dansers""}","","../img/tt/301tt.jpg","",""
"null","../img/gs/301gs.jpg","null","reveal","image-keyboard-response","45","390398","0.0-6.0-4.5","2981147","co37939","norming","","","","","","",""
"null","../img/tt/301tt.jpg","null","mooney2","image-keyboard-response","46","392406","0.0-6.0-5.5","2981147","co37939","norming","","","","","","",""
"2029.594999999972","","","post_reveal_questions","survey-likert","47","394437","0.0-6.0-6.5","2981147","co37939","norming","","","{""aha"":5}","[0]","../img/tt/301tt.jpg","",""
"null","<div style=""font-size:60px;""> </div>","null","fixation","html-keyboard-response","48","394638","0.0-6.0-0.6","2981147","co37939","norming","","","","","","",""
"null","../img/tt/273tt.jpg","null","mooney1","image-keyboard-response","49","397642","0.0-6.0-1.6","2981147","co37939","norming","","","","","","",""
"5664.114999999816","","","post_mooney1_questions","survey-likert","50","403309","0.0-6.0-2.6","2981147","co37939","norming","","","{""curiosity"":2,""confidence"":1}","[0,1]","../img/tt/273tt.jpg","",""
"1718.0499999999302","","","recognition","survey-text","51","405028","0.0-6.0-3.6","2981147","co37939","norming","","","{""guess"":""""}","","../img/tt/273tt.jpg","",""
"null","../img/gs/273gs.jpg","null","reveal","image-keyboard-response","52","407030","0.0-6.0-4.6","2981147","co37939","norming","","","","","","",""
"null","../img/tt/273tt.jpg","null","mooney2","image-keyboard-response","53","409038","0.0-6.0-5.6","2981147","co37939","norming","","","","","","",""
"4844.644999999902","","","post_reveal_questions","survey-likert","54","413885","0.0-6.0-6.6","2981147","co37939","norming","","","{""aha"":6}","[0]","../img/tt/273tt.jpg","",""
"null","<div style=""font-size:60px;""> </div>","null","fixation","html-keyboard-response","55","414089","0.0-6.0-0.7","2981147","co37939","norming","","","","","","",""
"null","../img/tt/189tt.jpg","null","mooney1","image-keyboard-response","56","417090","0.0-6.0-1.7","2981147","co37939","norming","","","","","","",""
"8289.375000000058","","","post_mooney1_questions","survey-likert","57","425382","0.0-6.0-2.7","2981147","co37939","norming","","","{""curiosity"":4,""confidence"":3}","[0,1]","../img/tt/189tt.jpg","",""
"8254.175000000047","","","recognition","survey-text","58","433638","0.0-6.0-3.7","2981147","co37939","norming","","","{""guess"":""zolderkamer""}","","../img/tt/189tt.jpg","",""
"null","../img/gs/189gs.jpg","null","reveal","image-keyboard-response","59","435645","0.0-6.0-4.7","2981147","co37939","norming","","","","","","",""
"null","../img/tt/189tt.jpg","null","mooney2","image-keyboard-response","60","437652","0.0-6.0-5.7","2981147","co37939","norming","","","","","","",""
"1993.4300000002258","","","post_reveal_questions","survey-likert","61","439646","0.0-6.0-6.7","2981147","co37939","norming","","","{""aha"":5}","[0]","../img/tt/189tt.jpg","",""
"null","<div style=""font-size:60px;""> </div>","null","fixation","html-keyboard-response","62","439850","0.0-6.0-0.8","2981147","co37939","norming","","","","","","",""
"null","../img/tt/405tt.jpg","null","mooney1","image-keyboard-response","63","442855","0.0-6.0-1.8","2981147","co37939","norming","","","","","","",""
"11613.650000000023","","","post_mooney1_questions","survey-likert","64","454470","0.0-6.0-2.8","2981147","co37939","norming","","","{""curiosity"":4,""confidence"":0}","[0,1]","../img/tt/405tt.jpg","",""
"1501.7700000000768","","","recognition","survey-text","65","455974","0.0-6.0-3.8","2981147","co37939","norming","","","{""guess"":""""}","","../img/tt/405tt.jpg","",""
"null","../img/gs/405gs.jpg","null","reveal","image-keyboard-response","66","457980","0.0-6.0-4.8","2981147","co37939","norming","","","","","","",""
"null","../img/tt/405tt.jpg","null","mooney2","image-keyboard-response","67","459987","0.0-6.0-5.8","2981147","co37939","norming","","","","","","",""
"8146.0999999999185","","","post_reveal_questions","survey-likert","68","468134","0.0-6.0-6.8","2981147","co37939","norming","","","{""aha"":5}","[0]","../img/tt/405tt.jpg","",""
"null","<div style=""font-size:60px;""> </div>","null","fixation","html-keyboard-response","69","468344","0.0-6.0-0.9","2981147","co37939","norming","","","","","","",""
"null","../img/tt/1237tt.jpg","null","mooney1","image-keyboard-response","70","471350","0.0-6.0-1.9","2981147","co37939","norming","","","","","","",""
"16486.965000000026","","","post_mooney1_questions","survey-likert","71","487837","0.0-6.0-2.9","2981147","co37939","norming","","","{""curiosity"":3,""confidence"":3}","[0,1]","../img/tt/1237tt.jpg","",""
"6397.570000000065","","","recognition","survey-text","72","494237","0.0-6.0-3.9","2981147","co37939","norming","","","{""guess"":""schildpad""}","","../img/tt/1237tt.jpg","",""
"null","../img/gs/1237gs.jpg","null","reveal","image-keyboard-response","73","496243","0.0-6.0-4.9","2981147","co37939","norming","","","","","","",""
"null","../img/tt/1237tt.jpg","null","mooney2","image-keyboard-response","74","498244","0.0-6.0-5.9","2981147","co37939","norming","","","","","","",""
"7472.005000000063","","","post_reveal_questions","survey-likert","75","505717","0.0-6.0-6.9","2981147","co37939","norming","","","{""aha"":2}","[0]","../img/tt/1237tt.jpg","",""
"null","<div style=""font-size:60px;""> </div>","null","fixation","html-keyboard-response","76","505920","0.0-6.0-0.10","2981147","co37939","norming","","","","","","",""
"null","../img/tt/040tt.jpg","null","mooney1","image-keyboard-response","77","508930","0.0-6.0-1.10","2981147","co37939","norming","","","","","","",""
"12474.560000000114","","","post_mooney1_questions","survey-likert","78","521405","0.0-6.0-2.10","2981147","co37939","norming","","","{""curiosity"":2,""confidence"":2}","[0,1]","../img/tt/040tt.jpg","",""
"14053.219999999972","","","recognition","survey-text","79","535461","0.0-6.0-3.10","2981147","co37939","norming","","","{""guess"":""""}","","../img/tt/040tt.jpg","",""
"null","../img/gs/040gs.jpg","null","reveal","image-keyboard-response","80","537462","0.0-6.0-4.10","2981147","co37939","norming","","","","","","",""
"null","../img/tt/040tt.jpg","null","mooney2","image-keyboard-response","81","539466","0.0-6.0-5.10","2981147","co37939","norming","","","","","","",""
"5138.495000000112","","","post_reveal_questions","survey-likert","82","544605","0.0-6.0-6.10","2981147","co37939","norming","","","{""aha"":3}","[0]","../img/tt/040tt.jpg","",""
"null","<div style=""font-size:60px;""> </div>","null","fixation","html-keyboard-response","83","544807","0.0-6.0-0.11","2981147","co37939","norming","","","","","","",""
"null","../img/tt/096tt.jpg","null","mooney1","image-keyboard-response","84","547813","0.0-6.0-1.11","2981147","co37939","norming","","","","","","",""
"6280.545000000042","","","post_mooney1_questions","survey-likert","85","554096","0.0-6.0-2.11","2981147","co37939","norming","","","{""curiosity"":2,""confidence"":5}","[0,1]","../img/tt/096tt.jpg","",""
"3501.8150000000605","","","recognition","survey-text","86","557600","0.0-6.0-3.11","2981147","co37939","norming","","","{""guess"":""piano""}","","../img/tt/096tt.jpg","",""
"null","../img/gs/096gs.jpg","null","reveal","image-keyboard-response","87","559606","0.0-6.0-4.11","2981147","co37939","norming","","","","","","",""
"null","../img/tt/096tt.jpg","null","mooney2","image-keyboard-response","88","561615","0.0-6.0-5.11","2981147","co37939","norming","","","","","","",""
"3159.07500000007","","","post_reveal_questions","survey-likert","89","564776","0.0-6.0-6.11","2981147","co37939","norming","","","{""aha"":1}","[0]","../img/tt/096tt.jpg","",""
"null","<div style=""font-size:60px;""> </div>","null","fixation","html-keyboard-response","90","564986","0.0-6.0-0.12","2981147","co37939","norming","","","","","","",""
"null","../img/tt/353tt.jpg","null","mooney1","image-keyboard-response","91","567992","0.0-6.0-1.12","2981147","co37939","norming","","","","","","",""
"5189.824999999953","","","post_mooney1_questions","survey-likert","92","573184","0.0-6.0-2.12","2981147","co37939","norming","","","{""curiosity"":5,""confidence"":1}","[0,1]","../img/tt/353tt.jpg","",""
"3453.784999999916","","","recognition","survey-text","93","576639","0.0-6.0-3.12","2981147","co37939","norming","","","{""guess"":""""}","","../img/tt/353tt.jpg","",""
"null","../img/gs/353gs.jpg","null","reveal","image-keyboard-response","94","578644","0.0-6.0-4.12","2981147","co37939","norming","","","","","","",""
"null","../img/tt/353tt.jpg","null","mooney2","image-keyboard-response","95","580646","0.0-6.0-5.12","2981147","co37939","norming","","","","","","",""
"6583.8300000000745","","","post_reveal_questions","survey-likert","96","587232","0.0-6.0-6.12","2981147","co37939","norming","","","{""aha"":4}","[0]","../img/tt/353tt.jpg","",""
"null","<div style=""font-size:60px;""> </div>","null","fixation","html-keyboard-response","97","587440","0.0-6.0-0.13","2981147","co37939","norming","","","","","","",""
"null","../img/tt/329tt.jpg","null","mooney1","image-keyboard-response","98","590443","0.0-6.0-1.13","2981147","co37939","norming","","","","","","",""
"5314.9550000000745","","","post_mooney1_questions","survey-likert","99","595760","0.0-6.0-2.13","2981147","co37939","norming","","","{""curiosity"":3,""confidence"":4}","[0,1]","../img/tt/329tt.jpg","",""
"2469.980000000098","","","recognition","survey-text","100","598232","0.0-6.0-3.13","2981147","co37939","norming","","","{""guess"":""ladder""}","","../img/tt/329tt.jpg","",""
"null","../img/gs/329gs.jpg","null","reveal","image-keyboard-response","101","600234","0.0-6.0-4.13","2981147","co37939","norming","","","","","","",""
"null","../img/tt/329tt.jpg","null","mooney2","image-keyboard-response","102","602237","0.0-6.0-5.13","2981147","co37939","norming","","","","","","",""
"2577.475000000093","","","post_reveal_questions","survey-likert","103","604816","0.0-6.0-6.13","2981147","co37939","norming","","","{""aha"":4}","[0]","../img/tt/329tt.jpg","",""
"null","<div style=""font-size:60px;""> </div>","null","fixation","html-keyboard-response","104","605025","0.0-6.0-0.14","2981147","co37939","norming","","","","","","",""
"null","../img/tt/163tt.jpg","null","mooney1","image-keyboard-response","105","608030","0.0-6.0-1.14","2981147","co37939","norming","","","","","","",""
"3815.9600000001956","","","post_mooney1_questions","survey-likert","106","611848","0.0-6.0-2.14","2981147","co37939","norming","","","{""curiosity"":5,""confidence"":2}","[0,1]","../img/tt/163tt.jpg","",""
"2414.0500000000466","","","recognition","survey-text","107","614264","0.0-6.0-3.14","2981147","co37939","norming","","","{""guess"":""kikker""}","","../img/tt/163tt.jpg","",""
"null","../img/gs/163gs.jpg","null","reveal","image-keyboard-response","108","616266","0.0-6.0-4.14","2981147","co37939","norming","","","","","","",""
"null","../img/tt/163tt.jpg","null","mooney2","image-keyboard-response","109","618268","0.0-6.0-5.14","2981147","co37939","norming","","","","","","",""
"3091.0149999998976","","","post_reveal_questions","survey-likert","110","621360","0.0-6.0-6.14","2981147","co37939","norming","","","{""aha"":4}","[0]","../img/tt/163tt.jpg","",""
"null","<div style=""font-size:60px;""> </div>","null","fixation","html-keyboard-response","111","621565","0.0-6.0-0.15","2981147","co37939","norming","","","","","","",""
"null","../img/tt/468tt.jpg","null","mooney1","image-keyboard-response","112","624574","0.0-6.0-1.15","2981147","co37939","norming","","","","","","",""
"4215.5800000000745","","","post_mooney1_questions","survey-likert","113","628792","0.0-6.0-2.15","2981147","co37939","norming","","","{""curiosity"":4,""confidence"":2}","[0,1]","../img/tt/468tt.jpg","",""
"7485.75","","","recognition","survey-text","114","636280","0.0-6.0-3.15","2981147","co37939","norming","","","{""guess"":""tafel""}","","../img/tt/468tt.jpg","",""
"null","../img/gs/468gs.jpg","null","reveal","image-keyboard-response","115","638284","0.0-6.0-4.15","2981147","co37939","norming","","","","","","",""
"null","../img/tt/468tt.jpg","null","mooney2","image-keyboard-response","116","640285","0.0-6.0-5.15","2981147","co37939","norming","","","","","","",""
"8970.475000000093","","","post_reveal_questions","survey-likert","117","649256","0.0-6.0-6.15","2981147","co37939","norming","","","{""aha"":3}","[0]","../img/tt/468tt.jpg","",""
"null","<div style=""font-size:60px;""> </div>","null","fixation","html-keyboard-response","118","649459","0.0-6.0-0.16","2981147","co37939","norming","","","","","","",""
"null","../img/tt/055tt.jpg","null","mooney1","image-keyboard-response","119","652471","0.0-6.0-1.16","2981147","co37939","norming","","","","","","",""
"6311.164999999804","","","post_mooney1_questions","survey-likert","120","658784","0.0-6.0-2.16","2981147","co37939","norming","","","{""curiosity"":5,""confidence"":0}","[0,1]","../img/tt/055tt.jpg","",""
"886.1349999998929","","","recognition","survey-text","121","659672","0.0-6.0-3.16","2981147","co37939","norming","","","{""guess"":""""}","","../img/tt/055tt.jpg","",""
"null","../img/gs/055gs.jpg","null","reveal","image-keyboard-response","122","661682","0.0-6.0-4.16","2981147","co37939","norming","","","","","","",""
"null","../img/tt/055tt.jpg","null","mooney2","image-keyboard-response","123","663689","0.0-6.0-5.16","2981147","co37939","norming","","","","","","",""
"2037.2899999999208","","","post_reveal_questions","survey-likert","124","665728","0.0-6.0-6.16","2981147","co37939","norming","","","{""aha"":5}","[0]","../img/tt/055tt.jpg","",""
"null","<div style=""font-size:60px;""> </div>","null","fixation","html-keyboard-response","125","665931","0.0-6.0-0.17","2981147","co37939","norming","","","","","","",""
"null","../img/tt/552tt.jpg","null","mooney1","image-keyboard-response","126","668936","0.0-6.0-1.17","2981147","co37939","norming","","","","","","",""
"6438.380000000005","","","post_mooney1_questions","survey-likert","127","675376","0.0-6.0-2.17","2981147","co37939","norming","","","{""curiosity"":2,""confidence"":4}","[0,1]","../img/tt/552tt.jpg","",""
"2838.070000000065","","","recognition","survey-text","128","678216","0.0-6.0-3.17","2981147","co37939","norming","","","{""guess"":""slak""}","","../img/tt/552tt.jpg","",""
"null","../img/gs/552gs.jpg","null","reveal","image-keyboard-response","129","680226","0.0-6.0-4.17","2981147","co37939","norming","","","","","","",""
"null","../img/tt/552tt.jpg","null","mooney2","image-keyboard-response","130","682236","0.0-6.0-5.17","2981147","co37939","norming","","","","","","",""
"5226.489999999991","","","post_reveal_questions","survey-likert","131","687464","0.0-6.0-6.17","2981147","co37939","norming","","","{""aha"":4}","[0]","../img/tt/552tt.jpg","",""
"null","<div style=""font-size:60px;""> </div>","null","fixation","html-keyboard-response","132","687674","0.0-6.0-0.18","2981147","co37939","norming","","","","","","",""
"null","../img/tt/1191tt.jpg","null","mooney1","image-keyboard-response","133","690676","0.0-6.0-1.18","2981147","co37939","norming","","","","","","",""
"5395.269999999902","","","post_mooney1_questions","survey-likert","134","696072","0.0-6.0-2.18","2981147","co37939","norming","","","{""curiosity"":3,""confidence"":3}","[0,1]","../img/tt/1191tt.jpg","",""
"2125.9100000002654","","","recognition","survey-text","135","698200","0.0-6.0-3.18","2981147","co37939","norming","","","{""guess"":""paard""}","","../img/tt/1191tt.jpg","",""
"null","../img/gs/1191gs.jpg","null","reveal","image-keyboard-response","136","700205","0.0-6.0-4.18","2981147","co37939","norming","","","","","","",""
"null","../img/tt/1191tt.jpg","null","mooney2","image-keyboard-response","137","702215","0.0-6.0-5.18","2981147","co37939","norming","","","","","","",""
"5071.685000000056","","","post_reveal_questions","survey-likert","138","707288","0.0-6.0-6.18","2981147","co37939","norming","","","{""aha"":4}","[0]","../img/tt/1191tt.jpg","",""
"null","<div style=""font-size:60px;""> </div>","null","fixation","html-keyboard-response","139","707489","0.0-6.0-0.19","2981147","co37939","norming","","","","","","",""
"null","../img/tt/1080tt.jpg","null","mooney1","image-keyboard-response","140","710502","0.0-6.0-1.19","2981147","co37939","norming","","","","","","",""
"7041.1699999999255","","","post_mooney1_questions","survey-likert","141","717544","0.0-6.0-2.19","2981147","co37939","norming","","","{""curiosity"":5,""confidence"":0}","[0,1]","../img/tt/1080tt.jpg","",""
"1022.1099999998696","","","recognition","survey-text","142","718568","0.0-6.0-3.19","2981147","co37939","norming","","","{""guess"":""""}","","../img/tt/1080tt.jpg","",""
"null","../img/gs/1080gs.jpg","null","reveal","image-keyboard-response","143","720569","0.0-6.0-4.19","2981147","co37939","norming","","","","","","",""
"null","../img/tt/1080tt.jpg","null","mooney2","image-keyboard-response","144","722580","0.0-6.0-5.19","2981147","co37939","norming","","","","","","",""
"3409.4850000001024","","","post_reveal_questions","survey-likert","145","725992","0.0-6.0-6.19","2981147","co37939","norming","","","{""aha"":5}","[0]","../img/tt/1080tt.jpg","",""
"null","<div style=""font-size:60px;""> </div>","null","fixation","html-keyboard-response","146","726198","0.0-6.0-0.20","2981147","co37939","norming","","","","","","",""
"null","../img/tt/522tt.jpg","null","mooney1","image-keyboard-response","147","729208","0.0-6.0-1.20","2981147","co37939","norming","","","","","","",""
"4357.445000000182","","","post_mooney1_questions","survey-likert","148","733568","0.0-6.0-2.20","2981147","co37939","norming","","","{""curiosity"":6,""confidence"":1}","[0,1]","../img/tt/522tt.jpg","",""
"3685.9849999998696","","","recognition","survey-text","149","737256","0.0-6.0-3.20","2981147","co37939","norming","","","{""guess"":""clown""}","","../img/tt/522tt.jpg","",""
"null","../img/gs/522gs.jpg","null","reveal","image-keyboard-response","150","739262","0.0-6.0-4.20","2981147","co37939","norming","","","","","","",""
"null","../img/tt/522tt.jpg","null","mooney2","image-keyboard-response","151","741270","0.0-6.0-5.20","2981147","co37939","norming","","","","","","",""
"6239.170000000158","","","post_reveal_questions","survey-likert","152","747512","0.0-6.0-6.20","2981147","co37939","norming","","","{""aha"":4}","[0]","../img/tt/522tt.jpg","",""
"null","<div style=""font-size:60px;""> </div>","null","fixation","html-keyboard-response","153","747722","0.0-6.0-0.21","2981147","co37939","norming","","","","","","",""
"null","../img/tt/052tt.jpg","null","mooney1","image-keyboard-response","154","750728","0.0-6.0-1.21","2981147","co37939","norming","","","","","","",""
"4653.869999999879","","","post_mooney1_questions","survey-likert","155","755384","0.0-6.0-2.21","2981147","co37939","norming","","","{""curiosity"":3,""confidence"":4}","[0,1]","../img/tt/052tt.jpg","",""
"3093.8600000001024","","","recognition","survey-text","156","758480","0.0-6.0-3.21","2981147","co37939","norming","","","{""guess"":""toaster""}","","../img/tt/052tt.jpg","",""
"null","../img/gs/052gs.jpg","null","reveal","image-keyboard-response","157","760486","0.0-6.0-4.21","2981147","co37939","norming","","","","","","",""
"null","../img/tt/052tt.jpg","null","mooney2","image-keyboard-response","158","762494","0.0-6.0-5.21","2981147","co37939","norming","","","","","","",""
"4959.515000000014","","","post_reveal_questions","survey-likert","159","767456","0.0-6.0-6.21","2981147","co37939","norming","","","{""aha"":2}","[0]","../img/tt/052tt.jpg","",""
"null","<div style=""font-size:60px;""> </div>","null","fixation","html-keyboard-response","160","767658","0.0-6.0-0.22","2981147","co37939","norming","","","","","","",""
"null","../img/tt/031tt.jpg","null","mooney1","image-keyboard-response","161","770666","0.0-6.0-1.22","2981147","co37939","norming","","","","","","",""
"5243.389999999898","","","post_mooney1_questions","survey-likert","162","775912","0.0-6.0-2.22","2981147","co37939","norming","","","{""curiosity"":3,""confidence"":4}","[0,1]","../img/tt/031tt.jpg","",""
"2302.2399999999907","","","recognition","survey-text","163","778216","0.0-6.0-3.22","2981147","co37939","norming","","","{""guess"":""rat""}","","../img/tt/031tt.jpg","",""
"null","../img/gs/031gs.jpg","null","reveal","image-keyboard-response","164","780221","0.0-6.0-4.22","2981147","co37939","norming","","","","","","",""
"null","../img/tt/031tt.jpg","null","mooney2","image-keyboard-response","165","782225","0.0-6.0-5.22","2981147","co37939","norming","","","","","","",""
"4116.744999999879","","","post_reveal_questions","survey-likert","166","786343","0.0-6.0-6.22","2981147","co37939","norming","","","{""aha"":2}","[0]","../img/tt/031tt.jpg","",""
"null","<div style=""font-size:60px;""> </div>","null","fixation","html-keyboard-response","167","786545","0.0-6.0-0.23","2981147","co37939","norming","","","","","","",""
"null","../img/tt/1186tt.jpg","null","mooney1","image-keyboard-response","168","789550","0.0-6.0-1.23","2981147","co37939","norming","","","","","","",""
"3903.6250000001164","","","post_mooney1_questions","survey-likert","169","793456","0.0-6.0-2.23","2981147","co37939","norming","","","{""curiosity"":4,""confidence"":0}","[0,1]","../img/tt/1186tt.jpg","",""
"2373.7600000000093","","","recognition","survey-text","170","795831","0.0-6.0-3.23","2981147","co37939","norming","","","{""guess"":""mens""}","","../img/tt/1186tt.jpg","",""
"null","../img/gs/1186gs.jpg","null","reveal","image-keyboard-response","171","797838","0.0-6.0-4.23","2981147","co37939","norming","","","","","","",""
"null","../img/tt/1186tt.jpg","null","mooney2","image-keyboard-response","172","799848","0.0-6.0-5.23","2981147","co37939","norming","","","","","","",""
"5293.895000000019","","","post_reveal_questions","survey-likert","173","805144","0.0-6.0-6.23","2981147","co37939","norming","","","{""aha"":2}","[0]","../img/tt/1186tt.jpg","",""
"null","<div style=""font-size:60px;""> </div>","null","fixation","html-keyboard-response","174","805352","0.0-6.0-0.24","2981147","co37939","norming","","","","","","",""
"null","../img/tt/1181tt.jpg","null","mooney1","image-keyboard-response","175","808364","0.0-6.0-1.24","2981147","co37939","norming","","","","","","",""
"5922.760000000126","","","post_mooney1_questions","survey-likert","176","814288","0.0-6.0-2.24","2981147","co37939","norming","","","{""curiosity"":3,""confidence"":4}","[0,1]","../img/tt/1181tt.jpg","",""
"7254.2949999999255","","","recognition","survey-text","177","821543","0.0-6.0-3.24","2981147","co37939","norming","","","{""guess"":""bewegende mens""}","","../img/tt/1181tt.jpg","",""
"null","../img/gs/1181gs.jpg","null","reveal","image-keyboard-response","178","823554","0.0-6.0-4.24","2981147","co37939","norming","","","","","","",""
"null","../img/tt/1181tt.jpg","null","mooney2","image-keyboard-response","179","825564","0.0-6.0-5.24","2981147","co37939","norming","","","","","","",""
"4794.889999999898","","","post_reveal_questions","survey-likert","180","830360","0.0-6.0-6.24","2981147","co37939","norming","","","{""aha"":3}","[0]","../img/tt/1181tt.jpg","",""
"null","<div style=""font-size:60px;""> </div>","null","fixation","html-keyboard-response","181","830570","0.0-6.0-0.25","2981147","co37939","norming","","","","","","",""
"null","../img/tt/1101tt.jpg","null","mooney1","image-keyboard-response","182","833576","0.0-6.0-1.25","2981147","co37939","norming","","","","","","",""
"3982.079999999958","","","post_mooney1_questions","survey-likert","183","837560","0.0-6.0-2.25","2981147","co37939","norming","","","{""curiosity"":4,""confidence"":2}","[0,1]","../img/tt/1101tt.jpg","",""
"8446.434999999823","","","recognition","survey-text","184","846008","0.0-6.0-3.25","2981147","co37939","norming","","","{""guess"":""hockey""}","","../img/tt/1101tt.jpg","",""
"null","../img/gs/1101gs.jpg","null","reveal","image-keyboard-response","185","848016","0.0-6.0-4.25","2981147","co37939","norming","","","","","","",""
"null","../img/tt/1101tt.jpg","null","mooney2","image-keyboard-response","186","850023","0.0-6.0-5.25","2981147","co37939","norming","","","","","","",""
"3990.0349999997998","","","post_reveal_questions","survey-likert","187","854015","0.0-6.0-6.25","2981147","co37939","norming","","","{""aha"":2}","[0]","../img/tt/1101tt.jpg","",""
"null","<div style=""font-size:60px;""> </div>","null","fixation","html-keyboard-response","188","854218","0.0-6.0-0.26","2981147","co37939","norming","","","","","","",""
"null","../img/tt/590tt.jpg","null","mooney1","image-keyboard-response","189","857222","0.0-6.0-1.26","2981147","co37939","norming","","","","","","",""
"4279.465000000084","","","post_mooney1_questions","survey-likert","190","861504","0.0-6.0-2.26","2981147","co37939","norming","","","{""curiosity"":3,""confidence"":0}","[0,1]","../img/tt/590tt.jpg","",""
"1006.2399999998743","","","recognition","survey-text","191","862511","0.0-6.0-3.26","2981147","co37939","norming","","","{""guess"":""""}","","../img/tt/590tt.jpg","",""
"null","../img/gs/590gs.jpg","null","reveal","image-keyboard-response","192","864518","0.0-6.0-4.26","2981147","co37939","norming","","","","","","",""
"null","../img/tt/590tt.jpg","null","mooney2","image-keyboard-response","193","866522","0.0-6.0-5.26","2981147","co37939","norming","","","","","","",""
"2731.25","","","post_reveal_questions","survey-likert","194","869255","0.0-6.0-6.26","2981147","co37939","norming","","","{""aha"":1}","[0]","../img/tt/590tt.jpg","",""
"null","<div style=""font-size:60px;""> </div>","null","fixation","html-keyboard-response","195","869459","0.0-6.0-0.27","2981147","co37939","norming","","","","","","",""
"null","../img/tt/008tt.jpg","null","mooney1","image-keyboard-response","196","872466","0.0-6.0-1.27","2981147","co37939","norming","","","","","","",""
"5275.5599999999395","","","post_mooney1_questions","survey-likert","197","877744","0.0-6.0-2.27","2981147","co37939","norming","","","{""curiosity"":2,""confidence"":4}","[0,1]","../img/tt/008tt.jpg","",""
"4117.890000000014","","","recognition","survey-text","198","881863","0.0-6.0-3.27","2981147","co37939","norming","","","{""guess"":""schieten""}","","../img/tt/008tt.jpg","",""
"null","../img/gs/008gs.jpg","null","reveal","image-keyboard-response","199","883873","0.0-6.0-4.27","2981147","co37939","norming","","","","","","",""
"null","../img/tt/008tt.jpg","null","mooney2","image-keyboard-response","200","885875","0.0-6.0-5.27","2981147","co37939","norming","","","","","","",""
"3250.535000000149","","","post_reveal_questions","survey-likert","201","889127","0.0-6.0-6.27","2981147","co37939","norming","","","{""aha"":2}","[0]","../img/tt/008tt.jpg","",""
"null","<div style=""font-size:60px;""> </div>","null","fixation","html-keyboard-response","202","889336","0.0-6.0-0.28","2981147","co37939","norming","","","","","","",""
"null","../img/tt/013tt.jpg","null","mooney1","image-keyboard-response","203","892338","0.0-6.0-1.28","2981147","co37939","norming","","","","","","",""
"5196.6849999999395","","","post_mooney1_questions","survey-likert","204","897535","0.0-6.0-2.28","2981147","co37939","norming","","","{""curiosity"":4,""confidence"":0}","[0,1]","../img/tt/013tt.jpg","",""
"997.8450000000885","","","recognition","survey-text","205","898535","0.0-6.0-3.28","2981147","co37939","norming","","","{""guess"":""""}","","../img/tt/013tt.jpg","",""
"null","../img/gs/013gs.jpg","null","reveal","image-keyboard-response","206","900545","0.0-6.0-4.28","2981147","co37939","norming","","","","","","",""
"null","../img/tt/013tt.jpg","null","mooney2","image-keyboard-response","207","902548","0.0-6.0-5.28","2981147","co37939","norming","","","","","","",""
"3449.9000000000233","","","post_reveal_questions","survey-likert","208","905999","0.0-6.0-6.28","2981147","co37939","norming","","","{""aha"":5}","[0]","../img/tt/013tt.jpg","",""
"null","<div style=""font-size:60px;""> </div>","null","fixation","html-keyboard-response","209","906202","0.0-6.0-0.29","2981147","co37939","norming","","","","","","",""
"null","../img/tt/081tt.jpg","null","mooney1","image-keyboard-response","210","909214","0.0-6.0-1.29","2981147","co37939","norming","","","","","","",""
"5768.334999999963","","","post_mooney1_questions","survey-likert","211","914979","0.0-6.0-2.29","2981147","co37939","norming","","","{""curiosity"":3,""confidence"":2}","[0,1]","../img/tt/081tt.jpg","",""
"2078.0999999999767","","","recognition","survey-text","212","917059","0.0-6.0-3.29","2981147","co37939","norming","","","{""guess"":""kikker""}","","../img/tt/081tt.jpg","",""
"null","../img/gs/081gs.jpg","null","reveal","image-keyboard-response","213","919060","0.0-6.0-4.29","2981147","co37939","norming","","","","","","",""
"null","../img/tt/081tt.jpg","null","mooney2","image-keyboard-response","214","921062","0.0-6.0-5.29","2981147","co37939","norming","","","","","","",""
"3362.569999999949","","","post_reveal_questions","survey-likert","215","924426","0.0-6.0-6.29","2981147","co37939","norming","","","{""aha"":3}","[0]","../img/tt/081tt.jpg","",""
"null","<div style=""font-size:60px;""> </div>","null","fixation","html-keyboard-response","216","924632","0.0-6.0-0.30","2981147","co37939","norming","","","","","","",""
"null","../img/tt/020tt.jpg","null","mooney1","image-keyboard-response","217","927641","0.0-6.0-1.30","2981147","co37939","norming","","","","","","",""
"4238.829999999958","","","post_mooney1_questions","survey-likert","218","931883","0.0-6.0-2.30","2981147","co37939","norming","","","{""curiosity"":2,""confidence"":0}","[0,1]","../img/tt/020tt.jpg","",""
"870.2299999999814","","","recognition","survey-text","219","932754","0.0-6.0-3.30","2981147","co37939","norming","","","{""guess"":""""}","","../img/tt/020tt.jpg","",""
"null","../img/gs/020gs.jpg","null","reveal","image-keyboard-response","220","934765","0.0-6.0-4.30","2981147","co37939","norming","","","","","","",""
"null","../img/tt/020tt.jpg","null","mooney2","image-keyboard-response","221","936776","0.0-6.0-5.30","2981147","co37939","norming","","","","","","",""
"3920.7149999999674","","","post_reveal_questions","survey-likert","222","940698","0.0-6.0-6.30","2981147","co37939","norming","","","{""aha"":3}","[0]","../img/tt/020tt.jpg","",""
"null","<div style=""font-size:60px;""> </div>","null","fixation","html-keyboard-response","223","940899","0.0-6.0-0.31","2981147","co37939","norming","","","","","","",""
"null","../img/tt/1107tt.jpg","null","mooney1","image-keyboard-response","224","943901","0.0-6.0-1.31","2981147","co37939","norming","","","","","","",""
"4633.17499999993","","","post_mooney1_questions","survey-likert","225","948539","0.0-6.0-2.31","2981147","co37939","norming","","","{""curiosity"":2,""confidence"":0}","[0,1]","../img/tt/1107tt.jpg","",""
"813.9649999999674","","","recognition","survey-text","226","949354","0.0-6.0-3.31","2981147","co37939","norming","","","{""guess"":""""}","","../img/tt/1107tt.jpg","",""
"null","../img/gs/1107gs.jpg","null","reveal","image-keyboard-response","227","951356","0.0-6.0-4.31","2981147","co37939","norming","","","","","","",""
"null","../img/tt/1107tt.jpg","null","mooney2","image-keyboard-response","228","953361","0.0-6.0-5.31","2981147","co37939","norming","","","","","","",""
"2528.039999999921","","","post_reveal_questions","survey-likert","229","955891","0.0-6.0-6.31","2981147","co37939","norming","","","{""aha"":5}","[0]","../img/tt/1107tt.jpg","",""
"null","<div style=""font-size:60px;""> </div>","null","fixation","html-keyboard-response","230","956101","0.0-6.0-0.32","2981147","co37939","norming","","","","","","",""
"null","../img/tt/1048tt.jpg","null","mooney1","image-keyboard-response","231","959105","0.0-6.0-1.32","2981147","co37939","norming","","","","","","",""
"11142.694999999949","","","post_mooney1_questions","survey-likert","232","970251","0.0-6.0-2.32","2981147","co37939","norming","","","{""curiosity"":4,""confidence"":1}","[0,1]","../img/tt/1048tt.jpg","",""
"662.1899999999441","","","recognition","survey-text","233","970914","0.0-6.0-3.32","2981147","co37939","norming","","","{""guess"":""""}","","../img/tt/1048tt.jpg","",""
"null","../img/gs/1048gs.jpg","null","reveal","image-keyboard-response","234","972927","0.0-6.0-4.32","2981147","co37939","norming","","","","","","",""
"null","../img/tt/1048tt.jpg","null","mooney2","image-keyboard-response","235","974937","0.0-6.0-5.32","2981147","co37939","norming","","","","","","",""
"4292.159999999916","","","post_reveal_questions","survey-likert","236","979231","0.0-6.0-6.32","2981147","co37939","norming","","","{""aha"":6}","[0]","../img/tt/1048tt.jpg","",""
"null","<div style=""font-size:60px;""> </div>","null","fixation","html-keyboard-response","237","979434","0.0-6.0-0.33","2981147","co37939","norming","","","","","","",""
"null","../img/tt/049tt.jpg","null","mooney1","image-keyboard-response","238","982444","0.0-6.0-1.33","2981147","co37939","norming","","","","","","",""
"6305.130000000005","","","post_mooney1_questions","survey-likert","239","988751","0.0-6.0-2.33","2981147","co37939","norming","","","{""curiosity"":4,""confidence"":2}","[0,1]","../img/tt/049tt.jpg","",""
"5342.0449999999255","","","recognition","survey-text","240","994095","0.0-6.0-3.33","2981147","co37939","norming","","","{""guess"":""wezel""}","","../img/tt/049tt.jpg","",""
"null","../img/gs/049gs.jpg","null","reveal","image-keyboard-response","241","996099","0.0-6.0-4.33","2981147","co37939","norming","","","","","","",""
"null","../img/tt/049tt.jpg","null","mooney2","image-keyboard-response","242","998101","0.0-6.0-5.33","2981147","co37939","norming","","","","","","",""
"3193.600000000093","","","post_reveal_questions","survey-likert","243","1001295","0.0-6.0-6.33","2981147","co37939","norming","","","{""aha"":1}","[0]","../img/tt/049tt.jpg","",""
"null","<div style=""font-size:60px;""> </div>","null","fixation","html-keyboard-response","244","1001505","0.0-6.0-0.34","2981147","co37939","norming","","","","","","",""
"null","../img/tt/184tt.jpg","null","mooney1","image-keyboard-response","245","1004515","0.0-6.0-1.34","2981147","co37939","norming","","","","","","",""
"4058.060000000056","","","post_mooney1_questions","survey-likert","246","1008575","0.0-6.0-2.34","2981147","co37939","norming","","","{""curiosity"":1,""confidence"":0}","[0,1]","../img/tt/184tt.jpg","",""
"902.1549999999115","","","recognition","survey-text","247","1009479","0.0-6.0-3.34","2981147","co37939","norming","","","{""guess"":""""}","","../img/tt/184tt.jpg","",""
"null","../img/gs/184gs.jpg","null","reveal","image-keyboard-response","248","1011481","0.0-6.0-4.34","2981147","co37939","norming","","","","","","",""
"null","../img/tt/184tt.jpg","null","mooney2","image-keyboard-response","249","1013483","0.0-6.0-5.34","2981147","co37939","norming","","","","","","",""
"2825.7850000000326","","","post_reveal_questions","survey-likert","250","1016311","0.0-6.0-6.34","2981147","co37939","norming","","","{""aha"":2}","[0]","../img/tt/184tt.jpg","",""
"null","<div style=""font-size:60px;""> </div>","null","fixation","html-keyboard-response","251","1016520","0.0-6.0-0.35","2981147","co37939","norming","","","","","","",""
"null","../img/tt/123tt.jpg","null","mooney1","image-keyboard-response","252","1019532","0.0-6.0-1.35","2981147","co37939","norming","","","","","","",""
"4169.4400000000605","","","post_mooney1_questions","survey-likert","253","1023703","0.0-6.0-2.35","2981147","co37939","norming","","","{""curiosity"":4,""confidence"":2}","[0,1]","../img/tt/123tt.jpg","",""
"6645.5599999999395","","","recognition","survey-text","254","1030350","0.0-6.0-3.35","2981147","co37939","norming","","","{""guess"":""machine""}","","../img/tt/123tt.jpg","",""
"null","../img/gs/123gs.jpg","null","reveal","image-keyboard-response","255","1032356","0.0-6.0-4.35","2981147","co37939","norming","","","","","","",""
"null","../img/tt/123tt.jpg","null","mooney2","image-keyboard-response","256","1034358","0.0-6.0-5.35","2981147","co37939","norming","","","","","","",""
"2424.535000000149","","","post_reveal_questions","survey-likert","257","1036783","0.0-6.0-6.35","2981147","co37939","norming","","","{""aha"":4}","[0]","../img/tt/123tt.jpg","",""
"null","<div style=""font-size:60px;""> </div>","null","fixation","html-keyboard-response","258","1036988","0.0-6.0-0.36","2981147","co37939","norming","","","","","","",""
"null","../img/tt/080tt.jpg","null","mooney1","image-keyboard-response","259","1039998","0.0-6.0-1.36","2981147","co37939","norming","","","","","","",""
"6680.324999999721","","","post_mooney1_questions","survey-likert","260","1046680","0.0-6.0-2.36","2981147","co37939","norming","","","{""curiosity"":4,""confidence"":1}","[0,1]","../img/tt/080tt.jpg","",""
"3414.2199999997392","","","recognition","survey-text","261","1050095","0.0-6.0-3.36","2981147","co37939","norming","","","{""guess"":""ei""}","","../img/tt/080tt.jpg","",""
"null","../img/gs/080gs.jpg","null","reveal","image-keyboard-response","262","1052096","0.0-6.0-4.36","2981147","co37939","norming","","","","","","",""
"null","../img/tt/080tt.jpg","null","mooney2","image-keyboard-response","263","1054100","0.0-6.0-5.36","2981147","co37939","norming","","","","","","",""
"3840.785000000382","","","post_reveal_questions","survey-likert","264","1057943","0.0-6.0-6.36","2981147","co37939","norming","","","{""aha"":5}","[0]","../img/tt/080tt.jpg","",""
"null","<div style=""font-size:60px;""> </div>","null","fixation","html-keyboard-response","265","1058145","0.0-6.0-0.37","2981147","co37939","norming","","","","","","",""
"null","../img/tt/121tt.jpg","null","mooney1","image-keyboard-response","266","1061148","0.0-6.0-1.37","2981147","co37939","norming","","","","","","",""
"4681.114999999991","","","post_mooney1_questions","survey-likert","267","1065831","0.0-6.0-2.37","2981147","co37939","norming","","","{""curiosity"":2,""confidence"":4}","[0,1]","../img/tt/121tt.jpg","",""
"3846.285000000149","","","recognition","survey-text","268","1069679","0.0-6.0-3.37","2981147","co37939","norming","","","{""guess"":""kangoeroe""}","","../img/tt/121tt.jpg","",""
"null","../img/gs/121gs.jpg","null","reveal","image-keyboard-response","269","1071689","0.0-6.0-4.37","2981147","co37939","norming","","","","","","",""
"null","../img/tt/121tt.jpg","null","mooney2","image-keyboard-response","270","1073691","0.0-6.0-5.37","2981147","co37939","norming","","","","","","",""
"3226.475000000326","","","post_reveal_questions","survey-likert","271","1076920","0.0-6.0-6.37","2981147","co37939","norming","","","{""aha"":1}","[0]","../img/tt/121tt.jpg","",""
"null","<div style=""font-size:60px;""> </div>","null","fixation","html-keyboard-response","272","1077131","0.0-6.0-0.38","2981147","co37939","norming","","","","","","",""
"null","../img/tt/517tt.jpg","null","mooney1","image-keyboard-response","273","1080141","0.0-6.0-1.38","2981147","co37939","norming","","","","","","",""
"4711.700000000419","","","post_mooney1_questions","survey-likert","274","1084855","0.0-6.0-2.38","2981147","co37939","norming","","","{""curiosity"":2,""confidence"":4}","[0,1]","../img/tt/517tt.jpg","",""
"2526.2350000003353","","","recognition","survey-text","275","1087383","0.0-6.0-3.38","2981147","co37939","norming","","","{""guess"":""varken""}","","../img/tt/517tt.jpg","",""
"null","../img/gs/517gs.jpg","null","reveal","image-keyboard-response","276","1089391","0.0-6.0-4.38","2981147","co37939","norming","","","","","","",""
"null","../img/tt/517tt.jpg","null","mooney2","image-keyboard-response","277","1091394","0.0-6.0-5.38","2981147","co37939","norming","","","","","","",""
"3819.3249999999534","","","post_reveal_questions","survey-likert","278","1095206","0.0-6.0-6.38","2981147","co37939","norming","","","{""aha"":4}","[0]","../img/tt/517tt.jpg","",""
"null","<div style=""font-size:60px;""> </div>","null","fixation","html-keyboard-response","279","1095409","0.0-6.0-0.39","2981147","co37939","norming","","","","","","",""
"null","../img/tt/140tt.jpg","null","mooney1","image-keyboard-response","280","1098411","0.0-6.0-1.39","2981147","co37939","norming","","","","","","",""
"6353.7050000000745","","","post_mooney1_questions","survey-likert","281","1104766","0.0-6.0-2.39","2981147","co37939","norming","","","{""curiosity"":4,""confidence"":2}","[0,1]","../img/tt/140tt.jpg","",""
"2813.9300000001676","","","recognition","survey-text","282","1107582","0.0-6.0-3.39","2981147","co37939","norming","","","{""guess"":""vork""}","","../img/tt/140tt.jpg","",""
"null","../img/gs/140gs.jpg","null","reveal","image-keyboard-response","283","1109586","0.0-6.0-4.39","2981147","co37939","norming","","","","","","",""
"null","../img/tt/140tt.jpg","null","mooney2","image-keyboard-response","284","1111594","0.0-6.0-5.39","2981147","co37939","norming","","","","","","",""
"3946.195000000065","","","post_reveal_questions","survey-likert","285","1115542","0.0-6.0-6.39","2981147","co37939","norming","","","{""aha"":1}","[0]","../img/tt/140tt.jpg","",""
"null","<div style=""font-size:60px;""> </div>","null","fixation","html-keyboard-response","286","1115753","0.0-6.0-0.40","2981147","co37939","norming","","","","","","",""
"null","../img/tt/112tt.jpg","null","mooney1","image-keyboard-response","287","1118760","0.0-6.0-1.40","2981147","co37939","norming","","","","","","",""
"9475.020000000019","","","post_mooney1_questions","survey-likert","288","1128238","0.0-6.0-2.40","2981147","co37939","norming","","","{""curiosity"":4,""confidence"":1}","[0,1]","../img/tt/112tt.jpg","",""
"2126.5049999998882","","","recognition","survey-text","289","1130366","0.0-6.0-3.40","2981147","co37939","norming","","","{""guess"":""zetel""}","","../img/tt/112tt.jpg","",""
"null","../img/gs/112gs.jpg","null","reveal","image-keyboard-response","290","1132367","0.0-6.0-4.40","2981147","co37939","norming","","","","","","",""
"null","../img/tt/112tt.jpg","null","mooney2","image-keyboard-response","291","1134372","0.0-6.0-5.40","2981147","co37939","norming","","","","","","",""
"3696.875","","","post_reveal_questions","survey-likert","292","1138070","0.0-6.0-6.40","2981147","co37939","norming","","","{""aha"":6}","[0]","../img/tt/112tt.jpg","",""
"null","<div style=""font-size:60px;""> </div>","null","fixation","html-keyboard-response","293","1138272","0.0-6.0-0.41","2981147","co37939","norming","","","","","","",""
"null","../img/tt/416tt.jpg","null","mooney1","image-keyboard-response","294","1141279","0.0-6.0-1.41","2981147","co37939","norming","","","","","","",""
"6492.179999999702","","","post_mooney1_questions","survey-likert","295","1147774","0.0-6.0-2.41","2981147","co37939","norming","","","{""curiosity"":2,""confidence"":5}","[0,1]","../img/tt/416tt.jpg","",""
"20717.98999999999","","","recognition","survey-text","296","1168495","0.0-6.0-3.41","2981147","co37939","norming","","","{""guess"":""pauw""}","","../img/tt/416tt.jpg","",""
"null","../img/gs/416gs.jpg","null","reveal","image-keyboard-response","297","1170502","0.0-6.0-4.41","2981147","co37939","norming","","","","","","",""
"null","../img/tt/416tt.jpg","null","mooney2","image-keyboard-response","298","1172505","0.0-6.0-5.41","2981147","co37939","norming","","","","","","",""
"3186.999999999767","","","post_reveal_questions","survey-likert","299","1175694","0.0-6.0-6.41","2981147","co37939","norming","","","{""aha"":0}","[0]","../img/tt/416tt.jpg","",""
"null","<div style=""font-size:60px;""> </div>","null","fixation","html-keyboard-response","300","1175899","0.0-6.0-0.42","2981147","co37939","norming","","","","","","",""
"null","../img/tt/091tt.jpg","null","mooney1","image-keyboard-response","301","1178902","0.0-6.0-1.42","2981147","co37939","norming","","","","","","",""
"5901.729999999981","","","post_mooney1_questions","survey-likert","302","1184807","0.0-6.0-2.42","2981147","co37939","norming","","","{""curiosity"":2,""confidence"":4}","[0,1]","../img/tt/091tt.jpg","",""
"3014.0150000001304","","","recognition","survey-text","303","1187823","0.0-6.0-3.42","2981147","co37939","norming","","","{""guess"":""salamander""}","","../img/tt/091tt.jpg","",""
"null","../img/gs/091gs.jpg","null","reveal","image-keyboard-response","304","1189825","0.0-6.0-4.42","2981147","co37939","norming","","","","","","",""
"null","../img/tt/091tt.jpg","null","mooney2","image-keyboard-response","305","1191834","0.0-6.0-5.42","2981147","co37939","norming","","","","","","",""
"2487.784999999916","","","post_reveal_questions","survey-likert","306","1194327","0.0-6.0-6.42","2981147","co37939","norming","","","{""aha"":1}","[0]","../img/tt/091tt.jpg","",""
"null","<div style=""font-size:60px;""> </div>","null","fixation","html-keyboard-response","307","1194529","0.0-6.0-0.43","2981147","co37939","norming","","","","","","",""
"null","../img/tt/380tt.jpg","null","mooney1","image-keyboard-response","308","1197536","0.0-6.0-1.43","2981147","co37939","norming","","","","","","",""
"3724.1650000000373","","","post_mooney1_questions","survey-likert","309","1201263","0.0-6.0-2.43","2981147","co37939","norming","","","{""curiosity"":3,""confidence"":0}","[0,1]","../img/tt/380tt.jpg","",""
"742.2649999996647","","","recognition","survey-text","310","1202007","0.0-6.0-3.43","2981147","co37939","norming","","","{""guess"":""""}","","../img/tt/380tt.jpg","",""
"null","../img/gs/380gs.jpg","null","reveal","image-keyboard-response","311","1204010","0.0-6.0-4.43","2981147","co37939","norming","","","","","","",""
"null","../img/tt/380tt.jpg","null","mooney2","image-keyboard-response","312","1206021","0.0-6.0-5.43","2981147","co37939","norming","","","","","","",""
"3270.2899999998044","","","post_reveal_questions","survey-likert","313","1209295","0.0-6.0-6.43","2981147","co37939","norming","","","{""aha"":5}","[0]","../img/tt/380tt.jpg","",""
"null","<div style=""font-size:60px;""> </div>","null","fixation","html-keyboard-response","314","1209502","0.0-6.0-0.44","2981147","co37939","norming","","","","","","",""
"null","../img/tt/477tt.jpg","null","mooney1","image-keyboard-response","315","1212506","0.0-6.0-1.44","2981147","co37939","norming","","","","","","",""
"3906.5750000001863","","","post_mooney1_questions","survey-likert","316","1216415","0.0-6.0-2.44","2981147","co37939","norming","","","{""curiosity"":5,""confidence"":1}","[0,1]","../img/tt/477tt.jpg","",""
"5542.23499999987","","","recognition","survey-text","317","1221958","0.0-6.0-3.44","2981147","co37939","norming","","","{""guess"":""slapend kind""}","","../img/tt/477tt.jpg","",""
"null","../img/gs/477gs.jpg","null","reveal","image-keyboard-response","318","1223961","0.0-6.0-4.44","2981147","co37939","norming","","","","","","",""
"null","../img/tt/477tt.jpg","null","mooney2","image-keyboard-response","319","1225963","0.0-6.0-5.44","2981147","co37939","norming","","","","","","",""
"3792.9600000001956","","","post_reveal_questions","survey-likert","320","1229763","0.0-6.0-6.44","2981147","co37939","norming","","","{""aha"":5}","[0]","../img/tt/477tt.jpg","",""
"null","<div style=""font-size:60px;""> </div>","null","fixation","html-keyboard-response","321","1229974","0.0-6.0-0.45","2981147","co37939","norming","","","","","","",""
"null","../img/tt/105tt.jpg","null","mooney1","image-keyboard-response","322","1232984","0.0-6.0-1.45","2981147","co37939","norming","","","","","","",""
"4209.060000000056","","","post_mooney1_questions","survey-likert","323","1237196","0.0-6.0-2.45","2981147","co37939","norming","","","{""curiosity"":0,""confidence"":0}","[0,1]","../img/tt/105tt.jpg","",""
"893.9550000000745","","","recognition","survey-text","324","1238091","0.0-6.0-3.45","2981147","co37939","norming","","","{""guess"":""""}","","../img/tt/105tt.jpg","",""
"null","../img/gs/105gs.jpg","null","reveal","image-keyboard-response","325","1240094","0.0-6.0-4.45","2981147","co37939","norming","","","","","","",""
"null","../img/tt/105tt.jpg","null","mooney2","image-keyboard-response","326","1242106","0.0-6.0-5.45","2981147","co37939","norming","","","","","","",""
"3544.5049999998882","","","post_reveal_questions","survey-likert","327","1245651","0.0-6.0-6.45","2981147","co37939","norming","","","{""aha"":2}","[0]","../img/tt/105tt.jpg","",""
"null","<div style=""font-size:60px;""> </div>","null","fixation","html-keyboard-response","328","1245861","0.0-6.0-0.46","2981147","co37939","norming","","","","","","",""
"null","../img/tt/1217tt.jpg","null","mooney1","image-keyboard-response","329","1248872","0.0-6.0-1.46","2981147","co37939","norming","","","","","","",""
"3648.489999999525","","","post_mooney1_questions","survey-likert","330","1252524","0.0-6.0-2.46","2981147","co37939","norming","","","{""curiosity"":0,""confidence"":0}","[0,1]","../img/tt/1217tt.jpg","",""
"637.9950000001118","","","recognition","survey-text","331","1253164","0.0-6.0-3.46","2981147","co37939","norming","","","{""guess"":""""}","","../img/tt/1217tt.jpg","",""
"null","../img/gs/1217gs.jpg","null","reveal","image-keyboard-response","332","1255168","0.0-6.0-4.46","2981147","co37939","norming","","","","","","",""
"null","../img/tt/1217tt.jpg","null","mooney2","image-keyboard-response","333","1257179","0.0-6.0-5.46","2981147","co37939","norming","","","","","","",""
"4254.0649999994785","","","post_reveal_questions","survey-likert","334","1261436","0.0-6.0-6.46","2981147","co37939","norming","","","{""aha"":3}","[0]","../img/tt/1217tt.jpg","",""
"null","<div style=""font-size:60px;""> </div>","null","fixation","html-keyboard-response","335","1261636","0.0-6.0-0.47","2981147","co37939","norming","","","","","","",""
"null","../img/tt/1151tt.jpg","null","mooney1","image-keyboard-response","336","1264646","0.0-6.0-1.47","2981147","co37939","norming","","","","","","",""
"7462.39000000013","","","post_mooney1_questions","survey-likert","337","1272116","0.0-6.0-2.47","2981147","co37939","norming","","","{""curiosity"":2,""confidence"":4}","[0,1]","../img/tt/1151tt.jpg","",""
"4189.174999999814","","","recognition","survey-text","338","1276307","0.0-6.0-3.47","2981147","co37939","norming","","","{""guess"":""miereneter""}","","../img/tt/1151tt.jpg","",""
"null","../img/gs/1151gs.jpg","null","reveal","image-keyboard-response","339","1278314","0.0-6.0-4.47","2981147","co37939","norming","","","","","","",""
"null","../img/tt/1151tt.jpg","null","mooney2","image-keyboard-response","340","1280320","0.0-6.0-5.47","2981147","co37939","norming","","","","","","",""
"2890.8000000000466","","","post_reveal_questions","survey-likert","341","1283211","0.0-6.0-6.47","2981147","co37939","norming","","","{""aha"":4}","[0]","../img/tt/1151tt.jpg","",""
"null","<div style=""font-size:60px;""> </div>","null","fixation","html-keyboard-response","342","1283417","0.0-6.0-0.48","2981147","co37939","norming","","","","","","",""
"null","../img/tt/036tt.jpg","null","mooney1","image-keyboard-response","343","1286425","0.0-6.0-1.48","2981147","co37939","norming","","","","","","",""
"5184.945000000065","","","post_mooney1_questions","survey-likert","344","1291613","0.0-6.0-2.48","2981147","co37939","norming","","","{""curiosity"":4,""confidence"":0}","[0,1]","../img/tt/036tt.jpg","",""
"749.6599999999162","","","recognition","survey-text","345","1292365","0.0-6.0-3.48","2981147","co37939","norming","","","{""guess"":""""}","","../img/tt/036tt.jpg","",""
"null","../img/gs/036gs.jpg","null","reveal","image-keyboard-response","346","1294375","0.0-6.0-4.48","2981147","co37939","norming","","","","","","",""
"null","../img/tt/036tt.jpg","null","mooney2","image-keyboard-response","347","1296377","0.0-6.0-5.48","2981147","co37939","norming","","","","","","",""
"3186.880000000121","","","post_reveal_questions","survey-likert","348","1299565","0.0-6.0-6.48","2981147","co37939","norming","","","{""aha"":0}","[0]","../img/tt/036tt.jpg","",""
"null","<div style=""font-size:60px;""> </div>","null","fixation","html-keyboard-response","349","1299776","0.0-6.0-0.49","2981147","co37939","norming","","","","","","",""
"null","../img/tt/076tt.jpg","null","mooney1","image-keyboard-response","350","1302779","0.0-6.0-1.49","2981147","co37939","norming","","","","","","",""
"3951.685000000056","","","post_mooney1_questions","survey-likert","351","1306733","0.0-6.0-2.49","2981147","co37939","norming","","","{""curiosity"":1,""confidence"":5}","[0,1]","../img/tt/076tt.jpg","",""
"4365.8650000002235","","","recognition","survey-text","352","1311101","0.0-6.0-3.49","2981147","co37939","norming","","","{""guess"":""rolschaatsen""}","","../img/tt/076tt.jpg","",""
"null","../img/gs/076gs.jpg","null","reveal","image-keyboard-response","353","1313102","0.0-6.0-4.49","2981147","co37939","norming","","","","","","",""
"null","../img/tt/076tt.jpg","null","mooney2","image-keyboard-response","354","1315110","0.0-6.0-5.49","2981147","co37939","norming","","","","","","",""
"2526.0550000004005","","","post_reveal_questions","survey-likert","355","1317637","0.0-6.0-6.49","2981147","co37939","norming","","","{""aha"":1}","[0]","../img/tt/076tt.jpg","",""
"null","<div style=""font-size:60px;""> </div>","null","fixation","html-keyboard-response","356","1317838","0.0-6.0-0.50","2981147","co37939","norming","","","","","","",""
"null","../img/tt/1255tt.jpg","null","mooney1","image-keyboard-response","357","1320849","0.0-6.0-1.50","2981147","co37939","norming","","","","","","",""
"6353.665000000037","","","post_mooney1_questions","survey-likert","358","1327205","0.0-6.0-2.50","2981147","co37939","norming","","","{""curiosity"":4,""confidence"":0}","[0,1]","../img/tt/1255tt.jpg","",""
"630.1200000003446","","","recognition","survey-text","359","1327837","0.0-6.0-3.50","2981147","co37939","norming","","","{""guess"":""""}","","../img/tt/1255tt.jpg","",""
"null","../img/gs/1255gs.jpg","null","reveal","image-keyboard-response","360","1329838","0.0-6.0-4.50","2981147","co37939","norming","","","","","","",""
"null","../img/tt/1255tt.jpg","null","mooney2","image-keyboard-response","361","1331845","0.0-6.0-5.50","2981147","co37939","norming","","","","","","",""
"3005.565000000177","","","post_reveal_questions","survey-likert","362","1334853","0.0-6.0-6.50","2981147","co37939","norming","","","{""aha"":5}","[0]","../img/tt/1255tt.jpg","",""
"null","<div style=""font-size:60px;""> </div>","null","fixation","html-keyboard-response","363","1335057","0.0-6.0-0.51","2981147","co37939","norming","","","","","","",""
"null","../img/tt/1089tt.jpg","null","mooney1","image-keyboard-response","364","1338068","0.0-6.0-1.51","2981147","co37939","norming","","","","","","",""
"3901.904999999795","","","post_mooney1_questions","survey-likert","365","1341973","0.0-6.0-2.51","2981147","co37939","norming","","","{""curiosity"":4,""confidence"":2}","[0,1]","../img/tt/1089tt.jpg","",""
"3038.0800000003073","","","recognition","survey-text","366","1345013","0.0-6.0-3.51","2981147","co37939","norming","","","{""guess"":""auto""}","","../img/tt/1089tt.jpg","",""
"null","../img/gs/1089gs.jpg","null","reveal","image-keyboard-response","367","1347017","0.0-6.0-4.51","2981147","co37939","norming","","","","","","",""
"null","../img/tt/1089tt.jpg","null","mooney2","image-keyboard-response","368","1349019","0.0-6.0-5.51","2981147","co37939","norming","","","","","","",""
"3887.6599999996834","","","post_reveal_questions","survey-likert","369","1352906","0.0-6.0-6.51","2981147","co37939","norming","","","{""aha"":6}","[0]","../img/tt/1089tt.jpg","",""
"null","<div style=""font-size:60px;""> </div>","null","fixation","html-keyboard-response","370","1353115","0.0-6.0-0.52","2981147","co37939","norming","","","","","","",""
"null","../img/tt/1202tt.jpg","null","mooney1","image-keyboard-response","371","1356127","0.0-6.0-1.52","2981147","co37939","norming","","","","","","",""
"4728.47499999986","","","post_mooney1_questions","survey-likert","372","1360859","0.0-6.0-2.52","2981147","co37939","norming","","","{""curiosity"":4,""confidence"":0}","[0,1]","../img/tt/1202tt.jpg","",""
"789.7899999998044","","","recognition","survey-text","373","1361650","0.0-6.0-3.52","2981147","co37939","norming","","","{""guess"":""""}","","../img/tt/1202tt.jpg","",""
"null","../img/gs/1202gs.jpg","null","reveal","image-keyboard-response","374","1363652","0.0-6.0-4.52","2981147","co37939","norming","","","","","","",""
"null","../img/tt/1202tt.jpg","null","mooney2","image-keyboard-response","375","1365657","0.0-6.0-5.52","2981147","co37939","norming","","","","","","",""
"4711.295000000158","","","post_reveal_questions","survey-likert","376","1370370","0.0-6.0-6.52","2981147","co37939","norming","","","{""aha"":4}","[0]","../img/tt/1202tt.jpg","",""
"null","<div style=""font-size:60px;""> </div>","null","fixation","html-keyboard-response","377","1370572","0.0-6.0-0.53","2981147","co37939","norming","","","","","","",""
"null","../img/tt/1268tt.jpg","null","mooney1","image-keyboard-response","378","1373584","0.0-6.0-1.53","2981147","co37939","norming","","","","","","",""
"6263.324999999721","","","post_mooney1_questions","survey-likert","379","1379851","0.0-6.0-2.53","2981147","co37939","norming","","","{""curiosity"":0,""confidence"":0}","[0,1]","../img/tt/1268tt.jpg","",""
"750.0150000001304","","","recognition","survey-text","380","1380602","0.0-6.0-3.53","2981147","co37939","norming","","","{""guess"":""""}","","../img/tt/1268tt.jpg","",""
"null","../img/gs/1268gs.jpg","null","reveal","image-keyboard-response","381","1382603","0.0-6.0-4.53","2981147","co37939","norming","","","","","","",""
"null","../img/tt/1268tt.jpg","null","mooney2","image-keyboard-response","382","1384605","0.0-6.0-5.53","2981147","co37939","norming","","","","","","",""
"4115.004999999655","","","post_reveal_questions","survey-likert","383","1388722","0.0-6.0-6.53","2981147","co37939","norming","","","{""aha"":1}","[0]","../img/tt/1268tt.jpg","",""
"null","<div style=""font-size:60px;""> </div>","null","fixation","html-keyboard-response","384","1388924","0.0-6.0-0.54","2981147","co37939","norming","","","","","","",""
"null","../img/tt/1033tt.jpg","null","mooney1","image-keyboard-response","385","1391933","0.0-6.0-1.54","2981147","co37939","norming","","","","","","",""
"10114.445000000298","","","post_mooney1_questions","survey-likert","386","1402050","0.0-6.0-2.54","2981147","co37939","norming","","","{""curiosity"":4,""confidence"":3}","[0,1]","../img/tt/1033tt.jpg","",""
"8381.954999999842","","","recognition","survey-text","387","1410434","0.0-6.0-3.54","2981147","co37939","norming","","","{""guess"":""baseball""}","","../img/tt/1033tt.jpg","",""
"null","../img/gs/1033gs.jpg","null","reveal","image-keyboard-response","388","1412454","0.0-6.0-4.54","2981147","co37939","norming","","","","","","",""
"null","../img/tt/1033tt.jpg","null","mooney2","image-keyboard-response","389","1414455","0.0-6.0-5.54","2981147","co37939","norming","","","","","","",""
"6995.860000000102","","","post_reveal_questions","survey-likert","390","1421452","0.0-6.0-6.54","2981147","co37939","norming","","","{""aha"":1}","[0]","../img/tt/1033tt.jpg","",""
"null","<div style=""font-size:60px;""> </div>","null","fixation","html-keyboard-response","391","1421658","0.0-6.0-0.55","2981147","co37939","norming","","","","","","",""
"null","../img/tt/1353tt.jpg","null","mooney1","image-keyboard-response","392","1424670","0.0-6.0-1.55","2981147","co37939","norming","","","","","","",""
"3930.8450000004377","","","post_mooney1_questions","survey-likert","393","1428604","0.0-6.0-2.55","2981147","co37939","norming","","","{""curiosity"":4,""confidence"":0}","[0,1]","../img/tt/1353tt.jpg","",""
"773.7750000001397","","","recognition","survey-text","394","1429379","0.0-6.0-3.55","2981147","co37939","norming","","","{""guess"":""""}","","../img/tt/1353tt.jpg","",""
"null","../img/gs/1353gs.jpg","null","reveal","image-keyboard-response","395","1431381","0.0-6.0-4.55","2981147","co37939","norming","","","","","","",""
"null","../img/tt/1353tt.jpg","null","mooney2","image-keyboard-response","396","1433389","0.0-6.0-5.55","2981147","co37939","norming","","","","","","",""
"3595.850000000326","","","post_reveal_questions","survey-likert","397","1436988","0.0-6.0-6.55","2981147","co37939","norming","","","{""aha"":4}","[0]","../img/tt/1353tt.jpg","",""
"null","<div style=""font-size:60px;""> </div>","null","fixation","html-keyboard-response","398","1437189","0.0-6.0-0.56","2981147","co37939","norming","","","","","","",""
"null","../img/tt/111tt.jpg","null","mooney1","image-keyboard-response","399","1440197","0.0-6.0-1.56","2981147","co37939","norming","","","","","","",""
"6452.350000000093","","","post_mooney1_questions","survey-likert","400","1446652","0.0-6.0-2.56","2981147","co37939","norming","","","{""curiosity"":2,""confidence"":3}","[0,1]","../img/tt/111tt.jpg","",""
"3501.875","","","recognition","survey-text","401","1450156","0.0-6.0-3.56","2981147","co37939","norming","","","{""guess"":""microfoon""}","","../img/tt/111tt.jpg","",""
"null","../img/gs/111gs.jpg","null","reveal","image-keyboard-response","402","1452157","0.0-6.0-4.56","2981147","co37939","norming","","","","","","",""
"null","../img/tt/111tt.jpg","null","mooney2","image-keyboard-response","403","1454163","0.0-6.0-5.56","2981147","co37939","norming","","","","","","",""
"2934.934999999823","","","post_reveal_questions","survey-likert","404","1457100","0.0-6.0-6.56","2981147","co37939","norming","","","{""aha"":2}","[0]","../img/tt/111tt.jpg","",""
"null","<div style=""font-size:60px;""> </div>","null","fixation","html-keyboard-response","405","1457311","0.0-6.0-0.57","2981147","co37939","norming","","","","","","",""
"null","../img/tt/1283tt.jpg","null","mooney1","image-keyboard-response","406","1460313","0.0-6.0-1.57","2981147","co37939","norming","","","","","","",""
"5024.14000000013","","","post_mooney1_questions","survey-likert","407","1465340","0.0-6.0-2.57","2981147","co37939","norming","","","{""curiosity"":2,""confidence"":4}","[0,1]","../img/tt/1283tt.jpg","",""
"1597.905000000028","","","recognition","survey-text","408","1466940","0.0-6.0-3.57","2981147","co37939","norming","","","{""guess"":""vos""}","","../img/tt/1283tt.jpg","",""
"null","../img/gs/1283gs.jpg","null","reveal","image-keyboard-response","409","1468944","0.0-6.0-4.57","2981147","co37939","norming","","","","","","",""
"null","../img/tt/1283tt.jpg","null","mooney2","image-keyboard-response","410","1470947","0.0-6.0-5.57","2981147","co37939","norming","","","","","","",""
"4774.879999999888","","","post_reveal_questions","survey-likert","411","1475719","0.0-6.0-6.57","2981147","co37939","norming","","","{""aha"":1}","[0]","../img/tt/1283tt.jpg","",""
"null","<div style=""font-size:60px;""> </div>","null","fixation","html-keyboard-response","412","1475924","0.0-6.0-0.58","2981147","co37939","norming","","","","","","",""
"null","../img/tt/1128tt.jpg","null","mooney1","image-keyboard-response","413","1478929","0.0-6.0-1.58","2981147","co37939","norming","","","","","","",""
"6883.454999999842","","","post_mooney1_questions","survey-likert","414","1485815","0.0-6.0-2.58","2981147","co37939","norming","","","{""curiosity"":4,""confidence"":4}","[0,1]","../img/tt/1128tt.jpg","",""
"8045.924999999814","","","recognition","survey-text","415","1493863","0.0-6.0-3.58","2981147","co37939","norming","","","{""guess"":""akker vrouw""}","","../img/tt/1128tt.jpg","",""
"null","../img/gs/1128gs.jpg","null","reveal","image-keyboard-response","416","1495866","0.0-6.0-4.58","2981147","co37939","norming","","","","","","",""
"null","../img/tt/1128tt.jpg","null","mooney2","image-keyboard-response","417","1497868","0.0-6.0-5.58","2981147","co37939","norming","","","","","","",""
"4768.810000000056","","","post_reveal_questions","survey-likert","418","1502639","0.0-6.0-6.58","2981147","co37939","norming","","","{""aha"":4}","[0]","../img/tt/1128tt.jpg","",""
"null","<div style=""font-size:60px;""> </div>","null","fixation","html-keyboard-response","419","1502841","0.0-6.0-0.59","2981147","co37939","norming","","","","","","",""
"null","../img/tt/315tt.jpg","null","mooney1","image-keyboard-response","420","1505850","0.0-6.0-1.59","2981147","co37939","norming","","","","","","",""
"3387.4899999999907","","","post_mooney1_questions","survey-likert","421","1509239","0.0-6.0-2.59","2981147","co37939","norming","","","{""curiosity"":0,""confidence"":0}","[0,1]","../img/tt/315tt.jpg","",""
"957.9000000003725","","","recognition","survey-text","422","1510199","0.0-6.0-3.59","2981147","co37939","norming","","","{""guess"":""""}","","../img/tt/315tt.jpg","",""
"null","../img/gs/315gs.jpg","null","reveal","image-keyboard-response","423","1512201","0.0-6.0-4.59","2981147","co37939","norming","","","","","","",""
"null","../img/tt/315tt.jpg","null","mooney2","image-keyboard-response","424","1514208","0.0-6.0-5.59","2981147","co37939","norming","","","","","","",""
"3900.2700000002515","","","post_reveal_questions","survey-likert","425","1518111","0.0-6.0-6.59","2981147","co37939","norming","","","{""aha"":1}","[0]","../img/tt/315tt.jpg","",""
"null","<div style=""font-size:60px;""> </div>","null","fixation","html-keyboard-response","426","1518313","0.0-6.0-0.60","2981147","co37939","norming","","","","","","",""
"null","../img/tt/1130tt.jpg","null","mooney1","image-keyboard-response","427","1521317","0.0-6.0-1.60","2981147","co37939","norming","","","","","","",""
"6871.230000000214","","","post_mooney1_questions","survey-likert","428","1528191","0.0-6.0-2.60","2981147","co37939","norming","","","{""curiosity"":4,""confidence"":3}","[0,1]","../img/tt/1130tt.jpg","",""
"8189.975000000326","","","recognition","survey-text","429","1536384","0.0-6.0-3.60","2981147","co37939","norming","","","{""guess"":""bowlen""}","","../img/tt/1130tt.jpg","",""
"null","../img/gs/1130gs.jpg","null","reveal","image-keyboard-response","430","1538394","0.0-6.0-4.60","2981147","co37939","norming","","","","","","",""
"null","../img/tt/1130tt.jpg","null","mooney2","image-keyboard-response","431","1540395","0.0-6.0-5.60","2981147","co37939","norming","","","","","","",""
"3668.5300000004936","","","post_reveal_questions","survey-likert","432","1544064","0.0-6.0-6.60","2981147","co37939","norming","","","{""aha"":4}","[0]","../img/tt/1130tt.jpg","",""
"null","<div style=""font-size:60px;""> </div>","null","fixation","html-keyboard-response","433","1544266","0.0-6.0-0.61","2981147","co37939","norming","","","","","","",""
"null","../img/tt/078tt.jpg","null","mooney1","image-keyboard-response","434","1547271","0.0-6.0-1.61","2981147","co37939","norming","","","","","","",""
"5888.310000000289","","","post_mooney1_questions","survey-likert","435","1553160","0.0-6.0-2.61","2981147","co37939","norming","","","{""curiosity"":4,""confidence"":0}","[0,1]","../img/tt/078tt.jpg","",""
"638.8249999999534","","","recognition","survey-text","436","1553801","0.0-6.0-3.61","2981147","co37939","norming","","","{""guess"":""""}","","../img/tt/078tt.jpg","",""
"null","../img/gs/078gs.jpg","null","reveal","image-keyboard-response","437","1555810","0.0-6.0-4.61","2981147","co37939","norming","","","","","","",""
"null","../img/tt/078tt.jpg","null","mooney2","image-keyboard-response","438","1557820","0.0-6.0-5.61","2981147","co37939","norming","","","","","","",""
"3026.340000000084","","","post_reveal_questions","survey-likert","439","1560848","0.0-6.0-6.61","2981147","co37939","norming","","","{""aha"":1}","[0]","../img/tt/078tt.jpg","",""
"null","<div style=""font-size:60px;""> </div>","null","fixation","html-keyboard-response","440","1561049","0.0-6.0-0.62","2981147","co37939","norming","","","","","","",""
"null","../img/tt/1070tt.jpg","null","mooney1","image-keyboard-response","441","1564059","0.0-6.0-1.62","2981147","co37939","norming","","","","","","",""
"3978.605000000214","","","post_mooney1_questions","survey-likert","442","1568040","0.0-6.0-2.62","2981147","co37939","norming","","","{""curiosity"":4,""confidence"":1}","[0,1]","../img/tt/1070tt.jpg","",""
"765.9650000000838","","","recognition","survey-text","443","1568808","0.0-6.0-3.62","2981147","co37939","norming","","","{""guess"":""""}","","../img/tt/1070tt.jpg","",""
"null","../img/gs/1070gs.jpg","null","reveal","image-keyboard-response","444","1570811","0.0-6.0-4.62","2981147","co37939","norming","","","","","","",""
"null","../img/tt/1070tt.jpg","null","mooney2","image-keyboard-response","445","1572819","0.0-6.0-5.62","2981147","co37939","norming","","","","","","",""
"6426.875","","","post_reveal_questions","survey-likert","446","1579248","0.0-6.0-6.62","2981147","co37939","norming","","","{""aha"":4}","[0]","../img/tt/1070tt.jpg","",""
"null","<div style=""font-size:60px;""> </div>","null","fixation","html-keyboard-response","447","1579451","0.0-6.0-0.63","2981147","co37939","norming","","","","","","",""
"null","../img/tt/515tt.jpg","null","mooney1","image-keyboard-response","448","1582461","0.0-6.0-1.63","2981147","co37939","norming","","","","","","",""
"5290.084999999963","","","post_mooney1_questions","survey-likert","449","1587752","0.0-6.0-2.63","2981147","co37939","norming","","","{""curiosity"":4,""confidence"":1}","[0,1]","../img/tt/515tt.jpg","",""
"2509.91500000027","","","recognition","survey-text","450","1590264","0.0-6.0-3.63","2981147","co37939","norming","","","{""guess"":""man""}","","../img/tt/515tt.jpg","",""
"null","../img/gs/515gs.jpg","null","reveal","image-keyboard-response","451","1592266","0.0-6.0-4.63","2981147","co37939","norming","","","","","","",""
"null","../img/tt/515tt.jpg","null","mooney2","image-keyboard-response","452","1594271","0.0-6.0-5.63","2981147","co37939","norming","","","","","","",""
"8309.974999999627","","","post_reveal_questions","survey-likert","453","1602588","0.0-6.0-6.63","2981147","co37939","norming","","","{""aha"":2}","[0]","../img/tt/515tt.jpg","",""
"null","<div style=""font-size:60px;""> </div>","null","fixation","html-keyboard-response","454","1602792","0.0-6.0-0.64","2981147","co37939","norming","","","","","","",""
"null","../img/tt/1012tt.jpg","null","mooney1","image-keyboard-response","455","1605797","0.0-6.0-1.64","2981147","co37939","norming","","","","","","",""
"5460.409999999683","","","post_mooney1_questions","survey-likert","456","1611261","0.0-6.0-2.64","2981147","co37939","norming","","","{""curiosity"":4,""confidence"":1}","[0,1]","../img/tt/1012tt.jpg","",""
"3405.7700000000186","","","recognition","survey-text","457","1614668","0.0-6.0-3.64","2981147","co37939","norming","","","{""guess"":""kat""}","","../img/tt/1012tt.jpg","",""
"null","../img/gs/1012gs.jpg","null","reveal","image-keyboard-response","458","1616671","0.0-6.0-4.64","2981147","co37939","norming","","","","","","",""
"null","../img/tt/1012tt.jpg","null","mooney2","image-keyboard-response","459","1618678","0.0-6.0-5.64","2981147","co37939","norming","","","","","","",""
"3940.1699999996927","","","post_reveal_questions","survey-likert","460","1622620","0.0-6.0-6.64","2981147","co37939","norming","","","{""aha"":5}","[0]","../img/tt/1012tt.jpg","",""
"null","<div style=""font-size:60px;""> </div>","null","fixation","html-keyboard-response","461","1622822","0.0-6.0-0.65","2981147","co37939","norming","","","","","","",""
"null","../img/tt/1275tt.jpg","null","mooney1","image-keyboard-response","462","1625831","0.0-6.0-1.65","2981147","co37939","norming","","","","","","",""
"4249.954999999842","","","post_mooney1_questions","survey-likert","463","1630084","0.0-6.0-2.65","2981147","co37939","norming","","","{""curiosity"":1,""confidence"":4}","[0,1]","../img/tt/1275tt.jpg","",""
"5862.129999999888","","","recognition","survey-text","464","1635948","0.0-6.0-3.65","2981147","co37939","norming","","","{""guess"":""miereneter""}","","../img/tt/1275tt.jpg","",""
"null","../img/gs/1275gs.jpg","null","reveal","image-keyboard-response","465","1637957","0.0-6.0-4.65","2981147","co37939","norming","","","","","","",""
"null","../img/tt/1275tt.jpg","null","mooney2","image-keyboard-response","466","1639958","0.0-6.0-5.65","2981147","co37939","norming","","","","","","",""
"2092.6100000001024","","","post_reveal_questions","survey-likert","467","1642052","0.0-6.0-6.65","2981147","co37939","norming","","","{""aha"":0}","[0]","../img/tt/1275tt.jpg","",""
"null","<div style=""font-size:60px;""> </div>","null","fixation","html-keyboard-response","468","1642260","0.0-6.0-0.66","2981147","co37939","norming","","","","","","",""
"null","../img/tt/496tt.jpg","null","mooney1","image-keyboard-response","469","1645266","0.0-6.0-1.66","2981147","co37939","norming","","","","","","",""
"4895.714999999851","","","post_mooney1_questions","survey-likert","470","1650165","0.0-6.0-2.66","2981147","co37939","norming","","","{""curiosity"":1,""confidence"":3}","[0,1]","../img/tt/496tt.jpg","",""
"2325.9849999998696","","","recognition","survey-text","471","1652492","0.0-6.0-3.66","2981147","co37939","norming","","","{""guess"":""wolf""}","","../img/tt/496tt.jpg","",""
"null","../img/gs/496gs.jpg","null","reveal","image-keyboard-response","472","1654495","0.0-6.0-4.66","2981147","co37939","norming","","","","","","",""
"null","../img/tt/496tt.jpg","null","mooney2","image-keyboard-response","473","1656505","0.0-6.0-5.66","2981147","co37939","norming","","","","","","",""
"2688.4499999999534","","","post_reveal_questions","survey-likert","474","1659202","0.0-6.0-6.66","2981147","co37939","norming","","","{""aha"":1}","[0]","../img/tt/496tt.jpg","",""
"null","<div style=""font-size:60px;""> </div>","null","fixation","html-keyboard-response","475","1659410","0.0-6.0-0.67","2981147","co37939","norming","","","","","","",""
"null","../img/tt/436tt.jpg","null","mooney1","image-keyboard-response","476","1662415","0.0-6.0-1.67","2981147","co37939","norming","","","","","","",""
"5657.619999999879","","","post_mooney1_questions","survey-likert","477","1668074","0.0-6.0-2.67","2981147","co37939","norming","","","{""curiosity"":5,""confidence"":2}","[0,1]","../img/tt/436tt.jpg","",""
"4213.824999999721","","","recognition","survey-text","478","1672290","0.0-6.0-3.67","2981147","co37939","norming","","","{""guess"":""krokkodil""}","","../img/tt/436tt.jpg","",""
"null","../img/gs/436gs.jpg","null","reveal","image-keyboard-response","479","1674297","0.0-6.0-4.67","2981147","co37939","norming","","","","","","",""
"null","../img/tt/436tt.jpg","null","mooney2","image-keyboard-response","480","1676306","0.0-6.0-5.67","2981147","co37939","norming","","","","","","",""
"2933.2200000004377","","","post_reveal_questions","survey-likert","481","1679242","0.0-6.0-6.67","2981147","co37939","norming","","","{""aha"":5}","[0]","../img/tt/436tt.jpg","",""
"null","<div style=""font-size:60px;""> </div>","null","fixation","html-keyboard-response","482","1679449","0.0-6.0-0.68","2981147","co37939","norming","","","","","","",""
"null","../img/tt/1232tt.jpg","null","mooney1","image-keyboard-response","483","1682453","0.0-6.0-1.68","2981147","co37939","norming","","","","","","",""
"4084.0800000000745","","","post_mooney1_questions","survey-likert","484","1686538","0.0-6.0-2.68","2981147","co37939","norming","","","{""curiosity"":1,""confidence"":6}","[0,1]","../img/tt/1232tt.jpg","",""
"2869.5349999996834","","","recognition","survey-text","485","1689410","0.0-6.0-3.68","2981147","co37939","norming","","","{""guess"":""schildpad""}","","../img/tt/1232tt.jpg","",""
"null","../img/gs/1232gs.jpg","null","reveal","image-keyboard-response","486","1691413","0.0-6.0-4.68","2981147","co37939","norming","","","","","","",""
"null","../img/tt/1232tt.jpg","null","mooney2","image-keyboard-response","487","1693421","0.0-6.0-5.68","2981147","co37939","norming","","","","","","",""
"3178.7349999998696","","","post_reveal_questions","survey-likert","488","1696602","0.0-6.0-6.68","2981147","co37939","norming","","","{""aha"":6}","[0]","../img/tt/1232tt.jpg","",""
"null","<div style=""font-size:60px;""> </div>","null","fixation","html-keyboard-response","489","1696812","0.0-6.0-0.69","2981147","co37939","norming","","","","","","",""
"null","../img/tt/1243tt.jpg","null","mooney1","image-keyboard-response","490","1699822","0.0-6.0-1.69","2981147","co37939","norming","","","","","","",""
"4201.029999999795","","","post_mooney1_questions","survey-likert","491","1704026","0.0-6.0-2.69","2981147","co37939","norming","","","{""curiosity"":4,""confidence"":2}","[0,1]","../img/tt/1243tt.jpg","",""
"1445.5500000005122","","","recognition","survey-text","492","1705473","0.0-6.0-3.69","2981147","co37939","norming","","","{""guess"":""beer""}","","../img/tt/1243tt.jpg","",""
"null","../img/gs/1243gs.jpg","null","reveal","image-keyboard-response","493","1707480","0.0-6.0-4.69","2981147","co37939","norming","","","","","","",""
"null","../img/tt/1243tt.jpg","null","mooney2","image-keyboard-response","494","1709481","0.0-6.0-5.69","2981147","co37939","norming","","","","","","",""
"5102.034999999916","","","post_reveal_questions","survey-likert","495","1714586","0.0-6.0-6.69","2981147","co37939","norming","","","{""aha"":5}","[0]","../img/tt/1243tt.jpg","",""
"null","<div style=""font-size:60px;""> </div>","null","fixation","html-keyboard-response","496","1714788","0.0-6.0-0.70","2981147","co37939","norming","","","","","","",""
"null","../img/tt/001tt.jpg","null","mooney1","image-keyboard-response","497","1717790","0.0-6.0-1.70","2981147","co37939","norming","","","","","","",""
"5272.84999999986","","","post_mooney1_questions","survey-likert","498","1723058","0.0-6.0-2.70","2981147","co37939","norming","","","{""curiosity"":4,""confidence"":3}","[0,1]","../img/tt/001tt.jpg","",""
"2261.795000000391","","","recognition","survey-text","499","1725322","0.0-6.0-3.70","2981147","co37939","norming","","","{""guess"":""hond""}","","../img/tt/001tt.jpg","",""
"null","../img/gs/001gs.jpg","null","reveal","image-keyboard-response","500","1727324","0.0-6.0-4.70","2981147","co37939","norming","","","","","","",""
"null","../img/tt/001tt.jpg","null","mooney2","image-keyboard-response","501","1729332","0.0-6.0-5.70","2981147","co37939","norming","","","","","","",""
"3979.6750000000466","","","post_reveal_questions","survey-likert","502","1733314","0.0-6.0-6.70","2981147","co37939","norming","","","{""aha"":1}","[0]","../img/tt/001tt.jpg","",""
"null","<div style=""font-size:60px;""> </div>","null","fixation","html-keyboard-response","503","1733525","0.0-6.0-0.71","2981147","co37939","norming","","","","","","",""
"null","../img/tt/1061tt.jpg","null","mooney1","image-keyboard-response","504","1736534","0.0-6.0-1.71","2981147","co37939","norming","","","","","","",""
"7656.930000000168","","","post_mooney1_questions","survey-likert","505","1744194","0.0-6.0-2.71","2981147","co37939","norming","","","{""curiosity"":6,""confidence"":4}","[0,1]","../img/tt/1061tt.jpg","",""
"5078.310000000289","","","recognition","survey-text","506","1749274","0.0-6.0-3.71","2981147","co37939","norming","","","{""guess"":""golf hockey""}","","../img/tt/1061tt.jpg","",""
"null","../img/gs/1061gs.jpg","null","reveal","image-keyboard-response","507","1751281","0.0-6.0-4.71","2981147","co37939","norming","","","","","","",""
"null","../img/tt/1061tt.jpg","null","mooney2","image-keyboard-response","508","1753283","0.0-6.0-5.71","2981147","co37939","norming","","","","","","",""
"4516.500000000233","","","post_reveal_questions","survey-likert","509","1757802","0.0-6.0-6.71","2981147","co37939","norming","","","{""aha"":2}","[0]","../img/tt/1061tt.jpg","",""
"null","<div style=""font-size:60px;""> </div>","null","fixation","html-keyboard-response","510","1758005","0.0-6.0-0.72","2981147","co37939","norming","","","","","","",""
"null","../img/tt/567tt.jpg","null","mooney1","image-keyboard-response","511","1761017","0.0-6.0-1.72","2981147","co37939","norming","","","","","","",""
"3869.3050000001676","","","post_mooney1_questions","survey-likert","512","1764890","0.0-6.0-2.72","2981147","co37939","norming","","","{""curiosity"":2,""confidence"":4}","[0,1]","../img/tt/567tt.jpg","",""
"3694.135000000242","","","recognition","survey-text","513","1768586","0.0-6.0-3.72","2981147","co37939","norming","","","{""guess"":""broodrooster""}","","../img/tt/567tt.jpg","",""
"null","../img/gs/567gs.jpg","null","reveal","image-keyboard-response","514","1770587","0.0-6.0-4.72","2981147","co37939","norming","","","","","","",""
"null","../img/tt/567tt.jpg","null","mooney2","image-keyboard-response","515","1772592","0.0-6.0-5.72","2981147","co37939","norming","","","","","","",""
"3183.7350000001024","","","post_reveal_questions","survey-likert","516","1775778","0.0-6.0-6.72","2981147","co37939","norming","","","{""aha"":0}","[0]","../img/tt/567tt.jpg","",""
"null","<div style=""font-size:60px;""> </div>","null","fixation","html-keyboard-response","517","1775987","0.0-6.0-0.73","2981147","co37939","norming","","","","","","",""
"null","../img/tt/085tt.jpg","null","mooney1","image-keyboard-response","518","1778992","0.0-6.0-1.73","2981147","co37939","norming","","","","","","",""
"4502.790000000037","","","post_mooney1_questions","survey-likert","519","1783504","0.0-6.0-2.73","2981147","co37939","norming","","","{""curiosity"":0,""confidence"":0}","[0,1]","../img/tt/085tt.jpg","",""
"726.1450000000186","","","recognition","survey-text","520","1784232","0.0-6.0-3.73","2981147","co37939","norming","","","{""guess"":""""}","","../img/tt/085tt.jpg","",""
"null","../img/gs/085gs.jpg","null","reveal","image-keyboard-response","521","1786238","0.0-6.0-4.73","2981147","co37939","norming","","","","","","",""
"null","../img/tt/085tt.jpg","null","mooney2","image-keyboard-response","522","1788249","0.0-6.0-5.73","2981147","co37939","norming","","","","","","",""
"4882.189999999944","","","post_reveal_questions","survey-likert","523","1793136","0.0-6.0-6.73","2981147","co37939","norming","","","{""aha"":0}","[0]","../img/tt/085tt.jpg","",""
"null","<div style=""font-size:60px;""> </div>","null","fixation","html-keyboard-response","524","1793347","0.0-6.0-0.74","2981147","co37939","norming","","","","","","",""
"null","../img/tt/1143tt.jpg","null","mooney1","image-keyboard-response","525","1796350","0.0-6.0-1.74","2981147","co37939","norming","","","","","","",""
"3882.0500000002794","","","post_mooney1_questions","survey-likert","526","1800234","0.0-6.0-2.74","2981147","co37939","norming","","","{""curiosity"":0,""confidence"":0}","[0,1]","../img/tt/1143tt.jpg","",""
"556.8800000001211","","","recognition","survey-text","527","1800792","0.0-6.0-3.74","2981147","co37939","norming","","","{""guess"":""""}","","../img/tt/1143tt.jpg","",""
"null","../img/gs/1143gs.jpg","null","reveal","image-keyboard-response","528","1802797","0.0-6.0-4.74","2981147","co37939","norming","","","","","","",""
"null","../img/tt/1143tt.jpg","null","mooney2","image-keyboard-response","529","1804807","0.0-6.0-5.74","2981147","co37939","norming","","","","","","",""
"2390.100000000093","","","post_reveal_questions","survey-likert","530","1807200","0.0-6.0-6.74","2981147","co37939","norming","","","{""aha"":1}","[0]","../img/tt/1143tt.jpg","",""
"null","<div style=""font-size:60px;""> </div>","null","fixation","html-keyboard-response","531","1807408","0.0-6.0-0.75","2981147","co37939","norming","","","","","","",""
"null","../img/tt/060tt.jpg","null","mooney1","image-keyboard-response","532","1810418","0.0-6.0-1.75","2981147","co37939","norming","","","","","","",""
"3180.8299999998417","","","post_mooney1_questions","survey-likert","533","1813600","0.0-6.0-2.75","2981147","co37939","norming","","","{""curiosity"":0,""confidence"":0}","[0,1]","../img/tt/060tt.jpg","",""
"822.0949999999721","","","recognition","survey-text","534","1814424","0.0-6.0-3.75","2981147","co37939","norming","","","{""guess"":""""}","","../img/tt/060tt.jpg","",""
"null","../img/gs/060gs.jpg","null","reveal","image-keyboard-response","535","1816426","0.0-6.0-4.75","2981147","co37939","norming","","","","","","",""
"null","../img/tt/060tt.jpg","null","mooney2","image-keyboard-response","536","1818431","0.0-6.0-5.75","2981147","co37939","norming","","","","","","",""
"2800.4199999999255","","","post_reveal_questions","survey-likert","537","1821232","0.0-6.0-6.75","2981147","co37939","norming","","","{""aha"":4}","[0]","../img/tt/060tt.jpg","",""
"null","<div style=""font-size:60px;""> </div>","null","fixation","html-keyboard-response","538","1821441","0.0-6.0-0.76","2981147","co37939","norming","","","","","","",""
"null","../img/tt/279tt.jpg","null","mooney1","image-keyboard-response","539","1824451","0.0-6.0-1.76","2981147","co37939","norming","","","","","","",""
"5987.305000000168","","","post_mooney1_questions","survey-likert","540","1830440","0.0-6.0-2.76","2981147","co37939","norming","","","{""curiosity"":2,""confidence"":1}","[0,1]","../img/tt/279tt.jpg","",""
"3461.9849999998696","","","recognition","survey-text","541","1833904","0.0-6.0-3.76","2981147","co37939","norming","","","{""guess"":""boze kat""}","","../img/tt/279tt.jpg","",""
"null","../img/gs/279gs.jpg","null","reveal","image-keyboard-response","542","1835907","0.0-6.0-4.76","2981147","co37939","norming","","","","","","",""
"null","../img/tt/279tt.jpg","null","mooney2","image-keyboard-response","543","1837909","0.0-6.0-5.76","2981147","co37939","norming","","","","","","",""
"4090.2750000001397","","","post_reveal_questions","survey-likert","544","1842002","0.0-6.0-6.76","2981147","co37939","norming","","","{""aha"":6}","[0]","../img/tt/279tt.jpg","",""
"null","<div style=""font-size:60px;""> </div>","null","fixation","html-keyboard-response","545","1842209","0.0-6.0-0.77","2981147","co37939","norming","","","","","","",""
"null","../img/tt/1363tt.jpg","null","mooney1","image-keyboard-response","546","1845221","0.0-6.0-1.77","2981147","co37939","norming","","","","","","",""
"11025.845000000205","","","post_mooney1_questions","survey-likert","547","1856250","0.0-6.0-2.77","2981147","co37939","norming","","","{""curiosity"":5,""confidence"":3}","[0,1]","../img/tt/1363tt.jpg","",""
"6909.994999999879","","","recognition","survey-text","548","1863161","0.0-6.0-3.77","2981147","co37939","norming","","","{""guess"":""damme blanche""}","","../img/tt/1363tt.jpg","",""
"null","../img/gs/1363gs.jpg","null","reveal","image-keyboard-response","549","1865168","0.0-6.0-4.77","2981147","co37939","norming","","","","","","",""
"null","../img/tt/1363tt.jpg","null","mooney2","image-keyboard-response","550","1867170","0.0-6.0-5.77","2981147","co37939","norming","","","","","","",""
"2532.845000000205","","","post_reveal_questions","survey-likert","551","1869705","0.0-6.0-6.77","2981147","co37939","norming","","","{""aha"":0}","[0]","../img/tt/1363tt.jpg","",""
"null","<div style=""font-size:60px;""> </div>","null","fixation","html-keyboard-response","552","1869909","0.0-6.0-0.78","2981147","co37939","norming","","","","","","",""
