"rt","stimulus","key_press","test_part","trial_type","trial_index","time_elapsed","internal_node_id","totalTime","subject","experiment_name","button_pressed","success","responses","question_order","currentStim","old","correct"
"8553.954999999405","Welcome to the experiment. This is an online experiment so please don't close the tab/window until we say goodbye.  Press any key to begin.","32","instructions","html-keyboard-response","0","8568","0.0-0.0","2714451","co37888","norming","","","","","","",""
"4930.65999999817","<div style='word-wrap: break-word; width: 900px'><h3>Please consider this information carefully before deciding whether to participate in this research</h3><ul style='text-align: left; font-size: .8em;'><li><b>Purpose of the research</b>: To examine how people process images.</li><li><b>What you will do in this research</b>:  Stimuli (images) will be presented on the computer and you will be asked different questions about them.</li><li><b>Time required</b>: Participation will take between 45 and 60 minutes to complete.</li><li><b>Risks</b>:  There are no anticipated risks associated with participating in this study. The effects of participating should be comparable to those you would experience from viewing a computer monitor for 30 minutes and using a mouse or keyboard.</li><li><b>Benefits</b>:  This study provides no benefits to you individually except for the credit. The study provides important information about the nature of perception and learning.</li><li><b>Confidentiality</b>:  Your participation in this study will remain confidential. No personally identifiable information will be associated with your data. Your de-identified data may be shared with other researchers and used in future projects.</li><li><b>Participation and withdrawal</b>:  Your participation in this study is completely voluntary and you may refuse to participate or you may choose to withdraw at any time without penalty.</li><li><b>How to contact the researchers</b>: If you have questions or concerns about your participation or payment, or want to request a summary of research findings, please contact Sander Van de Cruys (KU Leuven), at sander.vandecruys@kuleuven.be.</li></ul><p>The nature and purpose of this research have been sufficiently explained and I agree to participate in this study.  I understand that I am free to withdraw at any time without incurring any penalty.</p><p>Please consent by clicking the button below to continue. Otherwise, please exit the study at this time.</p></div>","","instructions","html-button-response","1","13503","0.0-1.0","2714451","co37888","norming","0","","","","","",""
"","","","instructions","fullscreen","2","20113","0.0-2.0","2714451","co37888","norming","","true","","","","",""
"33755.529999998544","","","sona","survey-html-form","3","53874","0.0-3.0","2714451","co37888","norming","","","[{""name"":""sonaid"",""value"":""37888""},{""name"":""debrief"",""value"":""yes""},{""name"":""datajoin"",""value"":""yes""}]","","","",""
"112355.86999999941","<div style='word-wrap: break-word; width: 900px'><h3>Instructions</h3><p>This experiment will have 3 parts. In the first part you will see a series of distorted images like the one below on the left. As you can see in the righthand image, the distorted images are derived from actual photographs. In what follows, you will <strong>briefly</strong> be presented with <strong>only</strong> the distorted image.</p> <div style='float: left; margin-right: 20px;'><img src='../img/018tt.jpg' height='250' width='250'></img></div><div style='float: right; margin-left: 20px;'><img src='../img/018gs.jpg' height='250' width='250'></img></div><p>Subsequently you will be asked a few questions about the image: One question on how <strong>curious</strong> you are about the solution and one on how <strong>confident</strong> you are that you know the solution.</p>Next, we ask you to make a guess on what is in the image. Note that it is OK to name just the <strong>basic level category</strong>. For example when you see a parrot in the image, 'parrot' will obviously be a correct answer but also correct is 'bird'. However, 'animal' will <strong>not</strong> be counted as a correct response. For the example above, 'rose' would be correct or 'flower', but not 'plant'. When soccer players are depicted, 'soccer', 'football', 'soccer players' will be correct, but not 'humans', 'outdoors', or 'sports'. You do not need to describe the image in full, just name the main object in it <strong>in one or two words</strong>. All images depict objects from one of the following broad level categories: animals, inanimate objects, plants, sports, vehicles, and food. Recognizing means knowing <strong>more</strong> than these broad labels for a given image. But we always encourage you to <strong>make a guess</strong> if you can. Note that you are allowed to use <strong>Dutch and English</strong> in your answers, whatever comes easiest for you.</p><p>Press any key to continue.</p></div>","32","instructions","html-keyboard-response","4","166235","0.0-4.0","2714451","co37888","norming","","","","","","",""
"78860.70000000109","<div style='word-wrap: break-word; width: 900px'><h3>Instructions</h3> <p>Next, the solution image will be revealed to you and you'll be asked to indicate how strong your <strong>aha-experience</strong> was after seeing the solution. This describes the positive feeling of the 'click' you sometimes experience, when the pieces of the 'puzzle' fall together and you suddenly have 'insight' in the image.</p><img src='aha.jpg' height='188' width='250'></img><p>Note that there are no right or wrong answers. We are interested in what <strong>you</strong> see in the image and how <strong>you</strong> feel about it.</p><p>Press any key to start the experiment.</p></div>","32","instructions","html-keyboard-response","5","245095","0.0-5.0","2714451","co37888","norming","","","","","","",""
"null","<div style=""font-size:60px;""> </div>","null","fixation","html-keyboard-response","6","245297","0.0-6.0-0.0","2714451","co37888","norming","","","","","","",""
"null","../img/tt/1080tt.jpg","null","mooney1","image-keyboard-response","7","248307","0.0-6.0-1.0","2714451","co37888","norming","","","","","","",""
"17008.615000002465","","","post_mooney1_questions","survey-likert","8","265320","0.0-6.0-2.0","2714451","co37888","norming","","","{""curiosity"":3,""confidence"":5}","[0,1]","../img/tt/1080tt.jpg","",""
"7501.574999998382","","","recognition","survey-text","9","272823","0.0-6.0-3.0","2714451","co37888","norming","","","{""guess"":""liggende vrouw""}","","../img/tt/1080tt.jpg","",""
"null","../img/gs/1080gs.jpg","null","reveal","image-keyboard-response","10","274833","0.0-6.0-4.0","2714451","co37888","norming","","","","","","",""
"null","../img/tt/1080tt.jpg","null","mooney2","image-keyboard-response","11","276835","0.0-6.0-5.0","2714451","co37888","norming","","","","","","",""
"10482.080000001588","","","post_reveal_questions","survey-likert","12","287319","0.0-6.0-6.0","2714451","co37888","norming","","","{""aha"":0}","[0]","../img/tt/1080tt.jpg","",""
"null","<div style=""font-size:60px;""> </div>","null","fixation","html-keyboard-response","13","287531","0.0-6.0-0.1","2714451","co37888","norming","","","","","","",""
"null","../img/tt/1069tt.jpg","null","mooney1","image-keyboard-response","14","290533","0.0-6.0-1.1","2714451","co37888","norming","","","","","","",""
"7136.469999997644","","","post_mooney1_questions","survey-likert","15","297671","0.0-6.0-2.1","2714451","co37888","norming","","","{""curiosity"":2,""confidence"":3}","[0,1]","../img/tt/1069tt.jpg","",""
"2622.100000000559","","","recognition","survey-text","16","300295","0.0-6.0-3.1","2714451","co37888","norming","","","{""guess"":""geit""}","","../img/tt/1069tt.jpg","",""
"null","../img/gs/1069gs.jpg","null","reveal","image-keyboard-response","17","302300","0.0-6.0-4.1","2714451","co37888","norming","","","","","","",""
"null","../img/tt/1069tt.jpg","null","mooney2","image-keyboard-response","18","304309","0.0-6.0-5.1","2714451","co37888","norming","","","","","","",""
"2055.7800000023562","","","post_reveal_questions","survey-likert","19","306365","0.0-6.0-6.1","2714451","co37888","norming","","","{""aha"":1}","[0]","../img/tt/1069tt.jpg","",""
"null","<div style=""font-size:60px;""> </div>","null","fixation","html-keyboard-response","20","306566","0.0-6.0-0.2","2714451","co37888","norming","","","","","","",""
"null","../img/tt/1234tt.jpg","null","mooney1","image-keyboard-response","21","309576","0.0-6.0-1.2","2714451","co37888","norming","","","","","","",""
"3954.4699999969453","","","post_mooney1_questions","survey-likert","22","313533","0.0-6.0-2.2","2714451","co37888","norming","","","{""curiosity"":3,""confidence"":5}","[0,1]","../img/tt/1234tt.jpg","",""
"2262.3600000006845","","","recognition","survey-text","23","315797","0.0-6.0-3.2","2714451","co37888","norming","","","{""guess"":""eend""}","","../img/tt/1234tt.jpg","",""
"null","../img/gs/1234gs.jpg","null","reveal","image-keyboard-response","24","317798","0.0-6.0-4.2","2714451","co37888","norming","","","","","","",""
"null","../img/tt/1234tt.jpg","null","mooney2","image-keyboard-response","25","319804","0.0-6.0-5.2","2714451","co37888","norming","","","","","","",""
"2047.8650000004563","","","post_reveal_questions","survey-likert","26","321853","0.0-6.0-6.2","2714451","co37888","norming","","","{""aha"":0}","[0]","../img/tt/1234tt.jpg","",""
"null","<div style=""font-size:60px;""> </div>","null","fixation","html-keyboard-response","27","322063","0.0-6.0-0.3","2714451","co37888","norming","","","","","","",""
"null","../img/tt/001tt.jpg","null","mooney1","image-keyboard-response","28","325066","0.0-6.0-1.3","2714451","co37888","norming","","","","","","",""
"5545.98999999871","","","post_mooney1_questions","survey-likert","29","330613","0.0-6.0-2.3","2714451","co37888","norming","","","{""curiosity"":2,""confidence"":0}","[0,1]","../img/tt/001tt.jpg","",""
"3758.239999999176","","","recognition","survey-text","30","334373","0.0-6.0-3.3","2714451","co37888","norming","","","{""guess"":""schaap""}","","../img/tt/001tt.jpg","",""
"null","../img/gs/001gs.jpg","null","reveal","image-keyboard-response","31","336376","0.0-6.0-4.3","2714451","co37888","norming","","","","","","",""
"null","../img/tt/001tt.jpg","null","mooney2","image-keyboard-response","32","338382","0.0-6.0-5.3","2714451","co37888","norming","","","","","","",""
"2525.38999999885","","","post_reveal_questions","survey-likert","33","340909","0.0-6.0-6.3","2714451","co37888","norming","","","{""aha"":5}","[0]","../img/tt/001tt.jpg","",""
"null","<div style=""font-size:60px;""> </div>","null","fixation","html-keyboard-response","34","341114","0.0-6.0-0.4","2714451","co37888","norming","","","","","","",""
"null","../img/tt/056tt.jpg","null","mooney1","image-keyboard-response","35","344117","0.0-6.0-1.4","2714451","co37888","norming","","","","","","",""
"5829.994999999995","","","post_mooney1_questions","survey-likert","36","349950","0.0-6.0-2.4","2714451","co37888","norming","","","{""curiosity"":5,""confidence"":2}","[0,1]","../img/tt/056tt.jpg","",""
"3173.979999999574","","","recognition","survey-text","37","353125","0.0-6.0-3.4","2714451","co37888","norming","","","{""guess"":""steenbok""}","","../img/tt/056tt.jpg","",""
"null","../img/gs/056gs.jpg","null","reveal","image-keyboard-response","38","355127","0.0-6.0-4.4","2714451","co37888","norming","","","","","","",""
"null","../img/tt/056tt.jpg","null","mooney2","image-keyboard-response","39","357133","0.0-6.0-5.4","2714451","co37888","norming","","","","","","",""
"3127.505000000412","","","post_reveal_questions","survey-likert","40","360261","0.0-6.0-6.4","2714451","co37888","norming","","","{""aha"":5}","[0]","../img/tt/056tt.jpg","",""
"null","<div style=""font-size:60px;""> </div>","null","fixation","html-keyboard-response","41","360466","0.0-6.0-0.5","2714451","co37888","norming","","","","","","",""
"null","../img/tt/1309tt.jpg","null","mooney1","image-keyboard-response","42","363468","0.0-6.0-1.5","2714451","co37888","norming","","","","","","",""
"3767.2899999998044","","","post_mooney1_questions","survey-likert","43","367246","0.0-6.0-2.5","2714451","co37888","norming","","","{""curiosity"":3,""confidence"":0}","[0,1]","../img/tt/1309tt.jpg","",""
"2270.3899999978603","","","recognition","survey-text","44","369518","0.0-6.0-3.5","2714451","co37888","norming","","","{""guess"":""auto""}","","../img/tt/1309tt.jpg","",""
"null","../img/gs/1309gs.jpg","null","reveal","image-keyboard-response","45","371519","0.0-6.0-4.5","2714451","co37888","norming","","","","","","",""
"null","../img/tt/1309tt.jpg","null","mooney2","image-keyboard-response","46","373521","0.0-6.0-5.5","2714451","co37888","norming","","","","","","",""
"3954.359999999695","","","post_reveal_questions","survey-likert","47","377478","0.0-6.0-6.5","2714451","co37888","norming","","","{""aha"":6}","[0]","../img/tt/1309tt.jpg","",""
"null","<div style=""font-size:60px;""> </div>","null","fixation","html-keyboard-response","48","377682","0.0-6.0-0.6","2714451","co37888","norming","","","","","","",""
"null","../img/tt/044tt.jpg","null","mooney1","image-keyboard-response","49","380689","0.0-6.0-1.6","2714451","co37888","norming","","","","","","",""
"5866.604999999283","","","post_mooney1_questions","survey-likert","50","386558","0.0-6.0-2.6","2714451","co37888","norming","","","{""curiosity"":5,""confidence"":3}","[0,1]","../img/tt/044tt.jpg","",""
"3086.3549999995157","","","recognition","survey-text","51","389646","0.0-6.0-3.6","2714451","co37888","norming","","","{""guess"":""duikboot""}","","../img/tt/044tt.jpg","",""
"null","../img/gs/044gs.jpg","null","reveal","image-keyboard-response","52","391654","0.0-6.0-4.6","2714451","co37888","norming","","","","","","",""
"null","../img/tt/044tt.jpg","null","mooney2","image-keyboard-response","53","393666","0.0-6.0-5.6","2714451","co37888","norming","","","","","","",""
"3858.0499999989406","","","post_reveal_questions","survey-likert","54","397526","0.0-6.0-6.6","2714451","co37888","norming","","","{""aha"":6}","[0]","../img/tt/044tt.jpg","",""
"null","<div style=""font-size:60px;""> </div>","null","fixation","html-keyboard-response","55","397729","0.0-6.0-0.7","2714451","co37888","norming","","","","","","",""
"null","../img/tt/590tt.jpg","null","mooney1","image-keyboard-response","56","400738","0.0-6.0-1.7","2714451","co37888","norming","","","","","","",""
"5897.885000002163","","","post_mooney1_questions","survey-likert","57","406638","0.0-6.0-2.7","2714451","co37888","norming","","","{""curiosity"":4,""confidence"":2}","[0,1]","../img/tt/590tt.jpg","",""
"4318.22000000102","","","recognition","survey-text","58","410958","0.0-6.0-3.7","2714451","co37888","norming","","","{""guess"":""monstertruck""}","","../img/tt/590tt.jpg","",""
"null","../img/gs/590gs.jpg","null","reveal","image-keyboard-response","59","412966","0.0-6.0-4.7","2714451","co37888","norming","","","","","","",""
"null","../img/tt/590tt.jpg","null","mooney2","image-keyboard-response","60","414967","0.0-6.0-5.7","2714451","co37888","norming","","","","","","",""
"2324.68499999959","","","post_reveal_questions","survey-likert","61","417294","0.0-6.0-6.7","2714451","co37888","norming","","","{""aha"":5}","[0]","../img/tt/590tt.jpg","",""
"null","<div style=""font-size:60px;""> </div>","null","fixation","html-keyboard-response","62","417495","0.0-6.0-0.8","2714451","co37888","norming","","","","","","",""
"null","../img/tt/1353tt.jpg","null","mooney1","image-keyboard-response","63","420498","0.0-6.0-1.8","2714451","co37888","norming","","","","","","",""
"3097.2599999986705","","","post_mooney1_questions","survey-likert","64","423598","0.0-6.0-2.8","2714451","co37888","norming","","","{""curiosity"":2,""confidence"":0}","[0,1]","../img/tt/1353tt.jpg","",""
"1806.045000001206","","","recognition","survey-text","65","425406","0.0-6.0-3.8","2714451","co37888","norming","","","{""guess"":""kat""}","","../img/tt/1353tt.jpg","",""
"null","../img/gs/1353gs.jpg","null","reveal","image-keyboard-response","66","427416","0.0-6.0-4.8","2714451","co37888","norming","","","","","","",""
"null","../img/tt/1353tt.jpg","null","mooney2","image-keyboard-response","67","429424","0.0-6.0-5.8","2714451","co37888","norming","","","","","","",""
"2259.7549999990733","","","post_reveal_questions","survey-likert","68","431686","0.0-6.0-6.8","2714451","co37888","norming","","","{""aha"":5}","[0]","../img/tt/1353tt.jpg","",""
"null","<div style=""font-size:60px;""> </div>","null","fixation","html-keyboard-response","69","431891","0.0-6.0-0.9","2714451","co37888","norming","","","","","","",""
"null","../img/tt/552tt.jpg","null","mooney1","image-keyboard-response","70","434902","0.0-6.0-1.9","2714451","co37888","norming","","","","","","",""
"4998.615000000398","","","post_mooney1_questions","survey-likert","71","439903","0.0-6.0-2.9","2714451","co37888","norming","","","{""curiosity"":4,""confidence"":2}","[0,1]","../img/tt/552tt.jpg","",""
"2909.504999999597","","","recognition","survey-text","72","442814","0.0-6.0-3.9","2714451","co37888","norming","","","{""guess"":""stinkdier""}","","../img/tt/552tt.jpg","",""
"null","../img/gs/552gs.jpg","null","reveal","image-keyboard-response","73","444815","0.0-6.0-4.9","2714451","co37888","norming","","","","","","",""
"null","../img/tt/552tt.jpg","null","mooney2","image-keyboard-response","74","446824","0.0-6.0-5.9","2714451","co37888","norming","","","","","","",""
"2884.229999999632","","","post_reveal_questions","survey-likert","75","449711","0.0-6.0-6.9","2714451","co37888","norming","","","{""aha"":0}","[0]","../img/tt/552tt.jpg","",""
"null","<div style=""font-size:60px;""> </div>","null","fixation","html-keyboard-response","76","449915","0.0-6.0-0.10","2714451","co37888","norming","","","","","","",""
"null","../img/tt/507tt.jpg","null","mooney1","image-keyboard-response","77","452917","0.0-6.0-1.10","2714451","co37888","norming","","","","","","",""
"4446.809999997669","","","post_mooney1_questions","survey-likert","78","457367","0.0-6.0-2.10","2714451","co37888","norming","","","{""curiosity"":3,""confidence"":3}","[0,1]","../img/tt/507tt.jpg","",""
"5958.164999999979","","","recognition","survey-text","79","463326","0.0-6.0-3.10","2714451","co37888","norming","","","{""guess"":""dansend koppel""}","","../img/tt/507tt.jpg","",""
"null","../img/gs/507gs.jpg","null","reveal","image-keyboard-response","80","465334","0.0-6.0-4.10","2714451","co37888","norming","","","","","","",""
"null","../img/tt/507tt.jpg","null","mooney2","image-keyboard-response","81","467336","0.0-6.0-5.10","2714451","co37888","norming","","","","","","",""
"1900.050000000163","","","post_reveal_questions","survey-likert","82","469238","0.0-6.0-6.10","2714451","co37888","norming","","","{""aha"":6}","[0]","../img/tt/507tt.jpg","",""
"null","<div style=""font-size:60px;""> </div>","null","fixation","html-keyboard-response","83","469449","0.0-6.0-0.11","2714451","co37888","norming","","","","","","",""
"null","../img/tt/053tt.jpg","null","mooney1","image-keyboard-response","84","472451","0.0-6.0-1.11","2714451","co37888","norming","","","","","","",""
"4624.840000000433","","","post_mooney1_questions","survey-likert","85","477079","0.0-6.0-2.11","2714451","co37888","norming","","","{""curiosity"":0,""confidence"":0}","[0,1]","../img/tt/053tt.jpg","",""
"790.0650000010501","","","recognition","survey-text","86","477870","0.0-6.0-3.11","2714451","co37888","norming","","","{""guess"":""""}","","../img/tt/053tt.jpg","",""
"null","../img/gs/053gs.jpg","null","reveal","image-keyboard-response","87","479872","0.0-6.0-4.11","2714451","co37888","norming","","","","","","",""
"null","../img/tt/053tt.jpg","null","mooney2","image-keyboard-response","88","481878","0.0-6.0-5.11","2714451","co37888","norming","","","","","","",""
"1950.6550000005518","","","post_reveal_questions","survey-likert","89","483830","0.0-6.0-6.11","2714451","co37888","norming","","","{""aha"":6}","[0]","../img/tt/053tt.jpg","",""
"null","<div style=""font-size:60px;""> </div>","null","fixation","html-keyboard-response","90","484037","0.0-6.0-0.12","2714451","co37888","norming","","","","","","",""
"null","../img/tt/1151tt.jpg","null","mooney1","image-keyboard-response","91","487041","0.0-6.0-1.12","2714451","co37888","norming","","","","","","",""
"6163.044999997539","","","post_mooney1_questions","survey-likert","92","493205","0.0-6.0-2.12","2714451","co37888","norming","","","{""curiosity"":5,""confidence"":4}","[0,1]","../img/tt/1151tt.jpg","",""
"2470.3100000005797","","","recognition","survey-text","93","495677","0.0-6.0-3.12","2714451","co37888","norming","","","{""guess"":""piloot""}","","../img/tt/1151tt.jpg","",""
"null","../img/gs/1151gs.jpg","null","reveal","image-keyboard-response","94","497680","0.0-6.0-4.12","2714451","co37888","norming","","","","","","",""
"null","../img/tt/1151tt.jpg","null","mooney2","image-keyboard-response","95","499688","0.0-6.0-5.12","2714451","co37888","norming","","","","","","",""
"3091.035000001313","","","post_reveal_questions","survey-likert","96","502781","0.0-6.0-6.12","2714451","co37888","norming","","","{""aha"":4}","[0]","../img/tt/1151tt.jpg","",""
"null","<div style=""font-size:60px;""> </div>","null","fixation","html-keyboard-response","97","502986","0.0-6.0-0.13","2714451","co37888","norming","","","","","","",""
"null","../img/tt/1040tt.jpg","null","mooney1","image-keyboard-response","98","505991","0.0-6.0-1.13","2714451","co37888","norming","","","","","","",""
"2963.6800000007497","","","post_mooney1_questions","survey-likert","99","508957","0.0-6.0-2.13","2714451","co37888","norming","","","{""curiosity"":1,""confidence"":2}","[0,1]","../img/tt/1040tt.jpg","",""
"2606.280000000028","","","recognition","survey-text","100","511565","0.0-6.0-3.13","2714451","co37888","norming","","","{""guess"":""schip""}","","../img/tt/1040tt.jpg","",""
"null","../img/gs/1040gs.jpg","null","reveal","image-keyboard-response","101","513571","0.0-6.0-4.13","2714451","co37888","norming","","","","","","",""
"null","../img/tt/1040tt.jpg","null","mooney2","image-keyboard-response","102","515572","0.0-6.0-5.13","2714451","co37888","norming","","","","","","",""
"3559.915000001667","","","post_reveal_questions","survey-likert","103","519133","0.0-6.0-6.13","2714451","co37888","norming","","","{""aha"":6}","[0]","../img/tt/1040tt.jpg","",""
"null","<div style=""font-size:60px;""> </div>","null","fixation","html-keyboard-response","104","519336","0.0-6.0-0.14","2714451","co37888","norming","","","","","","",""
"null","../img/tt/515tt.jpg","null","mooney1","image-keyboard-response","105","522343","0.0-6.0-1.14","2714451","co37888","norming","","","","","","",""
"6299.895000000135","","","post_mooney1_questions","survey-likert","106","528645","0.0-6.0-2.14","2714451","co37888","norming","","","{""curiosity"":4,""confidence"":1}","[0,1]","../img/tt/515tt.jpg","",""
"2614.224999997532","","","recognition","survey-text","107","531261","0.0-6.0-3.14","2714451","co37888","norming","","","{""guess"":""lezer""}","","../img/tt/515tt.jpg","",""
"null","../img/gs/515gs.jpg","null","reveal","image-keyboard-response","108","533266","0.0-6.0-4.14","2714451","co37888","norming","","","","","","",""
"null","../img/tt/515tt.jpg","null","mooney2","image-keyboard-response","109","535268","0.0-6.0-5.14","2714451","co37888","norming","","","","","","",""
"1934.6399999995483","","","post_reveal_questions","survey-likert","110","537205","0.0-6.0-6.14","2714451","co37888","norming","","","{""aha"":6}","[0]","../img/tt/515tt.jpg","",""
"null","<div style=""font-size:60px;""> </div>","null","fixation","html-keyboard-response","111","537414","0.0-6.0-0.15","2714451","co37888","norming","","","","","","",""
"null","../img/tt/300tt.jpg","null","mooney1","image-keyboard-response","112","540427","0.0-6.0-1.15","2714451","co37888","norming","","","","","","",""
"4504.1299999974435","","","post_mooney1_questions","survey-likert","113","544933","0.0-6.0-2.15","2714451","co37888","norming","","","{""curiosity"":1,""confidence"":0}","[0,1]","../img/tt/300tt.jpg","",""
"894.2499999975553","","","recognition","survey-text","114","545829","0.0-6.0-3.15","2714451","co37888","norming","","","{""guess"":""""}","","../img/tt/300tt.jpg","",""
"null","../img/gs/300gs.jpg","null","reveal","image-keyboard-response","115","547834","0.0-6.0-4.15","2714451","co37888","norming","","","","","","",""
"null","../img/tt/300tt.jpg","null","mooney2","image-keyboard-response","116","549836","0.0-6.0-5.15","2714451","co37888","norming","","","","","","",""
"2454.9299999998184","","","post_reveal_questions","survey-likert","117","552293","0.0-6.0-6.15","2714451","co37888","norming","","","{""aha"":6}","[0]","../img/tt/300tt.jpg","",""
"null","<div style=""font-size:60px;""> </div>","null","fixation","html-keyboard-response","118","552496","0.0-6.0-0.16","2714451","co37888","norming","","","","","","",""
"null","../img/tt/1024tt.jpg","null","mooney1","image-keyboard-response","119","555502","0.0-6.0-1.16","2714451","co37888","norming","","","","","","",""
"4595.88000000082","","","post_mooney1_questions","survey-likert","120","560101","0.0-6.0-2.16","2714451","co37888","norming","","","{""curiosity"":6,""confidence"":3}","[0,1]","../img/tt/1024tt.jpg","",""
"2806.3800000018673","","","recognition","survey-text","121","562909","0.0-6.0-3.16","2714451","co37888","norming","","","{""guess"":""moeder""}","","../img/tt/1024tt.jpg","",""
"null","../img/gs/1024gs.jpg","null","reveal","image-keyboard-response","122","564917","0.0-6.0-4.16","2714451","co37888","norming","","","","","","",""
"null","../img/tt/1024tt.jpg","null","mooney2","image-keyboard-response","123","566918","0.0-6.0-5.16","2714451","co37888","norming","","","","","","",""
"1716.7650000010617","","","post_reveal_questions","survey-likert","124","568637","0.0-6.0-6.16","2714451","co37888","norming","","","{""aha"":6}","[0]","../img/tt/1024tt.jpg","",""
"null","<div style=""font-size:60px;""> </div>","null","fixation","html-keyboard-response","125","568842","0.0-6.0-0.17","2714451","co37888","norming","","","","","","",""
"null","../img/tt/436tt.jpg","null","mooney1","image-keyboard-response","126","571845","0.0-6.0-1.17","2714451","co37888","norming","","","","","","",""
"4173.145000000601","","","post_mooney1_questions","survey-likert","127","576021","0.0-6.0-2.17","2714451","co37888","norming","","","{""curiosity"":0,""confidence"":0}","[0,1]","../img/tt/436tt.jpg","",""
"886.4949999988312","","","recognition","survey-text","128","576909","0.0-6.0-3.17","2714451","co37888","norming","","","{""guess"":""""}","","../img/tt/436tt.jpg","",""
"null","../img/gs/436gs.jpg","null","reveal","image-keyboard-response","129","578914","0.0-6.0-4.17","2714451","co37888","norming","","","","","","",""
"null","../img/tt/436tt.jpg","null","mooney2","image-keyboard-response","130","580915","0.0-6.0-5.17","2714451","co37888","norming","","","","","","",""
"2679.789999998291","","","post_reveal_questions","survey-likert","131","583597","0.0-6.0-6.17","2714451","co37888","norming","","","{""aha"":0}","[0]","../img/tt/436tt.jpg","",""
"null","<div style=""font-size:60px;""> </div>","null","fixation","html-keyboard-response","132","583805","0.0-6.0-0.18","2714451","co37888","norming","","","","","","",""
"null","../img/tt/1366tt.jpg","null","mooney1","image-keyboard-response","133","586818","0.0-6.0-1.18","2714451","co37888","norming","","","","","","",""
"4801.0249999969965","","","post_mooney1_questions","survey-likert","134","591621","0.0-6.0-2.18","2714451","co37888","norming","","","{""curiosity"":4,""confidence"":0}","[0,1]","../img/tt/1366tt.jpg","",""
"2421.920000000624","","","recognition","survey-text","135","594045","0.0-6.0-3.18","2714451","co37888","norming","","","{""guess"":""konijn""}","","../img/tt/1366tt.jpg","",""
"null","../img/gs/1366gs.jpg","null","reveal","image-keyboard-response","136","596053","0.0-6.0-4.18","2714451","co37888","norming","","","","","","",""
"null","../img/tt/1366tt.jpg","null","mooney2","image-keyboard-response","137","598056","0.0-6.0-5.18","2714451","co37888","norming","","","","","","",""
"2483.269999996992","","","post_reveal_questions","survey-likert","138","600541","0.0-6.0-6.18","2714451","co37888","norming","","","{""aha"":3}","[0]","../img/tt/1366tt.jpg","",""
"null","<div style=""font-size:60px;""> </div>","null","fixation","html-keyboard-response","139","600752","0.0-6.0-0.19","2714451","co37888","norming","","","","","","",""
"null","../img/tt/599tt.jpg","null","mooney1","image-keyboard-response","140","603756","0.0-6.0-1.19","2714451","co37888","norming","","","","","","",""
"3429.8350000026403","","","post_mooney1_questions","survey-likert","141","607189","0.0-6.0-2.19","2714451","co37888","norming","","","{""curiosity"":5,""confidence"":2}","[0,1]","../img/tt/599tt.jpg","",""
"2630.62500000163","","","recognition","survey-text","142","609821","0.0-6.0-3.19","2714451","co37888","norming","","","{""guess"":""okkernoot""}","","../img/tt/599tt.jpg","",""
"null","../img/gs/599gs.jpg","null","reveal","image-keyboard-response","143","611831","0.0-6.0-4.19","2714451","co37888","norming","","","","","","",""
"null","../img/tt/599tt.jpg","null","mooney2","image-keyboard-response","144","613833","0.0-6.0-5.19","2714451","co37888","norming","","","","","","",""
"1532.0150000007125","","","post_reveal_questions","survey-likert","145","615367","0.0-6.0-6.19","2714451","co37888","norming","","","{""aha"":6}","[0]","../img/tt/599tt.jpg","",""
"null","<div style=""font-size:60px;""> </div>","null","fixation","html-keyboard-response","146","615576","0.0-6.0-0.20","2714451","co37888","norming","","","","","","",""
"null","../img/tt/1097tt.jpg","null","mooney1","image-keyboard-response","147","618578","0.0-6.0-1.20","2714451","co37888","norming","","","","","","",""
"6826.6699999985285","","","post_mooney1_questions","survey-likert","148","625407","0.0-6.0-2.20","2714451","co37888","norming","","","{""curiosity"":4,""confidence"":4}","[0,1]","../img/tt/1097tt.jpg","",""
"5917.969999998575","","","recognition","survey-text","149","631327","0.0-6.0-3.20","2714451","co37888","norming","","","{""guess"":""hockey speler""}","","../img/tt/1097tt.jpg","",""
"null","../img/gs/1097gs.jpg","null","reveal","image-keyboard-response","150","633330","0.0-6.0-4.20","2714451","co37888","norming","","","","","","",""
"null","../img/tt/1097tt.jpg","null","mooney2","image-keyboard-response","151","635334","0.0-6.0-5.20","2714451","co37888","norming","","","","","","",""
"2847.265000000363","","","post_reveal_questions","survey-likert","152","638183","0.0-6.0-6.20","2714451","co37888","norming","","","{""aha"":6}","[0]","../img/tt/1097tt.jpg","",""
"null","<div style=""font-size:60px;""> </div>","null","fixation","html-keyboard-response","153","638392","0.0-6.0-0.21","2714451","co37888","norming","","","","","","",""
"null","../img/tt/194tt.jpg","null","mooney1","image-keyboard-response","154","641399","0.0-6.0-1.21","2714451","co37888","norming","","","","","","",""
"5622.370000000927","","","post_mooney1_questions","survey-likert","155","647023","0.0-6.0-2.21","2714451","co37888","norming","","","{""curiosity"":6,""confidence"":5}","[0,1]","../img/tt/194tt.jpg","",""
"3662.0899999979883","","","recognition","survey-text","156","650687","0.0-6.0-3.21","2714451","co37888","norming","","","{""guess"":""muzikant""}","","../img/tt/194tt.jpg","",""
"null","../img/gs/194gs.jpg","null","reveal","image-keyboard-response","157","652689","0.0-6.0-4.21","2714451","co37888","norming","","","","","","",""
"null","../img/tt/194tt.jpg","null","mooney2","image-keyboard-response","158","654691","0.0-6.0-5.21","2714451","co37888","norming","","","","","","",""
"3161.3300000026356","","","post_reveal_questions","survey-likert","159","657855","0.0-6.0-6.21","2714451","co37888","norming","","","{""aha"":5}","[0]","../img/tt/194tt.jpg","",""
"null","<div style=""font-size:60px;""> </div>","null","fixation","html-keyboard-response","160","658061","0.0-6.0-0.22","2714451","co37888","norming","","","","","","",""
"null","../img/tt/1049tt.jpg","null","mooney1","image-keyboard-response","161","661067","0.0-6.0-1.22","2714451","co37888","norming","","","","","","",""
"2977.5100000005914","","","post_mooney1_questions","survey-likert","162","664047","0.0-6.0-2.22","2714451","co37888","norming","","","{""curiosity"":6,""confidence"":4}","[0,1]","../img/tt/1049tt.jpg","",""
"2526.615000002552","","","recognition","survey-text","163","666575","0.0-6.0-3.22","2714451","co37888","norming","","","{""guess"":""vrouw""}","","../img/tt/1049tt.jpg","",""
"null","../img/gs/1049gs.jpg","null","reveal","image-keyboard-response","164","668577","0.0-6.0-4.22","2714451","co37888","norming","","","","","","",""
"null","../img/tt/1049tt.jpg","null","mooney2","image-keyboard-response","165","670585","0.0-6.0-5.22","2714451","co37888","norming","","","","","","",""
"1907.8800000024494","","","post_reveal_questions","survey-likert","166","672493","0.0-6.0-6.22","2714451","co37888","norming","","","{""aha"":3}","[0]","../img/tt/1049tt.jpg","",""
"null","<div style=""font-size:60px;""> </div>","null","fixation","html-keyboard-response","167","672697","0.0-6.0-0.23","2714451","co37888","norming","","","","","","",""
"null","../img/tt/1091tt.jpg","null","mooney1","image-keyboard-response","168","675703","0.0-6.0-1.23","2714451","co37888","norming","","","","","","",""
"4867.9750000010245","","","post_mooney1_questions","survey-likert","169","680573","0.0-6.0-2.23","2714451","co37888","norming","","","{""curiosity"":0,""confidence"":6}","[0,1]","../img/tt/1091tt.jpg","",""
"2062.4449999995995","","","recognition","survey-text","170","682637","0.0-6.0-3.23","2714451","co37888","norming","","","{""guess"":""paard""}","","../img/tt/1091tt.jpg","",""
"null","../img/gs/1091gs.jpg","null","reveal","image-keyboard-response","171","684645","0.0-6.0-4.23","2714451","co37888","norming","","","","","","",""
"null","../img/tt/1091tt.jpg","null","mooney2","image-keyboard-response","172","686647","0.0-6.0-5.23","2714451","co37888","norming","","","","","","",""
"1899.5600000015693","","","post_reveal_questions","survey-likert","173","688549","0.0-6.0-6.23","2714451","co37888","norming","","","{""aha"":0}","[0]","../img/tt/1091tt.jpg","",""
"null","<div style=""font-size:60px;""> </div>","null","fixation","html-keyboard-response","174","688752","0.0-6.0-0.24","2714451","co37888","norming","","","","","","",""
"null","../img/tt/020tt.jpg","null","mooney1","image-keyboard-response","175","691756","0.0-6.0-1.24","2714451","co37888","norming","","","","","","",""
"4798.415000001085","","","post_mooney1_questions","survey-likert","176","696557","0.0-6.0-2.24","2714451","co37888","norming","","","{""curiosity"":3,""confidence"":0}","[0,1]","../img/tt/020tt.jpg","",""
"1037.4449999982025","","","recognition","survey-text","177","697597","0.0-6.0-3.24","2714451","co37888","norming","","","{""guess"":""""}","","../img/tt/020tt.jpg","",""
"null","../img/gs/020gs.jpg","null","reveal","image-keyboard-response","178","699606","0.0-6.0-4.24","2714451","co37888","norming","","","","","","",""
"null","../img/tt/020tt.jpg","null","mooney2","image-keyboard-response","179","701618","0.0-6.0-5.24","2714451","co37888","norming","","","","","","",""
"1864.9000000003725","","","post_reveal_questions","survey-likert","180","703485","0.0-6.0-6.24","2714451","co37888","norming","","","{""aha"":3}","[0]","../img/tt/020tt.jpg","",""
"null","<div style=""font-size:60px;""> </div>","null","fixation","html-keyboard-response","181","703693","0.0-6.0-0.25","2714451","co37888","norming","","","","","","",""
"null","../img/tt/559tt.jpg","null","mooney1","image-keyboard-response","182","706704","0.0-6.0-1.25","2714451","co37888","norming","","","","","","",""
"4578.945000001113","","","post_mooney1_questions","survey-likert","183","711285","0.0-6.0-2.25","2714451","co37888","norming","","","{""curiosity"":4,""confidence"":0}","[0,1]","../img/tt/559tt.jpg","",""
"734.1750000014435","","","recognition","survey-text","184","712021","0.0-6.0-3.25","2714451","co37888","norming","","","{""guess"":""""}","","../img/tt/559tt.jpg","",""
"null","../img/gs/559gs.jpg","null","reveal","image-keyboard-response","185","714026","0.0-6.0-4.25","2714451","co37888","norming","","","","","","",""
"null","../img/tt/559tt.jpg","null","mooney2","image-keyboard-response","186","716028","0.0-6.0-5.25","2714451","co37888","norming","","","","","","",""
"1822.8100000014529","","","post_reveal_questions","survey-likert","187","717853","0.0-6.0-6.25","2714451","co37888","norming","","","{""aha"":0}","[0]","../img/tt/559tt.jpg","",""
"null","<div style=""font-size:60px;""> </div>","null","fixation","html-keyboard-response","188","718058","0.0-6.0-0.26","2714451","co37888","norming","","","","","","",""
"null","../img/tt/064tt.jpg","null","mooney1","image-keyboard-response","189","721067","0.0-6.0-1.26","2714451","co37888","norming","","","","","","",""
"2775.3450000018347","","","post_mooney1_questions","survey-likert","190","723845","0.0-6.0-2.26","2714451","co37888","norming","","","{""curiosity"":3,""confidence"":0}","[0,1]","../img/tt/064tt.jpg","",""
"3043.1950000020443","","","recognition","survey-text","191","726893","0.0-6.0-3.26","2714451","co37888","norming","","","{""guess"":""""}","","../img/tt/064tt.jpg","",""
"null","../img/gs/064gs.jpg","null","reveal","image-keyboard-response","192","728899","0.0-6.0-4.26","2714451","co37888","norming","","","","","","",""
"null","../img/tt/064tt.jpg","null","mooney2","image-keyboard-response","193","730906","0.0-6.0-5.26","2714451","co37888","norming","","","","","","",""
"4504.969999998226","","","post_reveal_questions","survey-likert","194","735410","0.0-6.0-6.26","2714451","co37888","norming","","","{""aha"":6}","[0]","../img/tt/064tt.jpg","",""
"null","<div style=""font-size:60px;""> </div>","null","fixation","html-keyboard-response","195","735611","0.0-6.0-0.27","2714451","co37888","norming","","","","","","",""
"null","../img/tt/082tt.jpg","null","mooney1","image-keyboard-response","196","738622","0.0-6.0-1.27","2714451","co37888","norming","","","","","","",""
"5410.005000001518","","","post_mooney1_questions","survey-likert","197","744034","0.0-6.0-2.27","2714451","co37888","norming","","","{""curiosity"":3,""confidence"":0}","[0,1]","../img/tt/082tt.jpg","",""
"1549.7099999993807","","","recognition","survey-text","198","745586","0.0-6.0-3.27","2714451","co37888","norming","","","{""guess"":""""}","","../img/tt/082tt.jpg","",""
"null","../img/gs/082gs.jpg","null","reveal","image-keyboard-response","199","747588","0.0-6.0-4.27","2714451","co37888","norming","","","","","","",""
"null","../img/tt/082tt.jpg","null","mooney2","image-keyboard-response","200","749590","0.0-6.0-5.27","2714451","co37888","norming","","","","","","",""
"1913.909999999334","","","post_reveal_questions","survey-likert","201","751506","0.0-6.0-6.27","2714451","co37888","norming","","","{""aha"":0}","[0]","../img/tt/082tt.jpg","",""
"null","<div style=""font-size:60px;""> </div>","null","fixation","html-keyboard-response","202","751711","0.0-6.0-0.28","2714451","co37888","norming","","","","","","",""
"null","../img/tt/189tt.jpg","null","mooney1","image-keyboard-response","203","754717","0.0-6.0-1.28","2714451","co37888","norming","","","","","","",""
"4522.874999998836","","","post_mooney1_questions","survey-likert","204","759242","0.0-6.0-2.28","2714451","co37888","norming","","","{""curiosity"":3,""confidence"":0}","[0,1]","../img/tt/189tt.jpg","",""
"734.3500000025379","","","recognition","survey-text","205","759978","0.0-6.0-3.28","2714451","co37888","norming","","","{""guess"":""""}","","../img/tt/189tt.jpg","",""
"null","../img/gs/189gs.jpg","null","reveal","image-keyboard-response","206","761984","0.0-6.0-4.28","2714451","co37888","norming","","","","","","",""
"null","../img/tt/189tt.jpg","null","mooney2","image-keyboard-response","207","763987","0.0-6.0-5.28","2714451","co37888","norming","","","","","","",""
"2525.4750000021886","","","post_reveal_questions","survey-likert","208","766514","0.0-6.0-6.28","2714451","co37888","norming","","","{""aha"":5}","[0]","../img/tt/189tt.jpg","",""
"null","<div style=""font-size:60px;""> </div>","null","fixation","html-keyboard-response","209","766718","0.0-6.0-0.29","2714451","co37888","norming","","","","","","",""
"null","../img/tt/1251tt.jpg","null","mooney1","image-keyboard-response","210","769722","0.0-6.0-1.29","2714451","co37888","norming","","","","","","",""
"4197.919999998645","","","post_mooney1_questions","survey-likert","211","773922","0.0-6.0-2.29","2714451","co37888","norming","","","{""curiosity"":4,""confidence"":0}","[0,1]","../img/tt/1251tt.jpg","",""
"1125.9649999991525","","","recognition","survey-text","212","775050","0.0-6.0-3.29","2714451","co37888","norming","","","{""guess"":""""}","","../img/tt/1251tt.jpg","",""
"null","../img/gs/1251gs.jpg","null","reveal","image-keyboard-response","213","777051","0.0-6.0-4.29","2714451","co37888","norming","","","","","","",""
"null","../img/tt/1251tt.jpg","null","mooney2","image-keyboard-response","214","779053","0.0-6.0-5.29","2714451","co37888","norming","","","","","","",""
"2930.8799999998882","","","post_reveal_questions","survey-likert","215","781986","0.0-6.0-6.29","2714451","co37888","norming","","","{""aha"":4}","[0]","../img/tt/1251tt.jpg","",""
"null","<div style=""font-size:60px;""> </div>","null","fixation","html-keyboard-response","216","782190","0.0-6.0-0.30","2714451","co37888","norming","","","","","","",""
"null","../img/tt/598tt.jpg","null","mooney1","image-keyboard-response","217","785193","0.0-6.0-1.30","2714451","co37888","norming","","","","","","",""
"6608.185000000987","","","post_mooney1_questions","survey-likert","218","791803","0.0-6.0-2.30","2714451","co37888","norming","","","{""curiosity"":0,""confidence"":0}","[0,1]","../img/tt/598tt.jpg","",""
"590.0599999986589","","","recognition","survey-text","219","792396","0.0-6.0-3.30","2714451","co37888","norming","","","{""guess"":""""}","","../img/tt/598tt.jpg","",""
"null","../img/gs/598gs.jpg","null","reveal","image-keyboard-response","220","794400","0.0-6.0-4.30","2714451","co37888","norming","","","","","","",""
"null","../img/tt/598tt.jpg","null","mooney2","image-keyboard-response","221","796402","0.0-6.0-5.30","2714451","co37888","norming","","","","","","",""
"1527.1649999995716","","","post_reveal_questions","survey-likert","222","797932","0.0-6.0-6.30","2714451","co37888","norming","","","{""aha"":5}","[0]","../img/tt/598tt.jpg","",""
"null","<div style=""font-size:60px;""> </div>","null","fixation","html-keyboard-response","223","798133","0.0-6.0-0.31","2714451","co37888","norming","","","","","","",""
"null","../img/tt/098tt.jpg","null","mooney1","image-keyboard-response","224","801142","0.0-6.0-1.31","2714451","co37888","norming","","","","","","",""
"2564.8849999997765","","","post_mooney1_questions","survey-likert","225","803708","0.0-6.0-2.31","2714451","co37888","norming","","","{""curiosity"":0,""confidence"":0}","[0,1]","../img/tt/098tt.jpg","",""
"662.0999999977648","","","recognition","survey-text","226","804372","0.0-6.0-3.31","2714451","co37888","norming","","","{""guess"":""""}","","../img/tt/098tt.jpg","",""
"null","../img/gs/098gs.jpg","null","reveal","image-keyboard-response","227","806382","0.0-6.0-4.31","2714451","co37888","norming","","","","","","",""
"null","../img/tt/098tt.jpg","null","mooney2","image-keyboard-response","228","808383","0.0-6.0-5.31","2714451","co37888","norming","","","","","","",""
"3106.475000000559","","","post_reveal_questions","survey-likert","229","811492","0.0-6.0-6.31","2714451","co37888","norming","","","{""aha"":0}","[0]","../img/tt/098tt.jpg","",""
"null","<div style=""font-size:60px;""> </div>","null","fixation","html-keyboard-response","230","811697","0.0-6.0-0.32","2714451","co37888","norming","","","","","","",""
"null","../img/tt/522tt.jpg","null","mooney1","image-keyboard-response","231","814708","0.0-6.0-1.32","2714451","co37888","norming","","","","","","",""
"3830.2299999995157","","","post_mooney1_questions","survey-likert","232","818540","0.0-6.0-2.32","2714451","co37888","norming","","","{""curiosity"":5,""confidence"":0}","[0,1]","../img/tt/522tt.jpg","",""
"814.2999999981839","","","recognition","survey-text","233","819356","0.0-6.0-3.32","2714451","co37888","norming","","","{""guess"":""""}","","../img/tt/522tt.jpg","",""
"null","../img/gs/522gs.jpg","null","reveal","image-keyboard-response","234","821366","0.0-6.0-4.32","2714451","co37888","norming","","","","","","",""
"null","../img/tt/522tt.jpg","null","mooney2","image-keyboard-response","235","823369","0.0-6.0-5.32","2714451","co37888","norming","","","","","","",""
"1872.3649999991758","","","post_reveal_questions","survey-likert","236","825244","0.0-6.0-6.32","2714451","co37888","norming","","","{""aha"":6}","[0]","../img/tt/522tt.jpg","",""
"null","<div style=""font-size:60px;""> </div>","null","fixation","html-keyboard-response","237","825451","0.0-6.0-0.33","2714451","co37888","norming","","","","","","",""
"null","../img/tt/1096tt.jpg","null","mooney1","image-keyboard-response","238","828461","0.0-6.0-1.33","2714451","co37888","norming","","","","","","",""
"3683.9999999975553","","","post_mooney1_questions","survey-likert","239","832148","0.0-6.0-2.33","2714451","co37888","norming","","","{""curiosity"":4,""confidence"":4}","[0,1]","../img/tt/1096tt.jpg","",""
"2774.185000002035","","","recognition","survey-text","240","834924","0.0-6.0-3.33","2714451","co37888","norming","","","{""guess"":""woonkamer""}","","../img/tt/1096tt.jpg","",""
"null","../img/gs/1096gs.jpg","null","reveal","image-keyboard-response","241","836925","0.0-6.0-4.33","2714451","co37888","norming","","","","","","",""
"null","../img/tt/1096tt.jpg","null","mooney2","image-keyboard-response","242","838928","0.0-6.0-5.33","2714451","co37888","norming","","","","","","",""
"1713.4550000008894","","","post_reveal_questions","survey-likert","243","840644","0.0-6.0-6.33","2714451","co37888","norming","","","{""aha"":6}","[0]","../img/tt/1096tt.jpg","",""
"null","<div style=""font-size:60px;""> </div>","null","fixation","html-keyboard-response","244","840845","0.0-6.0-0.34","2714451","co37888","norming","","","","","","",""
"null","../img/tt/357tt.jpg","null","mooney1","image-keyboard-response","245","843851","0.0-6.0-1.34","2714451","co37888","norming","","","","","","",""
"5253.690000001341","","","post_mooney1_questions","survey-likert","246","849108","0.0-6.0-2.34","2714451","co37888","norming","","","{""curiosity"":5,""confidence"":4}","[0,1]","../img/tt/357tt.jpg","",""
"2310.4000000020023","","","recognition","survey-text","247","851420","0.0-6.0-3.34","2714451","co37888","norming","","","{""guess"":""mais""}","","../img/tt/357tt.jpg","",""
"null","../img/gs/357gs.jpg","null","reveal","image-keyboard-response","248","853426","0.0-6.0-4.34","2714451","co37888","norming","","","","","","",""
"null","../img/tt/357tt.jpg","null","mooney2","image-keyboard-response","249","855428","0.0-6.0-5.34","2714451","co37888","norming","","","","","","",""
"2457.530000003404","","","post_reveal_questions","survey-likert","250","857888","0.0-6.0-6.34","2714451","co37888","norming","","","{""aha"":1}","[0]","../img/tt/357tt.jpg","",""
"null","<div style=""font-size:60px;""> </div>","null","fixation","html-keyboard-response","251","858091","0.0-6.0-0.35","2714451","co37888","norming","","","","","","",""
"null","../img/tt/1078tt.jpg","null","mooney1","image-keyboard-response","252","861097","0.0-6.0-1.35","2714451","co37888","norming","","","","","","",""
"3861.9499999985565","","","post_mooney1_questions","survey-likert","253","864960","0.0-6.0-2.35","2714451","co37888","norming","","","{""curiosity"":6,""confidence"":5}","[0,1]","../img/tt/1078tt.jpg","",""
"4301.694999998203","","","recognition","survey-text","254","869264","0.0-6.0-3.35","2714451","co37888","norming","","","{""guess"":""fitness""}","","../img/tt/1078tt.jpg","",""
"null","../img/gs/1078gs.jpg","null","reveal","image-keyboard-response","255","871268","0.0-6.0-4.35","2714451","co37888","norming","","","","","","",""
"null","../img/tt/1078tt.jpg","null","mooney2","image-keyboard-response","256","873269","0.0-6.0-5.35","2714451","co37888","norming","","","","","","",""
"1712.2850000014296","","","post_reveal_questions","survey-likert","257","874984","0.0-6.0-6.35","2714451","co37888","norming","","","{""aha"":6}","[0]","../img/tt/1078tt.jpg","",""
"null","<div style=""font-size:60px;""> </div>","null","fixation","html-keyboard-response","258","875194","0.0-6.0-0.36","2714451","co37888","norming","","","","","","",""
"null","../img/tt/580tt.jpg","null","mooney1","image-keyboard-response","259","878202","0.0-6.0-1.36","2714451","co37888","norming","","","","","","",""
"3282.934999999241","","","post_mooney1_questions","survey-likert","260","881488","0.0-6.0-2.36","2714451","co37888","norming","","","{""curiosity"":0,""confidence"":0}","[0,1]","../img/tt/580tt.jpg","",""
"742.1850000028498","","","recognition","survey-text","261","882232","0.0-6.0-3.36","2714451","co37888","norming","","","{""guess"":""""}","","../img/tt/580tt.jpg","",""
"null","../img/gs/580gs.jpg","null","reveal","image-keyboard-response","262","884241","0.0-6.0-4.36","2714451","co37888","norming","","","","","","",""
"null","../img/tt/580tt.jpg","null","mooney2","image-keyboard-response","263","886252","0.0-6.0-5.36","2714451","co37888","norming","","","","","","",""
"1553.5000000017462","","","post_reveal_questions","survey-likert","264","887808","0.0-6.0-6.36","2714451","co37888","norming","","","{""aha"":0}","[0]","../img/tt/580tt.jpg","",""
"null","<div style=""font-size:60px;""> </div>","null","fixation","html-keyboard-response","265","888010","0.0-6.0-0.37","2714451","co37888","norming","","","","","","",""
"null","../img/tt/1102tt.jpg","null","mooney1","image-keyboard-response","266","891016","0.0-6.0-1.37","2714451","co37888","norming","","","","","","",""
"4023.0699999992503","","","post_mooney1_questions","survey-likert","267","895040","0.0-6.0-2.37","2714451","co37888","norming","","","{""curiosity"":3,""confidence"":0}","[0,1]","../img/tt/1102tt.jpg","",""
"773.6750000002794","","","recognition","survey-text","268","895816","0.0-6.0-3.37","2714451","co37888","norming","","","{""guess"":""""}","","../img/tt/1102tt.jpg","",""
"null","../img/gs/1102gs.jpg","null","reveal","image-keyboard-response","269","897824","0.0-6.0-4.37","2714451","co37888","norming","","","","","","",""
"null","../img/tt/1102tt.jpg","null","mooney2","image-keyboard-response","270","899825","0.0-6.0-5.37","2714451","co37888","norming","","","","","","",""
"2309.6850000001723","","","post_reveal_questions","survey-likert","271","902136","0.0-6.0-6.37","2714451","co37888","norming","","","{""aha"":4}","[0]","../img/tt/1102tt.jpg","",""
"null","<div style=""font-size:60px;""> </div>","null","fixation","html-keyboard-response","272","902339","0.0-6.0-0.38","2714451","co37888","norming","","","","","","",""
"null","../img/tt/319tt.jpg","null","mooney1","image-keyboard-response","273","905348","0.0-6.0-1.38","2714451","co37888","norming","","","","","","",""
"3154.470000001369","","","post_mooney1_questions","survey-likert","274","908504","0.0-6.0-2.38","2714451","co37888","norming","","","{""curiosity"":6,""confidence"":5}","[0,1]","../img/tt/319tt.jpg","",""
"1909.8750000012806","","","recognition","survey-text","275","910415","0.0-6.0-3.38","2714451","co37888","norming","","","{""guess"":""paard""}","","../img/tt/319tt.jpg","",""
"null","../img/gs/319gs.jpg","null","reveal","image-keyboard-response","276","912421","0.0-6.0-4.38","2714451","co37888","norming","","","","","","",""
"null","../img/tt/319tt.jpg","null","mooney2","image-keyboard-response","277","914423","0.0-6.0-5.38","2714451","co37888","norming","","","","","","",""
"2687.724999999744","","","post_reveal_questions","survey-likert","278","917112","0.0-6.0-6.38","2714451","co37888","norming","","","{""aha"":6}","[0]","../img/tt/319tt.jpg","",""
"null","<div style=""font-size:60px;""> </div>","null","fixation","html-keyboard-response","279","917321","0.0-6.0-0.39","2714451","co37888","norming","","","","","","",""
"null","../img/tt/060tt.jpg","null","mooney1","image-keyboard-response","280","920329","0.0-6.0-1.39","2714451","co37888","norming","","","","","","",""
"4436.555000000168","","","post_mooney1_questions","survey-likert","281","924768","0.0-6.0-2.39","2714451","co37888","norming","","","{""curiosity"":5,""confidence"":4}","[0,1]","../img/tt/060tt.jpg","",""
"1886.1499999983935","","","recognition","survey-text","282","926656","0.0-6.0-3.39","2714451","co37888","norming","","","{""guess"":""egel""}","","../img/tt/060tt.jpg","",""
"null","../img/gs/060gs.jpg","null","reveal","image-keyboard-response","283","928664","0.0-6.0-4.39","2714451","co37888","norming","","","","","","",""
"null","../img/tt/060tt.jpg","null","mooney2","image-keyboard-response","284","930665","0.0-6.0-5.39","2714451","co37888","norming","","","","","","",""
"2133.900000000838","","","post_reveal_questions","survey-likert","285","932800","0.0-6.0-6.39","2714451","co37888","norming","","","{""aha"":5}","[0]","../img/tt/060tt.jpg","",""
"null","<div style=""font-size:60px;""> </div>","null","fixation","html-keyboard-response","286","933003","0.0-6.0-0.40","2714451","co37888","norming","","","","","","",""
"null","../img/tt/1171tt.jpg","null","mooney1","image-keyboard-response","287","936014","0.0-6.0-1.40","2714451","co37888","norming","","","","","","",""
"3447.655000000028","","","post_mooney1_questions","survey-likert","288","939465","0.0-6.0-2.40","2714451","co37888","norming","","","{""curiosity"":1,""confidence"":0}","[0,1]","../img/tt/1171tt.jpg","",""
"693.8499999997439","","","recognition","survey-text","289","940160","0.0-6.0-3.40","2714451","co37888","norming","","","{""guess"":""""}","","../img/tt/1171tt.jpg","",""
"null","../img/gs/1171gs.jpg","null","reveal","image-keyboard-response","290","942162","0.0-6.0-4.40","2714451","co37888","norming","","","","","","",""
"null","../img/tt/1171tt.jpg","null","mooney2","image-keyboard-response","291","944165","0.0-6.0-5.40","2714451","co37888","norming","","","","","","",""
"1641.3149999970337","","","post_reveal_questions","survey-likert","292","945808","0.0-6.0-6.40","2714451","co37888","norming","","","{""aha"":2}","[0]","../img/tt/1171tt.jpg","",""
"null","<div style=""font-size:60px;""> </div>","null","fixation","html-keyboard-response","293","946009","0.0-6.0-0.41","2714451","co37888","norming","","","","","","",""
"null","../img/tt/358tt.jpg","null","mooney1","image-keyboard-response","294","949020","0.0-6.0-1.41","2714451","co37888","norming","","","","","","",""
"5417.74500000244","","","post_mooney1_questions","survey-likert","295","954440","0.0-6.0-2.41","2714451","co37888","norming","","","{""curiosity"":4,""confidence"":3}","[0,1]","../img/tt/358tt.jpg","",""
"2006.1349999995437","","","recognition","survey-text","296","956448","0.0-6.0-3.41","2714451","co37888","norming","","","{""guess"":""ezel""}","","../img/tt/358tt.jpg","",""
"null","../img/gs/358gs.jpg","null","reveal","image-keyboard-response","297","958456","0.0-6.0-4.41","2714451","co37888","norming","","","","","","",""
"null","../img/tt/358tt.jpg","null","mooney2","image-keyboard-response","298","960458","0.0-6.0-5.41","2714451","co37888","norming","","","","","","",""
"2843.569999997271","","","post_reveal_questions","survey-likert","299","963304","0.0-6.0-6.41","2714451","co37888","norming","","","{""aha"":6}","[0]","../img/tt/358tt.jpg","",""
"null","<div style=""font-size:60px;""> </div>","null","fixation","html-keyboard-response","300","963506","0.0-6.0-0.42","2714451","co37888","norming","","","","","","",""
"null","../img/tt/1126tt.jpg","null","mooney1","image-keyboard-response","301","966511","0.0-6.0-1.42","2714451","co37888","norming","","","","","","",""
"3734.8800000000047","","","post_mooney1_questions","survey-likert","302","970248","0.0-6.0-2.42","2714451","co37888","norming","","","{""curiosity"":6,""confidence"":6}","[0,1]","../img/tt/1126tt.jpg","",""
"2838.544999998645","","","recognition","survey-text","303","973088","0.0-6.0-3.42","2714451","co37888","norming","","","{""guess"":""muurklimmer""}","","../img/tt/1126tt.jpg","",""
"null","../img/gs/1126gs.jpg","null","reveal","image-keyboard-response","304","975092","0.0-6.0-4.42","2714451","co37888","norming","","","","","","",""
"null","../img/tt/1126tt.jpg","null","mooney2","image-keyboard-response","305","977097","0.0-6.0-5.42","2714451","co37888","norming","","","","","","",""
"4130.505000001052","","","post_reveal_questions","survey-likert","306","981232","0.0-6.0-6.42","2714451","co37888","norming","","","{""aha"":0}","[0]","../img/tt/1126tt.jpg","",""
"null","<div style=""font-size:60px;""> </div>","null","fixation","html-keyboard-response","307","981434","0.0-6.0-0.43","2714451","co37888","norming","","","","","","",""
"null","../img/tt/1146tt.jpg","null","mooney1","image-keyboard-response","308","984441","0.0-6.0-1.43","2714451","co37888","norming","","","","","","",""
"4220.674999996903","","","post_mooney1_questions","survey-likert","309","988665","0.0-6.0-2.43","2714451","co37888","norming","","","{""curiosity"":6,""confidence"":5}","[0,1]","../img/tt/1146tt.jpg","",""
"7366.180000000866","","","recognition","survey-text","310","996032","0.0-6.0-3.43","2714451","co37888","norming","","","{""guess"":""liggende vrouw""}","","../img/tt/1146tt.jpg","",""
"null","../img/gs/1146gs.jpg","null","reveal","image-keyboard-response","311","998034","0.0-6.0-4.43","2714451","co37888","norming","","","","","","",""
"null","../img/tt/1146tt.jpg","null","mooney2","image-keyboard-response","312","1000036","0.0-6.0-5.43","2714451","co37888","norming","","","","","","",""
"2043.2800000016578","","","post_reveal_questions","survey-likert","313","1002080","0.0-6.0-6.43","2714451","co37888","norming","","","{""aha"":6}","[0]","../img/tt/1146tt.jpg","",""
"null","<div style=""font-size:60px;""> </div>","null","fixation","html-keyboard-response","314","1002281","0.0-6.0-0.44","2714451","co37888","norming","","","","","","",""
"null","../img/tt/1012tt.jpg","null","mooney1","image-keyboard-response","315","1005284","0.0-6.0-1.44","2714451","co37888","norming","","","","","","",""
"3489.90500000224","","","post_mooney1_questions","survey-likert","316","1008777","0.0-6.0-2.44","2714451","co37888","norming","","","{""curiosity"":0,""confidence"":0}","[0,1]","../img/tt/1012tt.jpg","",""
"613.5800000011222","","","recognition","survey-text","317","1009392","0.0-6.0-3.44","2714451","co37888","norming","","","{""guess"":""""}","","../img/tt/1012tt.jpg","",""
"null","../img/gs/1012gs.jpg","null","reveal","image-keyboard-response","318","1011393","0.0-6.0-4.44","2714451","co37888","norming","","","","","","",""
"null","../img/tt/1012tt.jpg","null","mooney2","image-keyboard-response","319","1013396","0.0-6.0-5.44","2714451","co37888","norming","","","","","","",""
"3090.124999998836","","","post_reveal_questions","survey-likert","320","1016488","0.0-6.0-6.44","2714451","co37888","norming","","","{""aha"":2}","[0]","../img/tt/1012tt.jpg","",""
"null","<div style=""font-size:60px;""> </div>","null","fixation","html-keyboard-response","321","1016693","0.0-6.0-0.45","2714451","co37888","norming","","","","","","",""
"null","../img/tt/418tt.jpg","null","mooney1","image-keyboard-response","322","1019696","0.0-6.0-1.45","2714451","co37888","norming","","","","","","",""
"2821.2800000001444","","","post_mooney1_questions","survey-likert","323","1022521","0.0-6.0-2.45","2714451","co37888","norming","","","{""curiosity"":0,""confidence"":0}","[0,1]","../img/tt/418tt.jpg","",""
"645.8600000005681","","","recognition","survey-text","324","1023168","0.0-6.0-3.45","2714451","co37888","norming","","","{""guess"":""""}","","../img/tt/418tt.jpg","",""
"null","../img/gs/418gs.jpg","null","reveal","image-keyboard-response","325","1025169","0.0-6.0-4.45","2714451","co37888","norming","","","","","","",""
"null","../img/tt/418tt.jpg","null","mooney2","image-keyboard-response","326","1027176","0.0-6.0-5.45","2714451","co37888","norming","","","","","","",""
"1599.0349999992177","","","post_reveal_questions","survey-likert","327","1028776","0.0-6.0-6.45","2714451","co37888","norming","","","{""aha"":2}","[0]","../img/tt/418tt.jpg","",""
"null","<div style=""font-size:60px;""> </div>","null","fixation","html-keyboard-response","328","1028980","0.0-6.0-0.46","2714451","co37888","norming","","","","","","",""
"null","../img/tt/307tt.jpg","null","mooney1","image-keyboard-response","329","1031991","0.0-6.0-1.46","2714451","co37888","norming","","","","","","",""
"4454.635000001872","","","post_mooney1_questions","survey-likert","330","1036443","0.0-6.0-2.46","2714451","co37888","norming","","","{""curiosity"":5,""confidence"":0}","[0,1]","../img/tt/307tt.jpg","",""
"861.8600000009174","","","recognition","survey-text","331","1037307","0.0-6.0-3.46","2714451","co37888","norming","","","{""guess"":""""}","","../img/tt/307tt.jpg","",""
"null","../img/gs/307gs.jpg","null","reveal","image-keyboard-response","332","1039308","0.0-6.0-4.46","2714451","co37888","norming","","","","","","",""
"null","../img/tt/307tt.jpg","null","mooney2","image-keyboard-response","333","1041311","0.0-6.0-5.46","2714451","co37888","norming","","","","","","",""
"2105.959999997169","","","post_reveal_questions","survey-likert","334","1043419","0.0-6.0-6.46","2714451","co37888","norming","","","{""aha"":6}","[0]","../img/tt/307tt.jpg","",""
"null","<div style=""font-size:60px;""> </div>","null","fixation","html-keyboard-response","335","1043623","0.0-6.0-0.47","2714451","co37888","norming","","","","","","",""
"null","../img/tt/112tt.jpg","null","mooney1","image-keyboard-response","336","1046625","0.0-6.0-1.47","2714451","co37888","norming","","","","","","",""
"3190.829999999609","","","post_mooney1_questions","survey-likert","337","1049819","0.0-6.0-2.47","2714451","co37888","norming","","","{""curiosity"":6,""confidence"":6}","[0,1]","../img/tt/112tt.jpg","",""
"7101.875000000466","","","recognition","survey-text","338","1056923","0.0-6.0-3.47","2714451","co37888","norming","","","{""guess"":""fluitje""}","","../img/tt/112tt.jpg","",""
"null","../img/gs/112gs.jpg","null","reveal","image-keyboard-response","339","1058924","0.0-6.0-4.47","2714451","co37888","norming","","","","","","",""
"null","../img/tt/112tt.jpg","null","mooney2","image-keyboard-response","340","1060927","0.0-6.0-5.47","2714451","co37888","norming","","","","","","",""
"1865.4199999982957","","","post_reveal_questions","survey-likert","341","1062795","0.0-6.0-6.47","2714451","co37888","norming","","","{""aha"":0}","[0]","../img/tt/112tt.jpg","",""
"null","<div style=""font-size:60px;""> </div>","null","fixation","html-keyboard-response","342","1063002","0.0-6.0-0.48","2714451","co37888","norming","","","","","","",""
"null","../img/tt/318tt.jpg","null","mooney1","image-keyboard-response","343","1066013","0.0-6.0-1.48","2714451","co37888","norming","","","","","","",""
"3980.6099999984726","","","post_mooney1_questions","survey-likert","344","1069995","0.0-6.0-2.48","2714451","co37888","norming","","","{""curiosity"":4,""confidence"":1}","[0,1]","../img/tt/318tt.jpg","",""
"2110.0650000006426","","","recognition","survey-text","345","1072107","0.0-6.0-3.48","2714451","co37888","norming","","","{""guess"":""trommel""}","","../img/tt/318tt.jpg","",""
"null","../img/gs/318gs.jpg","null","reveal","image-keyboard-response","346","1074109","0.0-6.0-4.48","2714451","co37888","norming","","","","","","",""
"null","../img/tt/318tt.jpg","null","mooney2","image-keyboard-response","347","1076111","0.0-6.0-5.48","2714451","co37888","norming","","","","","","",""
"2425.939999997383","","","post_reveal_questions","survey-likert","348","1078539","0.0-6.0-6.48","2714451","co37888","norming","","","{""aha"":4}","[0]","../img/tt/318tt.jpg","",""
"null","<div style=""font-size:60px;""> </div>","null","fixation","html-keyboard-response","349","1078750","0.0-6.0-0.49","2714451","co37888","norming","","","","","","",""
"null","../img/tt/184tt.jpg","null","mooney1","image-keyboard-response","350","1081755","0.0-6.0-1.49","2714451","co37888","norming","","","","","","",""
"4645.375","","","post_mooney1_questions","survey-likert","351","1086403","0.0-6.0-2.49","2714451","co37888","norming","","","{""curiosity"":3,""confidence"":0}","[0,1]","../img/tt/184tt.jpg","",""
"789.7999999986496","","","recognition","survey-text","352","1087195","0.0-6.0-3.49","2714451","co37888","norming","","","{""guess"":""""}","","../img/tt/184tt.jpg","",""
"null","../img/gs/184gs.jpg","null","reveal","image-keyboard-response","353","1089199","0.0-6.0-4.49","2714451","co37888","norming","","","","","","",""
"null","../img/tt/184tt.jpg","null","mooney2","image-keyboard-response","354","1091200","0.0-6.0-5.49","2714451","co37888","norming","","","","","","",""
"1466.414999998873","","","post_reveal_questions","survey-likert","355","1092667","0.0-6.0-6.49","2714451","co37888","norming","","","{""aha"":3}","[0]","../img/tt/184tt.jpg","",""
"null","<div style=""font-size:60px;""> </div>","null","fixation","html-keyboard-response","356","1092874","0.0-6.0-0.50","2714451","co37888","norming","","","","","","",""
"null","../img/tt/1276tt.jpg","null","mooney1","image-keyboard-response","357","1095883","0.0-6.0-1.50","2714451","co37888","norming","","","","","","",""
"4658.4900000016205","","","post_mooney1_questions","survey-likert","358","1100545","0.0-6.0-2.50","2714451","co37888","norming","","","{""curiosity"":4,""confidence"":0}","[0,1]","../img/tt/1276tt.jpg","",""
"3101.889999998035","","","recognition","survey-text","359","1103648","0.0-6.0-3.50","2714451","co37888","norming","","","{""guess"":""koe""}","","../img/tt/1276tt.jpg","",""
"null","../img/gs/1276gs.jpg","null","reveal","image-keyboard-response","360","1105649","0.0-6.0-4.50","2714451","co37888","norming","","","","","","",""
"null","../img/tt/1276tt.jpg","null","mooney2","image-keyboard-response","361","1107658","0.0-6.0-5.50","2714451","co37888","norming","","","","","","",""
"2171.925000002375","","","post_reveal_questions","survey-likert","362","1109833","0.0-6.0-6.50","2714451","co37888","norming","","","{""aha"":6}","[0]","../img/tt/1276tt.jpg","",""
"null","<div style=""font-size:60px;""> </div>","null","fixation","html-keyboard-response","363","1110034","0.0-6.0-0.51","2714451","co37888","norming","","","","","","",""
"null","../img/tt/1142tt.jpg","null","mooney1","image-keyboard-response","364","1113043","0.0-6.0-1.51","2714451","co37888","norming","","","","","","",""
"3971.0300000004936","","","post_mooney1_questions","survey-likert","365","1117017","0.0-6.0-2.51","2714451","co37888","norming","","","{""curiosity"":6,""confidence"":5}","[0,1]","../img/tt/1142tt.jpg","",""
"2726.0949999981094","","","recognition","survey-text","366","1119744","0.0-6.0-3.51","2714451","co37888","norming","","","{""guess"":""tenisser""}","","../img/tt/1142tt.jpg","",""
"null","../img/gs/1142gs.jpg","null","reveal","image-keyboard-response","367","1121745","0.0-6.0-4.51","2714451","co37888","norming","","","","","","",""
"null","../img/tt/1142tt.jpg","null","mooney2","image-keyboard-response","368","1123751","0.0-6.0-5.51","2714451","co37888","norming","","","","","","",""
"1967.1950000009965","","","post_reveal_questions","survey-likert","369","1125721","0.0-6.0-6.51","2714451","co37888","norming","","","{""aha"":6}","[0]","../img/tt/1142tt.jpg","",""
"null","<div style=""font-size:60px;""> </div>","null","fixation","html-keyboard-response","370","1125926","0.0-6.0-0.52","2714451","co37888","norming","","","","","","",""
"null","../img/tt/1190tt.jpg","null","mooney1","image-keyboard-response","371","1128933","0.0-6.0-1.52","2714451","co37888","norming","","","","","","",""
"4952.629999999655","","","post_mooney1_questions","survey-likert","372","1133889","0.0-6.0-2.52","2714451","co37888","norming","","","{""curiosity"":6,""confidence"":5}","[0,1]","../img/tt/1190tt.jpg","",""
"2205.850000001956","","","recognition","survey-text","373","1136097","0.0-6.0-3.52","2714451","co37888","norming","","","{""guess"":""sporter""}","","../img/tt/1190tt.jpg","",""
"null","../img/gs/1190gs.jpg","null","reveal","image-keyboard-response","374","1138098","0.0-6.0-4.52","2714451","co37888","norming","","","","","","",""
"null","../img/tt/1190tt.jpg","null","mooney2","image-keyboard-response","375","1140103","0.0-6.0-5.52","2714451","co37888","norming","","","","","","",""
"2247.2450000022072","","","post_reveal_questions","survey-likert","376","1142353","0.0-6.0-6.52","2714451","co37888","norming","","","{""aha"":6}","[0]","../img/tt/1190tt.jpg","",""
"null","<div style=""font-size:60px;""> </div>","null","fixation","html-keyboard-response","377","1142559","0.0-6.0-0.53","2714451","co37888","norming","","","","","","",""
"null","../img/tt/111tt.jpg","null","mooney1","image-keyboard-response","378","1145566","0.0-6.0-1.53","2714451","co37888","norming","","","","","","",""
"3727.419999999227","","","post_mooney1_questions","survey-likert","379","1149297","0.0-6.0-2.53","2714451","co37888","norming","","","{""curiosity"":5,""confidence"":5}","[0,1]","../img/tt/111tt.jpg","",""
"3517.8850000009406","","","recognition","survey-text","380","1152816","0.0-6.0-3.53","2714451","co37888","norming","","","{""guess"":""platenspeler""}","","../img/tt/111tt.jpg","",""
"null","../img/gs/111gs.jpg","null","reveal","image-keyboard-response","381","1154823","0.0-6.0-4.53","2714451","co37888","norming","","","","","","",""
"null","../img/tt/111tt.jpg","null","mooney2","image-keyboard-response","382","1156827","0.0-6.0-5.53","2714451","co37888","norming","","","","","","",""
"1459.6999999994878","","","post_reveal_questions","survey-likert","383","1158289","0.0-6.0-6.53","2714451","co37888","norming","","","{""aha"":6}","[0]","../img/tt/111tt.jpg","",""
"null","<div style=""font-size:60px;""> </div>","null","fixation","html-keyboard-response","384","1158491","0.0-6.0-0.54","2714451","co37888","norming","","","","","","",""
"null","../img/tt/1278tt.jpg","null","mooney1","image-keyboard-response","385","1161498","0.0-6.0-1.54","2714451","co37888","norming","","","","","","",""
"4123.275000001537","","","post_mooney1_questions","survey-likert","386","1165625","0.0-6.0-2.54","2714451","co37888","norming","","","{""curiosity"":6,""confidence"":5}","[0,1]","../img/tt/1278tt.jpg","",""
"2933.984999999637","","","recognition","survey-text","387","1168561","0.0-6.0-3.54","2714451","co37888","norming","","","{""guess"":""kerstmuts""}","","../img/tt/1278tt.jpg","",""
"null","../img/gs/1278gs.jpg","null","reveal","image-keyboard-response","388","1170570","0.0-6.0-4.54","2714451","co37888","norming","","","","","","",""
"null","../img/tt/1278tt.jpg","null","mooney2","image-keyboard-response","389","1172580","0.0-6.0-5.54","2714451","co37888","norming","","","","","","",""
"2106.934999999823","","","post_reveal_questions","survey-likert","390","1174689","0.0-6.0-6.54","2714451","co37888","norming","","","{""aha"":4}","[0]","../img/tt/1278tt.jpg","",""
"null","<div style=""font-size:60px;""> </div>","null","fixation","html-keyboard-response","391","1174900","0.0-6.0-0.55","2714451","co37888","norming","","","","","","",""
"null","../img/tt/549tt.jpg","null","mooney1","image-keyboard-response","392","1177907","0.0-6.0-1.55","2714451","co37888","norming","","","","","","",""
"3603.0400000019","","","post_mooney1_questions","survey-likert","393","1181513","0.0-6.0-2.55","2714451","co37888","norming","","","{""curiosity"":5,""confidence"":3}","[0,1]","../img/tt/549tt.jpg","",""
"1990.3049999992363","","","recognition","survey-text","394","1183505","0.0-6.0-3.55","2714451","co37888","norming","","","{""guess"":""douche""}","","../img/tt/549tt.jpg","",""
"null","../img/gs/549gs.jpg","null","reveal","image-keyboard-response","395","1185506","0.0-6.0-4.55","2714451","co37888","norming","","","","","","",""
"null","../img/tt/549tt.jpg","null","mooney2","image-keyboard-response","396","1187508","0.0-6.0-5.55","2714451","co37888","norming","","","","","","",""
"1706.3400000005495","","","post_reveal_questions","survey-likert","397","1189217","0.0-6.0-6.55","2714451","co37888","norming","","","{""aha"":0}","[0]","../img/tt/549tt.jpg","",""
"null","<div style=""font-size:60px;""> </div>","null","fixation","html-keyboard-response","398","1189421","0.0-6.0-0.56","2714451","co37888","norming","","","","","","",""
"null","../img/tt/118tt.jpg","null","mooney1","image-keyboard-response","399","1192428","0.0-6.0-1.56","2714451","co37888","norming","","","","","","",""
"3106.1000000010245","","","post_mooney1_questions","survey-likert","400","1195537","0.0-6.0-2.56","2714451","co37888","norming","","","{""curiosity"":5,""confidence"":1}","[0,1]","../img/tt/118tt.jpg","",""
"1581.9300000001676","","","recognition","survey-text","401","1197121","0.0-6.0-3.56","2714451","co37888","norming","","","{""guess"":""fiets""}","","../img/tt/118tt.jpg","",""
"null","../img/gs/118gs.jpg","null","reveal","image-keyboard-response","402","1199126","0.0-6.0-4.56","2714451","co37888","norming","","","","","","",""
"null","../img/tt/118tt.jpg","null","mooney2","image-keyboard-response","403","1201135","0.0-6.0-5.56","2714451","co37888","norming","","","","","","",""
"2272.855000003008","","","post_reveal_questions","survey-likert","404","1203409","0.0-6.0-6.56","2714451","co37888","norming","","","{""aha"":5}","[0]","../img/tt/118tt.jpg","",""
"null","<div style=""font-size:60px;""> </div>","null","fixation","html-keyboard-response","405","1203619","0.0-6.0-0.57","2714451","co37888","norming","","","","","","",""
"null","../img/tt/078tt.jpg","null","mooney1","image-keyboard-response","406","1206626","0.0-6.0-1.57","2714451","co37888","norming","","","","","","",""
"3515.429999999469","","","post_mooney1_questions","survey-likert","407","1210145","0.0-6.0-2.57","2714451","co37888","norming","","","{""curiosity"":6,""confidence"":6}","[0,1]","../img/tt/078tt.jpg","",""
"2270.27000000095","","","recognition","survey-text","408","1212417","0.0-6.0-3.57","2714451","co37888","norming","","","{""guess"":""druiven""}","","../img/tt/078tt.jpg","",""
"null","../img/gs/078gs.jpg","null","reveal","image-keyboard-response","409","1214427","0.0-6.0-4.57","2714451","co37888","norming","","","","","","",""
"null","../img/tt/078tt.jpg","null","mooney2","image-keyboard-response","410","1216430","0.0-6.0-5.57","2714451","co37888","norming","","","","","","",""
"1864.8249999969266","","","post_reveal_questions","survey-likert","411","1218294","0.0-6.0-6.57","2714451","co37888","norming","","","{""aha"":0}","[0]","../img/tt/078tt.jpg","",""
"null","<div style=""font-size:60px;""> </div>","null","fixation","html-keyboard-response","412","1218501","0.0-6.0-0.58","2714451","co37888","norming","","","","","","",""
"null","../img/tt/031tt.jpg","null","mooney1","image-keyboard-response","413","1221505","0.0-6.0-1.58","2714451","co37888","norming","","","","","","",""
"4018.705000002403","","","post_mooney1_questions","survey-likert","414","1225526","0.0-6.0-2.58","2714451","co37888","norming","","","{""curiosity"":0,""confidence"":0}","[0,1]","../img/tt/031tt.jpg","",""
"478.1649999967776","","","recognition","survey-text","415","1226006","0.0-6.0-3.58","2714451","co37888","norming","","","{""guess"":""""}","","../img/tt/031tt.jpg","",""
"null","../img/gs/031gs.jpg","null","reveal","image-keyboard-response","416","1228012","0.0-6.0-4.58","2714451","co37888","norming","","","","","","",""
"null","../img/tt/031tt.jpg","null","mooney2","image-keyboard-response","417","1230015","0.0-6.0-5.58","2714451","co37888","norming","","","","","","",""
"1637.0050000005867","","","post_reveal_questions","survey-likert","418","1231654","0.0-6.0-6.58","2714451","co37888","norming","","","{""aha"":6}","[0]","../img/tt/031tt.jpg","",""
"null","<div style=""font-size:60px;""> </div>","null","fixation","html-keyboard-response","419","1231860","0.0-6.0-0.59","2714451","co37888","norming","","","","","","",""
"null","../img/tt/405tt.jpg","null","mooney1","image-keyboard-response","420","1234866","0.0-6.0-1.59","2714451","co37888","norming","","","","","","",""
"2665.05999999959","","","post_mooney1_questions","survey-likert","421","1237534","0.0-6.0-2.59","2714451","co37888","norming","","","{""curiosity"":0,""confidence"":0}","[0,1]","../img/tt/405tt.jpg","",""
"758.1250000002328","","","recognition","survey-text","422","1238294","0.0-6.0-3.59","2714451","co37888","norming","","","{""guess"":""""}","","../img/tt/405tt.jpg","",""
"null","../img/gs/405gs.jpg","null","reveal","image-keyboard-response","423","1240297","0.0-6.0-4.59","2714451","co37888","norming","","","","","","",""
"null","../img/tt/405tt.jpg","null","mooney2","image-keyboard-response","424","1242308","0.0-6.0-5.59","2714451","co37888","norming","","","","","","",""
"1519.824999999255","","","post_reveal_questions","survey-likert","425","1243830","0.0-6.0-6.59","2714451","co37888","norming","","","{""aha"":6}","[0]","../img/tt/405tt.jpg","",""
"null","<div style=""font-size:60px;""> </div>","null","fixation","html-keyboard-response","426","1244032","0.0-6.0-0.60","2714451","co37888","norming","","","","","","",""
"null","../img/tt/1048tt.jpg","null","mooney1","image-keyboard-response","427","1247041","0.0-6.0-1.60","2714451","co37888","norming","","","","","","",""
"2667.1149999999907","","","post_mooney1_questions","survey-likert","428","1249711","0.0-6.0-2.60","2714451","co37888","norming","","","{""curiosity"":0,""confidence"":0}","[0,1]","../img/tt/1048tt.jpg","",""
"829.9499999994878","","","recognition","survey-text","429","1250542","0.0-6.0-3.60","2714451","co37888","norming","","","{""guess"":""""}","","../img/tt/1048tt.jpg","",""
"null","../img/gs/1048gs.jpg","null","reveal","image-keyboard-response","430","1252547","0.0-6.0-4.60","2714451","co37888","norming","","","","","","",""
"null","../img/tt/1048tt.jpg","null","mooney2","image-keyboard-response","431","1254549","0.0-6.0-5.60","2714451","co37888","norming","","","","","","",""
"1391.0350000006147","","","post_reveal_questions","survey-likert","432","1255942","0.0-6.0-6.60","2714451","co37888","norming","","","{""aha"":4}","[0]","../img/tt/1048tt.jpg","",""
"null","<div style=""font-size:60px;""> </div>","null","fixation","html-keyboard-response","433","1256151","0.0-6.0-0.61","2714451","co37888","norming","","","","","","",""
"null","../img/tt/534tt.jpg","null","mooney1","image-keyboard-response","434","1259157","0.0-6.0-1.61","2714451","co37888","norming","","","","","","",""
"4512.6049999997485","","","post_mooney1_questions","survey-likert","435","1263671","0.0-6.0-2.61","2714451","co37888","norming","","","{""curiosity"":4,""confidence"":3}","[0,1]","../img/tt/534tt.jpg","",""
"2133.9749999970663","","","recognition","survey-text","436","1265806","0.0-6.0-3.61","2714451","co37888","norming","","","{""guess"":""dorns""}","","../img/tt/534tt.jpg","",""
"null","../img/gs/534gs.jpg","null","reveal","image-keyboard-response","437","1267810","0.0-6.0-4.61","2714451","co37888","norming","","","","","","",""
"null","../img/tt/534tt.jpg","null","mooney2","image-keyboard-response","438","1269813","0.0-6.0-5.61","2714451","co37888","norming","","","","","","",""
"2334.715000001015","","","post_reveal_questions","survey-likert","439","1272150","0.0-6.0-6.61","2714451","co37888","norming","","","{""aha"":6}","[0]","../img/tt/534tt.jpg","",""
"null","<div style=""font-size:60px;""> </div>","null","fixation","html-keyboard-response","440","1272356","0.0-6.0-0.62","2714451","co37888","norming","","","","","","",""
"null","../img/tt/1242tt.jpg","null","mooney1","image-keyboard-response","441","1275367","0.0-6.0-1.62","2714451","co37888","norming","","","","","","",""
"3508.0750000015832","","","post_mooney1_questions","survey-likert","442","1278872","0.0-6.0-2.62","2714451","co37888","norming","","","{""curiosity"":5,""confidence"":4}","[0,1]","../img/tt/1242tt.jpg","",""
"1438.0999999993946","","","recognition","survey-text","443","1280312","0.0-6.0-3.62","2714451","co37888","norming","","","{""guess"":""wolf""}","","../img/tt/1242tt.jpg","",""
"null","../img/gs/1242gs.jpg","null","reveal","image-keyboard-response","444","1282314","0.0-6.0-4.62","2714451","co37888","norming","","","","","","",""
"null","../img/tt/1242tt.jpg","null","mooney2","image-keyboard-response","445","1284322","0.0-6.0-5.62","2714451","co37888","norming","","","","","","",""
"2397.554999999702","","","post_reveal_questions","survey-likert","446","1286720","0.0-6.0-6.62","2714451","co37888","norming","","","{""aha"":4}","[0]","../img/tt/1242tt.jpg","",""
"null","<div style=""font-size:60px;""> </div>","null","fixation","html-keyboard-response","447","1286925","0.0-6.0-0.63","2714451","co37888","norming","","","","","","",""
"null","../img/tt/135tt.jpg","null","mooney1","image-keyboard-response","448","1289929","0.0-6.0-1.63","2714451","co37888","norming","","","","","","",""
"3260.694999997271","","","post_mooney1_questions","survey-likert","449","1293192","0.0-6.0-2.63","2714451","co37888","norming","","","{""curiosity"":5,""confidence"":6}","[0,1]","../img/tt/135tt.jpg","",""
"2430.0699999984354","","","recognition","survey-text","450","1295624","0.0-6.0-3.63","2714451","co37888","norming","","","{""guess"":""toilet""}","","../img/tt/135tt.jpg","",""
"null","../img/gs/135gs.jpg","null","reveal","image-keyboard-response","451","1297626","0.0-6.0-4.63","2714451","co37888","norming","","","","","","",""
"null","../img/tt/135tt.jpg","null","mooney2","image-keyboard-response","452","1299632","0.0-6.0-5.63","2714451","co37888","norming","","","","","","",""
"1910.4099999968894","","","post_reveal_questions","survey-likert","453","1301544","0.0-6.0-6.63","2714451","co37888","norming","","","{""aha"":0}","[0]","../img/tt/135tt.jpg","",""
"null","<div style=""font-size:60px;""> </div>","null","fixation","html-keyboard-response","454","1301746","0.0-6.0-0.64","2714451","co37888","norming","","","","","","",""
"null","../img/tt/1070tt.jpg","null","mooney1","image-keyboard-response","455","1304748","0.0-6.0-1.64","2714451","co37888","norming","","","","","","",""
"4647.959999998333","","","post_mooney1_questions","survey-likert","456","1309400","0.0-6.0-2.64","2714451","co37888","norming","","","{""curiosity"":6,""confidence"":5}","[0,1]","../img/tt/1070tt.jpg","",""
"3518.215000000084","","","recognition","survey-text","457","1312920","0.0-6.0-3.64","2714451","co37888","norming","","","{""guess"":""worstenbroodje""}","","../img/tt/1070tt.jpg","",""
"null","../img/gs/1070gs.jpg","null","reveal","image-keyboard-response","458","1314922","0.0-6.0-4.64","2714451","co37888","norming","","","","","","",""
"null","../img/tt/1070tt.jpg","null","mooney2","image-keyboard-response","459","1316932","0.0-6.0-5.64","2714451","co37888","norming","","","","","","",""
"2009.285000000149","","","post_reveal_questions","survey-likert","460","1318944","0.0-6.0-6.64","2714451","co37888","norming","","","{""aha"":5}","[0]","../img/tt/1070tt.jpg","",""
"null","<div style=""font-size:60px;""> </div>","null","fixation","html-keyboard-response","461","1319146","0.0-6.0-0.65","2714451","co37888","norming","","","","","","",""
"null","../img/tt/1189tt.jpg","null","mooney1","image-keyboard-response","462","1322151","0.0-6.0-1.65","2714451","co37888","norming","","","","","","",""
"4485.940000002272","","","post_mooney1_questions","survey-likert","463","1326640","0.0-6.0-2.65","2714451","co37888","norming","","","{""curiosity"":4,""confidence"":1}","[0,1]","../img/tt/1189tt.jpg","",""
"4806.035000001546","","","recognition","survey-text","464","1331448","0.0-6.0-3.65","2714451","co37888","norming","","","{""guess"":""nietjesmachine""}","","../img/tt/1189tt.jpg","",""
"null","../img/gs/1189gs.jpg","null","reveal","image-keyboard-response","465","1333449","0.0-6.0-4.65","2714451","co37888","norming","","","","","","",""
"null","../img/tt/1189tt.jpg","null","mooney2","image-keyboard-response","466","1335452","0.0-6.0-5.65","2714451","co37888","norming","","","","","","",""
"1611.764999997802","","","post_reveal_questions","survey-likert","467","1337064","0.0-6.0-6.65","2714451","co37888","norming","","","{""aha"":6}","[0]","../img/tt/1189tt.jpg","",""
"null","<div style=""font-size:60px;""> </div>","null","fixation","html-keyboard-response","468","1337274","0.0-6.0-0.66","2714451","co37888","norming","","","","","","",""
"null","../img/tt/1053tt.jpg","null","mooney1","image-keyboard-response","469","1340293","0.0-6.0-1.66","2714451","co37888","norming","","","","","","",""
"3249.6049999974202","","","post_mooney1_questions","survey-likert","470","1343546","0.0-6.0-2.66","2714451","co37888","norming","","","{""curiosity"":5,""confidence"":4}","[0,1]","../img/tt/1053tt.jpg","",""
"1862.0100000007078","","","recognition","survey-text","471","1345409","0.0-6.0-3.66","2714451","co37888","norming","","","{""guess"":""varkens""}","","../img/tt/1053tt.jpg","",""
"null","../img/gs/1053gs.jpg","null","reveal","image-keyboard-response","472","1347412","0.0-6.0-4.66","2714451","co37888","norming","","","","","","",""
"null","../img/tt/1053tt.jpg","null","mooney2","image-keyboard-response","473","1349422","0.0-6.0-5.66","2714451","co37888","norming","","","","","","",""
"1793.014999999199","","","post_reveal_questions","survey-likert","474","1351217","0.0-6.0-6.66","2714451","co37888","norming","","","{""aha"":5}","[0]","../img/tt/1053tt.jpg","",""
"null","<div style=""font-size:60px;""> </div>","null","fixation","html-keyboard-response","475","1351420","0.0-6.0-0.67","2714451","co37888","norming","","","","","","",""
"null","../img/tt/1004tt.jpg","null","mooney1","image-keyboard-response","476","1354423","0.0-6.0-1.67","2714451","co37888","norming","","","","","","",""
"3303.884999997681","","","post_mooney1_questions","survey-likert","477","1357730","0.0-6.0-2.67","2714451","co37888","norming","","","{""curiosity"":4,""confidence"":4}","[0,1]","../img/tt/1004tt.jpg","",""
"1966.1599999999162","","","recognition","survey-text","478","1359698","0.0-6.0-3.67","2714451","co37888","norming","","","{""guess"":""vos""}","","../img/tt/1004tt.jpg","",""
"null","../img/gs/1004gs.jpg","null","reveal","image-keyboard-response","479","1361700","0.0-6.0-4.67","2714451","co37888","norming","","","","","","",""
"null","../img/tt/1004tt.jpg","null","mooney2","image-keyboard-response","480","1363704","0.0-6.0-5.67","2714451","co37888","norming","","","","","","",""
"2566.575000000652","","","post_reveal_questions","survey-likert","481","1366273","0.0-6.0-6.67","2714451","co37888","norming","","","{""aha"":4}","[0]","../img/tt/1004tt.jpg","",""
"null","<div style=""font-size:60px;""> </div>","null","fixation","html-keyboard-response","482","1366477","0.0-6.0-0.68","2714451","co37888","norming","","","","","","",""
"null","../img/tt/1200tt.jpg","null","mooney1","image-keyboard-response","483","1369483","0.0-6.0-1.68","2714451","co37888","norming","","","","","","",""
"2485.2000000027474","","","post_mooney1_questions","survey-likert","484","1371970","0.0-6.0-2.68","2714451","co37888","norming","","","{""curiosity"":5,""confidence"":5}","[0,1]","../img/tt/1200tt.jpg","",""
"1790.095000000205","","","recognition","survey-text","485","1373762","0.0-6.0-3.68","2714451","co37888","norming","","","{""guess"":""kanon""}","","../img/tt/1200tt.jpg","",""
"null","../img/gs/1200gs.jpg","null","reveal","image-keyboard-response","486","1375767","0.0-6.0-4.68","2714451","co37888","norming","","","","","","",""
"null","../img/tt/1200tt.jpg","null","mooney2","image-keyboard-response","487","1377770","0.0-6.0-5.68","2714451","co37888","norming","","","","","","",""
"2845.2450000005774","","","post_reveal_questions","survey-likert","488","1380618","0.0-6.0-6.68","2714451","co37888","norming","","","{""aha"":6}","[0]","../img/tt/1200tt.jpg","",""
"null","<div style=""font-size:60px;""> </div>","null","fixation","html-keyboard-response","489","1380823","0.0-6.0-0.69","2714451","co37888","norming","","","","","","",""
"null","../img/tt/121tt.jpg","null","mooney1","image-keyboard-response","490","1383831","0.0-6.0-1.69","2714451","co37888","norming","","","","","","",""
"4087.4849999998696","","","post_mooney1_questions","survey-likert","491","1387930","0.0-6.0-2.69","2714451","co37888","norming","","","{""curiosity"":5,""confidence"":3}","[0,1]","../img/tt/121tt.jpg","",""
"2277.965000001248","","","recognition","survey-text","492","1390210","0.0-6.0-3.69","2714451","co37888","norming","","","{""guess"":""bizon""}","","../img/tt/121tt.jpg","",""
"null","../img/gs/121gs.jpg","null","reveal","image-keyboard-response","493","1392212","0.0-6.0-4.69","2714451","co37888","norming","","","","","","",""
"null","../img/tt/121tt.jpg","null","mooney2","image-keyboard-response","494","1394214","0.0-6.0-5.69","2714451","co37888","norming","","","","","","",""
"1969.6049999985844","","","post_reveal_questions","survey-likert","495","1396186","0.0-6.0-6.69","2714451","co37888","norming","","","{""aha"":6}","[0]","../img/tt/121tt.jpg","",""
"null","<div style=""font-size:60px;""> </div>","null","fixation","html-keyboard-response","496","1396388","0.0-6.0-0.70","2714451","co37888","norming","","","","","","",""
"null","../img/tt/406tt.jpg","null","mooney1","image-keyboard-response","497","1399390","0.0-6.0-1.70","2714451","co37888","norming","","","","","","",""
"3096.1850000021514","","","post_mooney1_questions","survey-likert","498","1402490","0.0-6.0-2.70","2714451","co37888","norming","","","{""curiosity"":6,""confidence"":6}","[0,1]","../img/tt/406tt.jpg","",""
"3398.1149999999907","","","recognition","survey-text","499","1405889","0.0-6.0-3.70","2714451","co37888","norming","","","{""guess"":""vleermuis""}","","../img/tt/406tt.jpg","",""
"null","../img/gs/406gs.jpg","null","reveal","image-keyboard-response","500","1407900","0.0-6.0-4.70","2714451","co37888","norming","","","","","","",""
"null","../img/tt/406tt.jpg","null","mooney2","image-keyboard-response","501","1409910","0.0-6.0-5.70","2714451","co37888","norming","","","","","","",""
"3112.8500000012573","","","post_reveal_questions","survey-likert","502","1413026","0.0-6.0-6.70","2714451","co37888","norming","","","{""aha"":0}","[0]","../img/tt/406tt.jpg","",""
"null","<div style=""font-size:60px;""> </div>","null","fixation","html-keyboard-response","503","1413227","0.0-6.0-0.71","2714451","co37888","norming","","","","","","",""
"null","../img/tt/105tt.jpg","null","mooney1","image-keyboard-response","504","1416230","0.0-6.0-1.71","2714451","co37888","norming","","","","","","",""
"5936.395000000717","","","post_mooney1_questions","survey-likert","505","1422170","0.0-6.0-2.71","2714451","co37888","norming","","","{""curiosity"":5,""confidence"":1}","[0,1]","../img/tt/105tt.jpg","",""
"2533.8499999998603","","","recognition","survey-text","506","1424705","0.0-6.0-3.71","2714451","co37888","norming","","","{""guess"":""schoenen""}","","../img/tt/105tt.jpg","",""
"null","../img/gs/105gs.jpg","null","reveal","image-keyboard-response","507","1426716","0.0-6.0-4.71","2714451","co37888","norming","","","","","","",""
"null","../img/tt/105tt.jpg","null","mooney2","image-keyboard-response","508","1428718","0.0-6.0-5.71","2714451","co37888","norming","","","","","","",""
"2576.8199999984354","","","post_reveal_questions","survey-likert","509","1431297","0.0-6.0-6.71","2714451","co37888","norming","","","{""aha"":0}","[0]","../img/tt/105tt.jpg","",""
"null","<div style=""font-size:60px;""> </div>","null","fixation","html-keyboard-response","510","1431501","0.0-6.0-0.72","2714451","co37888","norming","","","","","","",""
"null","../img/tt/1156tt.jpg","null","mooney1","image-keyboard-response","511","1434508","0.0-6.0-1.72","2714451","co37888","norming","","","","","","",""
"2802.7650000001304","","","post_mooney1_questions","survey-likert","512","1437314","0.0-6.0-2.72","2714451","co37888","norming","","","{""curiosity"":5,""confidence"":5}","[0,1]","../img/tt/1156tt.jpg","",""
"2494.090000000084","","","recognition","survey-text","513","1439809","0.0-6.0-3.72","2714451","co37888","norming","","","{""guess"":""zwemmers""}","","../img/tt/1156tt.jpg","",""
"null","../img/gs/1156gs.jpg","null","reveal","image-keyboard-response","514","1441817","0.0-6.0-4.72","2714451","co37888","norming","","","","","","",""
"null","../img/tt/1156tt.jpg","null","mooney2","image-keyboard-response","515","1443820","0.0-6.0-5.72","2714451","co37888","norming","","","","","","",""
"3594.390000001993","","","post_reveal_questions","survey-likert","516","1447417","0.0-6.0-6.72","2714451","co37888","norming","","","{""aha"":6}","[0]","../img/tt/1156tt.jpg","",""
"null","<div style=""font-size:60px;""> </div>","null","fixation","html-keyboard-response","517","1447619","0.0-6.0-0.73","2714451","co37888","norming","","","","","","",""
"null","../img/tt/096tt.jpg","null","mooney1","image-keyboard-response","518","1450628","0.0-6.0-1.73","2714451","co37888","norming","","","","","","",""
"4121.960000000428","","","post_mooney1_questions","survey-likert","519","1454754","0.0-6.0-2.73","2714451","co37888","norming","","","{""curiosity"":6,""confidence"":4}","[0,1]","../img/tt/096tt.jpg","",""
"5293.850000001723","","","recognition","survey-text","520","1460044","0.0-6.0-3.73","2714451","co37888","norming","","","{""guess"":""nietjesmachine""}","","../img/tt/096tt.jpg","",""
"null","../img/gs/096gs.jpg","null","reveal","image-keyboard-response","521","1462046","0.0-6.0-4.73","2714451","co37888","norming","","","","","","",""
"null","../img/tt/096tt.jpg","null","mooney2","image-keyboard-response","522","1464048","0.0-6.0-5.73","2714451","co37888","norming","","","","","","",""
"2818.81499999878","","","post_reveal_questions","survey-likert","523","1466868","0.0-6.0-6.73","2714451","co37888","norming","","","{""aha"":5}","[0]","../img/tt/096tt.jpg","",""
"null","<div style=""font-size:60px;""> </div>","null","fixation","html-keyboard-response","524","1467069","0.0-6.0-0.74","2714451","co37888","norming","","","","","","",""
"null","../img/tt/1275tt.jpg","null","mooney1","image-keyboard-response","525","1470074","0.0-6.0-1.74","2714451","co37888","norming","","","","","","",""
"3734.355000000447","","","post_mooney1_questions","survey-likert","526","1473812","0.0-6.0-2.74","2714451","co37888","norming","","","{""curiosity"":5,""confidence"":4}","[0,1]","../img/tt/1275tt.jpg","",""
"6102.220000000671","","","recognition","survey-text","527","1479916","0.0-6.0-3.74","2714451","co37888","norming","","","{""guess"":""everzwijn""}","","../img/tt/1275tt.jpg","",""
"null","../img/gs/1275gs.jpg","null","reveal","image-keyboard-response","528","1481922","0.0-6.0-4.74","2714451","co37888","norming","","","","","","",""
"null","../img/tt/1275tt.jpg","null","mooney2","image-keyboard-response","529","1483924","0.0-6.0-5.74","2714451","co37888","norming","","","","","","",""
"2261.7099999987986","","","post_reveal_questions","survey-likert","530","1486188","0.0-6.0-6.74","2714451","co37888","norming","","","{""aha"":0}","[0]","../img/tt/1275tt.jpg","",""
"null","<div style=""font-size:60px;""> </div>","null","fixation","html-keyboard-response","531","1486396","0.0-6.0-0.75","2714451","co37888","norming","","","","","","",""
"null","../img/tt/222tt.jpg","null","mooney1","image-keyboard-response","532","1489402","0.0-6.0-1.75","2714451","co37888","norming","","","","","","",""
"3711.1100000003353","","","post_mooney1_questions","survey-likert","533","1493116","0.0-6.0-2.75","2714451","co37888","norming","","","{""curiosity"":5,""confidence"":5}","[0,1]","../img/tt/222tt.jpg","",""
"1806.0850000001956","","","recognition","survey-text","534","1494924","0.0-6.0-3.75","2714451","co37888","norming","","","{""guess"":""tank""}","","../img/tt/222tt.jpg","",""
"null","../img/gs/222gs.jpg","null","reveal","image-keyboard-response","535","1496931","0.0-6.0-4.75","2714451","co37888","norming","","","","","","",""
"null","../img/tt/222tt.jpg","null","mooney2","image-keyboard-response","536","1498942","0.0-6.0-5.75","2714451","co37888","norming","","","","","","",""
"1844.1349999993108","","","post_reveal_questions","survey-likert","537","1500788","0.0-6.0-6.75","2714451","co37888","norming","","","{""aha"":6}","[0]","../img/tt/222tt.jpg","",""
"null","<div style=""font-size:60px;""> </div>","null","fixation","html-keyboard-response","538","1500997","0.0-6.0-0.76","2714451","co37888","norming","","","","","","",""
"null","../img/tt/353tt.jpg","null","mooney1","image-keyboard-response","539","1504004","0.0-6.0-1.76","2714451","co37888","norming","","","","","","",""
"4060.8099999988917","","","post_mooney1_questions","survey-likert","540","1508068","0.0-6.0-2.76","2714451","co37888","norming","","","{""curiosity"":0,""confidence"":0}","[0,1]","../img/tt/353tt.jpg","",""
"1333.9149999993388","","","recognition","survey-text","541","1509404","0.0-6.0-3.76","2714451","co37888","norming","","","{""guess"":""""}","","../img/tt/353tt.jpg","",""
"null","../img/gs/353gs.jpg","null","reveal","image-keyboard-response","542","1511411","0.0-6.0-4.76","2714451","co37888","norming","","","","","","",""
"null","../img/tt/353tt.jpg","null","mooney2","image-keyboard-response","543","1513412","0.0-6.0-5.76","2714451","co37888","norming","","","","","","",""
"1941.419999999227","","","post_reveal_questions","survey-likert","544","1515356","0.0-6.0-6.76","2714451","co37888","norming","","","{""aha"":4}","[0]","../img/tt/353tt.jpg","",""
"null","<div style=""font-size:60px;""> </div>","null","fixation","html-keyboard-response","545","1515557","0.0-6.0-0.77","2714451","co37888","norming","","","","","","",""
"null","../img/tt/1199tt.jpg","null","mooney1","image-keyboard-response","546","1518570","0.0-6.0-1.77","2714451","co37888","norming","","","","","","",""
"2935.3300000003073","","","post_mooney1_questions","survey-likert","547","1521508","0.0-6.0-2.77","2714451","co37888","norming","","","{""curiosity"":5,""confidence"":5}","[0,1]","../img/tt/1199tt.jpg","",""
"2022.174999998184","","","recognition","survey-text","548","1523531","0.0-6.0-3.77","2714451","co37888","norming","","","{""guess"":""soldaat""}","","../img/tt/1199tt.jpg","",""
"null","../img/gs/1199gs.jpg","null","reveal","image-keyboard-response","549","1525534","0.0-6.0-4.77","2714451","co37888","norming","","","","","","",""
"null","../img/tt/1199tt.jpg","null","mooney2","image-keyboard-response","550","1527544","0.0-6.0-5.77","2714451","co37888","norming","","","","","","",""
"1624.7099999999627","","","post_reveal_questions","survey-likert","551","1529171","0.0-6.0-6.77","2714451","co37888","norming","","","{""aha"":6}","[0]","../img/tt/1199tt.jpg","",""
"null","<div style=""font-size:60px;""> </div>","null","fixation","html-keyboard-response","552","1529381","0.0-6.0-0.78","2714451","co37888","norming","","","","","","",""
