"rt","stimulus","key_press","test_part","trial_type","trial_index","time_elapsed","internal_node_id","totalTime","subject","experiment_name","button_pressed","success","responses","question_order","currentStim","old","correct"
"6579.389999969862","Welcome to the experiment. This is an online experiment so please don't close the tab/window until we say goodbye.  Press any key to begin.","32","instructions","html-keyboard-response","0","6629","0.0-0.0","2526386","co37948","norming","","","","","","",""
"3852.119999937713","<div style='word-wrap: break-word; width: 900px'><h3>Please consider this information carefully before deciding whether to participate in this research</h3><ul style='text-align: left; font-size: .8em;'><li><b>Purpose of the research</b>: To examine how people process images.</li><li><b>What you will do in this research</b>:  Stimuli (images) will be presented on the computer and you will be asked different questions about them.</li><li><b>Time required</b>: Participation will take between 45 and 60 minutes to complete.</li><li><b>Risks</b>:  There are no anticipated risks associated with participating in this study. The effects of participating should be comparable to those you would experience from viewing a computer monitor for 30 minutes and using a mouse or keyboard.</li><li><b>Benefits</b>:  This study provides no benefits to you individually except for the credit. The study provides important information about the nature of perception and learning.</li><li><b>Confidentiality</b>:  Your participation in this study will remain confidential. No personally identifiable information will be associated with your data. Your de-identified data may be shared with other researchers and used in future projects.</li><li><b>Participation and withdrawal</b>:  Your participation in this study is completely voluntary and you may refuse to participate or you may choose to withdraw at any time without penalty.</li><li><b>How to contact the researchers</b>: If you have questions or concerns about your participation or payment, or want to request a summary of research findings, please contact Sander Van de Cruys (KU Leuven), at sander.vandecruys@kuleuven.be.</li></ul><p>The nature and purpose of this research have been sufficiently explained and I agree to participate in this study.  I understand that I am free to withdraw at any time without incurring any penalty.</p><p>Please consent by clicking the button below to continue. Otherwise, please exit the study at this time.</p></div>","","instructions","html-button-response","1","10482","0.0-1.0","2526386","co37948","norming","0","","","","","",""
"","","","instructions","fullscreen","2","13548","0.0-2.0","2526386","co37948","norming","","true","","","","",""
"27519.220000016503","","","sona","survey-html-form","3","41070","0.0-3.0","2526386","co37948","norming","","","[{""name"":""sonaid"",""value"":""37948""},{""name"":""debrief"",""value"":""no""},{""name"":""datajoin"",""value"":""yes""}]","","","",""
"115634.86499991268","<div style='word-wrap: break-word; width: 900px'><h3>Instructions</h3><p>This experiment will have 3 parts. In the first part you will see a series of distorted images like the one below on the left. As you can see in the righthand image, the distorted images are derived from actual photographs. In what follows, you will <strong>briefly</strong> be presented with <strong>only</strong> the distorted image.</p> <div style='float: left; margin-right: 20px;'><img src='../img/018tt.jpg' height='250' width='250'></img></div><div style='float: right; margin-left: 20px;'><img src='../img/018gs.jpg' height='250' width='250'></img></div><p>Subsequently you will be asked a few questions about the image: One question on how <strong>curious</strong> you are about the solution and one on how <strong>confident</strong> you are that you know the solution.</p>Next, we ask you to make a guess on what is in the image. Note that it is OK to name just the <strong>basic level category</strong>. For example when you see a parrot in the image, 'parrot' will obviously be a correct answer but also correct is 'bird'. However, 'animal' will <strong>not</strong> be counted as a correct response. For the example above, 'rose' would be correct or 'flower', but not 'plant'. When soccer players are depicted, 'soccer', 'football', 'soccer players' will be correct, but not 'humans', 'outdoors', or 'sports'. You do not need to describe the image in full, just name the main object in it <strong>in one or two words</strong>. All images depict objects from one of the following broad level categories: animals, inanimate objects, plants, sports, vehicles, and food. Recognizing means knowing <strong>more</strong> than these broad labels for a given image. But we always encourage you to <strong>make a guess</strong> if you can. Note that you are allowed to use <strong>Dutch and English</strong> in your answers, whatever comes easiest for you.</p><p>Press any key to continue.</p></div>","32","instructions","html-keyboard-response","4","156710","0.0-4.0","2526386","co37948","norming","","","","","","",""
"17309.58500003908","<div style='word-wrap: break-word; width: 900px'><h3>Instructions</h3> <p>Next, the solution image will be revealed to you and you'll be asked to indicate how strong your <strong>aha-experience</strong> was after seeing the solution. This describes the positive feeling of the 'click' you sometimes experience, when the pieces of the 'puzzle' fall together and you suddenly have 'insight' in the image.</p><img src='aha.jpg' height='188' width='250'></img><p>Note that there are no right or wrong answers. We are interested in what <strong>you</strong> see in the image and how <strong>you</strong> feel about it.</p><p>Press any key to start the experiment.</p></div>","32","instructions","html-keyboard-response","5","174020","0.0-5.0","2526386","co37948","norming","","","","","","",""
"null","<div style=""font-size:60px;""> </div>","null","fixation","html-keyboard-response","6","174222","0.0-6.0-0.0","2526386","co37948","norming","","","","","","",""
"null","../img/tt/1043tt.jpg","null","mooney1","image-keyboard-response","7","177226","0.0-6.0-1.0","2526386","co37948","norming","","","","","","",""
"8968.90999993775","","","post_mooney1_questions","survey-likert","8","186199","0.0-6.0-2.0","2526386","co37948","norming","","","{""curiosity"":5,""confidence"":1}","[0,1]","../img/tt/1043tt.jpg","",""
"5889.265000005253","","","recognition","survey-text","9","192094","0.0-6.0-3.0","2526386","co37948","norming","","","{""guess"":""flower""}","","../img/tt/1043tt.jpg","",""
"null","../img/gs/1043gs.jpg","null","reveal","image-keyboard-response","10","194098","0.0-6.0-4.0","2526386","co37948","norming","","","","","","",""
"null","../img/tt/1043tt.jpg","null","mooney2","image-keyboard-response","11","196105","0.0-6.0-5.0","2526386","co37948","norming","","","","","","",""
"5069.399999920279","","","post_reveal_questions","survey-likert","12","201176","0.0-6.0-6.0","2526386","co37948","norming","","","{""aha"":6}","[0]","../img/tt/1043tt.jpg","",""
"null","<div style=""font-size:60px;""> </div>","null","fixation","html-keyboard-response","13","201380","0.0-6.0-0.1","2526386","co37948","norming","","","","","","",""
"null","../img/tt/105tt.jpg","null","mooney1","image-keyboard-response","14","204385","0.0-6.0-1.1","2526386","co37948","norming","","","","","","",""
"12891.530000022613","","","post_mooney1_questions","survey-likert","15","217280","0.0-6.0-2.1","2526386","co37948","norming","","","{""curiosity"":5,""confidence"":3}","[0,1]","../img/tt/105tt.jpg","",""
"2607.635000022128","","","recognition","survey-text","16","219891","0.0-6.0-3.1","2526386","co37948","norming","","","{""guess"":""frietjes""}","","../img/tt/105tt.jpg","",""
"null","../img/gs/105gs.jpg","null","reveal","image-keyboard-response","17","221910","0.0-6.0-4.1","2526386","co37948","norming","","","","","","",""
"null","../img/tt/105tt.jpg","null","mooney2","image-keyboard-response","18","223932","0.0-6.0-5.1","2526386","co37948","norming","","","","","","",""
"5713.024999946356","","","post_reveal_questions","survey-likert","19","229647","0.0-6.0-6.1","2526386","co37948","norming","","","{""aha"":6}","[0]","../img/tt/105tt.jpg","",""
"null","<div style=""font-size:60px;""> </div>","null","fixation","html-keyboard-response","20","229861","0.0-6.0-0.2","2526386","co37948","norming","","","","","","",""
"null","../img/tt/1097tt.jpg","null","mooney1","image-keyboard-response","21","232864","0.0-6.0-1.2","2526386","co37948","norming","","","","","","",""
"6934.995000017807","","","post_mooney1_questions","survey-likert","22","239801","0.0-6.0-2.2","2526386","co37948","norming","","","{""curiosity"":6,""confidence"":2}","[0,1]","../img/tt/1097tt.jpg","",""
"4549.985000048764","","","recognition","survey-text","23","244354","0.0-6.0-3.2","2526386","co37948","norming","","","{""guess"":""zee""}","","../img/tt/1097tt.jpg","",""
"null","../img/gs/1097gs.jpg","null","reveal","image-keyboard-response","24","246358","0.0-6.0-4.2","2526386","co37948","norming","","","","","","",""
"null","../img/tt/1097tt.jpg","null","mooney2","image-keyboard-response","25","248361","0.0-6.0-5.2","2526386","co37948","norming","","","","","","",""
"3200.289999949746","","","post_reveal_questions","survey-likert","26","251563","0.0-6.0-6.2","2526386","co37948","norming","","","{""aha"":4}","[0]","../img/tt/1097tt.jpg","",""
"null","<div style=""font-size:60px;""> </div>","null","fixation","html-keyboard-response","27","251773","0.0-6.0-0.3","2526386","co37948","norming","","","","","","",""
"null","../img/tt/1251tt.jpg","null","mooney1","image-keyboard-response","28","254777","0.0-6.0-1.3","2526386","co37948","norming","","","","","","",""
"6266.439999919385","","","post_mooney1_questions","survey-likert","29","261045","0.0-6.0-2.3","2526386","co37948","norming","","","{""curiosity"":4,""confidence"":3}","[0,1]","../img/tt/1251tt.jpg","",""
"3308.599999989383","","","recognition","survey-text","30","264358","0.0-6.0-3.3","2526386","co37948","norming","","","{""guess"":""boot""}","","../img/tt/1251tt.jpg","",""
"null","../img/gs/1251gs.jpg","null","reveal","image-keyboard-response","31","266361","0.0-6.0-4.3","2526386","co37948","norming","","","","","","",""
"null","../img/tt/1251tt.jpg","null","mooney2","image-keyboard-response","32","268365","0.0-6.0-5.3","2526386","co37948","norming","","","","","","",""
"3763.150000013411","","","post_reveal_questions","survey-likert","33","272130","0.0-6.0-6.3","2526386","co37948","norming","","","{""aha"":6}","[0]","../img/tt/1251tt.jpg","",""
"null","<div style=""font-size:60px;""> </div>","null","fixation","html-keyboard-response","34","272336","0.0-6.0-0.4","2526386","co37948","norming","","","","","","",""
"null","../img/tt/1116tt.jpg","null","mooney1","image-keyboard-response","35","275342","0.0-6.0-1.4","2526386","co37948","norming","","","","","","",""
"6086.874999920838","","","post_mooney1_questions","survey-likert","36","281431","0.0-6.0-2.4","2526386","co37948","norming","","","{""curiosity"":3,""confidence"":3}","[0,1]","../img/tt/1116tt.jpg","",""
"2150.3650000086054","","","recognition","survey-text","37","283585","0.0-6.0-3.4","2526386","co37948","norming","","","{""guess"":""auto""}","","../img/tt/1116tt.jpg","",""
"null","../img/gs/1116gs.jpg","null","reveal","image-keyboard-response","38","285590","0.0-6.0-4.4","2526386","co37948","norming","","","","","","",""
"null","../img/tt/1116tt.jpg","null","mooney2","image-keyboard-response","39","287599","0.0-6.0-5.4","2526386","co37948","norming","","","","","","",""
"4665.26999999769","","","post_reveal_questions","survey-likert","40","292266","0.0-6.0-6.4","2526386","co37948","norming","","","{""aha"":4}","[0]","../img/tt/1116tt.jpg","",""
"null","<div style=""font-size:60px;""> </div>","null","fixation","html-keyboard-response","41","292471","0.0-6.0-0.5","2526386","co37948","norming","","","","","","",""
"null","../img/tt/1196tt.jpg","null","mooney1","image-keyboard-response","42","295473","0.0-6.0-1.5","2526386","co37948","norming","","","","","","",""
"9338.070000056177","","","post_mooney1_questions","survey-likert","43","304814","0.0-6.0-2.5","2526386","co37948","norming","","","{""curiosity"":6,""confidence"":0}","[0,1]","../img/tt/1196tt.jpg","",""
"2545.7050000550225","","","recognition","survey-text","44","307364","0.0-6.0-3.5","2526386","co37948","norming","","","{""guess"":""krant""}","","../img/tt/1196tt.jpg","",""
"null","../img/gs/1196gs.jpg","null","reveal","image-keyboard-response","45","309368","0.0-6.0-4.5","2526386","co37948","norming","","","","","","",""
"null","../img/tt/1196tt.jpg","null","mooney2","image-keyboard-response","46","311370","0.0-6.0-5.5","2526386","co37948","norming","","","","","","",""
"4375.085000065155","","","post_reveal_questions","survey-likert","47","315748","0.0-6.0-6.5","2526386","co37948","norming","","","{""aha"":6}","[0]","../img/tt/1196tt.jpg","",""
"null","<div style=""font-size:60px;""> </div>","null","fixation","html-keyboard-response","48","315953","0.0-6.0-0.6","2526386","co37948","norming","","","","","","",""
"null","../img/tt/1283tt.jpg","null","mooney1","image-keyboard-response","49","318956","0.0-6.0-1.6","2526386","co37948","norming","","","","","","",""
"6672.06500004977","","","post_mooney1_questions","survey-likert","50","325630","0.0-6.0-2.6","2526386","co37948","norming","","","{""curiosity"":4,""confidence"":4}","[0,1]","../img/tt/1283tt.jpg","",""
"1448.7250000238419","","","recognition","survey-text","51","327084","0.0-6.0-3.6","2526386","co37948","norming","","","{""guess"":""leeuw""}","","../img/tt/1283tt.jpg","",""
"null","../img/gs/1283gs.jpg","null","reveal","image-keyboard-response","52","329091","0.0-6.0-4.6","2526386","co37948","norming","","","","","","",""
"null","../img/tt/1283tt.jpg","null","mooney2","image-keyboard-response","53","331096","0.0-6.0-5.6","2526386","co37948","norming","","","","","","",""
"4430.854999925941","","","post_reveal_questions","survey-likert","54","335529","0.0-6.0-6.6","2526386","co37948","norming","","","{""aha"":6}","[0]","../img/tt/1283tt.jpg","",""
"null","<div style=""font-size:60px;""> </div>","null","fixation","html-keyboard-response","55","335732","0.0-6.0-0.7","2526386","co37948","norming","","","","","","",""
"null","../img/tt/126tt.jpg","null","mooney1","image-keyboard-response","56","338745","0.0-6.0-1.7","2526386","co37948","norming","","","","","","",""
"7929.310000035912","","","post_mooney1_questions","survey-likert","57","346678","0.0-6.0-2.7","2526386","co37948","norming","","","{""curiosity"":4,""confidence"":1}","[0,1]","../img/tt/126tt.jpg","",""
"1242.5550000043586","","","recognition","survey-text","58","347924","0.0-6.0-3.7","2526386","co37948","norming","","","{""guess"":""koe""}","","../img/tt/126tt.jpg","",""
"null","../img/gs/126gs.jpg","null","reveal","image-keyboard-response","59","349927","0.0-6.0-4.7","2526386","co37948","norming","","","","","","",""
"null","../img/tt/126tt.jpg","null","mooney2","image-keyboard-response","60","351935","0.0-6.0-5.7","2526386","co37948","norming","","","","","","",""
"4299.7449999675155","","","post_reveal_questions","survey-likert","61","356236","0.0-6.0-6.7","2526386","co37948","norming","","","{""aha"":6}","[0]","../img/tt/126tt.jpg","",""
"null","<div style=""font-size:60px;""> </div>","null","fixation","html-keyboard-response","62","356439","0.0-6.0-0.8","2526386","co37948","norming","","","","","","",""
"null","../img/tt/1175tt.jpg","null","mooney1","image-keyboard-response","63","359445","0.0-6.0-1.8","2526386","co37948","norming","","","","","","",""
"6209.035000065342","","","post_mooney1_questions","survey-likert","64","365657","0.0-6.0-2.8","2526386","co37948","norming","","","{""curiosity"":5,""confidence"":3}","[0,1]","../img/tt/1175tt.jpg","",""
"2297.080000047572","","","recognition","survey-text","65","367960","0.0-6.0-3.8","2526386","co37948","norming","","","{""guess"":""dans""}","","../img/tt/1175tt.jpg","",""
"null","../img/gs/1175gs.jpg","null","reveal","image-keyboard-response","66","369964","0.0-6.0-4.8","2526386","co37948","norming","","","","","","",""
"null","../img/tt/1175tt.jpg","null","mooney2","image-keyboard-response","67","371969","0.0-6.0-5.8","2526386","co37948","norming","","","","","","",""
"3823.355000000447","","","post_reveal_questions","survey-likert","68","375795","0.0-6.0-6.8","2526386","co37948","norming","","","{""aha"":4}","[0]","../img/tt/1175tt.jpg","",""
"null","<div style=""font-size:60px;""> </div>","null","fixation","html-keyboard-response","69","376005","0.0-6.0-0.9","2526386","co37948","norming","","","","","","",""
"null","../img/tt/1200tt.jpg","null","mooney1","image-keyboard-response","70","379007","0.0-6.0-1.9","2526386","co37948","norming","","","","","","",""
"5434.449999942444","","","post_mooney1_questions","survey-likert","71","384444","0.0-6.0-2.9","2526386","co37948","norming","","","{""curiosity"":4,""confidence"":4}","[0,1]","../img/tt/1200tt.jpg","",""
"3220.735000097193","","","recognition","survey-text","72","387668","0.0-6.0-3.9","2526386","co37948","norming","","","{""guess"":""formule 1""}","","../img/tt/1200tt.jpg","",""
"null","../img/gs/1200gs.jpg","null","reveal","image-keyboard-response","73","389671","0.0-6.0-4.9","2526386","co37948","norming","","","","","","",""
"null","../img/tt/1200tt.jpg","null","mooney2","image-keyboard-response","74","391678","0.0-6.0-5.9","2526386","co37948","norming","","","","","","",""
"4715.1750000193715","","","post_reveal_questions","survey-likert","75","396396","0.0-6.0-6.9","2526386","co37948","norming","","","{""aha"":6}","[0]","../img/tt/1200tt.jpg","",""
"null","<div style=""font-size:60px;""> </div>","null","fixation","html-keyboard-response","76","396598","0.0-6.0-0.10","2526386","co37948","norming","","","","","","",""
"null","../img/tt/468tt.jpg","null","mooney1","image-keyboard-response","77","399601","0.0-6.0-1.10","2526386","co37948","norming","","","","","","",""
"8373.049999936484","","","post_mooney1_questions","survey-likert","78","407976","0.0-6.0-2.10","2526386","co37948","norming","","","{""curiosity"":6,""confidence"":2}","[0,1]","../img/tt/468tt.jpg","",""
"1956.4650000538677","","","recognition","survey-text","79","409937","0.0-6.0-3.10","2526386","co37948","norming","","","{""guess"":""cello""}","","../img/tt/468tt.jpg","",""
"null","../img/gs/468gs.jpg","null","reveal","image-keyboard-response","80","411942","0.0-6.0-4.10","2526386","co37948","norming","","","","","","",""
"null","../img/tt/468tt.jpg","null","mooney2","image-keyboard-response","81","413944","0.0-6.0-5.10","2526386","co37948","norming","","","","","","",""
"3379.0850000223145","","","post_reveal_questions","survey-likert","82","417325","0.0-6.0-6.10","2526386","co37948","norming","","","{""aha"":5}","[0]","../img/tt/468tt.jpg","",""
"null","<div style=""font-size:60px;""> </div>","null","fixation","html-keyboard-response","83","417533","0.0-6.0-0.11","2526386","co37948","norming","","","","","","",""
"null","../img/tt/1254tt.jpg","null","mooney1","image-keyboard-response","84","420537","0.0-6.0-1.11","2526386","co37948","norming","","","","","","",""
"4258.74499999918","","","post_mooney1_questions","survey-likert","85","424798","0.0-6.0-2.11","2526386","co37948","norming","","","{""curiosity"":5,""confidence"":2}","[0,1]","../img/tt/1254tt.jpg","",""
"2739.820000017062","","","recognition","survey-text","86","427542","0.0-6.0-3.11","2526386","co37948","norming","","","{""guess"":""konijn""}","","../img/tt/1254tt.jpg","",""
"null","../img/gs/1254gs.jpg","null","reveal","image-keyboard-response","87","429557","0.0-6.0-4.11","2526386","co37948","norming","","","","","","",""
"null","../img/tt/1254tt.jpg","null","mooney2","image-keyboard-response","88","431562","0.0-6.0-5.11","2526386","co37948","norming","","","","","","",""
"4225.929999956861","","","post_reveal_questions","survey-likert","89","435790","0.0-6.0-6.11","2526386","co37948","norming","","","{""aha"":2}","[0]","../img/tt/1254tt.jpg","",""
"null","<div style=""font-size:60px;""> </div>","null","fixation","html-keyboard-response","90","435995","0.0-6.0-0.12","2526386","co37948","norming","","","","","","",""
"null","../img/tt/1363tt.jpg","null","mooney1","image-keyboard-response","91","439000","0.0-6.0-1.12","2526386","co37948","norming","","","","","","",""
"8119.565000059083","","","post_mooney1_questions","survey-likert","92","447122","0.0-6.0-2.12","2526386","co37948","norming","","","{""curiosity"":5,""confidence"":2}","[0,1]","../img/tt/1363tt.jpg","",""
"3372.6500000339","","","recognition","survey-text","93","450500","0.0-6.0-3.12","2526386","co37948","norming","","","{""guess"":""olielamp""}","","../img/tt/1363tt.jpg","",""
"null","../img/gs/1363gs.jpg","null","reveal","image-keyboard-response","94","452505","0.0-6.0-4.12","2526386","co37948","norming","","","","","","",""
"null","../img/tt/1363tt.jpg","null","mooney2","image-keyboard-response","95","454509","0.0-6.0-5.12","2526386","co37948","norming","","","","","","",""
"3892.5649999873713","","","post_reveal_questions","survey-likert","96","458403","0.0-6.0-6.12","2526386","co37948","norming","","","{""aha"":5}","[0]","../img/tt/1363tt.jpg","",""
"null","<div style=""font-size:60px;""> </div>","null","fixation","html-keyboard-response","97","458610","0.0-6.0-0.13","2526386","co37948","norming","","","","","","",""
"null","../img/tt/599tt.jpg","null","mooney1","image-keyboard-response","98","461615","0.0-6.0-1.13","2526386","co37948","norming","","","","","","",""
"7200.139999971725","","","post_mooney1_questions","survey-likert","99","468818","0.0-6.0-2.13","2526386","co37948","norming","","","{""curiosity"":5,""confidence"":5}","[0,1]","../img/tt/599tt.jpg","",""
"1589.3749999813735","","","recognition","survey-text","100","470411","0.0-6.0-3.13","2526386","co37948","norming","","","{""guess"":""uil""}","","../img/tt/599tt.jpg","",""
"null","../img/gs/599gs.jpg","null","reveal","image-keyboard-response","101","472417","0.0-6.0-4.13","2526386","co37948","norming","","","","","","",""
"null","../img/tt/599tt.jpg","null","mooney2","image-keyboard-response","102","474423","0.0-6.0-5.13","2526386","co37948","norming","","","","","","",""
"3668.835000018589","","","post_reveal_questions","survey-likert","103","478094","0.0-6.0-6.13","2526386","co37948","norming","","","{""aha"":1}","[0]","../img/tt/599tt.jpg","",""
"null","<div style=""font-size:60px;""> </div>","null","fixation","html-keyboard-response","104","478297","0.0-6.0-0.14","2526386","co37948","norming","","","","","","",""
"null","../img/tt/118tt.jpg","null","mooney1","image-keyboard-response","105","481300","0.0-6.0-1.14","2526386","co37948","norming","","","","","","",""
"5232.949999975972","","","post_mooney1_questions","survey-likert","106","486535","0.0-6.0-2.14","2526386","co37948","norming","","","{""curiosity"":6,""confidence"":2}","[0,1]","../img/tt/118tt.jpg","",""
"1666.3900000276044","","","recognition","survey-text","107","488205","0.0-6.0-3.14","2526386","co37948","norming","","","{""guess"":""boot""}","","../img/tt/118tt.jpg","",""
"null","../img/gs/118gs.jpg","null","reveal","image-keyboard-response","108","490208","0.0-6.0-4.14","2526386","co37948","norming","","","","","","",""
"null","../img/tt/118tt.jpg","null","mooney2","image-keyboard-response","109","492212","0.0-6.0-5.14","2526386","co37948","norming","","","","","","",""
"3057.660000049509","","","post_reveal_questions","survey-likert","110","495271","0.0-6.0-6.14","2526386","co37948","norming","","","{""aha"":6}","[0]","../img/tt/118tt.jpg","",""
"null","<div style=""font-size:60px;""> </div>","null","fixation","html-keyboard-response","111","495479","0.0-6.0-0.15","2526386","co37948","norming","","","","","","",""
"null","../img/tt/300tt.jpg","null","mooney1","image-keyboard-response","112","498485","0.0-6.0-1.15","2526386","co37948","norming","","","","","","",""
"8284.354999894276","","","post_mooney1_questions","survey-likert","113","506771","0.0-6.0-2.15","2526386","co37948","norming","","","{""curiosity"":4,""confidence"":3}","[0,1]","../img/tt/300tt.jpg","",""
"2290.1700000511482","","","recognition","survey-text","114","509066","0.0-6.0-3.15","2526386","co37948","norming","","","{""guess"":""boot""}","","../img/tt/300tt.jpg","",""
"null","../img/gs/300gs.jpg","null","reveal","image-keyboard-response","115","511069","0.0-6.0-4.15","2526386","co37948","norming","","","","","","",""
"null","../img/tt/300tt.jpg","null","mooney2","image-keyboard-response","116","513070","0.0-6.0-5.15","2526386","co37948","norming","","","","","","",""
"3460.160000016913","","","post_reveal_questions","survey-likert","117","516532","0.0-6.0-6.15","2526386","co37948","norming","","","{""aha"":4}","[0]","../img/tt/300tt.jpg","",""
"null","<div style=""font-size:60px;""> </div>","null","fixation","html-keyboard-response","118","516739","0.0-6.0-0.16","2526386","co37948","norming","","","","","","",""
"null","../img/tt/1243tt.jpg","null","mooney1","image-keyboard-response","119","519742","0.0-6.0-1.16","2526386","co37948","norming","","","","","","",""
"7207.560000009835","","","post_mooney1_questions","survey-likert","120","526953","0.0-6.0-2.16","2526386","co37948","norming","","","{""curiosity"":5,""confidence"":4}","[0,1]","../img/tt/1243tt.jpg","",""
"1478.1749999383464","","","recognition","survey-text","121","528435","0.0-6.0-3.16","2526386","co37948","norming","","","{""guess"":""beer""}","","../img/tt/1243tt.jpg","",""
"null","../img/gs/1243gs.jpg","null","reveal","image-keyboard-response","122","530443","0.0-6.0-4.16","2526386","co37948","norming","","","","","","",""
"null","../img/tt/1243tt.jpg","null","mooney2","image-keyboard-response","123","532447","0.0-6.0-5.16","2526386","co37948","norming","","","","","","",""
"3351.60499997437","","","post_reveal_questions","survey-likert","124","535801","0.0-6.0-6.16","2526386","co37948","norming","","","{""aha"":6}","[0]","../img/tt/1243tt.jpg","",""
"null","<div style=""font-size:60px;""> </div>","null","fixation","html-keyboard-response","125","536005","0.0-6.0-0.17","2526386","co37948","norming","","","","","","",""
"null","../img/tt/1128tt.jpg","null","mooney1","image-keyboard-response","126","539007","0.0-6.0-1.17","2526386","co37948","norming","","","","","","",""
"5932.5999999418855","","","post_mooney1_questions","survey-likert","127","544943","0.0-6.0-2.17","2526386","co37948","norming","","","{""curiosity"":5,""confidence"":5}","[0,1]","../img/tt/1128tt.jpg","",""
"1496.1549999425188","","","recognition","survey-text","128","546443","0.0-6.0-3.17","2526386","co37948","norming","","","{""guess"":""aap""}","","../img/tt/1128tt.jpg","",""
"null","../img/gs/1128gs.jpg","null","reveal","image-keyboard-response","129","548450","0.0-6.0-4.17","2526386","co37948","norming","","","","","","",""
"null","../img/tt/1128tt.jpg","null","mooney2","image-keyboard-response","130","550452","0.0-6.0-5.17","2526386","co37948","norming","","","","","","",""
"3217.9100000066683","","","post_reveal_questions","survey-likert","131","553672","0.0-6.0-6.17","2526386","co37948","norming","","","{""aha"":6}","[0]","../img/tt/1128tt.jpg","",""
"null","<div style=""font-size:60px;""> </div>","null","fixation","html-keyboard-response","132","553874","0.0-6.0-0.18","2526386","co37948","norming","","","","","","",""
"null","../img/tt/076tt.jpg","null","mooney1","image-keyboard-response","133","556880","0.0-6.0-1.18","2526386","co37948","norming","","","","","","",""
"4843.074999982491","","","post_mooney1_questions","survey-likert","134","561726","0.0-6.0-2.18","2526386","co37948","norming","","","{""curiosity"":4,""confidence"":5}","[0,1]","../img/tt/076tt.jpg","",""
"2070.850000018254","","","recognition","survey-text","135","563801","0.0-6.0-3.18","2526386","co37948","norming","","","{""guess"":""skates""}","","../img/tt/076tt.jpg","",""
"null","../img/gs/076gs.jpg","null","reveal","image-keyboard-response","136","565804","0.0-6.0-4.18","2526386","co37948","norming","","","","","","",""
"null","../img/tt/076tt.jpg","null","mooney2","image-keyboard-response","137","567806","0.0-6.0-5.18","2526386","co37948","norming","","","","","","",""
"2949.2649999447167","","","post_reveal_questions","survey-likert","138","570757","0.0-6.0-6.18","2526386","co37948","norming","","","{""aha"":2}","[0]","../img/tt/076tt.jpg","",""
"null","<div style=""font-size:60px;""> </div>","null","fixation","html-keyboard-response","139","570964","0.0-6.0-0.19","2526386","co37948","norming","","","","","","",""
"null","../img/tt/1123tt.jpg","null","mooney1","image-keyboard-response","140","573970","0.0-6.0-1.19","2526386","co37948","norming","","","","","","",""
"5622.419999912381","","","post_mooney1_questions","survey-likert","141","579596","0.0-6.0-2.19","2526386","co37948","norming","","","{""curiosity"":3,""confidence"":5}","[0,1]","../img/tt/1123tt.jpg","",""
"2551.795000093989","","","recognition","survey-text","142","582152","0.0-6.0-3.19","2526386","co37948","norming","","","{""guess"":""voetbal""}","","../img/tt/1123tt.jpg","",""
"null","../img/gs/1123gs.jpg","null","reveal","image-keyboard-response","143","584165","0.0-6.0-4.19","2526386","co37948","norming","","","","","","",""
"null","../img/tt/1123tt.jpg","null","mooney2","image-keyboard-response","144","586170","0.0-6.0-5.19","2526386","co37948","norming","","","","","","",""
"2564.134999993257","","","post_reveal_questions","survey-likert","145","588736","0.0-6.0-6.19","2526386","co37948","norming","","","{""aha"":3}","[0]","../img/tt/1123tt.jpg","",""
"null","<div style=""font-size:60px;""> </div>","null","fixation","html-keyboard-response","146","588938","0.0-6.0-0.20","2526386","co37948","norming","","","","","","",""
"null","../img/tt/1262tt.jpg","null","mooney1","image-keyboard-response","147","591944","0.0-6.0-1.20","2526386","co37948","norming","","","","","","",""
"8187.259999918751","","","post_mooney1_questions","survey-likert","148","600134","0.0-6.0-2.20","2526386","co37948","norming","","","{""curiosity"":6,""confidence"":4}","[0,1]","../img/tt/1262tt.jpg","",""
"872.0200000097975","","","recognition","survey-text","149","601010","0.0-6.0-3.20","2526386","co37948","norming","","","{""guess"":""vos""}","","../img/tt/1262tt.jpg","",""
"null","../img/gs/1262gs.jpg","null","reveal","image-keyboard-response","150","603018","0.0-6.0-4.20","2526386","co37948","norming","","","","","","",""
"null","../img/tt/1262tt.jpg","null","mooney2","image-keyboard-response","151","605024","0.0-6.0-5.20","2526386","co37948","norming","","","","","","",""
"2692.4899999285117","","","post_reveal_questions","survey-likert","152","607718","0.0-6.0-6.20","2526386","co37948","norming","","","{""aha"":5}","[0]","../img/tt/1262tt.jpg","",""
"null","<div style=""font-size:60px;""> </div>","null","fixation","html-keyboard-response","153","607941","0.0-6.0-0.21","2526386","co37948","norming","","","","","","",""
"null","../img/tt/1142tt.jpg","null","mooney1","image-keyboard-response","154","610946","0.0-6.0-1.21","2526386","co37948","norming","","","","","","",""
"7050.835000001825","","","post_mooney1_questions","survey-likert","155","617999","0.0-6.0-2.21","2526386","co37948","norming","","","{""curiosity"":5,""confidence"":4}","[0,1]","../img/tt/1142tt.jpg","",""
"3308.8449999922886","","","recognition","survey-text","156","621312","0.0-6.0-3.21","2526386","co37948","norming","","","{""guess"":""verspringen""}","","../img/tt/1142tt.jpg","",""
"null","../img/gs/1142gs.jpg","null","reveal","image-keyboard-response","157","623323","0.0-6.0-4.21","2526386","co37948","norming","","","","","","",""
"null","../img/tt/1142tt.jpg","null","mooney2","image-keyboard-response","158","625341","0.0-6.0-5.21","2526386","co37948","norming","","","","","","",""
"2949.3550000479445","","","post_reveal_questions","survey-likert","159","628292","0.0-6.0-6.21","2526386","co37948","norming","","","{""aha"":2}","[0]","../img/tt/1142tt.jpg","",""
"null","<div style=""font-size:60px;""> </div>","null","fixation","html-keyboard-response","160","628495","0.0-6.0-0.22","2526386","co37948","norming","","","","","","",""
"null","../img/tt/040tt.jpg","null","mooney1","image-keyboard-response","161","631500","0.0-6.0-1.22","2526386","co37948","norming","","","","","","",""
"6420.174999977462","","","post_mooney1_questions","survey-likert","162","637923","0.0-6.0-2.22","2526386","co37948","norming","","","{""curiosity"":6,""confidence"":3}","[0,1]","../img/tt/040tt.jpg","",""
"1678.6800000118092","","","recognition","survey-text","163","639606","0.0-6.0-3.22","2526386","co37948","norming","","","{""guess"":""judo""}","","../img/tt/040tt.jpg","",""
"null","../img/gs/040gs.jpg","null","reveal","image-keyboard-response","164","641611","0.0-6.0-4.22","2526386","co37948","norming","","","","","","",""
"null","../img/tt/040tt.jpg","null","mooney2","image-keyboard-response","165","643613","0.0-6.0-5.22","2526386","co37948","norming","","","","","","",""
"2606.7100000800565","","","post_reveal_questions","survey-likert","166","646222","0.0-6.0-6.22","2526386","co37948","norming","","","{""aha"":6}","[0]","../img/tt/040tt.jpg","",""
"null","<div style=""font-size:60px;""> </div>","null","fixation","html-keyboard-response","167","646426","0.0-6.0-0.23","2526386","co37948","norming","","","","","","",""
"null","../img/tt/1159tt.jpg","null","mooney1","image-keyboard-response","168","649432","0.0-6.0-1.23","2526386","co37948","norming","","","","","","",""
"6810.214999946766","","","post_mooney1_questions","survey-likert","169","656245","0.0-6.0-2.23","2526386","co37948","norming","","","{""curiosity"":5,""confidence"":0}","[0,1]","../img/tt/1159tt.jpg","",""
"1540.525000076741","","","recognition","survey-text","170","657790","0.0-6.0-3.23","2526386","co37948","norming","","","{""guess"":""""}","","../img/tt/1159tt.jpg","",""
"null","../img/gs/1159gs.jpg","null","reveal","image-keyboard-response","171","659794","0.0-6.0-4.23","2526386","co37948","norming","","","","","","",""
"null","../img/tt/1159tt.jpg","null","mooney2","image-keyboard-response","172","661799","0.0-6.0-5.23","2526386","co37948","norming","","","","","","",""
"4889.844999997877","","","post_reveal_questions","survey-likert","173","666691","0.0-6.0-6.23","2526386","co37948","norming","","","{""aha"":5}","[0]","../img/tt/1159tt.jpg","",""
"null","<div style=""font-size:60px;""> </div>","null","fixation","html-keyboard-response","174","666894","0.0-6.0-0.24","2526386","co37948","norming","","","","","","",""
"null","../img/tt/1049tt.jpg","null","mooney1","image-keyboard-response","175","669897","0.0-6.0-1.24","2526386","co37948","norming","","","","","","",""
"6662.050000042655","","","post_mooney1_questions","survey-likert","176","676562","0.0-6.0-2.24","2526386","co37948","norming","","","{""curiosity"":6,""confidence"":3}","[0,1]","../img/tt/1049tt.jpg","",""
"7235.355000011623","","","recognition","survey-text","177","683801","0.0-6.0-3.24","2526386","co37948","norming","","","{""guess"":""konijn""}","","../img/tt/1049tt.jpg","",""
"null","../img/gs/1049gs.jpg","null","reveal","image-keyboard-response","178","685804","0.0-6.0-4.24","2526386","co37948","norming","","","","","","",""
"null","../img/tt/1049tt.jpg","null","mooney2","image-keyboard-response","179","687806","0.0-6.0-5.24","2526386","co37948","norming","","","","","","",""
"7644.425000064075","","","post_reveal_questions","survey-likert","180","695452","0.0-6.0-6.24","2526386","co37948","norming","","","{""aha"":4}","[0]","../img/tt/1049tt.jpg","",""
"null","<div style=""font-size:60px;""> </div>","null","fixation","html-keyboard-response","181","695657","0.0-6.0-0.25","2526386","co37948","norming","","","","","","",""
"null","../img/tt/124tt.jpg","null","mooney1","image-keyboard-response","182","698661","0.0-6.0-1.25","2526386","co37948","norming","","","","","","",""
"5327.69000006374","","","post_mooney1_questions","survey-likert","183","703991","0.0-6.0-2.25","2526386","co37948","norming","","","{""curiosity"":5,""confidence"":4}","[0,1]","../img/tt/124tt.jpg","",""
"2786.865000030957","","","recognition","survey-text","184","706782","0.0-6.0-3.25","2526386","co37948","norming","","","{""guess"":""panda""}","","../img/tt/124tt.jpg","",""
"null","../img/gs/124gs.jpg","null","reveal","image-keyboard-response","185","708786","0.0-6.0-4.25","2526386","co37948","norming","","","","","","",""
"null","../img/tt/124tt.jpg","null","mooney2","image-keyboard-response","186","710789","0.0-6.0-5.25","2526386","co37948","norming","","","","","","",""
"6303.2550000352785","","","post_reveal_questions","survey-likert","187","717095","0.0-6.0-6.25","2526386","co37948","norming","","","{""aha"":5}","[0]","../img/tt/124tt.jpg","",""
"null","<div style=""font-size:60px;""> </div>","null","fixation","html-keyboard-response","188","717297","0.0-6.0-0.26","2526386","co37948","norming","","","","","","",""
"null","../img/tt/1161tt.jpg","null","mooney1","image-keyboard-response","189","720300","0.0-6.0-1.26","2526386","co37948","norming","","","","","","",""
"6249.219999997877","","","post_mooney1_questions","survey-likert","190","726551","0.0-6.0-2.26","2526386","co37948","norming","","","{""curiosity"":6,""confidence"":5}","[0,1]","../img/tt/1161tt.jpg","",""
"1377.0999999251217","","","recognition","survey-text","191","727933","0.0-6.0-3.26","2526386","co37948","norming","","","{""guess"":""surfer""}","","../img/tt/1161tt.jpg","",""
"null","../img/gs/1161gs.jpg","null","reveal","image-keyboard-response","192","729936","0.0-6.0-4.26","2526386","co37948","norming","","","","","","",""
"null","../img/tt/1161tt.jpg","null","mooney2","image-keyboard-response","193","731940","0.0-6.0-5.26","2526386","co37948","norming","","","","","","",""
"3129.2949999915436","","","post_reveal_questions","survey-likert","194","735071","0.0-6.0-6.26","2526386","co37948","norming","","","{""aha"":6}","[0]","../img/tt/1161tt.jpg","",""
"null","<div style=""font-size:60px;""> </div>","null","fixation","html-keyboard-response","195","735275","0.0-6.0-0.27","2526386","co37948","norming","","","","","","",""
"null","../img/tt/1148tt.jpg","null","mooney1","image-keyboard-response","196","738278","0.0-6.0-1.27","2526386","co37948","norming","","","","","","",""
"6995.2099999645725","","","post_mooney1_questions","survey-likert","197","745276","0.0-6.0-2.27","2526386","co37948","norming","","","{""curiosity"":6,""confidence"":5}","[0,1]","../img/tt/1148tt.jpg","",""
"2508.659999934025","","","recognition","survey-text","198","747789","0.0-6.0-3.27","2526386","co37948","norming","","","{""guess"":""roeier""}","","../img/tt/1148tt.jpg","",""
"null","../img/gs/1148gs.jpg","null","reveal","image-keyboard-response","199","749805","0.0-6.0-4.27","2526386","co37948","norming","","","","","","",""
"null","../img/tt/1148tt.jpg","null","mooney2","image-keyboard-response","200","751810","0.0-6.0-5.27","2526386","co37948","norming","","","","","","",""
"3940.239999908954","","","post_reveal_questions","survey-likert","201","755752","0.0-6.0-6.27","2526386","co37948","norming","","","{""aha"":5}","[0]","../img/tt/1148tt.jpg","",""
"null","<div style=""font-size:60px;""> </div>","null","fixation","html-keyboard-response","202","755958","0.0-6.0-0.28","2526386","co37948","norming","","","","","","",""
"null","../img/tt/121tt.jpg","null","mooney1","image-keyboard-response","203","758976","0.0-6.0-1.28","2526386","co37948","norming","","","","","","",""
"9467.270000022836","","","post_mooney1_questions","survey-likert","204","768446","0.0-6.0-2.28","2526386","co37948","norming","","","{""curiosity"":5,""confidence"":0}","[0,1]","../img/tt/121tt.jpg","",""
"558.530000038445","","","recognition","survey-text","205","769008","0.0-6.0-3.28","2526386","co37948","norming","","","{""guess"":""""}","","../img/tt/121tt.jpg","",""
"null","../img/gs/121gs.jpg","null","reveal","image-keyboard-response","206","771015","0.0-6.0-4.28","2526386","co37948","norming","","","","","","",""
"null","../img/tt/121tt.jpg","null","mooney2","image-keyboard-response","207","773020","0.0-6.0-5.28","2526386","co37948","norming","","","","","","",""
"4837.470000027679","","","post_reveal_questions","survey-likert","208","777859","0.0-6.0-6.28","2526386","co37948","norming","","","{""aha"":6}","[0]","../img/tt/121tt.jpg","",""
"null","<div style=""font-size:60px;""> </div>","null","fixation","html-keyboard-response","209","778062","0.0-6.0-0.29","2526386","co37948","norming","","","","","","",""
"null","../img/tt/1227tt.jpg","null","mooney1","image-keyboard-response","210","781068","0.0-6.0-1.29","2526386","co37948","norming","","","","","","",""
"10141.689999960363","","","post_mooney1_questions","survey-likert","211","791213","0.0-6.0-2.29","2526386","co37948","norming","","","{""curiosity"":5,""confidence"":5}","[0,1]","../img/tt/1227tt.jpg","",""
"1344.1000001039356","","","recognition","survey-text","212","792561","0.0-6.0-3.29","2526386","co37948","norming","","","{""guess"":""kip""}","","../img/tt/1227tt.jpg","",""
"null","../img/gs/1227gs.jpg","null","reveal","image-keyboard-response","213","794563","0.0-6.0-4.29","2526386","co37948","norming","","","","","","",""
"null","../img/tt/1227tt.jpg","null","mooney2","image-keyboard-response","214","796569","0.0-6.0-5.29","2526386","co37948","norming","","","","","","",""
"3260.93500002753","","","post_reveal_questions","survey-likert","215","799832","0.0-6.0-6.29","2526386","co37948","norming","","","{""aha"":2}","[0]","../img/tt/1227tt.jpg","",""
"null","<div style=""font-size:60px;""> </div>","null","fixation","html-keyboard-response","216","800036","0.0-6.0-0.30","2526386","co37948","norming","","","","","","",""
"null","../img/tt/1101tt.jpg","null","mooney1","image-keyboard-response","217","803042","0.0-6.0-1.30","2526386","co37948","norming","","","","","","",""
"5515.895000076853","","","post_mooney1_questions","survey-likert","218","808560","0.0-6.0-2.30","2526386","co37948","norming","","","{""curiosity"":5,""confidence"":5}","[0,1]","../img/tt/1101tt.jpg","",""
"2388.2100000046194","","","recognition","survey-text","219","810953","0.0-6.0-3.30","2526386","co37948","norming","","","{""guess"":""waterski""}","","../img/tt/1101tt.jpg","",""
"null","../img/gs/1101gs.jpg","null","reveal","image-keyboard-response","220","812964","0.0-6.0-4.30","2526386","co37948","norming","","","","","","",""
"null","../img/tt/1101tt.jpg","null","mooney2","image-keyboard-response","221","814968","0.0-6.0-5.30","2526386","co37948","norming","","","","","","",""
"3639.8950000293553","","","post_reveal_questions","survey-likert","222","818610","0.0-6.0-6.30","2526386","co37948","norming","","","{""aha"":2}","[0]","../img/tt/1101tt.jpg","",""
"null","<div style=""font-size:60px;""> </div>","null","fixation","html-keyboard-response","223","818816","0.0-6.0-0.31","2526386","co37948","norming","","","","","","",""
"null","../img/tt/078tt.jpg","null","mooney1","image-keyboard-response","224","821821","0.0-6.0-1.31","2526386","co37948","norming","","","","","","",""
"5862.880000029691","","","post_mooney1_questions","survey-likert","225","827685","0.0-6.0-2.31","2526386","co37948","norming","","","{""curiosity"":5,""confidence"":5}","[0,1]","../img/tt/078tt.jpg","",""
"1837.5949999317527","","","recognition","survey-text","226","829527","0.0-6.0-3.31","2526386","co37948","norming","","","{""guess"":""druiven""}","","../img/tt/078tt.jpg","",""
"null","../img/gs/078gs.jpg","null","reveal","image-keyboard-response","227","831530","0.0-6.0-4.31","2526386","co37948","norming","","","","","","",""
"null","../img/tt/078tt.jpg","null","mooney2","image-keyboard-response","228","833535","0.0-6.0-5.31","2526386","co37948","norming","","","","","","",""
"3585.0000000791624","","","post_reveal_questions","survey-likert","229","837122","0.0-6.0-6.31","2526386","co37948","norming","","","{""aha"":4}","[0]","../img/tt/078tt.jpg","",""
"null","<div style=""font-size:60px;""> </div>","null","fixation","html-keyboard-response","230","837341","0.0-6.0-0.32","2526386","co37948","norming","","","","","","",""
"null","../img/tt/438tt.jpg","null","mooney1","image-keyboard-response","231","840346","0.0-6.0-1.32","2526386","co37948","norming","","","","","","",""
"3332.634999998845","","","post_mooney1_questions","survey-likert","232","843682","0.0-6.0-2.32","2526386","co37948","norming","","","{""curiosity"":4,""confidence"":5}","[0,1]","../img/tt/438tt.jpg","",""
"4990.965000004508","","","recognition","survey-text","233","848677","0.0-6.0-3.32","2526386","co37948","norming","","","{""guess"":""vogel""}","","../img/tt/438tt.jpg","",""
"null","../img/gs/438gs.jpg","null","reveal","image-keyboard-response","234","850679","0.0-6.0-4.32","2526386","co37948","norming","","","","","","",""
"null","../img/tt/438tt.jpg","null","mooney2","image-keyboard-response","235","852681","0.0-6.0-5.32","2526386","co37948","norming","","","","","","",""
"3141.8899999698624","","","post_reveal_questions","survey-likert","236","855824","0.0-6.0-6.32","2526386","co37948","norming","","","{""aha"":5}","[0]","../img/tt/438tt.jpg","",""
"null","<div style=""font-size:60px;""> </div>","null","fixation","html-keyboard-response","237","856027","0.0-6.0-0.33","2526386","co37948","norming","","","","","","",""
"null","../img/tt/111tt.jpg","null","mooney1","image-keyboard-response","238","859030","0.0-6.0-1.33","2526386","co37948","norming","","","","","","",""
"6280.945000005886","","","post_mooney1_questions","survey-likert","239","865313","0.0-6.0-2.33","2526386","co37948","norming","","","{""curiosity"":6,""confidence"":1}","[0,1]","../img/tt/111tt.jpg","",""
"890.1250000344589","","","recognition","survey-text","240","866207","0.0-6.0-3.33","2526386","co37948","norming","","","{""guess"":""dier""}","","../img/tt/111tt.jpg","",""
"null","../img/gs/111gs.jpg","null","reveal","image-keyboard-response","241","868210","0.0-6.0-4.33","2526386","co37948","norming","","","","","","",""
"null","../img/tt/111tt.jpg","null","mooney2","image-keyboard-response","242","870212","0.0-6.0-5.33","2526386","co37948","norming","","","","","","",""
"5391.620000009425","","","post_reveal_questions","survey-likert","243","875606","0.0-6.0-6.33","2526386","co37948","norming","","","{""aha"":6}","[0]","../img/tt/111tt.jpg","",""
"null","<div style=""font-size:60px;""> </div>","null","fixation","html-keyboard-response","244","875823","0.0-6.0-0.34","2526386","co37948","norming","","","","","","",""
"null","../img/tt/319tt.jpg","null","mooney1","image-keyboard-response","245","878829","0.0-6.0-1.34","2526386","co37948","norming","","","","","","",""
"6974.670000025071","","","post_mooney1_questions","survey-likert","246","885806","0.0-6.0-2.34","2526386","co37948","norming","","","{""curiosity"":6,""confidence"":5}","[0,1]","../img/tt/319tt.jpg","",""
"1986.9300000136718","","","recognition","survey-text","247","887796","0.0-6.0-3.34","2526386","co37948","norming","","","{""guess"":""koe""}","","../img/tt/319tt.jpg","",""
"null","../img/gs/319gs.jpg","null","reveal","image-keyboard-response","248","889801","0.0-6.0-4.34","2526386","co37948","norming","","","","","","",""
"null","../img/tt/319tt.jpg","null","mooney2","image-keyboard-response","249","891805","0.0-6.0-5.34","2526386","co37948","norming","","","","","","",""
"2986.2750000320375","","","post_reveal_questions","survey-likert","250","894794","0.0-6.0-6.34","2526386","co37948","norming","","","{""aha"":5}","[0]","../img/tt/319tt.jpg","",""
"null","<div style=""font-size:60px;""> </div>","null","fixation","html-keyboard-response","251","894998","0.0-6.0-0.35","2526386","co37948","norming","","","","","","",""
"null","../img/tt/1255tt.jpg","null","mooney1","image-keyboard-response","252","898003","0.0-6.0-1.35","2526386","co37948","norming","","","","","","",""
"10876.850000000559","","","post_mooney1_questions","survey-likert","253","908883","0.0-6.0-2.35","2526386","co37948","norming","","","{""curiosity"":5,""confidence"":5}","[0,1]","../img/tt/1255tt.jpg","",""
"1429.119999986142","","","recognition","survey-text","254","910316","0.0-6.0-3.35","2526386","co37948","norming","","","{""guess"":""hond""}","","../img/tt/1255tt.jpg","",""
"null","../img/gs/1255gs.jpg","null","reveal","image-keyboard-response","255","912322","0.0-6.0-4.35","2526386","co37948","norming","","","","","","",""
"null","../img/tt/1255tt.jpg","null","mooney2","image-keyboard-response","256","914324","0.0-6.0-5.35","2526386","co37948","norming","","","","","","",""
"3007.385000004433","","","post_reveal_questions","survey-likert","257","917334","0.0-6.0-6.35","2526386","co37948","norming","","","{""aha"":5}","[0]","../img/tt/1255tt.jpg","",""
"null","<div style=""font-size:60px;""> </div>","null","fixation","html-keyboard-response","258","917537","0.0-6.0-0.36","2526386","co37948","norming","","","","","","",""
"null","../img/tt/456tt.jpg","null","mooney1","image-keyboard-response","259","920542","0.0-6.0-1.36","2526386","co37948","norming","","","","","","",""
"4103.570000035688","","","post_mooney1_questions","survey-likert","260","924648","0.0-6.0-2.36","2526386","co37948","norming","","","{""curiosity"":5,""confidence"":5}","[0,1]","../img/tt/456tt.jpg","",""
"1385.5149999726564","","","recognition","survey-text","261","926038","0.0-6.0-3.36","2526386","co37948","norming","","","{""guess"":""slang""}","","../img/tt/456tt.jpg","",""
"null","../img/gs/456gs.jpg","null","reveal","image-keyboard-response","262","928041","0.0-6.0-4.36","2526386","co37948","norming","","","","","","",""
"null","../img/tt/456tt.jpg","null","mooney2","image-keyboard-response","263","930042","0.0-6.0-5.36","2526386","co37948","norming","","","","","","",""
"5570.739999995567","","","post_reveal_questions","survey-likert","264","935615","0.0-6.0-6.36","2526386","co37948","norming","","","{""aha"":6}","[0]","../img/tt/456tt.jpg","",""
"null","<div style=""font-size:60px;""> </div>","null","fixation","html-keyboard-response","265","935817","0.0-6.0-0.37","2526386","co37948","norming","","","","","","",""
"null","../img/tt/1190tt.jpg","null","mooney1","image-keyboard-response","266","938823","0.0-6.0-1.37","2526386","co37948","norming","","","","","","",""
"5533.694999990985","","","post_mooney1_questions","survey-likert","267","944359","0.0-6.0-2.37","2526386","co37948","norming","","","{""curiosity"":5,""confidence"":4}","[0,1]","../img/tt/1190tt.jpg","",""
"1906.8149999948218","","","recognition","survey-text","268","946270","0.0-6.0-3.37","2526386","co37948","norming","","","{""guess"":""kat""}","","../img/tt/1190tt.jpg","",""
"null","../img/gs/1190gs.jpg","null","reveal","image-keyboard-response","269","948273","0.0-6.0-4.37","2526386","co37948","norming","","","","","","",""
"null","../img/tt/1190tt.jpg","null","mooney2","image-keyboard-response","270","950277","0.0-6.0-5.37","2526386","co37948","norming","","","","","","",""
"6316.519999993034","","","post_reveal_questions","survey-likert","271","956596","0.0-6.0-6.37","2526386","co37948","norming","","","{""aha"":5}","[0]","../img/tt/1190tt.jpg","",""
"null","<div style=""font-size:60px;""> </div>","null","fixation","html-keyboard-response","272","956798","0.0-6.0-0.38","2526386","co37948","norming","","","","","","",""
"null","../img/tt/378tt.jpg","null","mooney1","image-keyboard-response","273","959801","0.0-6.0-1.38","2526386","co37948","norming","","","","","","",""
"5773.504999931902","","","post_mooney1_questions","survey-likert","274","965577","0.0-6.0-2.38","2526386","co37948","norming","","","{""curiosity"":4,""confidence"":1}","[0,1]","../img/tt/378tt.jpg","",""
"323.3799999579787","","","recognition","survey-text","275","965905","0.0-6.0-3.38","2526386","co37948","norming","","","{""guess"":""""}","","../img/tt/378tt.jpg","",""
"null","../img/gs/378gs.jpg","null","reveal","image-keyboard-response","276","967916","0.0-6.0-4.38","2526386","co37948","norming","","","","","","",""
"null","../img/tt/378tt.jpg","null","mooney2","image-keyboard-response","277","969923","0.0-6.0-5.38","2526386","co37948","norming","","","","","","",""
"3541.079999995418","","","post_reveal_questions","survey-likert","278","973466","0.0-6.0-6.38","2526386","co37948","norming","","","{""aha"":5}","[0]","../img/tt/378tt.jpg","",""
"null","<div style=""font-size:60px;""> </div>","null","fixation","html-keyboard-response","279","973668","0.0-6.0-0.39","2526386","co37948","norming","","","","","","",""
"null","../img/tt/567tt.jpg","null","mooney1","image-keyboard-response","280","976675","0.0-6.0-1.39","2526386","co37948","norming","","","","","","",""
"3489.5500000566244","","","post_mooney1_questions","survey-likert","281","980166","0.0-6.0-2.39","2526386","co37948","norming","","","{""curiosity"":5,""confidence"":6}","[0,1]","../img/tt/567tt.jpg","",""
"2560.380000039004","","","recognition","survey-text","282","982731","0.0-6.0-3.39","2526386","co37948","norming","","","{""guess"":""broodrooster""}","","../img/tt/567tt.jpg","",""
"null","../img/gs/567gs.jpg","null","reveal","image-keyboard-response","283","984737","0.0-6.0-4.39","2526386","co37948","norming","","","","","","",""
"null","../img/tt/567tt.jpg","null","mooney2","image-keyboard-response","284","986740","0.0-6.0-5.39","2526386","co37948","norming","","","","","","",""
"2148.9800000563264","","","post_reveal_questions","survey-likert","285","988891","0.0-6.0-6.39","2526386","co37948","norming","","","{""aha"":5}","[0]","../img/tt/567tt.jpg","",""
"null","<div style=""font-size:60px;""> </div>","null","fixation","html-keyboard-response","286","989095","0.0-6.0-0.40","2526386","co37948","norming","","","","","","",""
"null","../img/tt/315tt.jpg","null","mooney1","image-keyboard-response","287","992098","0.0-6.0-1.40","2526386","co37948","norming","","","","","","",""
"5395.845000050031","","","post_mooney1_questions","survey-likert","288","997497","0.0-6.0-2.40","2526386","co37948","norming","","","{""curiosity"":4,""confidence"":5}","[0,1]","../img/tt/315tt.jpg","",""
"1657.6549999881536","","","recognition","survey-text","289","999159","0.0-6.0-3.40","2526386","co37948","norming","","","{""guess"":""valk""}","","../img/tt/315tt.jpg","",""
"null","../img/gs/315gs.jpg","null","reveal","image-keyboard-response","290","1001164","0.0-6.0-4.40","2526386","co37948","norming","","","","","","",""
"null","../img/tt/315tt.jpg","null","mooney2","image-keyboard-response","291","1003167","0.0-6.0-5.40","2526386","co37948","norming","","","","","","",""
"2820.1150000095367","","","post_reveal_questions","survey-likert","292","1005989","0.0-6.0-6.40","2526386","co37948","norming","","","{""aha"":5}","[0]","../img/tt/315tt.jpg","",""
"null","<div style=""font-size:60px;""> </div>","null","fixation","html-keyboard-response","293","1006194","0.0-6.0-0.41","2526386","co37948","norming","","","","","","",""
"null","../img/tt/1242tt.jpg","null","mooney1","image-keyboard-response","294","1009196","0.0-6.0-1.41","2526386","co37948","norming","","","","","","",""
"4849.649999989197","","","post_mooney1_questions","survey-likert","295","1014048","0.0-6.0-2.41","2526386","co37948","norming","","","{""curiosity"":4,""confidence"":5}","[0,1]","../img/tt/1242tt.jpg","",""
"1566.7400000384077","","","recognition","survey-text","296","1015619","0.0-6.0-3.41","2526386","co37948","norming","","","{""guess"":""hond""}","","../img/tt/1242tt.jpg","",""
"null","../img/gs/1242gs.jpg","null","reveal","image-keyboard-response","297","1017632","0.0-6.0-4.41","2526386","co37948","norming","","","","","","",""
"null","../img/tt/1242tt.jpg","null","mooney2","image-keyboard-response","298","1019636","0.0-6.0-5.41","2526386","co37948","norming","","","","","","",""
"5617.620000033639","","","post_reveal_questions","survey-likert","299","1025256","0.0-6.0-6.41","2526386","co37948","norming","","","{""aha"":5}","[0]","../img/tt/1242tt.jpg","",""
"null","<div style=""font-size:60px;""> </div>","null","fixation","html-keyboard-response","300","1025463","0.0-6.0-0.42","2526386","co37948","norming","","","","","","",""
"null","../img/tt/1078tt.jpg","null","mooney1","image-keyboard-response","301","1028466","0.0-6.0-1.42","2526386","co37948","norming","","","","","","",""
"6430.029999930412","","","post_mooney1_questions","survey-likert","302","1034898","0.0-6.0-2.42","2526386","co37948","norming","","","{""curiosity"":5,""confidence"":5}","[0,1]","../img/tt/1078tt.jpg","",""
"3002.80500005465","","","recognition","survey-text","303","1037905","0.0-6.0-3.42","2526386","co37948","norming","","","{""guess"":""schaatser""}","","../img/tt/1078tt.jpg","",""
"null","../img/gs/1078gs.jpg","null","reveal","image-keyboard-response","304","1039908","0.0-6.0-4.42","2526386","co37948","norming","","","","","","",""
"null","../img/tt/1078tt.jpg","null","mooney2","image-keyboard-response","305","1041913","0.0-6.0-5.42","2526386","co37948","norming","","","","","","",""
"4163.790000020526","","","post_reveal_questions","survey-likert","306","1046079","0.0-6.0-6.42","2526386","co37948","norming","","","{""aha"":4}","[0]","../img/tt/1078tt.jpg","",""
"null","<div style=""font-size:60px;""> </div>","null","fixation","html-keyboard-response","307","1046281","0.0-6.0-0.43","2526386","co37948","norming","","","","","","",""
"null","../img/tt/1044tt.jpg","null","mooney1","image-keyboard-response","308","1049287","0.0-6.0-1.43","2526386","co37948","norming","","","","","","",""
"5103.460000013001","","","post_mooney1_questions","survey-likert","309","1054394","0.0-6.0-2.43","2526386","co37948","norming","","","{""curiosity"":6,""confidence"":2}","[0,1]","../img/tt/1044tt.jpg","",""
"1445.5999999772757","","","recognition","survey-text","310","1055843","0.0-6.0-3.43","2526386","co37948","norming","","","{""guess"":""lamp""}","","../img/tt/1044tt.jpg","",""
"null","../img/gs/1044gs.jpg","null","reveal","image-keyboard-response","311","1057856","0.0-6.0-4.43","2526386","co37948","norming","","","","","","",""
"null","../img/tt/1044tt.jpg","null","mooney2","image-keyboard-response","312","1059858","0.0-6.0-5.43","2526386","co37948","norming","","","","","","",""
"3052.794999908656","","","post_reveal_questions","survey-likert","313","1062913","0.0-6.0-6.43","2526386","co37948","norming","","","{""aha"":6}","[0]","../img/tt/1044tt.jpg","",""
"null","<div style=""font-size:60px;""> </div>","null","fixation","html-keyboard-response","314","1063118","0.0-6.0-0.44","2526386","co37948","norming","","","","","","",""
"null","../img/tt/1070tt.jpg","null","mooney1","image-keyboard-response","315","1066121","0.0-6.0-1.44","2526386","co37948","norming","","","","","","",""
"5497.805000049993","","","post_mooney1_questions","survey-likert","316","1071621","0.0-6.0-2.44","2526386","co37948","norming","","","{""curiosity"":3,""confidence"":3}","[0,1]","../img/tt/1070tt.jpg","",""
"3391.8599999742582","","","recognition","survey-text","317","1075017","0.0-6.0-3.44","2526386","co37948","norming","","","{""guess"":""hotdog""}","","../img/tt/1070tt.jpg","",""
"null","../img/gs/1070gs.jpg","null","reveal","image-keyboard-response","318","1077030","0.0-6.0-4.44","2526386","co37948","norming","","","","","","",""
"null","../img/tt/1070tt.jpg","null","mooney2","image-keyboard-response","319","1079032","0.0-6.0-5.44","2526386","co37948","norming","","","","","","",""
"2950.6950000068173","","","post_reveal_questions","survey-likert","320","1081985","0.0-6.0-6.44","2526386","co37948","norming","","","{""aha"":5}","[0]","../img/tt/1070tt.jpg","",""
"null","<div style=""font-size:60px;""> </div>","null","fixation","html-keyboard-response","321","1082187","0.0-6.0-0.45","2526386","co37948","norming","","","","","","",""
"null","../img/tt/1012tt.jpg","null","mooney1","image-keyboard-response","322","1085191","0.0-6.0-1.45","2526386","co37948","norming","","","","","","",""
"4374.509999994189","","","post_mooney1_questions","survey-likert","323","1089569","0.0-6.0-2.45","2526386","co37948","norming","","","{""curiosity"":5,""confidence"":5}","[0,1]","../img/tt/1012tt.jpg","",""
"3841.0600000061095","","","recognition","survey-text","324","1093414","0.0-6.0-3.45","2526386","co37948","norming","","","{""guess"":""nijlpaard""}","","../img/tt/1012tt.jpg","",""
"null","../img/gs/1012gs.jpg","null","reveal","image-keyboard-response","325","1095417","0.0-6.0-4.45","2526386","co37948","norming","","","","","","",""
"null","../img/tt/1012tt.jpg","null","mooney2","image-keyboard-response","326","1097420","0.0-6.0-5.45","2526386","co37948","norming","","","","","","",""
"3010.560000082478","","","post_reveal_questions","survey-likert","327","1100432","0.0-6.0-6.45","2526386","co37948","norming","","","{""aha"":4}","[0]","../img/tt/1012tt.jpg","",""
"null","<div style=""font-size:60px;""> </div>","null","fixation","html-keyboard-response","328","1100635","0.0-6.0-0.46","2526386","co37948","norming","","","","","","",""
"null","../img/tt/1072tt.jpg","null","mooney1","image-keyboard-response","329","1103638","0.0-6.0-1.46","2526386","co37948","norming","","","","","","",""
"4728.67999994196","","","post_mooney1_questions","survey-likert","330","1108369","0.0-6.0-2.46","2526386","co37948","norming","","","{""curiosity"":5,""confidence"":4}","[0,1]","../img/tt/1072tt.jpg","",""
"1748.4750000294298","","","recognition","survey-text","331","1110122","0.0-6.0-3.46","2526386","co37948","norming","","","{""guess"":""bank""}","","../img/tt/1072tt.jpg","",""
"null","../img/gs/1072gs.jpg","null","reveal","image-keyboard-response","332","1112128","0.0-6.0-4.46","2526386","co37948","norming","","","","","","",""
"null","../img/tt/1072tt.jpg","null","mooney2","image-keyboard-response","333","1114129","0.0-6.0-5.46","2526386","co37948","norming","","","","","","",""
"2641.5349999442697","","","post_reveal_questions","survey-likert","334","1116773","0.0-6.0-6.46","2526386","co37948","norming","","","{""aha"":4}","[0]","../img/tt/1072tt.jpg","",""
"null","<div style=""font-size:60px;""> </div>","null","fixation","html-keyboard-response","335","1116978","0.0-6.0-0.47","2526386","co37948","norming","","","","","","",""
"null","../img/tt/1279tt.jpg","null","mooney1","image-keyboard-response","336","1119983","0.0-6.0-1.47","2526386","co37948","norming","","","","","","",""
"5285.510000074282","","","post_mooney1_questions","survey-likert","337","1125271","0.0-6.0-2.47","2526386","co37948","norming","","","{""curiosity"":5,""confidence"":2}","[0,1]","../img/tt/1279tt.jpg","",""
"1238.2200000574812","","","recognition","survey-text","338","1126514","0.0-6.0-3.47","2526386","co37948","norming","","","{""guess"":""paard""}","","../img/tt/1279tt.jpg","",""
"null","../img/gs/1279gs.jpg","null","reveal","image-keyboard-response","339","1128516","0.0-6.0-4.47","2526386","co37948","norming","","","","","","",""
"null","../img/tt/1279tt.jpg","null","mooney2","image-keyboard-response","340","1130527","0.0-6.0-5.47","2526386","co37948","norming","","","","","","",""
"6164.199999999255","","","post_reveal_questions","survey-likert","341","1136694","0.0-6.0-6.47","2526386","co37948","norming","","","{""aha"":4}","[0]","../img/tt/1279tt.jpg","",""
"null","<div style=""font-size:60px;""> </div>","null","fixation","html-keyboard-response","342","1136897","0.0-6.0-0.48","2526386","co37948","norming","","","","","","",""
"null","../img/tt/1154tt.jpg","null","mooney1","image-keyboard-response","343","1139903","0.0-6.0-1.48","2526386","co37948","norming","","","","","","",""
"5816.209999960847","","","post_mooney1_questions","survey-likert","344","1145722","0.0-6.0-2.48","2526386","co37948","norming","","","{""curiosity"":4,""confidence"":5}","[0,1]","../img/tt/1154tt.jpg","",""
"1563.920000102371","","","recognition","survey-text","345","1147290","0.0-6.0-3.48","2526386","co37948","norming","","","{""guess"":""hert""}","","../img/tt/1154tt.jpg","",""
"null","../img/gs/1154gs.jpg","null","reveal","image-keyboard-response","346","1149306","0.0-6.0-4.48","2526386","co37948","norming","","","","","","",""
"null","../img/tt/1154tt.jpg","null","mooney2","image-keyboard-response","347","1151322","0.0-6.0-5.48","2526386","co37948","norming","","","","","","",""
"2367.8599999984726","","","post_reveal_questions","survey-likert","348","1153692","0.0-6.0-6.48","2526386","co37948","norming","","","{""aha"":4}","[0]","../img/tt/1154tt.jpg","",""
"null","<div style=""font-size:60px;""> </div>","null","fixation","html-keyboard-response","349","1153902","0.0-6.0-0.49","2526386","co37948","norming","","","","","","",""
"null","../img/tt/1040tt.jpg","null","mooney1","image-keyboard-response","350","1156913","0.0-6.0-1.49","2526386","co37948","norming","","","","","","",""
"5227.414999972098","","","post_mooney1_questions","survey-likert","351","1162143","0.0-6.0-2.49","2526386","co37948","norming","","","{""curiosity"":4,""confidence"":5}","[0,1]","../img/tt/1040tt.jpg","",""
"1675.3549999557436","","","recognition","survey-text","352","1163823","0.0-6.0-3.49","2526386","co37948","norming","","","{""guess"":""skater""}","","../img/tt/1040tt.jpg","",""
"null","../img/gs/1040gs.jpg","null","reveal","image-keyboard-response","353","1165840","0.0-6.0-4.49","2526386","co37948","norming","","","","","","",""
"null","../img/tt/1040tt.jpg","null","mooney2","image-keyboard-response","354","1167843","0.0-6.0-5.49","2526386","co37948","norming","","","","","","",""
"2733.654999989085","","","post_reveal_questions","survey-likert","355","1170579","0.0-6.0-6.49","2526386","co37948","norming","","","{""aha"":5}","[0]","../img/tt/1040tt.jpg","",""
"null","<div style=""font-size:60px;""> </div>","null","fixation","html-keyboard-response","356","1170781","0.0-6.0-0.50","2526386","co37948","norming","","","","","","",""
"null","../img/tt/1278tt.jpg","null","mooney1","image-keyboard-response","357","1173785","0.0-6.0-1.50","2526386","co37948","norming","","","","","","",""
"5390.045000007376","","","post_mooney1_questions","survey-likert","358","1179177","0.0-6.0-2.50","2526386","co37948","norming","","","{""curiosity"":4,""confidence"":5}","[0,1]","../img/tt/1278tt.jpg","",""
"1394.950000103563","","","recognition","survey-text","359","1180577","0.0-6.0-3.50","2526386","co37948","norming","","","{""guess"":""uil""}","","../img/tt/1278tt.jpg","",""
"null","../img/gs/1278gs.jpg","null","reveal","image-keyboard-response","360","1182581","0.0-6.0-4.50","2526386","co37948","norming","","","","","","",""
"null","../img/tt/1278tt.jpg","null","mooney2","image-keyboard-response","361","1184584","0.0-6.0-5.50","2526386","co37948","norming","","","","","","",""
"3990.51499995403","","","post_reveal_questions","survey-likert","362","1188577","0.0-6.0-6.50","2526386","co37948","norming","","","{""aha"":6}","[0]","../img/tt/1278tt.jpg","",""
"null","<div style=""font-size:60px;""> </div>","null","fixation","html-keyboard-response","363","1188790","0.0-6.0-0.51","2526386","co37948","norming","","","","","","",""
"null","../img/tt/010tt.jpg","null","mooney1","image-keyboard-response","364","1191795","0.0-6.0-1.51","2526386","co37948","norming","","","","","","",""
"4336.925000068732","","","post_mooney1_questions","survey-likert","365","1196135","0.0-6.0-2.51","2526386","co37948","norming","","","{""curiosity"":4,""confidence"":4}","[0,1]","../img/tt/010tt.jpg","",""
"2424.959999974817","","","recognition","survey-text","366","1198563","0.0-6.0-3.51","2526386","co37948","norming","","","{""guess"":""kikker""}","","../img/tt/010tt.jpg","",""
"null","../img/gs/010gs.jpg","null","reveal","image-keyboard-response","367","1200566","0.0-6.0-4.51","2526386","co37948","norming","","","","","","",""
"null","../img/tt/010tt.jpg","null","mooney2","image-keyboard-response","368","1202570","0.0-6.0-5.51","2526386","co37948","norming","","","","","","",""
"3058.0699999118224","","","post_reveal_questions","survey-likert","369","1205631","0.0-6.0-6.51","2526386","co37948","norming","","","{""aha"":4}","[0]","../img/tt/010tt.jpg","",""
"null","<div style=""font-size:60px;""> </div>","null","fixation","html-keyboard-response","370","1205833","0.0-6.0-0.52","2526386","co37948","norming","","","","","","",""
"null","../img/tt/1126tt.jpg","null","mooney1","image-keyboard-response","371","1208837","0.0-6.0-1.52","2526386","co37948","norming","","","","","","",""
"3835.670000058599","","","post_mooney1_questions","survey-likert","372","1212675","0.0-6.0-2.52","2526386","co37948","norming","","","{""curiosity"":5,""confidence"":4}","[0,1]","../img/tt/1126tt.jpg","",""
"4743.1349999969825","","","recognition","survey-text","373","1217422","0.0-6.0-3.52","2526386","co37948","norming","","","{""guess"":""klimmer""}","","../img/tt/1126tt.jpg","",""
"null","../img/gs/1126gs.jpg","null","reveal","image-keyboard-response","374","1219428","0.0-6.0-4.52","2526386","co37948","norming","","","","","","",""
"null","../img/tt/1126tt.jpg","null","mooney2","image-keyboard-response","375","1221431","0.0-6.0-5.52","2526386","co37948","norming","","","","","","",""
"2373.8499999744818","","","post_reveal_questions","survey-likert","376","1223807","0.0-6.0-6.52","2526386","co37948","norming","","","{""aha"":5}","[0]","../img/tt/1126tt.jpg","",""
"null","<div style=""font-size:60px;""> </div>","null","fixation","html-keyboard-response","377","1224013","0.0-6.0-0.53","2526386","co37948","norming","","","","","","",""
"null","../img/tt/079tt.jpg","null","mooney1","image-keyboard-response","378","1227016","0.0-6.0-1.53","2526386","co37948","norming","","","","","","",""
"3837.870000046678","","","post_mooney1_questions","survey-likert","379","1230857","0.0-6.0-2.53","2526386","co37948","norming","","","{""curiosity"":4,""confidence"":6}","[0,1]","../img/tt/079tt.jpg","",""
"1274.0350000094622","","","recognition","survey-text","380","1232135","0.0-6.0-3.53","2526386","co37948","norming","","","{""guess"":""beer""}","","../img/tt/079tt.jpg","",""
"null","../img/gs/079gs.jpg","null","reveal","image-keyboard-response","381","1234138","0.0-6.0-4.53","2526386","co37948","norming","","","","","","",""
"null","../img/tt/079tt.jpg","null","mooney2","image-keyboard-response","382","1236141","0.0-6.0-5.53","2526386","co37948","norming","","","","","","",""
"3076.4600000111386","","","post_reveal_questions","survey-likert","383","1239219","0.0-6.0-6.53","2526386","co37948","norming","","","{""aha"":1}","[0]","../img/tt/079tt.jpg","",""
"null","<div style=""font-size:60px;""> </div>","null","fixation","html-keyboard-response","384","1239421","0.0-6.0-0.54","2526386","co37948","norming","","","","","","",""
"null","../img/tt/436tt.jpg","null","mooney1","image-keyboard-response","385","1242427","0.0-6.0-1.54","2526386","co37948","norming","","","","","","",""
"4568.54500004556","","","post_mooney1_questions","survey-likert","386","1246998","0.0-6.0-2.54","2526386","co37948","norming","","","{""curiosity"":5,""confidence"":3}","[0,1]","../img/tt/436tt.jpg","",""
"2583.459999994375","","","recognition","survey-text","387","1249585","0.0-6.0-3.54","2526386","co37948","norming","","","{""guess"":""hagedis""}","","../img/tt/436tt.jpg","",""
"null","../img/gs/436gs.jpg","null","reveal","image-keyboard-response","388","1251593","0.0-6.0-4.54","2526386","co37948","norming","","","","","","",""
"null","../img/tt/436tt.jpg","null","mooney2","image-keyboard-response","389","1253598","0.0-6.0-5.54","2526386","co37948","norming","","","","","","",""
"2246.084999991581","","","post_reveal_questions","survey-likert","390","1255846","0.0-6.0-6.54","2526386","co37948","norming","","","{""aha"":3}","[0]","../img/tt/436tt.jpg","",""
"null","<div style=""font-size:60px;""> </div>","null","fixation","html-keyboard-response","391","1256053","0.0-6.0-0.55","2526386","co37948","norming","","","","","","",""
"null","../img/tt/032tt.jpg","null","mooney1","image-keyboard-response","392","1259058","0.0-6.0-1.55","2526386","co37948","norming","","","","","","",""
"3478.8200000766665","","","post_mooney1_questions","survey-likert","393","1262540","0.0-6.0-2.55","2526386","co37948","norming","","","{""curiosity"":5,""confidence"":3}","[0,1]","../img/tt/032tt.jpg","",""
"2080.735000083223","","","recognition","survey-text","394","1264625","0.0-6.0-3.55","2526386","co37948","norming","","","{""guess"":""luiaard""}","","../img/tt/032tt.jpg","",""
"null","../img/gs/032gs.jpg","null","reveal","image-keyboard-response","395","1266630","0.0-6.0-4.55","2526386","co37948","norming","","","","","","",""
"null","../img/tt/032tt.jpg","null","mooney2","image-keyboard-response","396","1268636","0.0-6.0-5.55","2526386","co37948","norming","","","","","","",""
"2507.484999950975","","","post_reveal_questions","survey-likert","397","1271145","0.0-6.0-6.55","2526386","co37948","norming","","","{""aha"":6}","[0]","../img/tt/032tt.jpg","",""
"null","<div style=""font-size:60px;""> </div>","null","fixation","html-keyboard-response","398","1271351","0.0-6.0-0.56","2526386","co37948","norming","","","","","","",""
"null","../img/tt/049tt.jpg","null","mooney1","image-keyboard-response","399","1274357","0.0-6.0-1.56","2526386","co37948","norming","","","","","","",""
"3616.8200001120567","","","post_mooney1_questions","survey-likert","400","1277976","0.0-6.0-2.56","2526386","co37948","norming","","","{""curiosity"":4,""confidence"":3}","[0,1]","../img/tt/049tt.jpg","",""
"1332.2099999058992","","","recognition","survey-text","401","1279313","0.0-6.0-3.56","2526386","co37948","norming","","","{""guess"":""rat""}","","../img/tt/049tt.jpg","",""
"null","../img/gs/049gs.jpg","null","reveal","image-keyboard-response","402","1281321","0.0-6.0-4.56","2526386","co37948","norming","","","","","","",""
"null","../img/tt/049tt.jpg","null","mooney2","image-keyboard-response","403","1283325","0.0-6.0-5.56","2526386","co37948","norming","","","","","","",""
"2761.36999996379","","","post_reveal_questions","survey-likert","404","1286089","0.0-6.0-6.56","2526386","co37948","norming","","","{""aha"":5}","[0]","../img/tt/049tt.jpg","",""
"null","<div style=""font-size:60px;""> </div>","null","fixation","html-keyboard-response","405","1286294","0.0-6.0-0.57","2526386","co37948","norming","","","","","","",""
"null","../img/tt/1061tt.jpg","null","mooney1","image-keyboard-response","406","1289302","0.0-6.0-1.57","2526386","co37948","norming","","","","","","",""
"5048.564999946393","","","post_mooney1_questions","survey-likert","407","1294353","0.0-6.0-2.57","2526386","co37948","norming","","","{""curiosity"":5,""confidence"":3}","[0,1]","../img/tt/1061tt.jpg","",""
"2072.715000016615","","","recognition","survey-text","408","1296430","0.0-6.0-3.57","2526386","co37948","norming","","","{""guess"":""park""}","","../img/tt/1061tt.jpg","",""
"null","../img/gs/1061gs.jpg","null","reveal","image-keyboard-response","409","1298435","0.0-6.0-4.57","2526386","co37948","norming","","","","","","",""
"null","../img/tt/1061tt.jpg","null","mooney2","image-keyboard-response","410","1300452","0.0-6.0-5.57","2526386","co37948","norming","","","","","","",""
"3504.7649999614805","","","post_reveal_questions","survey-likert","411","1303958","0.0-6.0-6.57","2526386","co37948","norming","","","{""aha"":3}","[0]","../img/tt/1061tt.jpg","",""
"null","<div style=""font-size:60px;""> </div>","null","fixation","html-keyboard-response","412","1304166","0.0-6.0-0.58","2526386","co37948","norming","","","","","","",""
"null","../img/tt/1171tt.jpg","null","mooney1","image-keyboard-response","413","1307170","0.0-6.0-1.58","2526386","co37948","norming","","","","","","",""
"4442.005000077188","","","post_mooney1_questions","survey-likert","414","1311614","0.0-6.0-2.58","2526386","co37948","norming","","","{""curiosity"":5,""confidence"":3}","[0,1]","../img/tt/1171tt.jpg","",""
"1240.8150000264868","","","recognition","survey-text","415","1312859","0.0-6.0-3.58","2526386","co37948","norming","","","{""guess"":""panda""}","","../img/tt/1171tt.jpg","",""
"null","../img/gs/1171gs.jpg","null","reveal","image-keyboard-response","416","1314864","0.0-6.0-4.58","2526386","co37948","norming","","","","","","",""
"null","../img/tt/1171tt.jpg","null","mooney2","image-keyboard-response","417","1316866","0.0-6.0-5.58","2526386","co37948","norming","","","","","","",""
"2271.240000030957","","","post_reveal_questions","survey-likert","418","1319140","0.0-6.0-6.58","2526386","co37948","norming","","","{""aha"":4}","[0]","../img/tt/1171tt.jpg","",""
"null","<div style=""font-size:60px;""> </div>","null","fixation","html-keyboard-response","419","1319345","0.0-6.0-0.59","2526386","co37948","norming","","","","","","",""
"null","../img/tt/055tt.jpg","null","mooney1","image-keyboard-response","420","1322351","0.0-6.0-1.59","2526386","co37948","norming","","","","","","",""
"6849.034999962896","","","post_mooney1_questions","survey-likert","421","1329203","0.0-6.0-2.59","2526386","co37948","norming","","","{""curiosity"":4,""confidence"":4}","[0,1]","../img/tt/055tt.jpg","",""
"1810.34000008367","","","recognition","survey-text","422","1331017","0.0-6.0-3.59","2526386","co37948","norming","","","{""guess"":""zadel""}","","../img/tt/055tt.jpg","",""
"null","../img/gs/055gs.jpg","null","reveal","image-keyboard-response","423","1333026","0.0-6.0-4.59","2526386","co37948","norming","","","","","","",""
"null","../img/tt/055tt.jpg","null","mooney2","image-keyboard-response","424","1335028","0.0-6.0-5.59","2526386","co37948","norming","","","","","","",""
"3734.260000055656","","","post_reveal_questions","survey-likert","425","1338768","0.0-6.0-6.59","2526386","co37948","norming","","","{""aha"":1}","[0]","../img/tt/055tt.jpg","",""
"null","<div style=""font-size:60px;""> </div>","null","fixation","html-keyboard-response","426","1338970","0.0-6.0-0.60","2526386","co37948","norming","","","","","","",""
"null","../img/tt/552tt.jpg","null","mooney1","image-keyboard-response","427","1341973","0.0-6.0-1.60","2526386","co37948","norming","","","","","","",""
"3254.2799999937415","","","post_mooney1_questions","survey-likert","428","1345231","0.0-6.0-2.60","2526386","co37948","norming","","","{""curiosity"":4,""confidence"":4}","[0,1]","../img/tt/552tt.jpg","",""
"1410.344999982044","","","recognition","survey-text","429","1346645","0.0-6.0-3.60","2526386","co37948","norming","","","{""guess"":""boot""}","","../img/tt/552tt.jpg","",""
"null","../img/gs/552gs.jpg","null","reveal","image-keyboard-response","430","1348650","0.0-6.0-4.60","2526386","co37948","norming","","","","","","",""
"null","../img/tt/552tt.jpg","null","mooney2","image-keyboard-response","431","1350653","0.0-6.0-5.60","2526386","co37948","norming","","","","","","",""
"3093.6499999370426","","","post_reveal_questions","survey-likert","432","1353749","0.0-6.0-6.60","2526386","co37948","norming","","","{""aha"":4}","[0]","../img/tt/552tt.jpg","",""
"null","<div style=""font-size:60px;""> </div>","null","fixation","html-keyboard-response","433","1353960","0.0-6.0-0.61","2526386","co37948","norming","","","","","","",""
"null","../img/tt/534tt.jpg","null","mooney1","image-keyboard-response","434","1356966","0.0-6.0-1.61","2526386","co37948","norming","","","","","","",""
"3513.3549999445677","","","post_mooney1_questions","survey-likert","435","1360483","0.0-6.0-2.61","2526386","co37948","norming","","","{""curiosity"":5,""confidence"":5}","[0,1]","../img/tt/534tt.jpg","",""
"2205.1050000591204","","","recognition","survey-text","436","1362692","0.0-6.0-3.61","2526386","co37948","norming","","","{""guess"":""cactus""}","","../img/tt/534tt.jpg","",""
"null","../img/gs/534gs.jpg","null","reveal","image-keyboard-response","437","1364695","0.0-6.0-4.61","2526386","co37948","norming","","","","","","",""
"null","../img/tt/534tt.jpg","null","mooney2","image-keyboard-response","438","1366699","0.0-6.0-5.61","2526386","co37948","norming","","","","","","",""
"2768.4449999360368","","","post_reveal_questions","survey-likert","439","1369469","0.0-6.0-6.61","2526386","co37948","norming","","","{""aha"":1}","[0]","../img/tt/534tt.jpg","",""
"null","<div style=""font-size:60px;""> </div>","null","fixation","html-keyboard-response","440","1369675","0.0-6.0-0.62","2526386","co37948","norming","","","","","","",""
"null","../img/tt/1189tt.jpg","null","mooney1","image-keyboard-response","441","1372679","0.0-6.0-1.62","2526386","co37948","norming","","","","","","",""
"6062.230000039563","","","post_mooney1_questions","survey-likert","442","1378744","0.0-6.0-2.62","2526386","co37948","norming","","","{""curiosity"":4,""confidence"":2}","[0,1]","../img/tt/1189tt.jpg","",""
"2871.3550000684336","","","recognition","survey-text","443","1381620","0.0-6.0-3.62","2526386","co37948","norming","","","{""guess"":""pinguin""}","","../img/tt/1189tt.jpg","",""
"null","../img/gs/1189gs.jpg","null","reveal","image-keyboard-response","444","1383624","0.0-6.0-4.62","2526386","co37948","norming","","","","","","",""
"null","../img/tt/1189tt.jpg","null","mooney2","image-keyboard-response","445","1385633","0.0-6.0-5.62","2526386","co37948","norming","","","","","","",""
"4361.344999982975","","","post_reveal_questions","survey-likert","446","1389996","0.0-6.0-6.62","2526386","co37948","norming","","","{""aha"":5}","[0]","../img/tt/1189tt.jpg","",""
"null","<div style=""font-size:60px;""> </div>","null","fixation","html-keyboard-response","447","1390201","0.0-6.0-0.63","2526386","co37948","norming","","","","","","",""
"null","../img/tt/515tt.jpg","null","mooney1","image-keyboard-response","448","1393206","0.0-6.0-1.63","2526386","co37948","norming","","","","","","",""
"3893.0350000737235","","","post_mooney1_questions","survey-likert","449","1397102","0.0-6.0-2.63","2526386","co37948","norming","","","{""curiosity"":3,""confidence"":5}","[0,1]","../img/tt/515tt.jpg","",""
"1789.4800000358373","","","recognition","survey-text","450","1398896","0.0-6.0-3.63","2526386","co37948","norming","","","{""guess"":""vogel""}","","../img/tt/515tt.jpg","",""
"null","../img/gs/515gs.jpg","null","reveal","image-keyboard-response","451","1400913","0.0-6.0-4.63","2526386","co37948","norming","","","","","","",""
"null","../img/tt/515tt.jpg","null","mooney2","image-keyboard-response","452","1402919","0.0-6.0-5.63","2526386","co37948","norming","","","","","","",""
"2738.8899999205023","","","post_reveal_questions","survey-likert","453","1405660","0.0-6.0-6.63","2526386","co37948","norming","","","{""aha"":2}","[0]","../img/tt/515tt.jpg","",""
"null","<div style=""font-size:60px;""> </div>","null","fixation","html-keyboard-response","454","1405874","0.0-6.0-0.64","2526386","co37948","norming","","","","","","",""
"null","../img/tt/603tt.jpg","null","mooney1","image-keyboard-response","455","1408879","0.0-6.0-1.64","2526386","co37948","norming","","","","","","",""
"3219.249999965541","","","post_mooney1_questions","survey-likert","456","1412101","0.0-6.0-2.64","2526386","co37948","norming","","","{""curiosity"":4,""confidence"":5}","[0,1]","../img/tt/603tt.jpg","",""
"1275.370000046678","","","recognition","survey-text","457","1413381","0.0-6.0-3.64","2526386","co37948","norming","","","{""guess"":""kat""}","","../img/tt/603tt.jpg","",""
"null","../img/gs/603gs.jpg","null","reveal","image-keyboard-response","458","1415386","0.0-6.0-4.64","2526386","co37948","norming","","","","","","",""
"null","../img/tt/603tt.jpg","null","mooney2","image-keyboard-response","459","1417388","0.0-6.0-5.64","2526386","co37948","norming","","","","","","",""
"2316.1450000479817","","","post_reveal_questions","survey-likert","460","1419707","0.0-6.0-6.64","2526386","co37948","norming","","","{""aha"":4}","[0]","../img/tt/603tt.jpg","",""
"null","<div style=""font-size:60px;""> </div>","null","fixation","html-keyboard-response","461","1419911","0.0-6.0-0.65","2526386","co37948","norming","","","","","","",""
"null","../img/tt/1205tt.jpg","null","mooney1","image-keyboard-response","462","1422915","0.0-6.0-1.65","2526386","co37948","norming","","","","","","",""
"3339.6100000245497","","","post_mooney1_questions","survey-likert","463","1426258","0.0-6.0-2.65","2526386","co37948","norming","","","{""curiosity"":4,""confidence"":3}","[0,1]","../img/tt/1205tt.jpg","",""
"1550.3100000787526","","","recognition","survey-text","464","1427812","0.0-6.0-3.65","2526386","co37948","norming","","","{""guess"":""stoel""}","","../img/tt/1205tt.jpg","",""
"null","../img/gs/1205gs.jpg","null","reveal","image-keyboard-response","465","1429817","0.0-6.0-4.65","2526386","co37948","norming","","","","","","",""
"null","../img/tt/1205tt.jpg","null","mooney2","image-keyboard-response","466","1431822","0.0-6.0-5.65","2526386","co37948","norming","","","","","","",""
"2771.874999976717","","","post_reveal_questions","survey-likert","467","1434597","0.0-6.0-6.65","2526386","co37948","norming","","","{""aha"":2}","[0]","../img/tt/1205tt.jpg","",""
"null","<div style=""font-size:60px;""> </div>","null","fixation","html-keyboard-response","468","1434810","0.0-6.0-0.66","2526386","co37948","norming","","","","","","",""
"null","../img/tt/019tt.jpg","null","mooney1","image-keyboard-response","469","1437814","0.0-6.0-1.66","2526386","co37948","norming","","","","","","",""
"4028.485000017099","","","post_mooney1_questions","survey-likert","470","1441845","0.0-6.0-2.66","2526386","co37948","norming","","","{""curiosity"":3,""confidence"":1}","[0,1]","../img/tt/019tt.jpg","",""
"3661.1249999841675","","","recognition","survey-text","471","1445510","0.0-6.0-3.66","2526386","co37948","norming","","","{""guess"":""viool""}","","../img/tt/019tt.jpg","",""
"null","../img/gs/019gs.jpg","null","reveal","image-keyboard-response","472","1447513","0.0-6.0-4.66","2526386","co37948","norming","","","","","","",""
"null","../img/tt/019tt.jpg","null","mooney2","image-keyboard-response","473","1449530","0.0-6.0-5.66","2526386","co37948","norming","","","","","","",""
"1970.424999948591","","","post_reveal_questions","survey-likert","474","1451503","0.0-6.0-6.66","2526386","co37948","norming","","","{""aha"":4}","[0]","../img/tt/019tt.jpg","",""
"null","<div style=""font-size:60px;""> </div>","null","fixation","html-keyboard-response","475","1451712","0.0-6.0-0.67","2526386","co37948","norming","","","","","","",""
"null","../img/tt/1309tt.jpg","null","mooney1","image-keyboard-response","476","1454715","0.0-6.0-1.67","2526386","co37948","norming","","","","","","",""
"3755.1499999826774","","","post_mooney1_questions","survey-likert","477","1458473","0.0-6.0-2.67","2526386","co37948","norming","","","{""curiosity"":4,""confidence"":4}","[0,1]","../img/tt/1309tt.jpg","",""
"1052.8900000499561","","","recognition","survey-text","478","1459529","0.0-6.0-3.67","2526386","co37948","norming","","","{""guess"":""auto""}","","../img/tt/1309tt.jpg","",""
"null","../img/gs/1309gs.jpg","null","reveal","image-keyboard-response","479","1461532","0.0-6.0-4.67","2526386","co37948","norming","","","","","","",""
"null","../img/tt/1309tt.jpg","null","mooney2","image-keyboard-response","480","1463534","0.0-6.0-5.67","2526386","co37948","norming","","","","","","",""
"3320.689999964088","","","post_reveal_questions","survey-likert","481","1466857","0.0-6.0-6.67","2526386","co37948","norming","","","{""aha"":2}","[0]","../img/tt/1309tt.jpg","",""
"null","<div style=""font-size:60px;""> </div>","null","fixation","html-keyboard-response","482","1467064","0.0-6.0-0.68","2526386","co37948","norming","","","","","","",""
"null","../img/tt/1276tt.jpg","null","mooney1","image-keyboard-response","483","1470068","0.0-6.0-1.68","2526386","co37948","norming","","","","","","",""
"4395.2200000640005","","","post_mooney1_questions","survey-likert","484","1474466","0.0-6.0-2.68","2526386","co37948","norming","","","{""curiosity"":5,""confidence"":2}","[0,1]","../img/tt/1276tt.jpg","",""
"820.0000000651926","","","recognition","survey-text","485","1475290","0.0-6.0-3.68","2526386","co37948","norming","","","{""guess"":""vos""}","","../img/tt/1276tt.jpg","",""
"null","../img/gs/1276gs.jpg","null","reveal","image-keyboard-response","486","1477301","0.0-6.0-4.68","2526386","co37948","norming","","","","","","",""
"null","../img/tt/1276tt.jpg","null","mooney2","image-keyboard-response","487","1479304","0.0-6.0-5.68","2526386","co37948","norming","","","","","","",""
"2359.969999990426","","","post_reveal_questions","survey-likert","488","1481666","0.0-6.0-6.68","2526386","co37948","norming","","","{""aha"":5}","[0]","../img/tt/1276tt.jpg","",""
"null","<div style=""font-size:60px;""> </div>","null","fixation","html-keyboard-response","489","1481870","0.0-6.0-0.69","2526386","co37948","norming","","","","","","",""
"null","../img/tt/1186tt.jpg","null","mooney1","image-keyboard-response","490","1484875","0.0-6.0-1.69","2526386","co37948","norming","","","","","","",""
"3613.400000031106","","","post_mooney1_questions","survey-likert","491","1488492","0.0-6.0-2.69","2526386","co37948","norming","","","{""curiosity"":5,""confidence"":5}","[0,1]","../img/tt/1186tt.jpg","",""
"3067.2950000735","","","recognition","survey-text","492","1491563","0.0-6.0-3.69","2526386","co37948","norming","","","{""guess"":""cowboy""}","","../img/tt/1186tt.jpg","",""
"null","../img/gs/1186gs.jpg","null","reveal","image-keyboard-response","493","1493572","0.0-6.0-4.69","2526386","co37948","norming","","","","","","",""
"null","../img/tt/1186tt.jpg","null","mooney2","image-keyboard-response","494","1495577","0.0-6.0-5.69","2526386","co37948","norming","","","","","","",""
"2454.8499999800697","","","post_reveal_questions","survey-likert","495","1498034","0.0-6.0-6.69","2526386","co37948","norming","","","{""aha"":4}","[0]","../img/tt/1186tt.jpg","",""
"null","<div style=""font-size:60px;""> </div>","null","fixation","html-keyboard-response","496","1498237","0.0-6.0-0.70","2526386","co37948","norming","","","","","","",""
"null","../img/tt/279tt.jpg","null","mooney1","image-keyboard-response","497","1501241","0.0-6.0-1.70","2526386","co37948","norming","","","","","","",""
"3993.019999936223","","","post_mooney1_questions","survey-likert","498","1505237","0.0-6.0-2.70","2526386","co37948","norming","","","{""curiosity"":3,""confidence"":6}","[0,1]","../img/tt/279tt.jpg","",""
"2249.1500000469387","","","recognition","survey-text","499","1507490","0.0-6.0-3.70","2526386","co37948","norming","","","{""guess"":""koala""}","","../img/tt/279tt.jpg","",""
"null","../img/gs/279gs.jpg","null","reveal","image-keyboard-response","500","1509493","0.0-6.0-4.70","2526386","co37948","norming","","","","","","",""
"null","../img/tt/279tt.jpg","null","mooney2","image-keyboard-response","501","1511496","0.0-6.0-5.70","2526386","co37948","norming","","","","","","",""
"2470.7900000503287","","","post_reveal_questions","survey-likert","502","1513969","0.0-6.0-6.70","2526386","co37948","norming","","","{""aha"":1}","[0]","../img/tt/279tt.jpg","",""
"null","<div style=""font-size:60px;""> </div>","null","fixation","html-keyboard-response","503","1514172","0.0-6.0-0.71","2526386","co37948","norming","","","","","","",""
"null","../img/tt/189tt.jpg","null","mooney1","image-keyboard-response","504","1517177","0.0-6.0-1.71","2526386","co37948","norming","","","","","","",""
"5198.429999989457","","","post_mooney1_questions","survey-likert","505","1522378","0.0-6.0-2.71","2526386","co37948","norming","","","{""curiosity"":6,""confidence"":4}","[0,1]","../img/tt/189tt.jpg","",""
"2409.855000092648","","","recognition","survey-text","506","1524792","0.0-6.0-3.71","2526386","co37948","norming","","","{""guess"":""skater""}","","../img/tt/189tt.jpg","",""
"null","../img/gs/189gs.jpg","null","reveal","image-keyboard-response","507","1526798","0.0-6.0-4.71","2526386","co37948","norming","","","","","","",""
"null","../img/tt/189tt.jpg","null","mooney2","image-keyboard-response","508","1528801","0.0-6.0-5.71","2526386","co37948","norming","","","","","","",""
"2477.0750000607222","","","post_reveal_questions","survey-likert","509","1531281","0.0-6.0-6.71","2526386","co37948","norming","","","{""aha"":6}","[0]","../img/tt/189tt.jpg","",""
"null","<div style=""font-size:60px;""> </div>","null","fixation","html-keyboard-response","510","1531485","0.0-6.0-0.72","2526386","co37948","norming","","","","","","",""
"null","../img/tt/1241tt.jpg","null","mooney1","image-keyboard-response","511","1534488","0.0-6.0-1.72","2526386","co37948","norming","","","","","","",""
"3031.7100000102073","","","post_mooney1_questions","survey-likert","512","1537523","0.0-6.0-2.72","2526386","co37948","norming","","","{""curiosity"":5,""confidence"":4}","[0,1]","../img/tt/1241tt.jpg","",""
"2585.0550000322983","","","recognition","survey-text","513","1540111","0.0-6.0-3.72","2526386","co37948","norming","","","{""guess"":""aap""}","","../img/tt/1241tt.jpg","",""
"null","../img/gs/1241gs.jpg","null","reveal","image-keyboard-response","514","1542116","0.0-6.0-4.72","2526386","co37948","norming","","","","","","",""
"null","../img/tt/1241tt.jpg","null","mooney2","image-keyboard-response","515","1544121","0.0-6.0-5.72","2526386","co37948","norming","","","","","","",""
"3487.775000045076","","","post_reveal_questions","survey-likert","516","1547611","0.0-6.0-6.72","2526386","co37948","norming","","","{""aha"":6}","[0]","../img/tt/1241tt.jpg","",""
"null","<div style=""font-size:60px;""> </div>","null","fixation","html-keyboard-response","517","1547816","0.0-6.0-0.73","2526386","co37948","norming","","","","","","",""
"null","../img/tt/013tt.jpg","null","mooney1","image-keyboard-response","518","1550822","0.0-6.0-1.73","2526386","co37948","norming","","","","","","",""
"3990.5199999921024","","","post_mooney1_questions","survey-likert","519","1554816","0.0-6.0-2.73","2526386","co37948","norming","","","{""curiosity"":4,""confidence"":5}","[0,1]","../img/tt/013tt.jpg","",""
"1441.1100000143051","","","recognition","survey-text","520","1556261","0.0-6.0-3.73","2526386","co37948","norming","","","{""guess"":""vogel""}","","../img/tt/013tt.jpg","",""
"null","../img/gs/013gs.jpg","null","reveal","image-keyboard-response","521","1558266","0.0-6.0-4.73","2526386","co37948","norming","","","","","","",""
"null","../img/tt/013tt.jpg","null","mooney2","image-keyboard-response","522","1560269","0.0-6.0-5.73","2526386","co37948","norming","","","","","","",""
"2801.13000003621","","","post_reveal_questions","survey-likert","523","1563073","0.0-6.0-6.73","2526386","co37948","norming","","","{""aha"":6}","[0]","../img/tt/013tt.jpg","",""
"null","<div style=""font-size:60px;""> </div>","null","fixation","html-keyboard-response","524","1563275","0.0-6.0-0.74","2526386","co37948","norming","","","","","","",""
"null","../img/tt/517tt.jpg","null","mooney1","image-keyboard-response","525","1566281","0.0-6.0-1.74","2526386","co37948","norming","","","","","","",""
"4512.014999985695","","","post_mooney1_questions","survey-likert","526","1570796","0.0-6.0-2.74","2526386","co37948","norming","","","{""curiosity"":5,""confidence"":4}","[0,1]","../img/tt/517tt.jpg","",""
"2834.705000044778","","","recognition","survey-text","527","1573635","0.0-6.0-3.74","2526386","co37948","norming","","","{""guess"":""varken""}","","../img/tt/517tt.jpg","",""
"null","../img/gs/517gs.jpg","null","reveal","image-keyboard-response","528","1575640","0.0-6.0-4.74","2526386","co37948","norming","","","","","","",""
"null","../img/tt/517tt.jpg","null","mooney2","image-keyboard-response","529","1577642","0.0-6.0-5.74","2526386","co37948","norming","","","","","","",""
"1581.6300000296906","","","post_reveal_questions","survey-likert","530","1579226","0.0-6.0-6.74","2526386","co37948","norming","","","{""aha"":5}","[0]","../img/tt/517tt.jpg","",""
"null","<div style=""font-size:60px;""> </div>","null","fixation","html-keyboard-response","531","1579429","0.0-6.0-0.75","2526386","co37948","norming","","","","","","",""
"null","../img/tt/044tt.jpg","null","mooney1","image-keyboard-response","532","1582433","0.0-6.0-1.75","2526386","co37948","norming","","","","","","",""
"3934.0099999681115","","","post_mooney1_questions","survey-likert","533","1586370","0.0-6.0-2.75","2526386","co37948","norming","","","{""curiosity"":5,""confidence"":4}","[0,1]","../img/tt/044tt.jpg","",""
"2730.9649999951944","","","recognition","survey-text","534","1589105","0.0-6.0-3.75","2526386","co37948","norming","","","{""guess"":""computer""}","","../img/tt/044tt.jpg","",""
"null","../img/gs/044gs.jpg","null","reveal","image-keyboard-response","535","1591114","0.0-6.0-4.75","2526386","co37948","norming","","","","","","",""
"null","../img/tt/044tt.jpg","null","mooney2","image-keyboard-response","536","1593117","0.0-6.0-5.75","2526386","co37948","norming","","","","","","",""
"1795.9450000198558","","","post_reveal_questions","survey-likert","537","1594916","0.0-6.0-6.75","2526386","co37948","norming","","","{""aha"":6}","[0]","../img/tt/044tt.jpg","",""
"null","<div style=""font-size:60px;""> </div>","null","fixation","html-keyboard-response","538","1595122","0.0-6.0-0.76","2526386","co37948","norming","","","","","","",""
"null","../img/tt/1127tt.jpg","null","mooney1","image-keyboard-response","539","1598125","0.0-6.0-1.76","2526386","co37948","norming","","","","","","",""
"3397.594999987632","","","post_mooney1_questions","survey-likert","540","1601525","0.0-6.0-2.76","2526386","co37948","norming","","","{""curiosity"":4,""confidence"":5}","[0,1]","../img/tt/1127tt.jpg","",""
"1815.2899999404326","","","recognition","survey-text","541","1603344","0.0-6.0-3.76","2526386","co37948","norming","","","{""guess"":""judo""}","","../img/tt/1127tt.jpg","",""
"null","../img/gs/1127gs.jpg","null","reveal","image-keyboard-response","542","1605349","0.0-6.0-4.76","2526386","co37948","norming","","","","","","",""
"null","../img/tt/1127tt.jpg","null","mooney2","image-keyboard-response","543","1607354","0.0-6.0-5.76","2526386","co37948","norming","","","","","","",""
"3099.835000000894","","","post_reveal_questions","survey-likert","544","1610459","0.0-6.0-6.76","2526386","co37948","norming","","","{""aha"":6}","[0]","../img/tt/1127tt.jpg","",""
"null","<div style=""font-size:60px;""> </div>","null","fixation","html-keyboard-response","545","1610665","0.0-6.0-0.77","2526386","co37948","norming","","","","","","",""
"null","../img/tt/598tt.jpg","null","mooney1","image-keyboard-response","546","1613671","0.0-6.0-1.77","2526386","co37948","norming","","","","","","",""
"4366.524999961257","","","post_mooney1_questions","survey-likert","547","1618040","0.0-6.0-2.77","2526386","co37948","norming","","","{""curiosity"":4,""confidence"":5}","[0,1]","../img/tt/598tt.jpg","",""
"1135.0600000005215","","","recognition","survey-text","548","1619180","0.0-6.0-3.77","2526386","co37948","norming","","","{""guess"":""leeuw""}","","../img/tt/598tt.jpg","",""
"null","../img/gs/598gs.jpg","null","reveal","image-keyboard-response","549","1621190","0.0-6.0-4.77","2526386","co37948","norming","","","","","","",""
"null","../img/tt/598tt.jpg","null","mooney2","image-keyboard-response","550","1623195","0.0-6.0-5.77","2526386","co37948","norming","","","","","","",""
"2665.3149999910966","","","post_reveal_questions","survey-likert","551","1625863","0.0-6.0-6.77","2526386","co37948","norming","","","{""aha"":6}","[0]","../img/tt/598tt.jpg","",""
"null","<div style=""font-size:60px;""> </div>","null","fixation","html-keyboard-response","552","1626076","0.0-6.0-0.78","2526386","co37948","norming","","","","","","",""
