"rt","stimulus","key_press","test_part","trial_type","trial_index","time_elapsed","internal_node_id","totalTime","subject","experiment_name","button_pressed","success","responses","question_order","currentStim","old","correct"
"7509.409999999889","Welcome to the experiment. This is an online experiment so please don't close the tab/window until we say goodbye.  Press any key to begin.","32","instructions","html-keyboard-response","0","7513","0.0-0.0","2714810","co37873","norming","","","","","","",""
"15406.649999999898","<div style='word-wrap: break-word; width: 900px'><h3>Please consider this information carefully before deciding whether to participate in this research</h3><ul style='text-align: left; font-size: .8em;'><li><b>Purpose of the research</b>: To examine how people process images.</li><li><b>What you will do in this research</b>:  Stimuli (images) will be presented on the computer and you will be asked different questions about them.</li><li><b>Time required</b>: Participation will take between 45 and 60 minutes to complete.</li><li><b>Risks</b>:  There are no anticipated risks associated with participating in this study. The effects of participating should be comparable to those you would experience from viewing a computer monitor for 30 minutes and using a mouse or keyboard.</li><li><b>Benefits</b>:  This study provides no benefits to you individually except for the credit. The study provides important information about the nature of perception and learning.</li><li><b>Confidentiality</b>:  Your participation in this study will remain confidential. No personally identifiable information will be associated with your data. Your de-identified data may be shared with other researchers and used in future projects.</li><li><b>Participation and withdrawal</b>:  Your participation in this study is completely voluntary and you may refuse to participate or you may choose to withdraw at any time without penalty.</li><li><b>How to contact the researchers</b>: If you have questions or concerns about your participation or payment, or want to request a summary of research findings, please contact Sander Van de Cruys (KU Leuven), at sander.vandecruys@kuleuven.be.</li></ul><p>The nature and purpose of this research have been sufficiently explained and I agree to participate in this study.  I understand that I am free to withdraw at any time without incurring any penalty.</p><p>Please consent by clicking the button below to continue. Otherwise, please exit the study at this time.</p></div>","","instructions","html-button-response","1","22868","0.0-1.0","2714810","co37873","norming","0","","","","","",""
"","","","instructions","fullscreen","2","27815","0.0-2.0","2714810","co37873","norming","","true","","","","",""
"27003.600000000006","","","sona","survey-html-form","3","54820","0.0-3.0","2714810","co37873","norming","","","[{""name"":""sonaid"",""value"":""37873""},{""name"":""debrief"",""value"":""no""},{""name"":""datajoin"",""value"":""yes""}]","","","",""
"101934.35500000011","<div style='word-wrap: break-word; width: 900px'><h3>Instructions</h3><p>This experiment will have 3 parts. In the first part you will see a series of distorted images like the one below on the left. As you can see in the righthand image, the distorted images are derived from actual photographs. In what follows, you will <strong>briefly</strong> be presented with <strong>only</strong> the distorted image.</p> <div style='float: left; margin-right: 20px;'><img src='../img/018tt.jpg' height='250' width='250'></img></div><div style='float: right; margin-left: 20px;'><img src='../img/018gs.jpg' height='250' width='250'></img></div><p>Subsequently you will be asked a few questions about the image: One question on how <strong>curious</strong> you are about the solution and one on how <strong>confident</strong> you are that you know the solution.</p>Next, we ask you to make a guess on what is in the image. Note that it is OK to name just the <strong>basic level category</strong>. For example when you see a parrot in the image, 'parrot' will obviously be a correct answer but also correct is 'bird'. However, 'animal' will <strong>not</strong> be counted as a correct response. For the example above, 'rose' would be correct or 'flower', but not 'plant'. When soccer players are depicted, 'soccer', 'football', 'soccer players' will be correct, but not 'humans', 'outdoors', or 'sports'. You do not need to describe the image in full, just name the main object in it <strong>in one or two words</strong>. All images depict objects from one of the following broad level categories: animals, inanimate objects, plants, sports, vehicles, and food. Recognizing means knowing <strong>more</strong> than these broad labels for a given image. But we always encourage you to <strong>make a guess</strong> if you can. Note that you are allowed to use <strong>Dutch and English</strong> in your answers, whatever comes easiest for you.</p><p>Press any key to continue.</p></div>","32","instructions","html-keyboard-response","4","156671","0.0-4.0","2714810","co37873","norming","","","","","","",""
"26367.52000000002","<div style='word-wrap: break-word; width: 900px'><h3>Instructions</h3> <p>Next, the solution image will be revealed to you and you'll be asked to indicate how strong your <strong>aha-experience</strong> was after seeing the solution. This describes the positive feeling of the 'click' you sometimes experience, when the pieces of the 'puzzle' fall together and you suddenly have 'insight' in the image.</p><img src='aha.jpg' height='188' width='250'></img><p>Note that there are no right or wrong answers. We are interested in what <strong>you</strong> see in the image and how <strong>you</strong> feel about it.</p><p>Press any key to start the experiment.</p></div>","32","instructions","html-keyboard-response","5","183039","0.0-5.0","2714810","co37873","norming","","","","","","",""
"null","<div style=""font-size:60px;""> </div>","null","fixation","html-keyboard-response","6","183244","0.0-6.0-0.0","2714810","co37873","norming","","","","","","",""
"null","../img/tt/1006tt.jpg","null","mooney1","image-keyboard-response","7","186249","0.0-6.0-1.0","2714810","co37873","norming","","","","","","",""
"12964.445000000065","","","post_mooney1_questions","survey-likert","8","199215","0.0-6.0-2.0","2714810","co37873","norming","","","{""curiosity"":4,""confidence"":5}","[0,1]","../img/tt/1006tt.jpg","",""
"9388.735000000015","","","recognition","survey-text","9","208607","0.0-6.0-3.0","2714810","co37873","norming","","","{""guess"":""sheep""}","","../img/tt/1006tt.jpg","",""
"null","../img/gs/1006gs.jpg","null","reveal","image-keyboard-response","10","210614","0.0-6.0-4.0","2714810","co37873","norming","","","","","","",""
"null","../img/tt/1006tt.jpg","null","mooney2","image-keyboard-response","11","212616","0.0-6.0-5.0","2714810","co37873","norming","","","","","","",""
"7141.899999999849","","","post_reveal_questions","survey-likert","12","219751","0.0-6.0-6.0","2714810","co37873","norming","","","{""aha"":0}","[0]","../img/tt/1006tt.jpg","",""
"null","<div style=""font-size:60px;""> </div>","null","fixation","html-keyboard-response","13","219960","0.0-6.0-0.1","2714810","co37873","norming","","","","","","",""
"null","../img/tt/549tt.jpg","null","mooney1","image-keyboard-response","14","222966","0.0-6.0-1.1","2714810","co37873","norming","","","","","","",""
"10343.814999999944","","","post_mooney1_questions","survey-likert","15","233311","0.0-6.0-2.1","2714810","co37873","norming","","","{""curiosity"":5,""confidence"":0}","[0,1]","../img/tt/549tt.jpg","",""
"3437.3549999998068","","","recognition","survey-text","16","236750","0.0-6.0-3.1","2714810","co37873","norming","","","{""guess"":""""}","","../img/tt/549tt.jpg","",""
"null","../img/gs/549gs.jpg","null","reveal","image-keyboard-response","17","238753","0.0-6.0-4.1","2714810","co37873","norming","","","","","","",""
"null","../img/tt/549tt.jpg","null","mooney2","image-keyboard-response","18","240754","0.0-6.0-5.1","2714810","co37873","norming","","","","","","",""
"4699.514999999781","","","post_reveal_questions","survey-likert","19","245454","0.0-6.0-6.1","2714810","co37873","norming","","","{""aha"":2}","[0]","../img/tt/549tt.jpg","",""
"null","<div style=""font-size:60px;""> </div>","null","fixation","html-keyboard-response","20","245657","0.0-6.0-0.2","2714810","co37873","norming","","","","","","",""
"null","../img/tt/1211tt.jpg","null","mooney1","image-keyboard-response","21","248658","0.0-6.0-1.2","2714810","co37873","norming","","","","","","",""
"6163.115000000049","","","post_mooney1_questions","survey-likert","22","254822","0.0-6.0-2.2","2714810","co37873","norming","","","{""curiosity"":4,""confidence"":0}","[0,1]","../img/tt/1211tt.jpg","",""
"1181.8549999998068","","","recognition","survey-text","23","256006","0.0-6.0-3.2","2714810","co37873","norming","","","{""guess"":""""}","","../img/tt/1211tt.jpg","",""
"null","../img/gs/1211gs.jpg","null","reveal","image-keyboard-response","24","258008","0.0-6.0-4.2","2714810","co37873","norming","","","","","","",""
"null","../img/tt/1211tt.jpg","null","mooney2","image-keyboard-response","25","260010","0.0-6.0-5.2","2714810","co37873","norming","","","","","","",""
"3219.75","","","post_reveal_questions","survey-likert","26","263230","0.0-6.0-6.2","2714810","co37873","norming","","","{""aha"":4}","[0]","../img/tt/1211tt.jpg","",""
"null","<div style=""font-size:60px;""> </div>","null","fixation","html-keyboard-response","27","263441","0.0-6.0-0.3","2714810","co37873","norming","","","","","","",""
"null","../img/tt/064tt.jpg","null","mooney1","image-keyboard-response","28","266446","0.0-6.0-1.3","2714810","co37873","norming","","","","","","",""
"10519.630000000005","","","post_mooney1_questions","survey-likert","29","276966","0.0-6.0-2.3","2714810","co37873","norming","","","{""curiosity"":5,""confidence"":0}","[0,1]","../img/tt/064tt.jpg","",""
"1597.8150000001187","","","recognition","survey-text","30","278566","0.0-6.0-3.3","2714810","co37873","norming","","","{""guess"":""""}","","../img/tt/064tt.jpg","",""
"null","../img/gs/064gs.jpg","null","reveal","image-keyboard-response","31","280568","0.0-6.0-4.3","2714810","co37873","norming","","","","","","",""
"null","../img/tt/064tt.jpg","null","mooney2","image-keyboard-response","32","282570","0.0-6.0-5.3","2714810","co37873","norming","","","","","","",""
"6275.939999999944","","","post_reveal_questions","survey-likert","33","288847","0.0-6.0-6.3","2714810","co37873","norming","","","{""aha"":2}","[0]","../img/tt/064tt.jpg","",""
"null","<div style=""font-size:60px;""> </div>","null","fixation","html-keyboard-response","34","289055","0.0-6.0-0.4","2714810","co37873","norming","","","","","","",""
"null","../img/tt/279tt.jpg","null","mooney1","image-keyboard-response","35","292059","0.0-6.0-1.4","2714810","co37873","norming","","","","","","",""
"6394.630000000005","","","post_mooney1_questions","survey-likert","36","298455","0.0-6.0-2.4","2714810","co37873","norming","","","{""curiosity"":1,""confidence"":6}","[0,1]","../img/tt/279tt.jpg","",""
"4046.050000000163","","","recognition","survey-text","37","302502","0.0-6.0-3.4","2714810","co37873","norming","","","{""guess"":""koala""}","","../img/tt/279tt.jpg","",""
"null","../img/gs/279gs.jpg","null","reveal","image-keyboard-response","38","304505","0.0-6.0-4.4","2714810","co37873","norming","","","","","","",""
"null","../img/tt/279tt.jpg","null","mooney2","image-keyboard-response","39","306515","0.0-6.0-5.4","2714810","co37873","norming","","","","","","",""
"3258.8600000001024","","","post_reveal_questions","survey-likert","40","309775","0.0-6.0-6.4","2714810","co37873","norming","","","{""aha"":0}","[0]","../img/tt/279tt.jpg","",""
"null","<div style=""font-size:60px;""> </div>","null","fixation","html-keyboard-response","41","309980","0.0-6.0-0.5","2714810","co37873","norming","","","","","","",""
"null","../img/tt/1217tt.jpg","null","mooney1","image-keyboard-response","42","312983","0.0-6.0-1.5","2714810","co37873","norming","","","","","","",""
"10334.704999999958","","","post_mooney1_questions","survey-likert","43","323319","0.0-6.0-2.5","2714810","co37873","norming","","","{""curiosity"":5,""confidence"":1}","[0,1]","../img/tt/1217tt.jpg","",""
"5581.850000000035","","","recognition","survey-text","44","328903","0.0-6.0-3.5","2714810","co37873","norming","","","{""guess"":""farmer""}","","../img/tt/1217tt.jpg","",""
"null","../img/gs/1217gs.jpg","null","reveal","image-keyboard-response","45","330906","0.0-6.0-4.5","2714810","co37873","norming","","","","","","",""
"null","../img/tt/1217tt.jpg","null","mooney2","image-keyboard-response","46","332912","0.0-6.0-5.5","2714810","co37873","norming","","","","","","",""
"2029.9050000000861","","","post_reveal_questions","survey-likert","47","334943","0.0-6.0-6.5","2714810","co37873","norming","","","{""aha"":3}","[0]","../img/tt/1217tt.jpg","",""
"null","<div style=""font-size:60px;""> </div>","null","fixation","html-keyboard-response","48","335146","0.0-6.0-0.6","2714810","co37873","norming","","","","","","",""
"null","../img/tt/1275tt.jpg","null","mooney1","image-keyboard-response","49","338150","0.0-6.0-1.6","2714810","co37873","norming","","","","","","",""
"14711.270000000019","","","post_mooney1_questions","survey-likert","50","352860","0.0-6.0-2.6","2714810","co37873","norming","","","{""curiosity"":4,""confidence"":1}","[0,1]","../img/tt/1275tt.jpg","",""
"1158.0149999999558","","","recognition","survey-text","51","354020","0.0-6.0-3.6","2714810","co37873","norming","","","{""guess"":""""}","","../img/tt/1275tt.jpg","",""
"null","../img/gs/1275gs.jpg","null","reveal","image-keyboard-response","52","356023","0.0-6.0-4.6","2714810","co37873","norming","","","","","","",""
"null","../img/tt/1275tt.jpg","null","mooney2","image-keyboard-response","53","358027","0.0-6.0-5.6","2714810","co37873","norming","","","","","","",""
"4287.949999999895","","","post_reveal_questions","survey-likert","54","362316","0.0-6.0-6.6","2714810","co37873","norming","","","{""aha"":5}","[0]","../img/tt/1275tt.jpg","",""
"null","<div style=""font-size:60px;""> </div>","null","fixation","html-keyboard-response","55","362518","0.0-6.0-0.7","2714810","co37873","norming","","","","","","",""
"null","../img/tt/1066tt.jpg","null","mooney1","image-keyboard-response","56","365521","0.0-6.0-1.7","2714810","co37873","norming","","","","","","",""
"8106.1500000000815","","","post_mooney1_questions","survey-likert","57","373628","0.0-6.0-2.7","2714810","co37873","norming","","","{""curiosity"":4,""confidence"":1}","[0,1]","../img/tt/1066tt.jpg","",""
"5982.015000000014","","","recognition","survey-text","58","379612","0.0-6.0-3.7","2714810","co37873","norming","","","{""guess"":""car""}","","../img/tt/1066tt.jpg","",""
"null","../img/gs/1066gs.jpg","null","reveal","image-keyboard-response","59","381618","0.0-6.0-4.7","2714810","co37873","norming","","","","","","",""
"null","../img/tt/1066tt.jpg","null","mooney2","image-keyboard-response","60","383625","0.0-6.0-5.7","2714810","co37873","norming","","","","","","",""
"3865.8700000000536","","","post_reveal_questions","survey-likert","61","387492","0.0-6.0-6.7","2714810","co37873","norming","","","{""aha"":5}","[0]","../img/tt/1066tt.jpg","",""
"null","<div style=""font-size:60px;""> </div>","null","fixation","html-keyboard-response","62","387695","0.0-6.0-0.8","2714810","co37873","norming","","","","","","",""
"null","../img/tt/1268tt.jpg","null","mooney1","image-keyboard-response","63","390699","0.0-6.0-1.8","2714810","co37873","norming","","","","","","",""
"5136.280000000144","","","post_mooney1_questions","survey-likert","64","395836","0.0-6.0-2.8","2714810","co37873","norming","","","{""curiosity"":5,""confidence"":0}","[0,1]","../img/tt/1268tt.jpg","",""
"1125.990000000049","","","recognition","survey-text","65","396964","0.0-6.0-3.8","2714810","co37873","norming","","","{""guess"":""""}","","../img/tt/1268tt.jpg","",""
"null","../img/gs/1268gs.jpg","null","reveal","image-keyboard-response","66","398965","0.0-6.0-4.8","2714810","co37873","norming","","","","","","",""
"null","../img/tt/1268tt.jpg","null","mooney2","image-keyboard-response","67","400967","0.0-6.0-5.8","2714810","co37873","norming","","","","","","",""
"4636.539999999921","","","post_reveal_questions","survey-likert","68","405606","0.0-6.0-6.8","2714810","co37873","norming","","","{""aha"":4}","[0]","../img/tt/1268tt.jpg","",""
"null","<div style=""font-size:60px;""> </div>","null","fixation","html-keyboard-response","69","405810","0.0-6.0-0.9","2714810","co37873","norming","","","","","","",""
"null","../img/tt/1241tt.jpg","null","mooney1","image-keyboard-response","70","408813","0.0-6.0-1.9","2714810","co37873","norming","","","","","","",""
"6568.780000000086","","","post_mooney1_questions","survey-likert","71","415382","0.0-6.0-2.9","2714810","co37873","norming","","","{""curiosity"":4,""confidence"":4}","[0,1]","../img/tt/1241tt.jpg","",""
"6454.130000000063","","","recognition","survey-text","72","421838","0.0-6.0-3.9","2714810","co37873","norming","","","{""guess"":""lion""}","","../img/tt/1241tt.jpg","",""
"null","../img/gs/1241gs.jpg","null","reveal","image-keyboard-response","73","423841","0.0-6.0-4.9","2714810","co37873","norming","","","","","","",""
"null","../img/tt/1241tt.jpg","null","mooney2","image-keyboard-response","74","425842","0.0-6.0-5.9","2714810","co37873","norming","","","","","","",""
"3251.5100000000675","","","post_reveal_questions","survey-likert","75","429094","0.0-6.0-6.9","2714810","co37873","norming","","","{""aha"":2}","[0]","../img/tt/1241tt.jpg","",""
"null","<div style=""font-size:60px;""> </div>","null","fixation","html-keyboard-response","76","429305","0.0-6.0-0.10","2714810","co37873","norming","","","","","","",""
"null","../img/tt/1353tt.jpg","null","mooney1","image-keyboard-response","77","432314","0.0-6.0-1.10","2714810","co37873","norming","","","","","","",""
"6331.940000000002","","","post_mooney1_questions","survey-likert","78","438646","0.0-6.0-2.10","2714810","co37873","norming","","","{""curiosity"":4,""confidence"":0}","[0,1]","../img/tt/1353tt.jpg","",""
"2742.030000000086","","","recognition","survey-text","79","441390","0.0-6.0-3.10","2714810","co37873","norming","","","{""guess"":""""}","","../img/tt/1353tt.jpg","",""
"null","../img/gs/1353gs.jpg","null","reveal","image-keyboard-response","80","443392","0.0-6.0-4.10","2714810","co37873","norming","","","","","","",""
"null","../img/tt/1353tt.jpg","null","mooney2","image-keyboard-response","81","445394","0.0-6.0-5.10","2714810","co37873","norming","","","","","","",""
"1907.4749999999767","","","post_reveal_questions","survey-likert","82","447302","0.0-6.0-6.10","2714810","co37873","norming","","","{""aha"":6}","[0]","../img/tt/1353tt.jpg","",""
"null","<div style=""font-size:60px;""> </div>","null","fixation","html-keyboard-response","83","447504","0.0-6.0-0.11","2714810","co37873","norming","","","","","","",""
"null","../img/tt/1307tt.jpg","null","mooney1","image-keyboard-response","84","450514","0.0-6.0-1.11","2714810","co37873","norming","","","","","","",""
"5787.684999999998","","","post_mooney1_questions","survey-likert","85","456303","0.0-6.0-2.11","2714810","co37873","norming","","","{""curiosity"":4,""confidence"":1}","[0,1]","../img/tt/1307tt.jpg","",""
"4342.130000000005","","","recognition","survey-text","86","460646","0.0-6.0-3.11","2714810","co37873","norming","","","{""guess"":""orange""}","","../img/tt/1307tt.jpg","",""
"null","../img/gs/1307gs.jpg","null","reveal","image-keyboard-response","87","462648","0.0-6.0-4.11","2714810","co37873","norming","","","","","","",""
"null","../img/tt/1307tt.jpg","null","mooney2","image-keyboard-response","88","464654","0.0-6.0-5.11","2714810","co37873","norming","","","","","","",""
"2469.7099999998463","","","post_reveal_questions","survey-likert","89","467126","0.0-6.0-6.11","2714810","co37873","norming","","","{""aha"":3}","[0]","../img/tt/1307tt.jpg","",""
"null","<div style=""font-size:60px;""> </div>","null","fixation","html-keyboard-response","90","467329","0.0-6.0-0.12","2714810","co37873","norming","","","","","","",""
"null","../img/tt/380tt.jpg","null","mooney1","image-keyboard-response","91","470334","0.0-6.0-1.12","2714810","co37873","norming","","","","","","",""
"7831.360000000161","","","post_mooney1_questions","survey-likert","92","478167","0.0-6.0-2.12","2714810","co37873","norming","","","{""curiosity"":4,""confidence"":1}","[0,1]","../img/tt/380tt.jpg","",""
"7101.869999999937","","","recognition","survey-text","93","485270","0.0-6.0-3.12","2714810","co37873","norming","","","{""guess"":""monkey""}","","../img/tt/380tt.jpg","",""
"null","../img/gs/380gs.jpg","null","reveal","image-keyboard-response","94","487273","0.0-6.0-4.12","2714810","co37873","norming","","","","","","",""
"null","../img/tt/380tt.jpg","null","mooney2","image-keyboard-response","95","489274","0.0-6.0-5.12","2714810","co37873","norming","","","","","","",""
"2267.454999999958","","","post_reveal_questions","survey-likert","96","491542","0.0-6.0-6.12","2714810","co37873","norming","","","{""aha"":2}","[0]","../img/tt/380tt.jpg","",""
"null","<div style=""font-size:60px;""> </div>","null","fixation","html-keyboard-response","97","491751","0.0-6.0-0.13","2714810","co37873","norming","","","","","","",""
"null","../img/tt/040tt.jpg","null","mooney1","image-keyboard-response","98","494755","0.0-6.0-1.13","2714810","co37873","norming","","","","","","",""
"7482.369999999995","","","post_mooney1_questions","survey-likert","99","502239","0.0-6.0-2.13","2714810","co37873","norming","","","{""curiosity"":4,""confidence"":3}","[0,1]","../img/tt/040tt.jpg","",""
"2197.6650000001537","","","recognition","survey-text","100","504438","0.0-6.0-3.13","2714810","co37873","norming","","","{""guess"":""dog""}","","../img/tt/040tt.jpg","",""
"null","../img/gs/040gs.jpg","null","reveal","image-keyboard-response","101","506440","0.0-6.0-4.13","2714810","co37873","norming","","","","","","",""
"null","../img/tt/040tt.jpg","null","mooney2","image-keyboard-response","102","508442","0.0-6.0-5.13","2714810","co37873","norming","","","","","","",""
"4427.225000000151","","","post_reveal_questions","survey-likert","103","512870","0.0-6.0-6.13","2714810","co37873","norming","","","{""aha"":5}","[0]","../img/tt/040tt.jpg","",""
"null","<div style=""font-size:60px;""> </div>","null","fixation","html-keyboard-response","104","513081","0.0-6.0-0.14","2714810","co37873","norming","","","","","","",""
"null","../img/tt/124tt.jpg","null","mooney1","image-keyboard-response","105","516083","0.0-6.0-1.14","2714810","co37873","norming","","","","","","",""
"6114.565000000119","","","post_mooney1_questions","survey-likert","106","522198","0.0-6.0-2.14","2714810","co37873","norming","","","{""curiosity"":2,""confidence"":5}","[0,1]","../img/tt/124tt.jpg","",""
"2798.300000000163","","","recognition","survey-text","107","524992","0.0-6.0-3.14","2714810","co37873","norming","","","{""guess"":""monkey""}","","../img/tt/124tt.jpg","",""
"null","../img/gs/124gs.jpg","null","reveal","image-keyboard-response","108","527002","0.0-6.0-4.14","2714810","co37873","norming","","","","","","",""
"null","../img/tt/124tt.jpg","null","mooney2","image-keyboard-response","109","529004","0.0-6.0-5.14","2714810","co37873","norming","","","","","","",""
"4131.610000000102","","","post_reveal_questions","survey-likert","110","533136","0.0-6.0-6.14","2714810","co37873","norming","","","{""aha"":1}","[0]","../img/tt/124tt.jpg","",""
"null","<div style=""font-size:60px;""> </div>","null","fixation","html-keyboard-response","111","533342","0.0-6.0-0.15","2714810","co37873","norming","","","","","","",""
"null","../img/tt/497tt.jpg","null","mooney1","image-keyboard-response","112","536348","0.0-6.0-1.15","2714810","co37873","norming","","","","","","",""
"4835.620000000112","","","post_mooney1_questions","survey-likert","113","541185","0.0-6.0-2.15","2714810","co37873","norming","","","{""curiosity"":3,""confidence"":1}","[0,1]","../img/tt/497tt.jpg","",""
"2413.7049999998417","","","recognition","survey-text","114","543601","0.0-6.0-3.15","2714810","co37873","norming","","","{""guess"":""wheel""}","","../img/tt/497tt.jpg","",""
"null","../img/gs/497gs.jpg","null","reveal","image-keyboard-response","115","545607","0.0-6.0-4.15","2714810","co37873","norming","","","","","","",""
"null","../img/tt/497tt.jpg","null","mooney2","image-keyboard-response","116","547617","0.0-6.0-5.15","2714810","co37873","norming","","","","","","",""
"3109.8899999998976","","","post_reveal_questions","survey-likert","117","550729","0.0-6.0-6.15","2714810","co37873","norming","","","{""aha"":4}","[0]","../img/tt/497tt.jpg","",""
"null","<div style=""font-size:60px;""> </div>","null","fixation","html-keyboard-response","118","550930","0.0-6.0-0.16","2714810","co37873","norming","","","","","","",""
"null","../img/tt/1122tt.jpg","null","mooney1","image-keyboard-response","119","553936","0.0-6.0-1.16","2714810","co37873","norming","","","","","","",""
"7255.319999999949","","","post_mooney1_questions","survey-likert","120","561193","0.0-6.0-2.16","2714810","co37873","norming","","","{""curiosity"":5,""confidence"":2}","[0,1]","../img/tt/1122tt.jpg","",""
"4869.800000000163","","","recognition","survey-text","121","566064","0.0-6.0-3.16","2714810","co37873","norming","","","{""guess"":""boat""}","","../img/tt/1122tt.jpg","",""
"null","../img/gs/1122gs.jpg","null","reveal","image-keyboard-response","122","568065","0.0-6.0-4.16","2714810","co37873","norming","","","","","","",""
"null","../img/tt/1122tt.jpg","null","mooney2","image-keyboard-response","123","570076","0.0-6.0-5.16","2714810","co37873","norming","","","","","","",""
"4363.739999999991","","","post_reveal_questions","survey-likert","124","574440","0.0-6.0-6.16","2714810","co37873","norming","","","{""aha"":2}","[0]","../img/tt/1122tt.jpg","",""
"null","<div style=""font-size:60px;""> </div>","null","fixation","html-keyboard-response","125","574647","0.0-6.0-0.17","2714810","co37873","norming","","","","","","",""
"null","../img/tt/1161tt.jpg","null","mooney1","image-keyboard-response","126","577652","0.0-6.0-1.17","2714810","co37873","norming","","","","","","",""
"4875.59999999986","","","post_mooney1_questions","survey-likert","127","582529","0.0-6.0-2.17","2714810","co37873","norming","","","{""curiosity"":4,""confidence"":0}","[0,1]","../img/tt/1161tt.jpg","",""
"997.9499999999534","","","recognition","survey-text","128","583528","0.0-6.0-3.17","2714810","co37873","norming","","","{""guess"":""""}","","../img/tt/1161tt.jpg","",""
"null","../img/gs/1161gs.jpg","null","reveal","image-keyboard-response","129","585543","0.0-6.0-4.17","2714810","co37873","norming","","","","","","",""
"null","../img/tt/1161tt.jpg","null","mooney2","image-keyboard-response","130","587549","0.0-6.0-5.17","2714810","co37873","norming","","","","","","",""
"2919.8950000000186","","","post_reveal_questions","survey-likert","131","590471","0.0-6.0-6.17","2714810","co37873","norming","","","{""aha"":3}","[0]","../img/tt/1161tt.jpg","",""
"null","<div style=""font-size:60px;""> </div>","null","fixation","html-keyboard-response","132","590675","0.0-6.0-0.18","2714810","co37873","norming","","","","","","",""
"null","../img/tt/1046tt.jpg","null","mooney1","image-keyboard-response","133","593687","0.0-6.0-1.18","2714810","co37873","norming","","","","","","",""
"6101.77500000014","","","post_mooney1_questions","survey-likert","134","599791","0.0-6.0-2.18","2714810","co37873","norming","","","{""curiosity"":4,""confidence"":1}","[0,1]","../img/tt/1046tt.jpg","",""
"1781.6399999998976","","","recognition","survey-text","135","601575","0.0-6.0-3.18","2714810","co37873","norming","","","{""guess"":""cat""}","","../img/tt/1046tt.jpg","",""
"null","../img/gs/1046gs.jpg","null","reveal","image-keyboard-response","136","603585","0.0-6.0-4.18","2714810","co37873","norming","","","","","","",""
"null","../img/tt/1046tt.jpg","null","mooney2","image-keyboard-response","137","605595","0.0-6.0-5.18","2714810","co37873","norming","","","","","","",""
"5209.054999999935","","","post_reveal_questions","survey-likert","138","610807","0.0-6.0-6.18","2714810","co37873","norming","","","{""aha"":5}","[0]","../img/tt/1046tt.jpg","",""
"null","<div style=""font-size:60px;""> </div>","null","fixation","html-keyboard-response","139","611010","0.0-6.0-0.19","2714810","co37873","norming","","","","","","",""
"null","../img/tt/584tt.jpg","null","mooney1","image-keyboard-response","140","614014","0.0-6.0-1.19","2714810","co37873","norming","","","","","","",""
"4942.790000000037","","","post_mooney1_questions","survey-likert","141","618959","0.0-6.0-2.19","2714810","co37873","norming","","","{""curiosity"":4,""confidence"":1}","[0,1]","../img/tt/584tt.jpg","",""
"2630.159999999916","","","recognition","survey-text","142","621591","0.0-6.0-3.19","2714810","co37873","norming","","","{""guess"":""flower""}","","../img/tt/584tt.jpg","",""
"null","../img/gs/584gs.jpg","null","reveal","image-keyboard-response","143","623598","0.0-6.0-4.19","2714810","co37873","norming","","","","","","",""
"null","../img/tt/584tt.jpg","null","mooney2","image-keyboard-response","144","625600","0.0-6.0-5.19","2714810","co37873","norming","","","","","","",""
"3676.969999999972","","","post_reveal_questions","survey-likert","145","629279","0.0-6.0-6.19","2714810","co37873","norming","","","{""aha"":2}","[0]","../img/tt/584tt.jpg","",""
"null","<div style=""font-size:60px;""> </div>","null","fixation","html-keyboard-response","146","629490","0.0-6.0-0.20","2714810","co37873","norming","","","","","","",""
"null","../img/tt/036tt.jpg","null","mooney1","image-keyboard-response","147","632502","0.0-6.0-1.20","2714810","co37873","norming","","","","","","",""
"6126.449999999953","","","post_mooney1_questions","survey-likert","148","638631","0.0-6.0-2.20","2714810","co37873","norming","","","{""curiosity"":4,""confidence"":0}","[0,1]","../img/tt/036tt.jpg","",""
"918.0000000001164","","","recognition","survey-text","149","639551","0.0-6.0-3.20","2714810","co37873","norming","","","{""guess"":""""}","","../img/tt/036tt.jpg","",""
"null","../img/gs/036gs.jpg","null","reveal","image-keyboard-response","150","641560","0.0-6.0-4.20","2714810","co37873","norming","","","","","","",""
"null","../img/tt/036tt.jpg","null","mooney2","image-keyboard-response","151","643569","0.0-6.0-5.20","2714810","co37873","norming","","","","","","",""
"3155.784999999916","","","post_reveal_questions","survey-likert","152","646726","0.0-6.0-6.20","2714810","co37873","norming","","","{""aha"":1}","[0]","../img/tt/036tt.jpg","",""
"null","<div style=""font-size:60px;""> </div>","null","fixation","html-keyboard-response","153","646934","0.0-6.0-0.21","2714810","co37873","norming","","","","","","",""
"null","../img/tt/1200tt.jpg","null","mooney1","image-keyboard-response","154","649940","0.0-6.0-1.21","2714810","co37873","norming","","","","","","",""
"9775.110000000102","","","post_mooney1_questions","survey-likert","155","659718","0.0-6.0-2.21","2714810","co37873","norming","","","{""curiosity"":5,""confidence"":1}","[0,1]","../img/tt/1200tt.jpg","",""
"2350.2299999999814","","","recognition","survey-text","156","662070","0.0-6.0-3.21","2714810","co37873","norming","","","{""guess"":""river""}","","../img/tt/1200tt.jpg","",""
"null","../img/gs/1200gs.jpg","null","reveal","image-keyboard-response","157","664078","0.0-6.0-4.21","2714810","co37873","norming","","","","","","",""
"null","../img/tt/1200tt.jpg","null","mooney2","image-keyboard-response","158","666088","0.0-6.0-5.21","2714810","co37873","norming","","","","","","",""
"5308.030000000144","","","post_reveal_questions","survey-likert","159","671398","0.0-6.0-6.21","2714810","co37873","norming","","","{""aha"":4}","[0]","../img/tt/1200tt.jpg","",""
"null","<div style=""font-size:60px;""> </div>","null","fixation","html-keyboard-response","160","671606","0.0-6.0-0.22","2714810","co37873","norming","","","","","","",""
"null","../img/tt/1072tt.jpg","null","mooney1","image-keyboard-response","161","674615","0.0-6.0-1.22","2714810","co37873","norming","","","","","","",""
"4996.324999999837","","","post_mooney1_questions","survey-likert","162","679614","0.0-6.0-2.22","2714810","co37873","norming","","","{""curiosity"":4,""confidence"":0}","[0,1]","../img/tt/1072tt.jpg","",""
"998.0749999999534","","","recognition","survey-text","163","680614","0.0-6.0-3.22","2714810","co37873","norming","","","{""guess"":""""}","","../img/tt/1072tt.jpg","",""
"null","../img/gs/1072gs.jpg","null","reveal","image-keyboard-response","164","682615","0.0-6.0-4.22","2714810","co37873","norming","","","","","","",""
"null","../img/tt/1072tt.jpg","null","mooney2","image-keyboard-response","165","684618","0.0-6.0-5.22","2714810","co37873","norming","","","","","","",""
"3369.2950000002747","","","post_reveal_questions","survey-likert","166","687990","0.0-6.0-6.22","2714810","co37873","norming","","","{""aha"":3}","[0]","../img/tt/1072tt.jpg","",""
"null","<div style=""font-size:60px;""> </div>","null","fixation","html-keyboard-response","167","688191","0.0-6.0-0.23","2714810","co37873","norming","","","","","","",""
"null","../img/tt/1040tt.jpg","null","mooney1","image-keyboard-response","168","691196","0.0-6.0-1.23","2714810","co37873","norming","","","","","","",""
"5168.389999999781","","","post_mooney1_questions","survey-likert","169","696366","0.0-6.0-2.23","2714810","co37873","norming","","","{""curiosity"":5,""confidence"":0}","[0,1]","../img/tt/1040tt.jpg","",""
"1070.1950000000652","","","recognition","survey-text","170","697438","0.0-6.0-3.23","2714810","co37873","norming","","","{""guess"":""""}","","../img/tt/1040tt.jpg","",""
"null","../img/gs/1040gs.jpg","null","reveal","image-keyboard-response","171","699440","0.0-6.0-4.23","2714810","co37873","norming","","","","","","",""
"null","../img/tt/1040tt.jpg","null","mooney2","image-keyboard-response","172","701442","0.0-6.0-5.23","2714810","co37873","norming","","","","","","",""
"2489.5350000002654","","","post_reveal_questions","survey-likert","173","703934","0.0-6.0-6.23","2714810","co37873","norming","","","{""aha"":5}","[0]","../img/tt/1040tt.jpg","",""
"null","<div style=""font-size:60px;""> </div>","null","fixation","html-keyboard-response","174","704135","0.0-6.0-0.24","2714810","co37873","norming","","","","","","",""
"null","../img/tt/1181tt.jpg","null","mooney1","image-keyboard-response","175","707146","0.0-6.0-1.24","2714810","co37873","norming","","","","","","",""
"4582.644999999902","","","post_mooney1_questions","survey-likert","176","711730","0.0-6.0-2.24","2714810","co37873","norming","","","{""curiosity"":4,""confidence"":0}","[0,1]","../img/tt/1181tt.jpg","",""
"1206.0250000000233","","","recognition","survey-text","177","712938","0.0-6.0-3.24","2714810","co37873","norming","","","{""guess"":""""}","","../img/tt/1181tt.jpg","",""
"null","../img/gs/1181gs.jpg","null","reveal","image-keyboard-response","178","714943","0.0-6.0-4.24","2714810","co37873","norming","","","","","","",""
"null","../img/tt/1181tt.jpg","null","mooney2","image-keyboard-response","179","716946","0.0-6.0-5.24","2714810","co37873","norming","","","","","","",""
"2735.1049999999814","","","post_reveal_questions","survey-likert","180","719682","0.0-6.0-6.24","2714810","co37873","norming","","","{""aha"":4}","[0]","../img/tt/1181tt.jpg","",""
"null","<div style=""font-size:60px;""> </div>","null","fixation","html-keyboard-response","181","719887","0.0-6.0-0.25","2714810","co37873","norming","","","","","","",""
"null","../img/tt/001tt.jpg","null","mooney1","image-keyboard-response","182","722897","0.0-6.0-1.25","2714810","co37873","norming","","","","","","",""
"5390.579999999958","","","post_mooney1_questions","survey-likert","183","728290","0.0-6.0-2.25","2714810","co37873","norming","","","{""curiosity"":4,""confidence"":1}","[0,1]","../img/tt/001tt.jpg","",""
"1941.9749999999767","","","recognition","survey-text","184","730234","0.0-6.0-3.25","2714810","co37873","norming","","","{""guess"":""dog""}","","../img/tt/001tt.jpg","",""
"null","../img/gs/001gs.jpg","null","reveal","image-keyboard-response","185","732238","0.0-6.0-4.25","2714810","co37873","norming","","","","","","",""
"null","../img/tt/001tt.jpg","null","mooney2","image-keyboard-response","186","734241","0.0-6.0-5.25","2714810","co37873","norming","","","","","","",""
"2039.0700000000652","","","post_reveal_questions","survey-likert","187","736282","0.0-6.0-6.25","2714810","co37873","norming","","","{""aha"":3}","[0]","../img/tt/001tt.jpg","",""
"null","<div style=""font-size:60px;""> </div>","null","fixation","html-keyboard-response","188","736485","0.0-6.0-0.26","2714810","co37873","norming","","","","","","",""
"null","../img/tt/590tt.jpg","null","mooney1","image-keyboard-response","189","739495","0.0-6.0-1.26","2714810","co37873","norming","","","","","","",""
"8200.224999999977","","","post_mooney1_questions","survey-likert","190","747698","0.0-6.0-2.26","2714810","co37873","norming","","","{""curiosity"":3,""confidence"":0}","[0,1]","../img/tt/590tt.jpg","",""
"1046.109999999986","","","recognition","survey-text","191","748746","0.0-6.0-3.26","2714810","co37873","norming","","","{""guess"":""""}","","../img/tt/590tt.jpg","",""
"null","../img/gs/590gs.jpg","null","reveal","image-keyboard-response","192","750756","0.0-6.0-4.26","2714810","co37873","norming","","","","","","",""
"null","../img/tt/590tt.jpg","null","mooney2","image-keyboard-response","193","752758","0.0-6.0-5.26","2714810","co37873","norming","","","","","","",""
"2753.4499999999534","","","post_reveal_questions","survey-likert","194","755514","0.0-6.0-6.26","2714810","co37873","norming","","","{""aha"":1}","[0]","../img/tt/590tt.jpg","",""
"null","<div style=""font-size:60px;""> </div>","null","fixation","html-keyboard-response","195","755719","0.0-6.0-0.27","2714810","co37873","norming","","","","","","",""
"null","../img/tt/1107tt.jpg","null","mooney1","image-keyboard-response","196","758726","0.0-6.0-1.27","2714810","co37873","norming","","","","","","",""
"7211.0800000000745","","","post_mooney1_questions","survey-likert","197","765938","0.0-6.0-2.27","2714810","co37873","norming","","","{""curiosity"":3,""confidence"":0}","[0,1]","../img/tt/1107tt.jpg","",""
"878.1750000000466","","","recognition","survey-text","198","766818","0.0-6.0-3.27","2714810","co37873","norming","","","{""guess"":""""}","","../img/tt/1107tt.jpg","",""
"null","../img/gs/1107gs.jpg","null","reveal","image-keyboard-response","199","768823","0.0-6.0-4.27","2714810","co37873","norming","","","","","","",""
"null","../img/tt/1107tt.jpg","null","mooney2","image-keyboard-response","200","770828","0.0-6.0-5.27","2714810","co37873","norming","","","","","","",""
"2261.5749999999534","","","post_reveal_questions","survey-likert","201","773092","0.0-6.0-6.27","2714810","co37873","norming","","","{""aha"":4}","[0]","../img/tt/1107tt.jpg","",""
"null","<div style=""font-size:60px;""> </div>","null","fixation","html-keyboard-response","202","773297","0.0-6.0-0.28","2714810","co37873","norming","","","","","","",""
"null","../img/tt/135tt.jpg","null","mooney1","image-keyboard-response","203","776300","0.0-6.0-1.28","2714810","co37873","norming","","","","","","",""
"5581.715000000084","","","post_mooney1_questions","survey-likert","204","781884","0.0-6.0-2.28","2714810","co37873","norming","","","{""curiosity"":4,""confidence"":4}","[0,1]","../img/tt/135tt.jpg","",""
"2621.984999999986","","","recognition","survey-text","205","784507","0.0-6.0-3.28","2714810","co37873","norming","","","{""guess"":""toilet""}","","../img/tt/135tt.jpg","",""
"null","../img/gs/135gs.jpg","null","reveal","image-keyboard-response","206","786509","0.0-6.0-4.28","2714810","co37873","norming","","","","","","",""
"null","../img/tt/135tt.jpg","null","mooney2","image-keyboard-response","207","788511","0.0-6.0-5.28","2714810","co37873","norming","","","","","","",""
"1586.5500000000466","","","post_reveal_questions","survey-likert","208","790100","0.0-6.0-6.28","2714810","co37873","norming","","","{""aha"":0}","[0]","../img/tt/135tt.jpg","",""
"null","<div style=""font-size:60px;""> </div>","null","fixation","html-keyboard-response","209","790302","0.0-6.0-0.29","2714810","co37873","norming","","","","","","",""
"null","../img/tt/1199tt.jpg","null","mooney1","image-keyboard-response","210","793308","0.0-6.0-1.29","2714810","co37873","norming","","","","","","",""
"4621.005000000005","","","post_mooney1_questions","survey-likert","211","797932","0.0-6.0-2.29","2714810","co37873","norming","","","{""curiosity"":4,""confidence"":1}","[0,1]","../img/tt/1199tt.jpg","",""
"2382.0650000000605","","","recognition","survey-text","212","800316","0.0-6.0-3.29","2714810","co37873","norming","","","{""guess"":""child""}","","../img/tt/1199tt.jpg","",""
"null","../img/gs/1199gs.jpg","null","reveal","image-keyboard-response","213","802319","0.0-6.0-4.29","2714810","co37873","norming","","","","","","",""
"null","../img/tt/1199tt.jpg","null","mooney2","image-keyboard-response","214","804322","0.0-6.0-5.29","2714810","co37873","norming","","","","","","",""
"1789.6250000001164","","","post_reveal_questions","survey-likert","215","806116","0.0-6.0-6.29","2714810","co37873","norming","","","{""aha"":5}","[0]","../img/tt/1199tt.jpg","",""
"null","<div style=""font-size:60px;""> </div>","null","fixation","html-keyboard-response","216","806326","0.0-6.0-0.30","2714810","co37873","norming","","","","","","",""
"null","../img/tt/096tt.jpg","null","mooney1","image-keyboard-response","217","809329","0.0-6.0-1.30","2714810","co37873","norming","","","","","","",""
"4928.650000000023","","","post_mooney1_questions","survey-likert","218","814260","0.0-6.0-2.30","2714810","co37873","norming","","","{""curiosity"":2,""confidence"":6}","[0,1]","../img/tt/096tt.jpg","",""
"3526.1049999999814","","","recognition","survey-text","219","817788","0.0-6.0-3.30","2714810","co37873","norming","","","{""guess"":""piano""}","","../img/tt/096tt.jpg","",""
"null","../img/gs/096gs.jpg","null","reveal","image-keyboard-response","220","819790","0.0-6.0-4.30","2714810","co37873","norming","","","","","","",""
"null","../img/tt/096tt.jpg","null","mooney2","image-keyboard-response","221","821794","0.0-6.0-5.30","2714810","co37873","norming","","","","","","",""
"4143.75","","","post_reveal_questions","survey-likert","222","825940","0.0-6.0-6.30","2714810","co37873","norming","","","{""aha"":0}","[0]","../img/tt/096tt.jpg","",""
"null","<div style=""font-size:60px;""> </div>","null","fixation","html-keyboard-response","223","826141","0.0-6.0-0.31","2714810","co37873","norming","","","","","","",""
"null","../img/tt/1070tt.jpg","null","mooney1","image-keyboard-response","224","829151","0.0-6.0-1.31","2714810","co37873","norming","","","","","","",""
"4782.650000000023","","","post_mooney1_questions","survey-likert","225","833934","0.0-6.0-2.31","2714810","co37873","norming","","","{""curiosity"":3,""confidence"":1}","[0,1]","../img/tt/1070tt.jpg","",""
"2094.155000000028","","","recognition","survey-text","226","836030","0.0-6.0-3.31","2714810","co37873","norming","","","{""guess"":""food""}","","../img/tt/1070tt.jpg","",""
"null","../img/gs/1070gs.jpg","null","reveal","image-keyboard-response","227","838039","0.0-6.0-4.31","2714810","co37873","norming","","","","","","",""
"null","../img/tt/1070tt.jpg","null","mooney2","image-keyboard-response","228","840045","0.0-6.0-5.31","2714810","co37873","norming","","","","","","",""
"2894.5000000001164","","","post_reveal_questions","survey-likert","229","842942","0.0-6.0-6.31","2714810","co37873","norming","","","{""aha"":3}","[0]","../img/tt/1070tt.jpg","",""
"null","<div style=""font-size:60px;""> </div>","null","fixation","html-keyboard-response","230","843151","0.0-6.0-0.32","2714810","co37873","norming","","","","","","",""
"null","../img/tt/1069tt.jpg","null","mooney1","image-keyboard-response","231","846160","0.0-6.0-1.32","2714810","co37873","norming","","","","","","",""
"5300.715000000084","","","post_mooney1_questions","survey-likert","232","851462","0.0-6.0-2.32","2714810","co37873","norming","","","{""curiosity"":4,""confidence"":4}","[0,1]","../img/tt/1069tt.jpg","",""
"2085.935000000056","","","recognition","survey-text","233","853550","0.0-6.0-3.32","2714810","co37873","norming","","","{""guess"":""sheep""}","","../img/tt/1069tt.jpg","",""
"null","../img/gs/1069gs.jpg","null","reveal","image-keyboard-response","234","855564","0.0-6.0-4.32","2714810","co37873","norming","","","","","","",""
"null","../img/tt/1069tt.jpg","null","mooney2","image-keyboard-response","235","857565","0.0-6.0-5.32","2714810","co37873","norming","","","","","","",""
"2031.4650000000838","","","post_reveal_questions","survey-likert","236","859598","0.0-6.0-6.32","2714810","co37873","norming","","","{""aha"":1}","[0]","../img/tt/1069tt.jpg","",""
"null","<div style=""font-size:60px;""> </div>","null","fixation","html-keyboard-response","237","859799","0.0-6.0-0.33","2714810","co37873","norming","","","","","","",""
"null","../img/tt/1186tt.jpg","null","mooney1","image-keyboard-response","238","862801","0.0-6.0-1.33","2714810","co37873","norming","","","","","","",""
"4868.185000000056","","","post_mooney1_questions","survey-likert","239","867670","0.0-6.0-2.33","2714810","co37873","norming","","","{""curiosity"":3,""confidence"":1}","[0,1]","../img/tt/1186tt.jpg","",""
"4694.089999999967","","","recognition","survey-text","240","872366","0.0-6.0-3.33","2714810","co37873","norming","","","{""guess"":""walkig man""}","","../img/tt/1186tt.jpg","",""
"null","../img/gs/1186gs.jpg","null","reveal","image-keyboard-response","241","874375","0.0-6.0-4.33","2714810","co37873","norming","","","","","","",""
"null","../img/tt/1186tt.jpg","null","mooney2","image-keyboard-response","242","876376","0.0-6.0-5.33","2714810","co37873","norming","","","","","","",""
"2427.3950000000186","","","post_reveal_questions","survey-likert","243","878806","0.0-6.0-6.33","2714810","co37873","norming","","","{""aha"":2}","[0]","../img/tt/1186tt.jpg","",""
"null","<div style=""font-size:60px;""> </div>","null","fixation","html-keyboard-response","244","879011","0.0-6.0-0.34","2714810","co37873","norming","","","","","","",""
"null","../img/tt/378tt.jpg","null","mooney1","image-keyboard-response","245","882017","0.0-6.0-1.34","2714810","co37873","norming","","","","","","",""
"6753.760000000009","","","post_mooney1_questions","survey-likert","246","888774","0.0-6.0-2.34","2714810","co37873","norming","","","{""curiosity"":4,""confidence"":0}","[0,1]","../img/tt/378tt.jpg","",""
"2293.744999999879","","","recognition","survey-text","247","891071","0.0-6.0-3.34","2714810","co37873","norming","","","{""guess"":""""}","","../img/tt/378tt.jpg","",""
"null","../img/gs/378gs.jpg","null","reveal","image-keyboard-response","248","893073","0.0-6.0-4.34","2714810","co37873","norming","","","","","","",""
"null","../img/tt/378tt.jpg","null","mooney2","image-keyboard-response","249","895076","0.0-6.0-5.34","2714810","co37873","norming","","","","","","",""
"3217.280000000028","","","post_reveal_questions","survey-likert","250","898296","0.0-6.0-6.34","2714810","co37873","norming","","","{""aha"":5}","[0]","../img/tt/378tt.jpg","",""
"null","<div style=""font-size:60px;""> </div>","null","fixation","html-keyboard-response","251","898503","0.0-6.0-0.35","2714810","co37873","norming","","","","","","",""
"null","../img/tt/405tt.jpg","null","mooney1","image-keyboard-response","252","901506","0.0-6.0-1.35","2714810","co37873","norming","","","","","","",""
"4930.789999999921","","","post_mooney1_questions","survey-likert","253","906440","0.0-6.0-2.35","2714810","co37873","norming","","","{""curiosity"":1,""confidence"":6}","[0,1]","../img/tt/405tt.jpg","",""
"3061.944999999949","","","recognition","survey-text","254","909503","0.0-6.0-3.35","2714810","co37873","norming","","","{""guess"":""koala""}","","../img/tt/405tt.jpg","",""
"null","../img/gs/405gs.jpg","null","reveal","image-keyboard-response","255","911506","0.0-6.0-4.35","2714810","co37873","norming","","","","","","",""
"null","../img/tt/405tt.jpg","null","mooney2","image-keyboard-response","256","913509","0.0-6.0-5.35","2714810","co37873","norming","","","","","","",""
"3992.8099999999395","","","post_reveal_questions","survey-likert","257","917504","0.0-6.0-6.35","2714810","co37873","norming","","","{""aha"":0}","[0]","../img/tt/405tt.jpg","",""
"null","<div style=""font-size:60px;""> </div>","null","fixation","html-keyboard-response","258","917706","0.0-6.0-0.36","2714810","co37873","norming","","","","","","",""
"null","../img/tt/481tt.jpg","null","mooney1","image-keyboard-response","259","920709","0.0-6.0-1.36","2714810","co37873","norming","","","","","","",""
"4392.0650000000605","","","post_mooney1_questions","survey-likert","260","925104","0.0-6.0-2.36","2714810","co37873","norming","","","{""curiosity"":1,""confidence"":5}","[0,1]","../img/tt/481tt.jpg","",""
"1726.1749999999302","","","recognition","survey-text","261","926832","0.0-6.0-3.36","2714810","co37873","norming","","","{""guess"":""dog""}","","../img/tt/481tt.jpg","",""
"null","../img/gs/481gs.jpg","null","reveal","image-keyboard-response","262","928833","0.0-6.0-4.36","2714810","co37873","norming","","","","","","",""
"null","../img/tt/481tt.jpg","null","mooney2","image-keyboard-response","263","930835","0.0-6.0-5.36","2714810","co37873","norming","","","","","","",""
"2489.994999999879","","","post_reveal_questions","survey-likert","264","933328","0.0-6.0-6.36","2714810","co37873","norming","","","{""aha"":0}","[0]","../img/tt/481tt.jpg","",""
"null","<div style=""font-size:60px;""> </div>","null","fixation","html-keyboard-response","265","933535","0.0-6.0-0.37","2714810","co37873","norming","","","","","","",""
"null","../img/tt/052tt.jpg","null","mooney1","image-keyboard-response","266","936547","0.0-6.0-1.37","2714810","co37873","norming","","","","","","",""
"5249.650000000023","","","post_mooney1_questions","survey-likert","267","941800","0.0-6.0-2.37","2714810","co37873","norming","","","{""curiosity"":5,""confidence"":0}","[0,1]","../img/tt/052tt.jpg","",""
"925.9000000000233","","","recognition","survey-text","268","942727","0.0-6.0-3.37","2714810","co37873","norming","","","{""guess"":""""}","","../img/tt/052tt.jpg","",""
"null","../img/gs/052gs.jpg","null","reveal","image-keyboard-response","269","944732","0.0-6.0-4.37","2714810","co37873","norming","","","","","","",""
"null","../img/tt/052tt.jpg","null","mooney2","image-keyboard-response","270","946740","0.0-6.0-5.37","2714810","co37873","norming","","","","","","",""
"2361.3000000000466","","","post_reveal_questions","survey-likert","271","949104","0.0-6.0-6.37","2714810","co37873","norming","","","{""aha"":1}","[0]","../img/tt/052tt.jpg","",""
"null","<div style=""font-size:60px;""> </div>","null","fixation","html-keyboard-response","272","949306","0.0-6.0-0.38","2714810","co37873","norming","","","","","","",""
"null","../img/tt/1151tt.jpg","null","mooney1","image-keyboard-response","273","952311","0.0-6.0-1.38","2714810","co37873","norming","","","","","","",""
"3776.8850000000093","","","post_mooney1_questions","survey-likert","274","956089","0.0-6.0-2.38","2714810","co37873","norming","","","{""curiosity"":3,""confidence"":0}","[0,1]","../img/tt/1151tt.jpg","",""
"814.0300000000279","","","recognition","survey-text","275","956905","0.0-6.0-3.38","2714810","co37873","norming","","","{""guess"":""""}","","../img/tt/1151tt.jpg","",""
"null","../img/gs/1151gs.jpg","null","reveal","image-keyboard-response","276","958913","0.0-6.0-4.38","2714810","co37873","norming","","","","","","",""
"null","../img/tt/1151tt.jpg","null","mooney2","image-keyboard-response","277","960924","0.0-6.0-5.38","2714810","co37873","norming","","","","","","",""
"1794.6600000000326","","","post_reveal_questions","survey-likert","278","962721","0.0-6.0-6.38","2714810","co37873","norming","","","{""aha"":1}","[0]","../img/tt/1151tt.jpg","",""
"null","<div style=""font-size:60px;""> </div>","null","fixation","html-keyboard-response","279","962923","0.0-6.0-0.39","2714810","co37873","norming","","","","","","",""
"null","../img/tt/559tt.jpg","null","mooney1","image-keyboard-response","280","965930","0.0-6.0-1.39","2714810","co37873","norming","","","","","","",""
"4004.715000000084","","","post_mooney1_questions","survey-likert","281","969937","0.0-6.0-2.39","2714810","co37873","norming","","","{""curiosity"":4,""confidence"":4}","[0,1]","../img/tt/559tt.jpg","",""
"4814.109999999753","","","recognition","survey-text","282","974753","0.0-6.0-3.39","2714810","co37873","norming","","","{""guess"":""sewing machine""}","","../img/tt/559tt.jpg","",""
"null","../img/gs/559gs.jpg","null","reveal","image-keyboard-response","283","976759","0.0-6.0-4.39","2714810","co37873","norming","","","","","","",""
"null","../img/tt/559tt.jpg","null","mooney2","image-keyboard-response","284","978762","0.0-6.0-5.39","2714810","co37873","norming","","","","","","",""
"2181.1999999999534","","","post_reveal_questions","survey-likert","285","980945","0.0-6.0-6.39","2714810","co37873","norming","","","{""aha"":0}","[0]","../img/tt/559tt.jpg","",""
"null","<div style=""font-size:60px;""> </div>","null","fixation","html-keyboard-response","286","981155","0.0-6.0-0.40","2714810","co37873","norming","","","","","","",""
"null","../img/tt/1250tt.jpg","null","mooney1","image-keyboard-response","287","984159","0.0-6.0-1.40","2714810","co37873","norming","","","","","","",""
"4679.540000000154","","","post_mooney1_questions","survey-likert","288","988841","0.0-6.0-2.40","2714810","co37873","norming","","","{""curiosity"":4,""confidence"":2}","[0,1]","../img/tt/1250tt.jpg","",""
"2486.3250000003027","","","recognition","survey-text","289","991329","0.0-6.0-3.40","2714810","co37873","norming","","","{""guess"":""otter""}","","../img/tt/1250tt.jpg","",""
"null","../img/gs/1250gs.jpg","null","reveal","image-keyboard-response","290","993332","0.0-6.0-4.40","2714810","co37873","norming","","","","","","",""
"null","../img/tt/1250tt.jpg","null","mooney2","image-keyboard-response","291","995333","0.0-6.0-5.40","2714810","co37873","norming","","","","","","",""
"3297.4450000001816","","","post_reveal_questions","survey-likert","292","998633","0.0-6.0-6.40","2714810","co37873","norming","","","{""aha"":3}","[0]","../img/tt/1250tt.jpg","",""
"null","<div style=""font-size:60px;""> </div>","null","fixation","html-keyboard-response","293","998835","0.0-6.0-0.41","2714810","co37873","norming","","","","","","",""
"null","../img/tt/1128tt.jpg","null","mooney1","image-keyboard-response","294","1001839","0.0-6.0-1.41","2714810","co37873","norming","","","","","","",""
"4271.895000000368","","","post_mooney1_questions","survey-likert","295","1006113","0.0-6.0-2.41","2714810","co37873","norming","","","{""curiosity"":3,""confidence"":0}","[0,1]","../img/tt/1128tt.jpg","",""
"598.0850000000792","","","recognition","survey-text","296","1006713","0.0-6.0-3.41","2714810","co37873","norming","","","{""guess"":""""}","","../img/tt/1128tt.jpg","",""
"null","../img/gs/1128gs.jpg","null","reveal","image-keyboard-response","297","1008714","0.0-6.0-4.41","2714810","co37873","norming","","","","","","",""
"null","../img/tt/1128tt.jpg","null","mooney2","image-keyboard-response","298","1010717","0.0-6.0-5.41","2714810","co37873","norming","","","","","","",""
"1962.1099999998696","","","post_reveal_questions","survey-likert","299","1012681","0.0-6.0-6.41","2714810","co37873","norming","","","{""aha"":1}","[0]","../img/tt/1128tt.jpg","",""
"null","<div style=""font-size:60px;""> </div>","null","fixation","html-keyboard-response","300","1012885","0.0-6.0-0.42","2714810","co37873","norming","","","","","","",""
"null","../img/tt/126tt.jpg","null","mooney1","image-keyboard-response","301","1015888","0.0-6.0-1.42","2714810","co37873","norming","","","","","","",""
"3510.249999999767","","","post_mooney1_questions","survey-likert","302","1019401","0.0-6.0-2.42","2714810","co37873","norming","","","{""curiosity"":4,""confidence"":4}","[0,1]","../img/tt/126tt.jpg","",""
"1749.8549999999814","","","recognition","survey-text","303","1021153","0.0-6.0-3.42","2714810","co37873","norming","","","{""guess"":""cow""}","","../img/tt/126tt.jpg","",""
"null","../img/gs/126gs.jpg","null","reveal","image-keyboard-response","304","1023154","0.0-6.0-4.42","2714810","co37873","norming","","","","","","",""
"null","../img/tt/126tt.jpg","null","mooney2","image-keyboard-response","305","1025154","0.0-6.0-5.42","2714810","co37873","norming","","","","","","",""
"1558.0399999999208","","","post_reveal_questions","survey-likert","306","1026713","0.0-6.0-6.42","2714810","co37873","norming","","","{""aha"":0}","[0]","../img/tt/126tt.jpg","",""
"null","<div style=""font-size:60px;""> </div>","null","fixation","html-keyboard-response","307","1026921","0.0-6.0-0.43","2714810","co37873","norming","","","","","","",""
"null","../img/tt/1123tt.jpg","null","mooney1","image-keyboard-response","308","1029930","0.0-6.0-1.43","2714810","co37873","norming","","","","","","",""
"5094.389999999665","","","post_mooney1_questions","survey-likert","309","1035025","0.0-6.0-2.43","2714810","co37873","norming","","","{""curiosity"":3,""confidence"":4}","[0,1]","../img/tt/1123tt.jpg","",""
"4414.314999999944","","","recognition","survey-text","310","1039441","0.0-6.0-3.43","2714810","co37873","norming","","","{""guess"":""ball player""}","","../img/tt/1123tt.jpg","",""
"null","../img/gs/1123gs.jpg","null","reveal","image-keyboard-response","311","1041451","0.0-6.0-4.43","2714810","co37873","norming","","","","","","",""
"null","../img/tt/1123tt.jpg","null","mooney2","image-keyboard-response","312","1043462","0.0-6.0-5.43","2714810","co37873","norming","","","","","","",""
"3001.1949999998324","","","post_reveal_questions","survey-likert","313","1046465","0.0-6.0-6.43","2714810","co37873","norming","","","{""aha"":1}","[0]","../img/tt/1123tt.jpg","",""
"null","<div style=""font-size:60px;""> </div>","null","fixation","html-keyboard-response","314","1046672","0.0-6.0-0.44","2714810","co37873","norming","","","","","","",""
"null","../img/tt/496tt.jpg","null","mooney1","image-keyboard-response","315","1049677","0.0-6.0-1.44","2714810","co37873","norming","","","","","","",""
"3865.100000000093","","","post_mooney1_questions","survey-likert","316","1053545","0.0-6.0-2.44","2714810","co37873","norming","","","{""curiosity"":3,""confidence"":0}","[0,1]","../img/tt/496tt.jpg","",""
"766.1349999997765","","","recognition","survey-text","317","1054313","0.0-6.0-3.44","2714810","co37873","norming","","","{""guess"":""""}","","../img/tt/496tt.jpg","",""
"null","../img/gs/496gs.jpg","null","reveal","image-keyboard-response","318","1056321","0.0-6.0-4.44","2714810","co37873","norming","","","","","","",""
"null","../img/tt/496tt.jpg","null","mooney2","image-keyboard-response","319","1058332","0.0-6.0-5.44","2714810","co37873","norming","","","","","","",""
"1898.8400000003166","","","post_reveal_questions","survey-likert","320","1060233","0.0-6.0-6.44","2714810","co37873","norming","","","{""aha"":5}","[0]","../img/tt/496tt.jpg","",""
"null","<div style=""font-size:60px;""> </div>","null","fixation","html-keyboard-response","321","1060435","0.0-6.0-0.45","2714810","co37873","norming","","","","","","",""
"null","../img/tt/084tt.jpg","null","mooney1","image-keyboard-response","322","1063443","0.0-6.0-1.45","2714810","co37873","norming","","","","","","",""
"5115.985000000102","","","post_mooney1_questions","survey-likert","323","1068561","0.0-6.0-2.45","2714810","co37873","norming","","","{""curiosity"":3,""confidence"":6}","[0,1]","../img/tt/084tt.jpg","",""
"1950.1099999998696","","","recognition","survey-text","324","1070513","0.0-6.0-3.45","2714810","co37873","norming","","","{""guess"":""duck""}","","../img/tt/084tt.jpg","",""
"null","../img/gs/084gs.jpg","null","reveal","image-keyboard-response","325","1072514","0.0-6.0-4.45","2714810","co37873","norming","","","","","","",""
"null","../img/tt/084tt.jpg","null","mooney2","image-keyboard-response","326","1074515","0.0-6.0-5.45","2714810","co37873","norming","","","","","","",""
"3307.7650000001304","","","post_reveal_questions","survey-likert","327","1077825","0.0-6.0-6.45","2714810","co37873","norming","","","{""aha"":0}","[0]","../img/tt/084tt.jpg","",""
"null","<div style=""font-size:60px;""> </div>","null","fixation","html-keyboard-response","328","1078027","0.0-6.0-0.46","2714810","co37873","norming","","","","","","",""
"null","../img/tt/1002tt.jpg","null","mooney1","image-keyboard-response","329","1081035","0.0-6.0-1.46","2714810","co37873","norming","","","","","","",""
"4139.260000000475","","","post_mooney1_questions","survey-likert","330","1085177","0.0-6.0-2.46","2714810","co37873","norming","","","{""curiosity"":3,""confidence"":0}","[0,1]","../img/tt/1002tt.jpg","",""
"942.1050000002142","","","recognition","survey-text","331","1086121","0.0-6.0-3.46","2714810","co37873","norming","","","{""guess"":""""}","","../img/tt/1002tt.jpg","",""
"null","../img/gs/1002gs.jpg","null","reveal","image-keyboard-response","332","1088128","0.0-6.0-4.46","2714810","co37873","norming","","","","","","",""
"null","../img/tt/1002tt.jpg","null","mooney2","image-keyboard-response","333","1090131","0.0-6.0-5.46","2714810","co37873","norming","","","","","","",""
"4484.645000000019","","","post_reveal_questions","survey-likert","334","1094617","0.0-6.0-6.46","2714810","co37873","norming","","","{""aha"":1}","[0]","../img/tt/1002tt.jpg","",""
"null","<div style=""font-size:60px;""> </div>","null","fixation","html-keyboard-response","335","1094825","0.0-6.0-0.47","2714810","co37873","norming","","","","","","",""
"null","../img/tt/1024tt.jpg","null","mooney1","image-keyboard-response","336","1097833","0.0-6.0-1.47","2714810","co37873","norming","","","","","","",""
"4717.385000000009","","","post_mooney1_questions","survey-likert","337","1102553","0.0-6.0-2.47","2714810","co37873","norming","","","{""curiosity"":4,""confidence"":3}","[0,1]","../img/tt/1024tt.jpg","",""
"2213.7450000001118","","","recognition","survey-text","338","1104769","0.0-6.0-3.47","2714810","co37873","norming","","","{""guess"":""woman""}","","../img/tt/1024tt.jpg","",""
"null","../img/gs/1024gs.jpg","null","reveal","image-keyboard-response","339","1106777","0.0-6.0-4.47","2714810","co37873","norming","","","","","","",""
"null","../img/tt/1024tt.jpg","null","mooney2","image-keyboard-response","340","1108784","0.0-6.0-5.47","2714810","co37873","norming","","","","","","",""
"2398.125","","","post_reveal_questions","survey-likert","341","1111185","0.0-6.0-6.47","2714810","co37873","norming","","","{""aha"":4}","[0]","../img/tt/1024tt.jpg","",""
"null","<div style=""font-size:60px;""> </div>","null","fixation","html-keyboard-response","342","1111393","0.0-6.0-0.48","2714810","co37873","norming","","","","","","",""
"null","../img/tt/1309tt.jpg","null","mooney1","image-keyboard-response","343","1114398","0.0-6.0-1.48","2714810","co37873","norming","","","","","","",""
"5504.659999999916","","","post_mooney1_questions","survey-likert","344","1119905","0.0-6.0-2.48","2714810","co37873","norming","","","{""curiosity"":3,""confidence"":0}","[0,1]","../img/tt/1309tt.jpg","",""
"1013.8449999997392","","","recognition","survey-text","345","1120921","0.0-6.0-3.48","2714810","co37873","norming","","","{""guess"":""""}","","../img/tt/1309tt.jpg","",""
"null","../img/gs/1309gs.jpg","null","reveal","image-keyboard-response","346","1122931","0.0-6.0-4.48","2714810","co37873","norming","","","","","","",""
"null","../img/tt/1309tt.jpg","null","mooney2","image-keyboard-response","347","1124940","0.0-6.0-5.48","2714810","co37873","norming","","","","","","",""
"3562.5550000001676","","","post_reveal_questions","survey-likert","348","1128505","0.0-6.0-6.48","2714810","co37873","norming","","","{""aha"":2}","[0]","../img/tt/1309tt.jpg","",""
"null","<div style=""font-size:60px;""> </div>","null","fixation","html-keyboard-response","349","1128714","0.0-6.0-0.49","2714810","co37873","norming","","","","","","",""
"null","../img/tt/353tt.jpg","null","mooney1","image-keyboard-response","350","1131717","0.0-6.0-1.49","2714810","co37873","norming","","","","","","",""
"4241.520000000019","","","post_mooney1_questions","survey-likert","351","1135953","0.0-6.0-2.49","2714810","co37873","norming","","","{""curiosity"":4,""confidence"":3}","[0,1]","../img/tt/353tt.jpg","",""
"1894.2949999996927","","","recognition","survey-text","352","1137849","0.0-6.0-3.49","2714810","co37873","norming","","","{""guess"":""bird""}","","../img/tt/353tt.jpg","",""
"null","../img/gs/353gs.jpg","null","reveal","image-keyboard-response","353","1139850","0.0-6.0-4.49","2714810","co37873","norming","","","","","","",""
"null","../img/tt/353tt.jpg","null","mooney2","image-keyboard-response","354","1141851","0.0-6.0-5.49","2714810","co37873","norming","","","","","","",""
"2811.2399999999907","","","post_reveal_questions","survey-likert","355","1144665","0.0-6.0-6.49","2714810","co37873","norming","","","{""aha"":4}","[0]","../img/tt/353tt.jpg","",""
"null","<div style=""font-size:60px;""> </div>","null","fixation","html-keyboard-response","356","1144874","0.0-6.0-0.50","2714810","co37873","norming","","","","","","",""
"null","../img/tt/1272tt.jpg","null","mooney1","image-keyboard-response","357","1147878","0.0-6.0-1.50","2714810","co37873","norming","","","","","","",""
"4855.824999999953","","","post_mooney1_questions","survey-likert","358","1152737","0.0-6.0-2.50","2714810","co37873","norming","","","{""curiosity"":3,""confidence"":3}","[0,1]","../img/tt/1272tt.jpg","",""
"1862.219999999972","","","recognition","survey-text","359","1154601","0.0-6.0-3.50","2714810","co37873","norming","","","{""guess"":""lion""}","","../img/tt/1272tt.jpg","",""
"null","../img/gs/1272gs.jpg","null","reveal","image-keyboard-response","360","1156603","0.0-6.0-4.50","2714810","co37873","norming","","","","","","",""
"null","../img/tt/1272tt.jpg","null","mooney2","image-keyboard-response","361","1158605","0.0-6.0-5.50","2714810","co37873","norming","","","","","","",""
"3049.4050000002608","","","post_reveal_questions","survey-likert","362","1161657","0.0-6.0-6.50","2714810","co37873","norming","","","{""aha"":4}","[0]","../img/tt/1272tt.jpg","",""
"null","<div style=""font-size:60px;""> </div>","null","fixation","html-keyboard-response","363","1161866","0.0-6.0-0.51","2714810","co37873","norming","","","","","","",""
"null","../img/tt/477tt.jpg","null","mooney1","image-keyboard-response","364","1164871","0.0-6.0-1.51","2714810","co37873","norming","","","","","","",""
"4886.915000000037","","","post_mooney1_questions","survey-likert","365","1169761","0.0-6.0-2.51","2714810","co37873","norming","","","{""curiosity"":3,""confidence"":0}","[0,1]","../img/tt/477tt.jpg","",""
"1014.1200000001118","","","recognition","survey-text","366","1170776","0.0-6.0-3.51","2714810","co37873","norming","","","{""guess"":""""}","","../img/tt/477tt.jpg","",""
"null","../img/gs/477gs.jpg","null","reveal","image-keyboard-response","367","1172785","0.0-6.0-4.51","2714810","co37873","norming","","","","","","",""
"null","../img/tt/477tt.jpg","null","mooney2","image-keyboard-response","368","1174789","0.0-6.0-5.51","2714810","co37873","norming","","","","","","",""
"1977.6800000001676","","","post_reveal_questions","survey-likert","369","1176769","0.0-6.0-6.51","2714810","co37873","norming","","","{""aha"":3}","[0]","../img/tt/477tt.jpg","",""
"null","<div style=""font-size:60px;""> </div>","null","fixation","html-keyboard-response","370","1176974","0.0-6.0-0.52","2714810","co37873","norming","","","","","","",""
"null","../img/tt/163tt.jpg","null","mooney1","image-keyboard-response","371","1179978","0.0-6.0-1.52","2714810","co37873","norming","","","","","","",""
"4332.315000000177","","","post_mooney1_questions","survey-likert","372","1184313","0.0-6.0-2.52","2714810","co37873","norming","","","{""curiosity"":3,""confidence"":0}","[0,1]","../img/tt/163tt.jpg","",""
"1166.005000000121","","","recognition","survey-text","373","1185480","0.0-6.0-3.52","2714810","co37873","norming","","","{""guess"":""""}","","../img/tt/163tt.jpg","",""
"null","../img/gs/163gs.jpg","null","reveal","image-keyboard-response","374","1187482","0.0-6.0-4.52","2714810","co37873","norming","","","","","","",""
"null","../img/tt/163tt.jpg","null","mooney2","image-keyboard-response","375","1189486","0.0-6.0-5.52","2714810","co37873","norming","","","","","","",""
"2992.5849999999627","","","post_reveal_questions","survey-likert","376","1192481","0.0-6.0-6.52","2714810","co37873","norming","","","{""aha"":3}","[0]","../img/tt/163tt.jpg","",""
"null","<div style=""font-size:60px;""> </div>","null","fixation","html-keyboard-response","377","1192687","0.0-6.0-0.53","2714810","co37873","norming","","","","","","",""
"null","../img/tt/1143tt.jpg","null","mooney1","image-keyboard-response","378","1195706","0.0-6.0-1.53","2714810","co37873","norming","","","","","","",""
"3763.965000000084","","","post_mooney1_questions","survey-likert","379","1199473","0.0-6.0-2.53","2714810","co37873","norming","","","{""curiosity"":4,""confidence"":1}","[0,1]","../img/tt/1143tt.jpg","",""
"2638.260000000242","","","recognition","survey-text","380","1202113","0.0-6.0-3.53","2714810","co37873","norming","","","{""guess"":""fitness""}","","../img/tt/1143tt.jpg","",""
"null","../img/gs/1143gs.jpg","null","reveal","image-keyboard-response","381","1204121","0.0-6.0-4.53","2714810","co37873","norming","","","","","","",""
"null","../img/tt/1143tt.jpg","null","mooney2","image-keyboard-response","382","1206124","0.0-6.0-5.53","2714810","co37873","norming","","","","","","",""
"2330.6649999998044","","","post_reveal_questions","survey-likert","383","1208457","0.0-6.0-6.53","2714810","co37873","norming","","","{""aha"":5}","[0]","../img/tt/1143tt.jpg","",""
"null","<div style=""font-size:60px;""> </div>","null","fixation","html-keyboard-response","384","1208661","0.0-6.0-0.54","2714810","co37873","norming","","","","","","",""
"null","../img/tt/270tt.jpg","null","mooney1","image-keyboard-response","385","1211669","0.0-6.0-1.54","2714810","co37873","norming","","","","","","",""
"3809.469999999972","","","post_mooney1_questions","survey-likert","386","1215481","0.0-6.0-2.54","2714810","co37873","norming","","","{""curiosity"":4,""confidence"":4}","[0,1]","../img/tt/270tt.jpg","",""
"1462.1950000000652","","","recognition","survey-text","387","1216945","0.0-6.0-3.54","2714810","co37873","norming","","","{""guess"":""deer""}","","../img/tt/270tt.jpg","",""
"null","../img/gs/270gs.jpg","null","reveal","image-keyboard-response","388","1218953","0.0-6.0-4.54","2714810","co37873","norming","","","","","","",""
"null","../img/tt/270tt.jpg","null","mooney2","image-keyboard-response","389","1220963","0.0-6.0-5.54","2714810","co37873","norming","","","","","","",""
"2867.774999999907","","","post_reveal_questions","survey-likert","390","1223833","0.0-6.0-6.54","2714810","co37873","norming","","","{""aha"":3}","[0]","../img/tt/270tt.jpg","",""
"null","<div style=""font-size:60px;""> </div>","null","fixation","html-keyboard-response","391","1224041","0.0-6.0-0.55","2714810","co37873","norming","","","","","","",""
"null","../img/tt/194tt.jpg","null","mooney1","image-keyboard-response","392","1227048","0.0-6.0-1.55","2714810","co37873","norming","","","","","","",""
"4766.060000000056","","","post_mooney1_questions","survey-likert","393","1231817","0.0-6.0-2.55","2714810","co37873","norming","","","{""curiosity"":4,""confidence"":3}","[0,1]","../img/tt/194tt.jpg","",""
"3445.9250000000466","","","recognition","survey-text","394","1235265","0.0-6.0-3.55","2714810","co37873","norming","","","{""guess"":""musician""}","","../img/tt/194tt.jpg","",""
"null","../img/gs/194gs.jpg","null","reveal","image-keyboard-response","395","1237269","0.0-6.0-4.55","2714810","co37873","norming","","","","","","",""
"null","../img/tt/194tt.jpg","null","mooney2","image-keyboard-response","396","1239271","0.0-6.0-5.55","2714810","co37873","norming","","","","","","",""
"2712.0749999999534","","","post_reveal_questions","survey-likert","397","1241985","0.0-6.0-6.55","2714810","co37873","norming","","","{""aha"":5}","[0]","../img/tt/194tt.jpg","",""
"null","<div style=""font-size:60px;""> </div>","null","fixation","html-keyboard-response","398","1242191","0.0-6.0-0.56","2714810","co37873","norming","","","","","","",""
"null","../img/tt/1283tt.jpg","null","mooney1","image-keyboard-response","399","1245193","0.0-6.0-1.56","2714810","co37873","norming","","","","","","",""
"4023.000000000233","","","post_mooney1_questions","survey-likert","400","1249217","0.0-6.0-2.56","2714810","co37873","norming","","","{""curiosity"":5,""confidence"":4}","[0,1]","../img/tt/1283tt.jpg","",""
"2237.8850000000093","","","recognition","survey-text","401","1251457","0.0-6.0-3.56","2714810","co37873","norming","","","{""guess"":""fox""}","","../img/tt/1283tt.jpg","",""
"null","../img/gs/1283gs.jpg","null","reveal","image-keyboard-response","402","1253465","0.0-6.0-4.56","2714810","co37873","norming","","","","","","",""
"null","../img/tt/1283tt.jpg","null","mooney2","image-keyboard-response","403","1255466","0.0-6.0-5.56","2714810","co37873","norming","","","","","","",""
"1532.1349999997765","","","post_reveal_questions","survey-likert","404","1257001","0.0-6.0-6.56","2714810","co37873","norming","","","{""aha"":1}","[0]","../img/tt/1283tt.jpg","",""
"null","<div style=""font-size:60px;""> </div>","null","fixation","html-keyboard-response","405","1257203","0.0-6.0-0.57","2714810","co37873","norming","","","","","","",""
"null","../img/tt/1012tt.jpg","null","mooney1","image-keyboard-response","406","1260213","0.0-6.0-1.57","2714810","co37873","norming","","","","","","",""
"5848.8549999997485","","","post_mooney1_questions","survey-likert","407","1266065","0.0-6.0-2.57","2714810","co37873","norming","","","{""curiosity"":3,""confidence"":0}","[0,1]","../img/tt/1012tt.jpg","",""
"918.0400000000373","","","recognition","survey-text","408","1266984","0.0-6.0-3.57","2714810","co37873","norming","","","{""guess"":""""}","","../img/tt/1012tt.jpg","",""
"null","../img/gs/1012gs.jpg","null","reveal","image-keyboard-response","409","1268995","0.0-6.0-4.57","2714810","co37873","norming","","","","","","",""
"null","../img/tt/1012tt.jpg","null","mooney2","image-keyboard-response","410","1270997","0.0-6.0-5.57","2714810","co37873","norming","","","","","","",""
"2001.3300000000745","","","post_reveal_questions","survey-likert","411","1273001","0.0-6.0-6.57","2714810","co37873","norming","","","{""aha"":3}","[0]","../img/tt/1012tt.jpg","",""
"null","<div style=""font-size:60px;""> </div>","null","fixation","html-keyboard-response","412","1273211","0.0-6.0-0.58","2714810","co37873","norming","","","","","","",""
"null","../img/tt/091tt.jpg","null","mooney1","image-keyboard-response","413","1276217","0.0-6.0-1.58","2714810","co37873","norming","","","","","","",""
"6036.72499999986","","","post_mooney1_questions","survey-likert","414","1282257","0.0-6.0-2.58","2714810","co37873","norming","","","{""curiosity"":3,""confidence"":1}","[0,1]","../img/tt/091tt.jpg","",""
"4158.434999999823","","","recognition","survey-text","415","1286417","0.0-6.0-3.58","2714810","co37873","norming","","","{""guess"":""crocodile""}","","../img/tt/091tt.jpg","",""
"null","../img/gs/091gs.jpg","null","reveal","image-keyboard-response","416","1288418","0.0-6.0-4.58","2714810","co37873","norming","","","","","","",""
"null","../img/tt/091tt.jpg","null","mooney2","image-keyboard-response","417","1290420","0.0-6.0-5.58","2714810","co37873","norming","","","","","","",""
"3346.81500000041","","","post_reveal_questions","survey-likert","418","1293769","0.0-6.0-6.58","2714810","co37873","norming","","","{""aha"":4}","[0]","../img/tt/091tt.jpg","",""
"null","<div style=""font-size:60px;""> </div>","null","fixation","html-keyboard-response","419","1293970","0.0-6.0-0.59","2714810","co37873","norming","","","","","","",""
"null","../img/tt/1261tt.jpg","null","mooney1","image-keyboard-response","420","1296979","0.0-6.0-1.59","2714810","co37873","norming","","","","","","",""
"6075.530000000028","","","post_mooney1_questions","survey-likert","421","1303057","0.0-6.0-2.59","2714810","co37873","norming","","","{""curiosity"":3,""confidence"":1}","[0,1]","../img/tt/1261tt.jpg","",""
"1021.9999999997672","","","recognition","survey-text","422","1304081","0.0-6.0-3.59","2714810","co37873","norming","","","{""guess"":""""}","","../img/tt/1261tt.jpg","",""
"null","../img/gs/1261gs.jpg","null","reveal","image-keyboard-response","423","1306083","0.0-6.0-4.59","2714810","co37873","norming","","","","","","",""
"null","../img/tt/1261tt.jpg","null","mooney2","image-keyboard-response","424","1308086","0.0-6.0-5.59","2714810","co37873","norming","","","","","","",""
"3255.309999999823","","","post_reveal_questions","survey-likert","425","1311345","0.0-6.0-6.59","2714810","co37873","norming","","","{""aha"":3}","[0]","../img/tt/1261tt.jpg","",""
"null","<div style=""font-size:60px;""> </div>","null","fixation","html-keyboard-response","426","1311553","0.0-6.0-0.60","2714810","co37873","norming","","","","","","",""
"null","../img/tt/438tt.jpg","null","mooney1","image-keyboard-response","427","1314557","0.0-6.0-1.60","2714810","co37873","norming","","","","","","",""
"3969.464999999618","","","post_mooney1_questions","survey-likert","428","1318521","0.0-6.0-2.60","2714810","co37873","norming","","","{""curiosity"":4,""confidence"":1}","[0,1]","../img/tt/438tt.jpg","",""
"2446.195000000065","","","recognition","survey-text","429","1320969","0.0-6.0-3.60","2714810","co37873","norming","","","{""guess"":""snake""}","","../img/tt/438tt.jpg","",""
"null","../img/gs/438gs.jpg","null","reveal","image-keyboard-response","430","1322971","0.0-6.0-4.60","2714810","co37873","norming","","","","","","",""
"null","../img/tt/438tt.jpg","null","mooney2","image-keyboard-response","431","1324974","0.0-6.0-5.60","2714810","co37873","norming","","","","","","",""
"1729.0250000001397","","","post_reveal_questions","survey-likert","432","1326705","0.0-6.0-6.60","2714810","co37873","norming","","","{""aha"":1}","[0]","../img/tt/438tt.jpg","",""
"null","<div style=""font-size:60px;""> </div>","null","fixation","html-keyboard-response","433","1326914","0.0-6.0-0.61","2714810","co37873","norming","","","","","","",""
"null","../img/tt/522tt.jpg","null","mooney1","image-keyboard-response","434","1329924","0.0-6.0-1.61","2714810","co37873","norming","","","","","","",""
"4162.489999999758","","","post_mooney1_questions","survey-likert","435","1334089","0.0-6.0-2.61","2714810","co37873","norming","","","{""curiosity"":3,""confidence"":0}","[0,1]","../img/tt/522tt.jpg","",""
"750.0849999997299","","","recognition","survey-text","436","1334841","0.0-6.0-3.61","2714810","co37873","norming","","","{""guess"":""""}","","../img/tt/522tt.jpg","",""
"null","../img/gs/522gs.jpg","null","reveal","image-keyboard-response","437","1336847","0.0-6.0-4.61","2714810","co37873","norming","","","","","","",""
"null","../img/tt/522tt.jpg","null","mooney2","image-keyboard-response","438","1338856","0.0-6.0-5.61","2714810","co37873","norming","","","","","","",""
"2855.105000000214","","","post_reveal_questions","survey-likert","439","1341713","0.0-6.0-6.61","2714810","co37873","norming","","","{""aha"":2}","[0]","../img/tt/522tt.jpg","",""
"null","<div style=""font-size:60px;""> </div>","null","fixation","html-keyboard-response","440","1341923","0.0-6.0-0.62","2714810","co37873","norming","","","","","","",""
"null","../img/tt/1242tt.jpg","null","mooney1","image-keyboard-response","441","1344926","0.0-6.0-1.62","2714810","co37873","norming","","","","","","",""
"4768.129999999888","","","post_mooney1_questions","survey-likert","442","1349697","0.0-6.0-2.62","2714810","co37873","norming","","","{""curiosity"":4,""confidence"":4}","[0,1]","../img/tt/1242tt.jpg","",""
"3190.1100000001024","","","recognition","survey-text","443","1352889","0.0-6.0-3.62","2714810","co37873","norming","","","{""guess"":""fox""}","","../img/tt/1242tt.jpg","",""
"null","../img/gs/1242gs.jpg","null","reveal","image-keyboard-response","444","1354899","0.0-6.0-4.62","2714810","co37873","norming","","","","","","",""
"null","../img/tt/1242tt.jpg","null","mooney2","image-keyboard-response","445","1356902","0.0-6.0-5.62","2714810","co37873","norming","","","","","","",""
"1305.200000000419","","","post_reveal_questions","survey-likert","446","1358209","0.0-6.0-6.62","2714810","co37873","norming","","","{""aha"":0}","[0]","../img/tt/1242tt.jpg","",""
"null","<div style=""font-size:60px;""> </div>","null","fixation","html-keyboard-response","447","1358412","0.0-6.0-0.63","2714810","co37873","norming","","","","","","",""
"null","../img/tt/085tt.jpg","null","mooney1","image-keyboard-response","448","1361415","0.0-6.0-1.63","2714810","co37873","norming","","","","","","",""
"4519.41500000027","","","post_mooney1_questions","survey-likert","449","1365937","0.0-6.0-2.63","2714810","co37873","norming","","","{""curiosity"":3,""confidence"":0}","[0,1]","../img/tt/085tt.jpg","",""
"2678.019999999786","","","recognition","survey-text","450","1368617","0.0-6.0-3.63","2714810","co37873","norming","","","{""guess"":""""}","","../img/tt/085tt.jpg","",""
"null","../img/gs/085gs.jpg","null","reveal","image-keyboard-response","451","1370623","0.0-6.0-4.63","2714810","co37873","norming","","","","","","",""
"null","../img/tt/085tt.jpg","null","mooney2","image-keyboard-response","452","1372625","0.0-6.0-5.63","2714810","co37873","norming","","","","","","",""
"3485.784999999916","","","post_reveal_questions","survey-likert","453","1376113","0.0-6.0-6.63","2714810","co37873","norming","","","{""aha"":4}","[0]","../img/tt/085tt.jpg","",""
"null","<div style=""font-size:60px;""> </div>","null","fixation","html-keyboard-response","454","1376320","0.0-6.0-0.64","2714810","co37873","norming","","","","","","",""
"null","../img/tt/1027tt.jpg","null","mooney1","image-keyboard-response","455","1379331","0.0-6.0-1.64","2714810","co37873","norming","","","","","","",""
"3219.8549999997485","","","post_mooney1_questions","survey-likert","456","1382553","0.0-6.0-2.64","2714810","co37873","norming","","","{""curiosity"":4,""confidence"":5}","[0,1]","../img/tt/1027tt.jpg","",""
"1654.1999999999534","","","recognition","survey-text","457","1384209","0.0-6.0-3.64","2714810","co37873","norming","","","{""guess"":""cow""}","","../img/tt/1027tt.jpg","",""
"null","../img/gs/1027gs.jpg","null","reveal","image-keyboard-response","458","1386211","0.0-6.0-4.64","2714810","co37873","norming","","","","","","",""
"null","../img/tt/1027tt.jpg","null","mooney2","image-keyboard-response","459","1388214","0.0-6.0-5.64","2714810","co37873","norming","","","","","","",""
"3537.29000000027","","","post_reveal_questions","survey-likert","460","1391753","0.0-6.0-6.64","2714810","co37873","norming","","","{""aha"":1}","[0]","../img/tt/1027tt.jpg","",""
"null","<div style=""font-size:60px;""> </div>","null","fixation","html-keyboard-response","461","1391959","0.0-6.0-0.65","2714810","co37873","norming","","","","","","",""
"null","../img/tt/1116tt.jpg","null","mooney1","image-keyboard-response","462","1394962","0.0-6.0-1.65","2714810","co37873","norming","","","","","","",""
"3852.570000000065","","","post_mooney1_questions","survey-likert","463","1398817","0.0-6.0-2.65","2714810","co37873","norming","","","{""curiosity"":4,""confidence"":4}","[0,1]","../img/tt/1116tt.jpg","",""
"1677.9500000001863","","","recognition","survey-text","464","1400497","0.0-6.0-3.65","2714810","co37873","norming","","","{""guess"":""cow""}","","../img/tt/1116tt.jpg","",""
"null","../img/gs/1116gs.jpg","null","reveal","image-keyboard-response","465","1402506","0.0-6.0-4.65","2714810","co37873","norming","","","","","","",""
"null","../img/tt/1116tt.jpg","null","mooney2","image-keyboard-response","466","1404508","0.0-6.0-5.65","2714810","co37873","norming","","","","","","",""
"3562.9700000004377","","","post_reveal_questions","survey-likert","467","1408073","0.0-6.0-6.65","2714810","co37873","norming","","","{""aha"":4}","[0]","../img/tt/1116tt.jpg","",""
"null","<div style=""font-size:60px;""> </div>","null","fixation","html-keyboard-response","468","1408281","0.0-6.0-0.66","2714810","co37873","norming","","","","","","",""
"null","../img/tt/010tt.jpg","null","mooney1","image-keyboard-response","469","1411293","0.0-6.0-1.66","2714810","co37873","norming","","","","","","",""
"5394.574999999953","","","post_mooney1_questions","survey-likert","470","1416689","0.0-6.0-2.66","2714810","co37873","norming","","","{""curiosity"":3,""confidence"":0}","[0,1]","../img/tt/010tt.jpg","",""
"286.1699999999255","","","recognition","survey-text","471","1416977","0.0-6.0-3.66","2714810","co37873","norming","","","{""guess"":""""}","","../img/tt/010tt.jpg","",""
"null","../img/gs/010gs.jpg","null","reveal","image-keyboard-response","472","1418981","0.0-6.0-4.66","2714810","co37873","norming","","","","","","",""
"null","../img/tt/010tt.jpg","null","mooney2","image-keyboard-response","473","1420982","0.0-6.0-5.66","2714810","co37873","norming","","","","","","",""
"3016.5900000003166","","","post_reveal_questions","survey-likert","474","1424001","0.0-6.0-6.66","2714810","co37873","norming","","","{""aha"":2}","[0]","../img/tt/010tt.jpg","",""
"null","<div style=""font-size:60px;""> </div>","null","fixation","html-keyboard-response","475","1424205","0.0-6.0-0.67","2714810","co37873","norming","","","","","","",""
"null","../img/tt/080tt.jpg","null","mooney1","image-keyboard-response","476","1427214","0.0-6.0-1.67","2714810","co37873","norming","","","","","","",""
"6450.595000000205","","","post_mooney1_questions","survey-likert","477","1433665","0.0-6.0-2.67","2714810","co37873","norming","","","{""curiosity"":4,""confidence"":5}","[0,1]","../img/tt/080tt.jpg","",""
"3549.7949999999255","","","recognition","survey-text","478","1437217","0.0-6.0-3.67","2714810","co37873","norming","","","{""guess"":""turtle""}","","../img/tt/080tt.jpg","",""
"null","../img/gs/080gs.jpg","null","reveal","image-keyboard-response","479","1439225","0.0-6.0-4.67","2714810","co37873","norming","","","","","","",""
"null","../img/tt/080tt.jpg","null","mooney2","image-keyboard-response","480","1441227","0.0-6.0-5.67","2714810","co37873","norming","","","","","","",""
"4037.8349999999627","","","post_reveal_questions","survey-likert","481","1445265","0.0-6.0-6.67","2714810","co37873","norming","","","{""aha"":4}","[0]","../img/tt/080tt.jpg","",""
"null","<div style=""font-size:60px;""> </div>","null","fixation","html-keyboard-response","482","1445468","0.0-6.0-0.68","2714810","co37873","norming","","","","","","",""
"null","../img/tt/1189tt.jpg","null","mooney1","image-keyboard-response","483","1448471","0.0-6.0-1.68","2714810","co37873","norming","","","","","","",""
"5111.354999999981","","","post_mooney1_questions","survey-likert","484","1453586","0.0-6.0-2.68","2714810","co37873","norming","","","{""curiosity"":3,""confidence"":0}","[0,1]","../img/tt/1189tt.jpg","",""
"206.0449999999255","","","recognition","survey-text","485","1453793","0.0-6.0-3.68","2714810","co37873","norming","","","{""guess"":""""}","","../img/tt/1189tt.jpg","",""
"null","../img/gs/1189gs.jpg","null","reveal","image-keyboard-response","486","1455800","0.0-6.0-4.68","2714810","co37873","norming","","","","","","",""
"null","../img/tt/1189tt.jpg","null","mooney2","image-keyboard-response","487","1457805","0.0-6.0-5.68","2714810","co37873","norming","","","","","","",""
"2378.3499999998603","","","post_reveal_questions","survey-likert","488","1460185","0.0-6.0-6.68","2714810","co37873","norming","","","{""aha"":2}","[0]","../img/tt/1189tt.jpg","",""
"null","<div style=""font-size:60px;""> </div>","null","fixation","html-keyboard-response","489","1460388","0.0-6.0-0.69","2714810","co37873","norming","","","","","","",""
"null","../img/tt/599tt.jpg","null","mooney1","image-keyboard-response","490","1463391","0.0-6.0-1.69","2714810","co37873","norming","","","","","","",""
"5726.910000000149","","","post_mooney1_questions","survey-likert","491","1469121","0.0-6.0-2.69","2714810","co37873","norming","","","{""curiosity"":2,""confidence"":5}","[0,1]","../img/tt/599tt.jpg","",""
"2302.1800000001676","","","recognition","survey-text","492","1471425","0.0-6.0-3.69","2714810","co37873","norming","","","{""guess"":""owls""}","","../img/tt/599tt.jpg","",""
"null","../img/gs/599gs.jpg","null","reveal","image-keyboard-response","493","1473427","0.0-6.0-4.69","2714810","co37873","norming","","","","","","",""
"null","../img/tt/599tt.jpg","null","mooney2","image-keyboard-response","494","1475430","0.0-6.0-5.69","2714810","co37873","norming","","","","","","",""
"2344.6149999999907","","","post_reveal_questions","survey-likert","495","1477777","0.0-6.0-6.69","2714810","co37873","norming","","","{""aha"":0}","[0]","../img/tt/599tt.jpg","",""
"null","<div style=""font-size:60px;""> </div>","null","fixation","html-keyboard-response","496","1477987","0.0-6.0-0.70","2714810","co37873","norming","","","","","","",""
"null","../img/tt/442tt.jpg","null","mooney1","image-keyboard-response","497","1480996","0.0-6.0-1.70","2714810","co37873","norming","","","","","","",""
"4162.879999999888","","","post_mooney1_questions","survey-likert","498","1485161","0.0-6.0-2.70","2714810","co37873","norming","","","{""curiosity"":3,""confidence"":0}","[0,1]","../img/tt/442tt.jpg","",""
"926.2050000000745","","","recognition","survey-text","499","1486089","0.0-6.0-3.70","2714810","co37873","norming","","","{""guess"":""""}","","../img/tt/442tt.jpg","",""
"null","../img/gs/442gs.jpg","null","reveal","image-keyboard-response","500","1488097","0.0-6.0-4.70","2714810","co37873","norming","","","","","","",""
"null","../img/tt/442tt.jpg","null","mooney2","image-keyboard-response","501","1490100","0.0-6.0-5.70","2714810","co37873","norming","","","","","","",""
"3043.2099999999627","","","post_reveal_questions","survey-likert","502","1493145","0.0-6.0-6.70","2714810","co37873","norming","","","{""aha"":3}","[0]","../img/tt/442tt.jpg","",""
"null","<div style=""font-size:60px;""> </div>","null","fixation","html-keyboard-response","503","1493350","0.0-6.0-0.71","2714810","co37873","norming","","","","","","",""
"null","../img/tt/1087tt.jpg","null","mooney1","image-keyboard-response","504","1496359","0.0-6.0-1.71","2714810","co37873","norming","","","","","","",""
"5527.310000000056","","","post_mooney1_questions","survey-likert","505","1501886","0.0-6.0-2.71","2714810","co37873","norming","","","{""curiosity"":3,""confidence"":0}","[0,1]","../img/tt/1087tt.jpg","",""
"190.06500000017695","","","recognition","survey-text","506","1502078","0.0-6.0-3.71","2714810","co37873","norming","","","{""guess"":""""}","","../img/tt/1087tt.jpg","",""
"null","../img/gs/1087gs.jpg","null","reveal","image-keyboard-response","507","1504089","0.0-6.0-4.71","2714810","co37873","norming","","","","","","",""
"null","../img/tt/1087tt.jpg","null","mooney2","image-keyboard-response","508","1506097","0.0-6.0-5.71","2714810","co37873","norming","","","","","","",""
"3234.2800000002608","","","post_reveal_questions","survey-likert","509","1509334","0.0-6.0-6.71","2714810","co37873","norming","","","{""aha"":5}","[0]","../img/tt/1087tt.jpg","",""
"null","<div style=""font-size:60px;""> </div>","null","fixation","html-keyboard-response","510","1509545","0.0-6.0-0.72","2714810","co37873","norming","","","","","","",""
"null","../img/tt/118tt.jpg","null","mooney1","image-keyboard-response","511","1512555","0.0-6.0-1.72","2714810","co37873","norming","","","","","","",""
"3423.929999999935","","","post_mooney1_questions","survey-likert","512","1515982","0.0-6.0-2.72","2714810","co37873","norming","","","{""curiosity"":3,""confidence"":0}","[0,1]","../img/tt/118tt.jpg","",""
"174.09499999997206","","","recognition","survey-text","513","1516158","0.0-6.0-3.72","2714810","co37873","norming","","","{""guess"":""""}","","../img/tt/118tt.jpg","",""
"null","../img/gs/118gs.jpg","null","reveal","image-keyboard-response","514","1518162","0.0-6.0-4.72","2714810","co37873","norming","","","","","","",""
"null","../img/tt/118tt.jpg","null","mooney2","image-keyboard-response","515","1520165","0.0-6.0-5.72","2714810","co37873","norming","","","","","","",""
"2405.9149999998044","","","post_reveal_questions","survey-likert","516","1522574","0.0-6.0-6.72","2714810","co37873","norming","","","{""aha"":2}","[0]","../img/tt/118tt.jpg","",""
"null","<div style=""font-size:60px;""> </div>","null","fixation","html-keyboard-response","517","1522780","0.0-6.0-0.73","2714810","co37873","norming","","","","","","",""
"null","../img/tt/318tt.jpg","null","mooney1","image-keyboard-response","518","1525791","0.0-6.0-1.73","2714810","co37873","norming","","","","","","",""
"4483.679999999702","","","post_mooney1_questions","survey-likert","519","1530278","0.0-6.0-2.73","2714810","co37873","norming","","","{""curiosity"":4,""confidence"":2}","[0,1]","../img/tt/318tt.jpg","",""
"1638.130000000121","","","recognition","survey-text","520","1531918","0.0-6.0-3.73","2714810","co37873","norming","","","{""guess"":""car""}","","../img/tt/318tt.jpg","",""
"null","../img/gs/318gs.jpg","null","reveal","image-keyboard-response","521","1533919","0.0-6.0-4.73","2714810","co37873","norming","","","","","","",""
"null","../img/tt/318tt.jpg","null","mooney2","image-keyboard-response","522","1535921","0.0-6.0-5.73","2714810","co37873","norming","","","","","","",""
"2602.714999999851","","","post_reveal_questions","survey-likert","523","1538526","0.0-6.0-6.73","2714810","co37873","norming","","","{""aha"":2}","[0]","../img/tt/318tt.jpg","",""
"null","<div style=""font-size:60px;""> </div>","null","fixation","html-keyboard-response","524","1538728","0.0-6.0-0.74","2714810","co37873","norming","","","","","","",""
"null","../img/tt/111tt.jpg","null","mooney1","image-keyboard-response","525","1541737","0.0-6.0-1.74","2714810","co37873","norming","","","","","","",""
"3795.7249999998603","","","post_mooney1_questions","survey-likert","526","1545534","0.0-6.0-2.74","2714810","co37873","norming","","","{""curiosity"":3,""confidence"":0}","[0,1]","../img/tt/111tt.jpg","",""
"158.18499999982305","","","recognition","survey-text","527","1545694","0.0-6.0-3.74","2714810","co37873","norming","","","{""guess"":""""}","","../img/tt/111tt.jpg","",""
"null","../img/gs/111gs.jpg","null","reveal","image-keyboard-response","528","1547704","0.0-6.0-4.74","2714810","co37873","norming","","","","","","",""
"null","../img/tt/111tt.jpg","null","mooney2","image-keyboard-response","529","1549706","0.0-6.0-5.74","2714810","co37873","norming","","","","","","",""
"3097.945000000065","","","post_reveal_questions","survey-likert","530","1552806","0.0-6.0-6.74","2714810","co37873","norming","","","{""aha"":6}","[0]","../img/tt/111tt.jpg","",""
"null","<div style=""font-size:60px;""> </div>","null","fixation","html-keyboard-response","531","1553008","0.0-6.0-0.75","2714810","co37873","norming","","","","","","",""
"null","../img/tt/440tt.jpg","null","mooney1","image-keyboard-response","532","1556016","0.0-6.0-1.75","2714810","co37873","norming","","","","","","",""
"4762.1049999997485","","","post_mooney1_questions","survey-likert","533","1560782","0.0-6.0-2.75","2714810","co37873","norming","","","{""curiosity"":4,""confidence"":0}","[0,1]","../img/tt/440tt.jpg","",""
"142.10000000009313","","","recognition","survey-text","534","1560926","0.0-6.0-3.75","2714810","co37873","norming","","","{""guess"":""""}","","../img/tt/440tt.jpg","",""
"null","../img/gs/440gs.jpg","null","reveal","image-keyboard-response","535","1562934","0.0-6.0-4.75","2714810","co37873","norming","","","","","","",""
"null","../img/tt/440tt.jpg","null","mooney2","image-keyboard-response","536","1564944","0.0-6.0-5.75","2714810","co37873","norming","","","","","","",""
"2670.4449999998324","","","post_reveal_questions","survey-likert","537","1567617","0.0-6.0-6.75","2714810","co37873","norming","","","{""aha"":3}","[0]","../img/tt/440tt.jpg","",""
"null","<div style=""font-size:60px;""> </div>","null","fixation","html-keyboard-response","538","1567828","0.0-6.0-0.76","2714810","co37873","norming","","","","","","",""
"null","../img/tt/1048tt.jpg","null","mooney1","image-keyboard-response","539","1570830","0.0-6.0-1.76","2714810","co37873","norming","","","","","","",""
"5248.314999999944","","","post_mooney1_questions","survey-likert","540","1576081","0.0-6.0-2.76","2714810","co37873","norming","","","{""curiosity"":4,""confidence"":0}","[0,1]","../img/tt/1048tt.jpg","",""
"334.0049999996554","","","recognition","survey-text","541","1576417","0.0-6.0-3.76","2714810","co37873","norming","","","{""guess"":""""}","","../img/tt/1048tt.jpg","",""
"null","../img/gs/1048gs.jpg","null","reveal","image-keyboard-response","542","1578419","0.0-6.0-4.76","2714810","co37873","norming","","","","","","",""
"null","../img/tt/1048tt.jpg","null","mooney2","image-keyboard-response","543","1580421","0.0-6.0-5.76","2714810","co37873","norming","","","","","","",""
"3129.3249999999534","","","post_reveal_questions","survey-likert","544","1583553","0.0-6.0-6.76","2714810","co37873","norming","","","{""aha"":2}","[0]","../img/tt/1048tt.jpg","",""
"null","<div style=""font-size:60px;""> </div>","null","fixation","html-keyboard-response","545","1583755","0.0-6.0-0.77","2714810","co37873","norming","","","","","","",""
"null","../img/tt/049tt.jpg","null","mooney1","image-keyboard-response","546","1586766","0.0-6.0-1.77","2714810","co37873","norming","","","","","","",""
"7504.665000000037","","","post_mooney1_questions","survey-likert","547","1594273","0.0-6.0-2.77","2714810","co37873","norming","","","{""curiosity"":3,""confidence"":2}","[0,1]","../img/tt/049tt.jpg","",""
"4606.0800000000745","","","recognition","survey-text","548","1598881","0.0-6.0-3.77","2714810","co37873","norming","","","{""guess"":""hedgehog""}","","../img/tt/049tt.jpg","",""
"null","../img/gs/049gs.jpg","null","reveal","image-keyboard-response","549","1600884","0.0-6.0-4.77","2714810","co37873","norming","","","","","","",""
"null","../img/tt/049tt.jpg","null","mooney2","image-keyboard-response","550","1602887","0.0-6.0-5.77","2714810","co37873","norming","","","","","","",""
"2231.359999999637","","","post_reveal_questions","survey-likert","551","1605121","0.0-6.0-6.77","2714810","co37873","norming","","","{""aha"":1}","[0]","../img/tt/049tt.jpg","",""
"null","<div style=""font-size:60px;""> </div>","null","fixation","html-keyboard-response","552","1605327","0.0-6.0-0.78","2714810","co37873","norming","","","","","","",""
"null","../img/tt/1366tt.jpg","null","mooney1","image-keyboard-response","553","1608339","0.0-6.0-1.78","2714810","co37873","norming","","","","","","",""
