"rt","stimulus","key_press","test_part","trial_type","trial_index","time_elapsed","internal_node_id","totalTime","subject","experiment_name","button_pressed","success","responses","question_order","currentStim","old","correct"
"19776.09000000007","Welcome to the experiment. This is an online experiment so please don't close the tab/window until we say goodbye.  Press any key to begin.","32","instructions","html-keyboard-response","0","19822","0.0-0.0","3803357","co37585","norming","","","","","","",""
"112984.61499999996","<div style='word-wrap: break-word; width: 900px'><h3>Please consider this information carefully before deciding whether to participate in this research</h3><ul style='text-align: left; font-size: .8em;'><li><b>Purpose of the research</b>: To examine how people process images.</li><li><b>What you will do in this research</b>:  Stimuli (images) will be presented on the computer and you will be asked different questions about them.</li><li><b>Time required</b>: Participation will take between 45 and 60 minutes to complete.</li><li><b>Risks</b>:  There are no anticipated risks associated with participating in this study. The effects of participating should be comparable to those you would experience from viewing a computer monitor for 30 minutes and using a mouse or keyboard.</li><li><b>Benefits</b>:  This study provides no benefits to you individually except for the credit. The study provides important information about the nature of perception and learning.</li><li><b>Confidentiality</b>:  Your participation in this study will remain confidential. No personally identifiable information will be associated with your data. Your de-identified data may be shared with other researchers and used in future projects.</li><li><b>Participation and withdrawal</b>:  Your participation in this study is completely voluntary and you may refuse to participate or you may choose to withdraw at any time without penalty.</li><li><b>How to contact the researchers</b>: If you have questions or concerns about your participation or payment, or want to request a summary of research findings, please contact Sander Van de Cruys (KU Leuven), at sander.vandecruys@kuleuven.be.</li></ul><p>The nature and purpose of this research have been sufficiently explained and I agree to participate in this study.  I understand that I am free to withdraw at any time without incurring any penalty.</p><p>Please consent by clicking the button below to continue. Otherwise, please exit the study at this time.</p></div>","","instructions","html-button-response","1","132752","0.0-1.0","3803357","co37585","norming","0","","","","","",""
"","","","instructions","fullscreen","2","140177","0.0-2.0","3803357","co37585","norming","","true","","","","",""
"52693.57000000001","","","sona","survey-html-form","3","192875","0.0-3.0","3803357","co37585","norming","","","[{""name"":""sonaid"",""value"":""37585""},{""name"":""debrief"",""value"":""no""},{""name"":""datajoin"",""value"":""yes""}]","","","",""
"96611.56000000006","<div style='word-wrap: break-word; width: 900px'><h3>Instructions</h3><p>This experiment will have 3 parts. In the first part you will see a series of distorted images like the one below on the left. As you can see in the righthand image, the distorted images are derived from actual photographs. In what follows, you will <strong>briefly</strong> be presented with <strong>only</strong> the distorted image.</p> <div style='float: left; margin-right: 20px;'><img src='../img/018tt.jpg' height='250' width='250'></img></div><div style='float: right; margin-left: 20px;'><img src='../img/018gs.jpg' height='250' width='250'></img></div><p>Subsequently you will be asked a few questions about the image: One question on how <strong>curious</strong> you are about the solution and one on how <strong>confident</strong> you are that you know the solution.</p>Next, we ask you to make a guess on what is in the image. Note that it is OK to name just the <strong>basic level category</strong>. For example when you see a parrot in the image, 'parrot' will obviously be a correct answer but also correct is 'bird'. However, 'animal' will <strong>not</strong> be counted as a correct response. For the example above, 'rose' would be correct or 'flower', but not 'plant'. When soccer players are depicted, 'soccer', 'football', 'soccer players' will be correct, but not 'humans', 'outdoors', or 'sports'. You do not need to describe the image in full, just name the main object in it <strong>in one or two words</strong>. All images depict objects from one of the following broad level categories: animals, inanimate objects, plants, sports, vehicles, and food. Recognizing means knowing <strong>more</strong> than these broad labels for a given image. But we always encourage you to <strong>make a guess</strong> if you can. Note that you are allowed to use <strong>Dutch and English</strong> in your answers, whatever comes easiest for you.</p><p>Press any key to continue.</p></div>","32","instructions","html-keyboard-response","4","289484","0.0-4.0","3803357","co37585","norming","","","","","","",""
"204461.03000000003","<div style='word-wrap: break-word; width: 900px'><h3>Instructions</h3> <p>Next, the solution image will be revealed to you and you'll be asked to indicate how strong your <strong>aha-experience</strong> was after seeing the solution. This describes the positive feeling of the 'click' you sometimes experience, when the pieces of the 'puzzle' fall together and you suddenly have 'insight' in the image.</p><img src='aha.jpg' height='188' width='250'></img><p>Note that there are no right or wrong answers. We are interested in what <strong>you</strong> see in the image and how <strong>you</strong> feel about it.</p><p>Press any key to start the experiment.</p></div>","32","instructions","html-keyboard-response","5","493948","0.0-5.0","3803357","co37585","norming","","","","","","",""
"null","<div style=""font-size:60px;""> </div>","null","fixation","html-keyboard-response","6","494151","0.0-6.0-0.0","3803357","co37585","norming","","","","","","",""
"null","../img/tt/040tt.jpg","null","mooney1","image-keyboard-response","7","497158","0.0-6.0-1.0","3803357","co37585","norming","","","","","","",""
"11803.210000000021","","","post_mooney1_questions","survey-likert","8","508965","0.0-6.0-2.0","3803357","co37585","norming","","","{""curiosity"":4,""confidence"":0}","[0,1]","../img/tt/040tt.jpg","",""
"4949.620000000112","","","recognition","survey-text","9","513917","0.0-6.0-3.0","3803357","co37585","norming","","","{""guess"":""""}","","../img/tt/040tt.jpg","",""
"null","../img/gs/040gs.jpg","null","reveal","image-keyboard-response","10","515921","0.0-6.0-4.0","3803357","co37585","norming","","","","","","",""
"null","../img/tt/040tt.jpg","null","mooney2","image-keyboard-response","11","517931","0.0-6.0-5.0","3803357","co37585","norming","","","","","","",""
"6287.40499999997","","","post_reveal_questions","survey-likert","12","524221","0.0-6.0-6.0","3803357","co37585","norming","","","{""aha"":6}","[0]","../img/tt/040tt.jpg","",""
"null","<div style=""font-size:60px;""> </div>","null","fixation","html-keyboard-response","13","524424","0.0-6.0-0.1","3803357","co37585","norming","","","","","","",""
"null","../img/tt/1211tt.jpg","null","mooney1","image-keyboard-response","14","527429","0.0-6.0-1.1","3803357","co37585","norming","","","","","","",""
"13966.654999999912","","","post_mooney1_questions","survey-likert","15","541397","0.0-6.0-2.1","3803357","co37585","norming","","","{""curiosity"":4,""confidence"":2}","[0,1]","../img/tt/1211tt.jpg","",""
"12614.145000000019","","","recognition","survey-text","16","554015","0.0-6.0-3.1","3803357","co37585","norming","","","{""guess"":""boom""}","","../img/tt/1211tt.jpg","",""
"null","../img/gs/1211gs.jpg","null","reveal","image-keyboard-response","17","556023","0.0-6.0-4.1","3803357","co37585","norming","","","","","","",""
"null","../img/tt/1211tt.jpg","null","mooney2","image-keyboard-response","18","558033","0.0-6.0-5.1","3803357","co37585","norming","","","","","","",""
"4836.244999999995","","","post_reveal_questions","survey-likert","19","562871","0.0-6.0-6.1","3803357","co37585","norming","","","{""aha"":6}","[0]","../img/tt/1211tt.jpg","",""
"null","<div style=""font-size:60px;""> </div>","null","fixation","html-keyboard-response","20","563082","0.0-6.0-0.2","3803357","co37585","norming","","","","","","",""
"null","../img/tt/1283tt.jpg","null","mooney1","image-keyboard-response","21","566087","0.0-6.0-1.2","3803357","co37585","norming","","","","","","",""
"6845.704999999958","","","post_mooney1_questions","survey-likert","22","572935","0.0-6.0-2.2","3803357","co37585","norming","","","{""curiosity"":5,""confidence"":0}","[0,1]","../img/tt/1283tt.jpg","",""
"5838.160000000033","","","recognition","survey-text","23","578775","0.0-6.0-3.2","3803357","co37585","norming","","","{""guess"":""""}","","../img/tt/1283tt.jpg","",""
"null","../img/gs/1283gs.jpg","null","reveal","image-keyboard-response","24","580779","0.0-6.0-4.2","3803357","co37585","norming","","","","","","",""
"null","../img/tt/1283tt.jpg","null","mooney2","image-keyboard-response","25","582789","0.0-6.0-5.2","3803357","co37585","norming","","","","","","",""
"4648.170000000158","","","post_reveal_questions","survey-likert","26","587439","0.0-6.0-6.2","3803357","co37585","norming","","","{""aha"":4}","[0]","../img/tt/1283tt.jpg","",""
"null","<div style=""font-size:60px;""> </div>","null","fixation","html-keyboard-response","27","587645","0.0-6.0-0.3","3803357","co37585","norming","","","","","","",""
"null","../img/tt/189tt.jpg","null","mooney1","image-keyboard-response","28","590648","0.0-6.0-1.3","3803357","co37585","norming","","","","","","",""
"8260.574999999953","","","post_mooney1_questions","survey-likert","29","598912","0.0-6.0-2.3","3803357","co37585","norming","","","{""curiosity"":4,""confidence"":1}","[0,1]","../img/tt/189tt.jpg","",""
"8270.010000000126","","","recognition","survey-text","30","607183","0.0-6.0-3.3","3803357","co37585","norming","","","{""guess"":""speeltuin""}","","../img/tt/189tt.jpg","",""
"null","../img/gs/189gs.jpg","null","reveal","image-keyboard-response","31","609185","0.0-6.0-4.3","3803357","co37585","norming","","","","","","",""
"null","../img/tt/189tt.jpg","null","mooney2","image-keyboard-response","32","611187","0.0-6.0-5.3","3803357","co37585","norming","","","","","","",""
"5043.609999999986","","","post_reveal_questions","survey-likert","33","616240","0.0-6.0-6.3","3803357","co37585","norming","","","{""aha"":4}","[0]","../img/tt/189tt.jpg","",""
"null","<div style=""font-size:60px;""> </div>","null","fixation","html-keyboard-response","34","616442","0.0-6.0-0.4","3803357","co37585","norming","","","","","","",""
"null","../img/tt/1089tt.jpg","null","mooney1","image-keyboard-response","35","619448","0.0-6.0-1.4","3803357","co37585","norming","","","","","","",""
"11110.564999999944","","","post_mooney1_questions","survey-likert","36","630560","0.0-6.0-2.4","3803357","co37585","norming","","","{""curiosity"":5,""confidence"":1}","[0,1]","../img/tt/1089tt.jpg","",""
"6525.77500000014","","","recognition","survey-text","37","637088","0.0-6.0-3.4","3803357","co37585","norming","","","{""guess"":""stapel hout""}","","../img/tt/1089tt.jpg","",""
"null","../img/gs/1089gs.jpg","null","reveal","image-keyboard-response","38","639098","0.0-6.0-4.4","3803357","co37585","norming","","","","","","",""
"null","../img/tt/1089tt.jpg","null","mooney2","image-keyboard-response","39","641105","0.0-6.0-5.4","3803357","co37585","norming","","","","","","",""
"3181.6100000001024","","","post_reveal_questions","survey-likert","40","644288","0.0-6.0-6.4","3803357","co37585","norming","","","{""aha"":5}","[0]","../img/tt/1089tt.jpg","",""
"null","<div style=""font-size:60px;""> </div>","null","fixation","html-keyboard-response","41","644495","0.0-6.0-0.5","3803357","co37585","norming","","","","","","",""
"null","../img/tt/329tt.jpg","null","mooney1","image-keyboard-response","42","647497","0.0-6.0-1.5","3803357","co37585","norming","","","","","","",""
"4173.82500000007","","","post_mooney1_questions","survey-likert","43","651672","0.0-6.0-2.5","3803357","co37585","norming","","","{""curiosity"":5,""confidence"":0}","[0,1]","../img/tt/329tt.jpg","",""
"1038.1600000000326","","","recognition","survey-text","44","652712","0.0-6.0-3.5","3803357","co37585","norming","","","{""guess"":""""}","","../img/tt/329tt.jpg","",""
"null","../img/gs/329gs.jpg","null","reveal","image-keyboard-response","45","654721","0.0-6.0-4.5","3803357","co37585","norming","","","","","","",""
"null","../img/tt/329tt.jpg","null","mooney2","image-keyboard-response","46","656726","0.0-6.0-5.5","3803357","co37585","norming","","","","","","",""
"4424.40000000014","","","post_reveal_questions","survey-likert","47","661152","0.0-6.0-6.5","3803357","co37585","norming","","","{""aha"":4}","[0]","../img/tt/329tt.jpg","",""
"null","<div style=""font-size:60px;""> </div>","null","fixation","html-keyboard-response","48","661357","0.0-6.0-0.6","3803357","co37585","norming","","","","","","",""
"null","../img/tt/1228tt.jpg","null","mooney1","image-keyboard-response","49","664360","0.0-6.0-1.6","3803357","co37585","norming","","","","","","",""
"6974.89000000013","","","post_mooney1_questions","survey-likert","50","671336","0.0-6.0-2.6","3803357","co37585","norming","","","{""curiosity"":4,""confidence"":1}","[0,1]","../img/tt/1228tt.jpg","",""
"4934.144999999902","","","recognition","survey-text","51","676274","0.0-6.0-3.6","3803357","co37585","norming","","","{""guess"":""vogel""}","","../img/tt/1228tt.jpg","",""
"null","../img/gs/1228gs.jpg","null","reveal","image-keyboard-response","52","678284","0.0-6.0-4.6","3803357","co37585","norming","","","","","","",""
"null","../img/tt/1228tt.jpg","null","mooney2","image-keyboard-response","53","680290","0.0-6.0-5.6","3803357","co37585","norming","","","","","","",""
"8247.73499999987","","","post_reveal_questions","survey-likert","54","688538","0.0-6.0-6.6","3803357","co37585","norming","","","{""aha"":6}","[0]","../img/tt/1228tt.jpg","",""
"null","<div style=""font-size:60px;""> </div>","null","fixation","html-keyboard-response","55","688746","0.0-6.0-0.7","3803357","co37585","norming","","","","","","",""
"null","../img/tt/1118tt.jpg","null","mooney1","image-keyboard-response","56","691750","0.0-6.0-1.7","3803357","co37585","norming","","","","","","",""
"4370.010000000126","","","post_mooney1_questions","survey-likert","57","696123","0.0-6.0-2.7","3803357","co37585","norming","","","{""curiosity"":3,""confidence"":2}","[0,1]","../img/tt/1118tt.jpg","",""
"5030.009999999893","","","recognition","survey-text","58","701154","0.0-6.0-3.7","3803357","co37585","norming","","","{""guess"":""kano""}","","../img/tt/1118tt.jpg","",""
"null","../img/gs/1118gs.jpg","null","reveal","image-keyboard-response","59","703160","0.0-6.0-4.7","3803357","co37585","norming","","","","","","",""
"null","../img/tt/1118tt.jpg","null","mooney2","image-keyboard-response","60","705171","0.0-6.0-5.7","3803357","co37585","norming","","","","","","",""
"3941.560000000056","","","post_reveal_questions","survey-likert","61","709114","0.0-6.0-6.7","3803357","co37585","norming","","","{""aha"":5}","[0]","../img/tt/1118tt.jpg","",""
"null","<div style=""font-size:60px;""> </div>","null","fixation","html-keyboard-response","62","709318","0.0-6.0-0.8","3803357","co37585","norming","","","","","","",""
"null","../img/tt/1084tt.jpg","null","mooney1","image-keyboard-response","63","712327","0.0-6.0-1.8","3803357","co37585","norming","","","","","","",""
"8616.940000000177","","","post_mooney1_questions","survey-likert","64","720946","0.0-6.0-2.8","3803357","co37585","norming","","","{""curiosity"":4,""confidence"":1}","[0,1]","../img/tt/1084tt.jpg","",""
"4454.040000000154","","","recognition","survey-text","65","725402","0.0-6.0-3.8","3803357","co37585","norming","","","{""guess"":""taart""}","","../img/tt/1084tt.jpg","",""
"null","../img/gs/1084gs.jpg","null","reveal","image-keyboard-response","66","727406","0.0-6.0-4.8","3803357","co37585","norming","","","","","","",""
"null","../img/tt/1084tt.jpg","null","mooney2","image-keyboard-response","67","729407","0.0-6.0-5.8","3803357","co37585","norming","","","","","","",""
"5251.035000000033","","","post_reveal_questions","survey-likert","68","734658","0.0-6.0-6.8","3803357","co37585","norming","","","{""aha"":3}","[0]","../img/tt/1084tt.jpg","",""
"null","<div style=""font-size:60px;""> </div>","null","fixation","html-keyboard-response","69","734866","0.0-6.0-0.9","3803357","co37585","norming","","","","","","",""
"null","../img/tt/418tt.jpg","null","mooney1","image-keyboard-response","70","737879","0.0-6.0-1.9","3803357","co37585","norming","","","","","","",""
"11659.925000000163","","","post_mooney1_questions","survey-likert","71","749542","0.0-6.0-2.9","3803357","co37585","norming","","","{""curiosity"":4,""confidence"":1}","[0,1]","../img/tt/418tt.jpg","",""
"16974.030000000028","","","recognition","survey-text","72","766517","0.0-6.0-3.9","3803357","co37585","norming","","","{""guess"":""druiven""}","","../img/tt/418tt.jpg","",""
"null","../img/gs/418gs.jpg","null","reveal","image-keyboard-response","73","768523","0.0-6.0-4.9","3803357","co37585","norming","","","","","","",""
"null","../img/tt/418tt.jpg","null","mooney2","image-keyboard-response","74","770534","0.0-6.0-5.9","3803357","co37585","norming","","","","","","",""
"5357.864999999991","","","post_reveal_questions","survey-likert","75","775894","0.0-6.0-6.9","3803357","co37585","norming","","","{""aha"":4}","[0]","../img/tt/418tt.jpg","",""
"null","<div style=""font-size:60px;""> </div>","null","fixation","html-keyboard-response","76","776103","0.0-6.0-0.10","3803357","co37585","norming","","","","","","",""
"null","../img/tt/044tt.jpg","null","mooney1","image-keyboard-response","77","779106","0.0-6.0-1.10","3803357","co37585","norming","","","","","","",""
"7866.670000000158","","","post_mooney1_questions","survey-likert","78","786974","0.0-6.0-2.10","3803357","co37585","norming","","","{""curiosity"":6,""confidence"":1}","[0,1]","../img/tt/044tt.jpg","",""
"4317","","","recognition","survey-text","79","791294","0.0-6.0-3.10","3803357","co37585","norming","","","{""guess"":""auto""}","","../img/tt/044tt.jpg","",""
"null","../img/gs/044gs.jpg","null","reveal","image-keyboard-response","80","793301","0.0-6.0-4.10","3803357","co37585","norming","","","","","","",""
"null","../img/tt/044tt.jpg","null","mooney2","image-keyboard-response","81","795303","0.0-6.0-5.10","3803357","co37585","norming","","","","","","",""
"3196.67499999993","","","post_reveal_questions","survey-likert","82","798499","0.0-6.0-6.10","3803357","co37585","norming","","","{""aha"":4}","[0]","../img/tt/044tt.jpg","",""
"null","<div style=""font-size:60px;""> </div>","null","fixation","html-keyboard-response","83","798710","0.0-6.0-0.11","3803357","co37585","norming","","","","","","",""
"null","../img/tt/049tt.jpg","null","mooney1","image-keyboard-response","84","801719","0.0-6.0-1.11","3803357","co37585","norming","","","","","","",""
"9169.535000000033","","","post_mooney1_questions","survey-likert","85","810892","0.0-6.0-2.11","3803357","co37585","norming","","","{""curiosity"":6,""confidence"":1}","[0,1]","../img/tt/049tt.jpg","",""
"9550.080000000191","","","recognition","survey-text","86","820443","0.0-6.0-3.11","3803357","co37585","norming","","","{""guess"":""bloemkool""}","","../img/tt/049tt.jpg","",""
"null","../img/gs/049gs.jpg","null","reveal","image-keyboard-response","87","822446","0.0-6.0-4.11","3803357","co37585","norming","","","","","","",""
"null","../img/tt/049tt.jpg","null","mooney2","image-keyboard-response","88","824454","0.0-6.0-5.11","3803357","co37585","norming","","","","","","",""
"3586.770000000135","","","post_reveal_questions","survey-likert","89","828043","0.0-6.0-6.11","3803357","co37585","norming","","","{""aha"":4}","[0]","../img/tt/049tt.jpg","",""
"null","<div style=""font-size:60px;""> </div>","null","fixation","html-keyboard-response","90","828252","0.0-6.0-0.12","3803357","co37585","norming","","","","","","",""
"null","../img/tt/1004tt.jpg","null","mooney1","image-keyboard-response","91","831263","0.0-6.0-1.12","3803357","co37585","norming","","","","","","",""
"13547.365000000107","","","post_mooney1_questions","survey-likert","92","844812","0.0-6.0-2.12","3803357","co37585","norming","","","{""curiosity"":4,""confidence"":3}","[0,1]","../img/tt/1004tt.jpg","",""
"4078.1450000000186","","","recognition","survey-text","93","848891","0.0-6.0-3.12","3803357","co37585","norming","","","{""guess"":""olifant""}","","../img/tt/1004tt.jpg","",""
"null","../img/gs/1004gs.jpg","null","reveal","image-keyboard-response","94","850899","0.0-6.0-4.12","3803357","co37585","norming","","","","","","",""
"null","../img/tt/1004tt.jpg","null","mooney2","image-keyboard-response","95","852905","0.0-6.0-5.12","3803357","co37585","norming","","","","","","",""
"2841.275000000256","","","post_reveal_questions","survey-likert","96","855747","0.0-6.0-6.12","3803357","co37585","norming","","","{""aha"":2}","[0]","../img/tt/1004tt.jpg","",""
"null","<div style=""font-size:60px;""> </div>","null","fixation","html-keyboard-response","97","855951","0.0-6.0-0.13","3803357","co37585","norming","","","","","","",""
"null","../img/tt/063tt.jpg","null","mooney1","image-keyboard-response","98","858963","0.0-6.0-1.13","3803357","co37585","norming","","","","","","",""
"4217.930000000051","","","post_mooney1_questions","survey-likert","99","863183","0.0-6.0-2.13","3803357","co37585","norming","","","{""curiosity"":4,""confidence"":1}","[0,1]","../img/tt/063tt.jpg","",""
"4518.054999999935","","","recognition","survey-text","100","867703","0.0-6.0-3.13","3803357","co37585","norming","","","{""guess"":""telefoon""}","","../img/tt/063tt.jpg","",""
"null","../img/gs/063gs.jpg","null","reveal","image-keyboard-response","101","869709","0.0-6.0-4.13","3803357","co37585","norming","","","","","","",""
"null","../img/tt/063tt.jpg","null","mooney2","image-keyboard-response","102","871712","0.0-6.0-5.13","3803357","co37585","norming","","","","","","",""
"4164.510000000126","","","post_reveal_questions","survey-likert","103","875879","0.0-6.0-6.13","3803357","co37585","norming","","","{""aha"":3}","[0]","../img/tt/063tt.jpg","",""
"null","<div style=""font-size:60px;""> </div>","null","fixation","html-keyboard-response","104","876085","0.0-6.0-0.14","3803357","co37585","norming","","","","","","",""
"null","../img/tt/1151tt.jpg","null","mooney1","image-keyboard-response","105","879091","0.0-6.0-1.14","3803357","co37585","norming","","","","","","",""
"12969.395000000019","","","post_mooney1_questions","survey-likert","106","892063","0.0-6.0-2.14","3803357","co37585","norming","","","{""curiosity"":4,""confidence"":1}","[0,1]","../img/tt/1151tt.jpg","",""
"3814.3549999999814","","","recognition","survey-text","107","895879","0.0-6.0-3.14","3803357","co37585","norming","","","{""guess"":""rotsen""}","","../img/tt/1151tt.jpg","",""
"null","../img/gs/1151gs.jpg","null","reveal","image-keyboard-response","108","897887","0.0-6.0-4.14","3803357","co37585","norming","","","","","","",""
"null","../img/tt/1151tt.jpg","null","mooney2","image-keyboard-response","109","899889","0.0-6.0-5.14","3803357","co37585","norming","","","","","","",""
"4019.109999999986","","","post_reveal_questions","survey-likert","110","903911","0.0-6.0-6.14","3803357","co37585","norming","","","{""aha"":4}","[0]","../img/tt/1151tt.jpg","",""
"null","<div style=""font-size:60px;""> </div>","null","fixation","html-keyboard-response","111","904113","0.0-6.0-0.15","3803357","co37585","norming","","","","","","",""
"null","../img/tt/1363tt.jpg","null","mooney1","image-keyboard-response","112","907120","0.0-6.0-1.15","3803357","co37585","norming","","","","","","",""
"4123.739999999991","","","post_mooney1_questions","survey-likert","113","911247","0.0-6.0-2.15","3803357","co37585","norming","","","{""curiosity"":6,""confidence"":1}","[0,1]","../img/tt/1363tt.jpg","",""
"3494.1900000000605","","","recognition","survey-text","114","914743","0.0-6.0-3.15","3803357","co37585","norming","","","{""guess"":""banaan""}","","../img/tt/1363tt.jpg","",""
"null","../img/gs/1363gs.jpg","null","reveal","image-keyboard-response","115","916748","0.0-6.0-4.15","3803357","co37585","norming","","","","","","",""
"null","../img/tt/1363tt.jpg","null","mooney2","image-keyboard-response","116","918750","0.0-6.0-5.15","3803357","co37585","norming","","","","","","",""
"2086.4549999998417","","","post_reveal_questions","survey-likert","117","920835","0.0-6.0-6.15","3803357","co37585","norming","","","{""aha"":5}","[0]","../img/tt/1363tt.jpg","",""
"null","<div style=""font-size:60px;""> </div>","null","fixation","html-keyboard-response","118","921043","0.0-6.0-0.16","3803357","co37585","norming","","","","","","",""
"null","../img/tt/1123tt.jpg","null","mooney1","image-keyboard-response","119","924050","0.0-6.0-1.16","3803357","co37585","norming","","","","","","",""
"12214.82500000007","","","post_mooney1_questions","survey-likert","120","936268","0.0-6.0-2.16","3803357","co37585","norming","","","{""curiosity"":3,""confidence"":2}","[0,1]","../img/tt/1123tt.jpg","",""
"5910.135000000126","","","recognition","survey-text","121","942179","0.0-6.0-3.16","3803357","co37585","norming","","","{""guess"":""volleybal""}","","../img/tt/1123tt.jpg","",""
"null","../img/gs/1123gs.jpg","null","reveal","image-keyboard-response","122","944188","0.0-6.0-4.16","3803357","co37585","norming","","","","","","",""
"null","../img/tt/1123tt.jpg","null","mooney2","image-keyboard-response","123","946197","0.0-6.0-5.16","3803357","co37585","norming","","","","","","",""
"3147.4699999998556","","","post_reveal_questions","survey-likert","124","949347","0.0-6.0-6.16","3803357","co37585","norming","","","{""aha"":5}","[0]","../img/tt/1123tt.jpg","",""
"null","<div style=""font-size:60px;""> </div>","null","fixation","html-keyboard-response","125","949553","0.0-6.0-0.17","3803357","co37585","norming","","","","","","",""
"null","../img/tt/1086tt.jpg","null","mooney1","image-keyboard-response","126","952559","0.0-6.0-1.17","3803357","co37585","norming","","","","","","",""
"6801.785000000033","","","post_mooney1_questions","survey-likert","127","959363","0.0-6.0-2.17","3803357","co37585","norming","","","{""curiosity"":5,""confidence"":2}","[0,1]","../img/tt/1086tt.jpg","",""
"4494.285000000033","","","recognition","survey-text","128","963859","0.0-6.0-3.17","3803357","co37585","norming","","","{""guess"":""hond""}","","../img/tt/1086tt.jpg","",""
"null","../img/gs/1086gs.jpg","null","reveal","image-keyboard-response","129","965867","0.0-6.0-4.17","3803357","co37585","norming","","","","","","",""
"null","../img/tt/1086tt.jpg","null","mooney2","image-keyboard-response","130","967873","0.0-6.0-5.17","3803357","co37585","norming","","","","","","",""
"6513.089999999967","","","post_reveal_questions","survey-likert","131","974387","0.0-6.0-6.17","3803357","co37585","norming","","","{""aha"":3}","[0]","../img/tt/1086tt.jpg","",""
"null","<div style=""font-size:60px;""> </div>","null","fixation","html-keyboard-response","132","974594","0.0-6.0-0.18","3803357","co37585","norming","","","","","","",""
"null","../img/tt/1154tt.jpg","null","mooney1","image-keyboard-response","133","977601","0.0-6.0-1.18","3803357","co37585","norming","","","","","","",""
"13496.090000000084","","","post_mooney1_questions","survey-likert","134","991095","0.0-6.0-2.18","3803357","co37585","norming","","","{""curiosity"":4,""confidence"":1}","[0,1]","../img/tt/1154tt.jpg","",""
"6470.025000000023","","","recognition","survey-text","135","997567","0.0-6.0-3.18","3803357","co37585","norming","","","{""guess"":""rivier""}","","../img/tt/1154tt.jpg","",""
"null","../img/gs/1154gs.jpg","null","reveal","image-keyboard-response","136","999568","0.0-6.0-4.18","3803357","co37585","norming","","","","","","",""
"null","../img/tt/1154tt.jpg","null","mooney2","image-keyboard-response","137","1001571","0.0-6.0-5.18","3803357","co37585","norming","","","","","","",""
"5257.305000000051","","","post_reveal_questions","survey-likert","138","1006831","0.0-6.0-6.18","3803357","co37585","norming","","","{""aha"":5}","[0]","../img/tt/1154tt.jpg","",""
"null","<div style=""font-size:60px;""> </div>","null","fixation","html-keyboard-response","139","1007039","0.0-6.0-0.19","3803357","co37585","norming","","","","","","",""
"null","../img/tt/412tt.jpg","null","mooney1","image-keyboard-response","140","1010045","0.0-6.0-1.19","3803357","co37585","norming","","","","","","",""
"9167.905000000028","","","post_mooney1_questions","survey-likert","141","1019215","0.0-6.0-2.19","3803357","co37585","norming","","","{""curiosity"":6,""confidence"":1}","[0,1]","../img/tt/412tt.jpg","",""
"5862.074999999953","","","recognition","survey-text","142","1025079","0.0-6.0-3.19","3803357","co37585","norming","","","{""guess"":""fles""}","","../img/tt/412tt.jpg","",""
"null","../img/gs/412gs.jpg","null","reveal","image-keyboard-response","143","1027085","0.0-6.0-4.19","3803357","co37585","norming","","","","","","",""
"null","../img/tt/412tt.jpg","null","mooney2","image-keyboard-response","144","1029093","0.0-6.0-5.19","3803357","co37585","norming","","","","","","",""
"8903.910000000033","","","post_reveal_questions","survey-likert","145","1037999","0.0-6.0-6.19","3803357","co37585","norming","","","{""aha"":4}","[0]","../img/tt/412tt.jpg","",""
"null","<div style=""font-size:60px;""> </div>","null","fixation","html-keyboard-response","146","1038202","0.0-6.0-0.20","3803357","co37585","norming","","","","","","",""
"null","../img/tt/096tt.jpg","null","mooney1","image-keyboard-response","147","1041212","0.0-6.0-1.20","3803357","co37585","norming","","","","","","",""
"3736.530000000028","","","post_mooney1_questions","survey-likert","148","1044951","0.0-6.0-2.20","3803357","co37585","norming","","","{""curiosity"":6,""confidence"":0}","[0,1]","../img/tt/096tt.jpg","",""
"1334.1450000002515","","","recognition","survey-text","149","1046289","0.0-6.0-3.20","3803357","co37585","norming","","","{""guess"":""""}","","../img/tt/096tt.jpg","",""
"null","../img/gs/096gs.jpg","null","reveal","image-keyboard-response","150","1048297","0.0-6.0-4.20","3803357","co37585","norming","","","","","","",""
"null","../img/tt/096tt.jpg","null","mooney2","image-keyboard-response","151","1050306","0.0-6.0-5.20","3803357","co37585","norming","","","","","","",""
"3219.93499999959","","","post_reveal_questions","survey-likert","152","1053529","0.0-6.0-6.20","3803357","co37585","norming","","","{""aha"":5}","[0]","../img/tt/096tt.jpg","",""
"null","<div style=""font-size:60px;""> </div>","null","fixation","html-keyboard-response","153","1053735","0.0-6.0-0.21","3803357","co37585","norming","","","","","","",""
"null","../img/tt/603tt.jpg","null","mooney1","image-keyboard-response","154","1056744","0.0-6.0-1.21","3803357","co37585","norming","","","","","","",""
"5053.389999999898","","","post_mooney1_questions","survey-likert","155","1061801","0.0-6.0-2.21","3803357","co37585","norming","","","{""curiosity"":4,""confidence"":2}","[0,1]","../img/tt/603tt.jpg","",""
"3134.4199999999255","","","recognition","survey-text","156","1064937","0.0-6.0-3.21","3803357","co37585","norming","","","{""guess"":""beer""}","","../img/tt/603tt.jpg","",""
"null","../img/gs/603gs.jpg","null","reveal","image-keyboard-response","157","1066944","0.0-6.0-4.21","3803357","co37585","norming","","","","","","",""
"null","../img/tt/603tt.jpg","null","mooney2","image-keyboard-response","158","1068947","0.0-6.0-5.21","3803357","co37585","norming","","","","","","",""
"2971.445000000065","","","post_reveal_questions","survey-likert","159","1071921","0.0-6.0-6.21","3803357","co37585","norming","","","{""aha"":6}","[0]","../img/tt/603tt.jpg","",""
"null","<div style=""font-size:60px;""> </div>","null","fixation","html-keyboard-response","160","1072131","0.0-6.0-0.22","3803357","co37585","norming","","","","","","",""
"null","../img/tt/105tt.jpg","null","mooney1","image-keyboard-response","161","1075141","0.0-6.0-1.22","3803357","co37585","norming","","","","","","",""
"6529.629999999888","","","post_mooney1_questions","survey-likert","162","1081673","0.0-6.0-2.22","3803357","co37585","norming","","","{""curiosity"":5,""confidence"":0}","[0,1]","../img/tt/105tt.jpg","",""
"4798.05999999959","","","recognition","survey-text","163","1086473","0.0-6.0-3.22","3803357","co37585","norming","","","{""guess"":""""}","","../img/tt/105tt.jpg","",""
"null","../img/gs/105gs.jpg","null","reveal","image-keyboard-response","164","1088483","0.0-6.0-4.22","3803357","co37585","norming","","","","","","",""
"null","../img/tt/105tt.jpg","null","mooney2","image-keyboard-response","165","1090488","0.0-6.0-5.22","3803357","co37585","norming","","","","","","",""
"3429.7899999995716","","","post_reveal_questions","survey-likert","166","1093921","0.0-6.0-6.22","3803357","co37585","norming","","","{""aha"":6}","[0]","../img/tt/105tt.jpg","",""
"null","<div style=""font-size:60px;""> </div>","null","fixation","html-keyboard-response","167","1094125","0.0-6.0-0.23","3803357","co37585","norming","","","","","","",""
"null","../img/tt/019tt.jpg","null","mooney1","image-keyboard-response","168","1097131","0.0-6.0-1.23","3803357","co37585","norming","","","","","","",""
"16284.094999999972","","","post_mooney1_questions","survey-likert","169","1113423","0.0-6.0-2.23","3803357","co37585","norming","","","{""curiosity"":3,""confidence"":2}","[0,1]","../img/tt/019tt.jpg","",""
"3246.274999999907","","","recognition","survey-text","170","1116671","0.0-6.0-3.23","3803357","co37585","norming","","","{""guess"":""kano""}","","../img/tt/019tt.jpg","",""
"null","../img/gs/019gs.jpg","null","reveal","image-keyboard-response","171","1118676","0.0-6.0-4.23","3803357","co37585","norming","","","","","","",""
"null","../img/tt/019tt.jpg","null","mooney2","image-keyboard-response","172","1120678","0.0-6.0-5.23","3803357","co37585","norming","","","","","","",""
"3686.374999999767","","","post_reveal_questions","survey-likert","173","1124367","0.0-6.0-6.23","3803357","co37585","norming","","","{""aha"":6}","[0]","../img/tt/019tt.jpg","",""
"null","<div style=""font-size:60px;""> </div>","null","fixation","html-keyboard-response","174","1124577","0.0-6.0-0.24","3803357","co37585","norming","","","","","","",""
"null","../img/tt/438tt.jpg","null","mooney1","image-keyboard-response","175","1127583","0.0-6.0-1.24","3803357","co37585","norming","","","","","","",""
"4333.014999999665","","","post_mooney1_questions","survey-likert","176","1131919","0.0-6.0-2.24","3803357","co37585","norming","","","{""curiosity"":6,""confidence"":0}","[0,1]","../img/tt/438tt.jpg","",""
"2206.4300000004005","","","recognition","survey-text","177","1134127","0.0-6.0-3.24","3803357","co37585","norming","","","{""guess"":""""}","","../img/tt/438tt.jpg","",""
"null","../img/gs/438gs.jpg","null","reveal","image-keyboard-response","178","1136138","0.0-6.0-4.24","3803357","co37585","norming","","","","","","",""
"null","../img/tt/438tt.jpg","null","mooney2","image-keyboard-response","179","1138149","0.0-6.0-5.24","3803357","co37585","norming","","","","","","",""
"4215.479999999981","","","post_reveal_questions","survey-likert","180","1142367","0.0-6.0-6.24","3803357","co37585","norming","","","{""aha"":4}","[0]","../img/tt/438tt.jpg","",""
"null","<div style=""font-size:60px;""> </div>","null","fixation","html-keyboard-response","181","1142569","0.0-6.0-0.25","3803357","co37585","norming","","","","","","",""
"null","../img/tt/1181tt.jpg","null","mooney1","image-keyboard-response","182","1145579","0.0-6.0-1.25","3803357","co37585","norming","","","","","","",""
"12193.290000000037","","","post_mooney1_questions","survey-likert","183","1157775","0.0-6.0-2.25","3803357","co37585","norming","","","{""curiosity"":5,""confidence"":1}","[0,1]","../img/tt/1181tt.jpg","",""
"4141.995000000345","","","recognition","survey-text","184","1161919","0.0-6.0-3.25","3803357","co37585","norming","","","{""guess"":""soldaten""}","","../img/tt/1181tt.jpg","",""
"null","../img/gs/1181gs.jpg","null","reveal","image-keyboard-response","185","1163924","0.0-6.0-4.25","3803357","co37585","norming","","","","","","",""
"null","../img/tt/1181tt.jpg","null","mooney2","image-keyboard-response","186","1165926","0.0-6.0-5.25","3803357","co37585","norming","","","","","","",""
"2510.725000000093","","","post_reveal_questions","survey-likert","187","1168437","0.0-6.0-6.25","3803357","co37585","norming","","","{""aha"":3}","[0]","../img/tt/1181tt.jpg","",""
"null","<div style=""font-size:60px;""> </div>","null","fixation","html-keyboard-response","188","1168642","0.0-6.0-0.26","3803357","co37585","norming","","","","","","",""
"null","../img/tt/163tt.jpg","null","mooney1","image-keyboard-response","189","1171651","0.0-6.0-1.26","3803357","co37585","norming","","","","","","",""
"3422.9249999998137","","","post_mooney1_questions","survey-likert","190","1175077","0.0-6.0-2.26","3803357","co37585","norming","","","{""curiosity"":6,""confidence"":0}","[0,1]","../img/tt/163tt.jpg","",""
"2502.2049999998417","","","recognition","survey-text","191","1177581","0.0-6.0-3.26","3803357","co37585","norming","","","{""guess"":""""}","","../img/tt/163tt.jpg","",""
"null","../img/gs/163gs.jpg","null","reveal","image-keyboard-response","192","1179584","0.0-6.0-4.26","3803357","co37585","norming","","","","","","",""
"null","../img/tt/163tt.jpg","null","mooney2","image-keyboard-response","193","1181586","0.0-6.0-5.26","3803357","co37585","norming","","","","","","",""
"4696.864999999991","","","post_reveal_questions","survey-likert","194","1186285","0.0-6.0-6.26","3803357","co37585","norming","","","{""aha"":4}","[0]","../img/tt/163tt.jpg","",""
"null","<div style=""font-size:60px;""> </div>","null","fixation","html-keyboard-response","195","1186495","0.0-6.0-0.27","3803357","co37585","norming","","","","","","",""
"null","../img/tt/1227tt.jpg","null","mooney1","image-keyboard-response","196","1189502","0.0-6.0-1.27","3803357","co37585","norming","","","","","","",""
"3605.4849999998696","","","post_mooney1_questions","survey-likert","197","1193109","0.0-6.0-2.27","3803357","co37585","norming","","","{""curiosity"":6,""confidence"":0}","[0,1]","../img/tt/1227tt.jpg","",""
"1046.0000000002328","","","recognition","survey-text","198","1194157","0.0-6.0-3.27","3803357","co37585","norming","","","{""guess"":""""}","","../img/tt/1227tt.jpg","",""
"null","../img/gs/1227gs.jpg","null","reveal","image-keyboard-response","199","1196164","0.0-6.0-4.27","3803357","co37585","norming","","","","","","",""
"null","../img/tt/1227tt.jpg","null","mooney2","image-keyboard-response","200","1198174","0.0-6.0-5.27","3803357","co37585","norming","","","","","","",""
"2645.0300000002608","","","post_reveal_questions","survey-likert","201","1200821","0.0-6.0-6.27","3803357","co37585","norming","","","{""aha"":3}","[0]","../img/tt/1227tt.jpg","",""
"null","<div style=""font-size:60px;""> </div>","null","fixation","html-keyboard-response","202","1201031","0.0-6.0-0.28","3803357","co37585","norming","","","","","","",""
"null","../img/tt/064tt.jpg","null","mooney1","image-keyboard-response","203","1204036","0.0-6.0-1.28","3803357","co37585","norming","","","","","","",""
"6645.530000000261","","","post_mooney1_questions","survey-likert","204","1210685","0.0-6.0-2.28","3803357","co37585","norming","","","{""curiosity"":6,""confidence"":0}","[0,1]","../img/tt/064tt.jpg","",""
"1254.1550000002608","","","recognition","survey-text","205","1211941","0.0-6.0-3.28","3803357","co37585","norming","","","{""guess"":""""}","","../img/tt/064tt.jpg","",""
"null","../img/gs/064gs.jpg","null","reveal","image-keyboard-response","206","1213943","0.0-6.0-4.28","3803357","co37585","norming","","","","","","",""
"null","../img/tt/064tt.jpg","null","mooney2","image-keyboard-response","207","1215945","0.0-6.0-5.28","3803357","co37585","norming","","","","","","",""
"5473.824999999953","","","post_reveal_questions","survey-likert","208","1221421","0.0-6.0-6.28","3803357","co37585","norming","","","{""aha"":5}","[0]","../img/tt/064tt.jpg","",""
"null","<div style=""font-size:60px;""> </div>","null","fixation","html-keyboard-response","209","1221622","0.0-6.0-0.29","3803357","co37585","norming","","","","","","",""
"null","../img/tt/507tt.jpg","null","mooney1","image-keyboard-response","210","1224626","0.0-6.0-1.29","3803357","co37585","norming","","","","","","",""
"11832.260000000242","","","post_mooney1_questions","survey-likert","211","1236458","0.0-6.0-2.29","3803357","co37585","norming","","","{""curiosity"":5,""confidence"":1}","[0,1]","../img/tt/507tt.jpg","",""
"4245.940000000177","","","recognition","survey-text","212","1240706","0.0-6.0-3.29","3803357","co37585","norming","","","{""guess"":""concert""}","","../img/tt/507tt.jpg","",""
"null","../img/gs/507gs.jpg","null","reveal","image-keyboard-response","213","1242711","0.0-6.0-4.29","3803357","co37585","norming","","","","","","",""
"null","../img/tt/507tt.jpg","null","mooney2","image-keyboard-response","214","1244721","0.0-6.0-5.29","3803357","co37585","norming","","","","","","",""
"6126.229999999981","","","post_reveal_questions","survey-likert","215","1250850","0.0-6.0-6.29","3803357","co37585","norming","","","{""aha"":4}","[0]","../img/tt/507tt.jpg","",""
"null","<div style=""font-size:60px;""> </div>","null","fixation","html-keyboard-response","216","1251053","0.0-6.0-0.30","3803357","co37585","norming","","","","","","",""
"null","../img/tt/436tt.jpg","null","mooney1","image-keyboard-response","217","1254064","0.0-6.0-1.30","3803357","co37585","norming","","","","","","",""
"10022.745000000345","","","post_mooney1_questions","survey-likert","218","1264090","0.0-6.0-2.30","3803357","co37585","norming","","","{""curiosity"":5,""confidence"":1}","[0,1]","../img/tt/436tt.jpg","",""
"6894.094999999972","","","recognition","survey-text","219","1270986","0.0-6.0-3.30","3803357","co37585","norming","","","{""guess"":""liggend persoon""}","","../img/tt/436tt.jpg","",""
"null","../img/gs/436gs.jpg","null","reveal","image-keyboard-response","220","1272988","0.0-6.0-4.30","3803357","co37585","norming","","","","","","",""
"null","../img/tt/436tt.jpg","null","mooney2","image-keyboard-response","221","1274994","0.0-6.0-5.30","3803357","co37585","norming","","","","","","",""
"3742.269999999786","","","post_reveal_questions","survey-likert","222","1278738","0.0-6.0-6.30","3803357","co37585","norming","","","{""aha"":6}","[0]","../img/tt/436tt.jpg","",""
"null","<div style=""font-size:60px;""> </div>","null","fixation","html-keyboard-response","223","1278942","0.0-6.0-0.31","3803357","co37585","norming","","","","","","",""
"null","../img/tt/1175tt.jpg","null","mooney1","image-keyboard-response","224","1281952","0.0-6.0-1.31","3803357","co37585","norming","","","","","","",""
"8822.984999999637","","","post_mooney1_questions","survey-likert","225","1290780","0.0-6.0-2.31","3803357","co37585","norming","","","{""curiosity"":5,""confidence"":0}","[0,1]","../img/tt/1175tt.jpg","",""
"1398.2399999999907","","","recognition","survey-text","226","1292180","0.0-6.0-3.31","3803357","co37585","norming","","","{""guess"":""""}","","../img/tt/1175tt.jpg","",""
"null","../img/gs/1175gs.jpg","null","reveal","image-keyboard-response","227","1294189","0.0-6.0-4.31","3803357","co37585","norming","","","","","","",""
"null","../img/tt/1175tt.jpg","null","mooney2","image-keyboard-response","228","1296192","0.0-6.0-5.31","3803357","co37585","norming","","","","","","",""
"2553.869999999879","","","post_reveal_questions","survey-likert","229","1298748","0.0-6.0-6.31","3803357","co37585","norming","","","{""aha"":5}","[0]","../img/tt/1175tt.jpg","",""
"null","<div style=""font-size:60px;""> </div>","null","fixation","html-keyboard-response","230","1298952","0.0-6.0-0.32","3803357","co37585","norming","","","","","","",""
"null","../img/tt/008tt.jpg","null","mooney1","image-keyboard-response","231","1301963","0.0-6.0-1.32","3803357","co37585","norming","","","","","","",""
"9509.994999999879","","","post_mooney1_questions","survey-likert","232","1311476","0.0-6.0-2.32","3803357","co37585","norming","","","{""curiosity"":5,""confidence"":1}","[0,1]","../img/tt/008tt.jpg","",""
"5542.155000000261","","","recognition","survey-text","233","1317020","0.0-6.0-3.32","3803357","co37585","norming","","","{""guess"":""boogschieter""}","","../img/tt/008tt.jpg","",""
"null","../img/gs/008gs.jpg","null","reveal","image-keyboard-response","234","1319023","0.0-6.0-4.32","3803357","co37585","norming","","","","","","",""
"null","../img/tt/008tt.jpg","null","mooney2","image-keyboard-response","235","1321030","0.0-6.0-5.32","3803357","co37585","norming","","","","","","",""
"4163.064999999711","","","post_reveal_questions","survey-likert","236","1325196","0.0-6.0-6.32","3803357","co37585","norming","","","{""aha"":5}","[0]","../img/tt/008tt.jpg","",""
"null","<div style=""font-size:60px;""> </div>","null","fixation","html-keyboard-response","237","1325404","0.0-6.0-0.33","3803357","co37585","norming","","","","","","",""
"null","../img/tt/1087tt.jpg","null","mooney1","image-keyboard-response","238","1328414","0.0-6.0-1.33","3803357","co37585","norming","","","","","","",""
"9579.060000000056","","","post_mooney1_questions","survey-likert","239","1337996","0.0-6.0-2.33","3803357","co37585","norming","","","{""curiosity"":3,""confidence"":2}","[0,1]","../img/tt/1087tt.jpg","",""
"5702.220000000205","","","recognition","survey-text","240","1343700","0.0-6.0-3.33","3803357","co37585","norming","","","{""guess"":""koe""}","","../img/tt/1087tt.jpg","",""
"null","../img/gs/1087gs.jpg","null","reveal","image-keyboard-response","241","1345708","0.0-6.0-4.33","3803357","co37585","norming","","","","","","",""
"null","../img/tt/1087tt.jpg","null","mooney2","image-keyboard-response","242","1347722","0.0-6.0-5.33","3803357","co37585","norming","","","","","","",""
"3867.1450000000186","","","post_reveal_questions","survey-likert","243","1351591","0.0-6.0-6.33","3803357","co37585","norming","","","{""aha"":2}","[0]","../img/tt/1087tt.jpg","",""
"null","<div style=""font-size:60px;""> </div>","null","fixation","html-keyboard-response","244","1351800","0.0-6.0-0.34","3803357","co37585","norming","","","","","","",""
"null","../img/tt/1080tt.jpg","null","mooney1","image-keyboard-response","245","1354807","0.0-6.0-1.34","3803357","co37585","norming","","","","","","",""
"6053.375","","","post_mooney1_questions","survey-likert","246","1360863","0.0-6.0-2.34","3803357","co37585","norming","","","{""curiosity"":3,""confidence"":2}","[0,1]","../img/tt/1080tt.jpg","",""
"3965.940000000177","","","recognition","survey-text","247","1364831","0.0-6.0-3.34","3803357","co37585","norming","","","{""guess"":""trein""}","","../img/tt/1080tt.jpg","",""
"null","../img/gs/1080gs.jpg","null","reveal","image-keyboard-response","248","1366836","0.0-6.0-4.34","3803357","co37585","norming","","","","","","",""
"null","../img/tt/1080tt.jpg","null","mooney2","image-keyboard-response","249","1368847","0.0-6.0-5.34","3803357","co37585","norming","","","","","","",""
"4965.639999999898","","","post_reveal_questions","survey-likert","250","1373815","0.0-6.0-6.34","3803357","co37585","norming","","","{""aha"":5}","[0]","../img/tt/1080tt.jpg","",""
"null","<div style=""font-size:60px;""> </div>","null","fixation","html-keyboard-response","251","1374023","0.0-6.0-0.35","3803357","co37585","norming","","","","","","",""
"null","../img/tt/1070tt.jpg","null","mooney1","image-keyboard-response","252","1377029","0.0-6.0-1.35","3803357","co37585","norming","","","","","","",""
"5406.820000000065","","","post_mooney1_questions","survey-likert","253","1382439","0.0-6.0-2.35","3803357","co37585","norming","","","{""curiosity"":3,""confidence"":2}","[0,1]","../img/tt/1070tt.jpg","",""
"3286.0699999995995","","","recognition","survey-text","254","1385727","0.0-6.0-3.35","3803357","co37585","norming","","","{""guess"":""taart""}","","../img/tt/1070tt.jpg","",""
"null","../img/gs/1070gs.jpg","null","reveal","image-keyboard-response","255","1387733","0.0-6.0-4.35","3803357","co37585","norming","","","","","","",""
"null","../img/tt/1070tt.jpg","null","mooney2","image-keyboard-response","256","1389739","0.0-6.0-5.35","3803357","co37585","norming","","","","","","",""
"4129.4749999996275","","","post_reveal_questions","survey-likert","257","1393871","0.0-6.0-6.35","3803357","co37585","norming","","","{""aha"":2}","[0]","../img/tt/1070tt.jpg","",""
"null","<div style=""font-size:60px;""> </div>","null","fixation","html-keyboard-response","258","1394074","0.0-6.0-0.36","3803357","co37585","norming","","","","","","",""
"null","../img/tt/1255tt.jpg","null","mooney1","image-keyboard-response","259","1397079","0.0-6.0-1.36","3803357","co37585","norming","","","","","","",""
"5212.695000000065","","","post_mooney1_questions","survey-likert","260","1402295","0.0-6.0-2.36","3803357","co37585","norming","","","{""curiosity"":5,""confidence"":1}","[0,1]","../img/tt/1255tt.jpg","",""
"3310.0399999998044","","","recognition","survey-text","261","1405607","0.0-6.0-3.36","3803357","co37585","norming","","","{""guess"":""haas""}","","../img/tt/1255tt.jpg","",""
"null","../img/gs/1255gs.jpg","null","reveal","image-keyboard-response","262","1407609","0.0-6.0-4.36","3803357","co37585","norming","","","","","","",""
"null","../img/tt/1255tt.jpg","null","mooney2","image-keyboard-response","263","1409618","0.0-6.0-5.36","3803357","co37585","norming","","","","","","",""
"4290.930000000168","","","post_reveal_questions","survey-likert","264","1413911","0.0-6.0-6.36","3803357","co37585","norming","","","{""aha"":2}","[0]","../img/tt/1255tt.jpg","",""
"null","<div style=""font-size:60px;""> </div>","null","fixation","html-keyboard-response","265","1414118","0.0-6.0-0.37","3803357","co37585","norming","","","","","","",""
"null","../img/tt/1353tt.jpg","null","mooney1","image-keyboard-response","266","1417127","0.0-6.0-1.37","3803357","co37585","norming","","","","","","",""
"16204.729999999749","","","post_mooney1_questions","survey-likert","267","1433335","0.0-6.0-2.37","3803357","co37585","norming","","","{""curiosity"":6,""confidence"":1}","[0,1]","../img/tt/1353tt.jpg","",""
"5693.950000000186","","","recognition","survey-text","268","1439031","0.0-6.0-3.37","3803357","co37585","norming","","","{""guess"":""bokshandschoen""}","","../img/tt/1353tt.jpg","",""
"null","../img/gs/1353gs.jpg","null","reveal","image-keyboard-response","269","1441036","0.0-6.0-4.37","3803357","co37585","norming","","","","","","",""
"null","../img/tt/1353tt.jpg","null","mooney2","image-keyboard-response","270","1443038","0.0-6.0-5.37","3803357","co37585","norming","","","","","","",""
"1950.6849999995902","","","post_reveal_questions","survey-likert","271","1444991","0.0-6.0-6.37","3803357","co37585","norming","","","{""aha"":5}","[0]","../img/tt/1353tt.jpg","",""
"null","<div style=""font-size:60px;""> </div>","null","fixation","html-keyboard-response","272","1445199","0.0-6.0-0.38","3803357","co37585","norming","","","","","","",""
"null","../img/tt/056tt.jpg","null","mooney1","image-keyboard-response","273","1448204","0.0-6.0-1.38","3803357","co37585","norming","","","","","","",""
"6400.170000000391","","","post_mooney1_questions","survey-likert","274","1454607","0.0-6.0-2.38","3803357","co37585","norming","","","{""curiosity"":4,""confidence"":2}","[0,1]","../img/tt/056tt.jpg","",""
"2886.0149999998976","","","recognition","survey-text","275","1457495","0.0-6.0-3.38","3803357","co37585","norming","","","{""guess"":""wolf""}","","../img/tt/056tt.jpg","",""
"null","../img/gs/056gs.jpg","null","reveal","image-keyboard-response","276","1459503","0.0-6.0-4.38","3803357","co37585","norming","","","","","","",""
"null","../img/tt/056tt.jpg","null","mooney2","image-keyboard-response","277","1461505","0.0-6.0-5.38","3803357","co37585","norming","","","","","","",""
"4100.304999999935","","","post_reveal_questions","survey-likert","278","1465607","0.0-6.0-6.38","3803357","co37585","norming","","","{""aha"":2}","[0]","../img/tt/056tt.jpg","",""
"null","<div style=""font-size:60px;""> </div>","null","fixation","html-keyboard-response","279","1465812","0.0-6.0-0.39","3803357","co37585","norming","","","","","","",""
"null","../img/tt/270tt.jpg","null","mooney1","image-keyboard-response","280","1468816","0.0-6.0-1.39","3803357","co37585","norming","","","","","","",""
"10188.13500000001","","","post_mooney1_questions","survey-likert","281","1479007","0.0-6.0-2.39","3803357","co37585","norming","","","{""curiosity"":2,""confidence"":4}","[0,1]","../img/tt/270tt.jpg","",""
"2942.0349999996834","","","recognition","survey-text","282","1481951","0.0-6.0-3.39","3803357","co37585","norming","","","{""guess"":""hert""}","","../img/tt/270tt.jpg","",""
"null","../img/gs/270gs.jpg","null","reveal","image-keyboard-response","283","1483959","0.0-6.0-4.39","3803357","co37585","norming","","","","","","",""
"null","../img/tt/270tt.jpg","null","mooney2","image-keyboard-response","284","1485968","0.0-6.0-5.39","3803357","co37585","norming","","","","","","",""
"4220.720000000438","","","post_reveal_questions","survey-likert","285","1490191","0.0-6.0-6.39","3803357","co37585","norming","","","{""aha"":1}","[0]","../img/tt/270tt.jpg","",""
"null","<div style=""font-size:60px;""> </div>","null","fixation","html-keyboard-response","286","1490392","0.0-6.0-0.40","3803357","co37585","norming","","","","","","",""
"null","../img/tt/1173tt.jpg","null","mooney1","image-keyboard-response","287","1493400","0.0-6.0-1.40","3803357","co37585","norming","","","","","","",""
"8283.884999999776","","","post_mooney1_questions","survey-likert","288","1501687","0.0-6.0-2.40","3803357","co37585","norming","","","{""curiosity"":4,""confidence"":2}","[0,1]","../img/tt/1173tt.jpg","",""
"2685.9250000000466","","","recognition","survey-text","289","1504375","0.0-6.0-3.40","3803357","co37585","norming","","","{""guess"":""golf""}","","../img/tt/1173tt.jpg","",""
"null","../img/gs/1173gs.jpg","null","reveal","image-keyboard-response","290","1506383","0.0-6.0-4.40","3803357","co37585","norming","","","","","","",""
"null","../img/tt/1173tt.jpg","null","mooney2","image-keyboard-response","291","1508393","0.0-6.0-5.40","3803357","co37585","norming","","","","","","",""
"5826.745000000345","","","post_reveal_questions","survey-likert","292","1514223","0.0-6.0-6.40","3803357","co37585","norming","","","{""aha"":1}","[0]","../img/tt/1173tt.jpg","",""
"null","<div style=""font-size:60px;""> </div>","null","fixation","html-keyboard-response","293","1514426","0.0-6.0-0.41","3803357","co37585","norming","","","","","","",""
"null","../img/tt/1116tt.jpg","null","mooney1","image-keyboard-response","294","1517431","0.0-6.0-1.41","3803357","co37585","norming","","","","","","",""
"13670.73999999999","","","post_mooney1_questions","survey-likert","295","1531103","0.0-6.0-2.41","3803357","co37585","norming","","","{""curiosity"":4,""confidence"":1}","[0,1]","../img/tt/1116tt.jpg","",""
"9342.165000000037","","","recognition","survey-text","296","1540445","0.0-6.0-3.41","3803357","co37585","norming","","","{""guess"":""legertank""}","","../img/tt/1116tt.jpg","",""
"null","../img/gs/1116gs.jpg","null","reveal","image-keyboard-response","297","1542448","0.0-6.0-4.41","3803357","co37585","norming","","","","","","",""
"null","../img/tt/1116tt.jpg","null","mooney2","image-keyboard-response","298","1544458","0.0-6.0-5.41","3803357","co37585","norming","","","","","","",""
"4127.575000000186","","","post_reveal_questions","survey-likert","299","1548589","0.0-6.0-6.41","3803357","co37585","norming","","","{""aha"":4}","[0]","../img/tt/1116tt.jpg","",""
"null","<div style=""font-size:60px;""> </div>","null","fixation","html-keyboard-response","300","1548792","0.0-6.0-0.42","3803357","co37585","norming","","","","","","",""
"null","../img/tt/194tt.jpg","null","mooney1","image-keyboard-response","301","1551796","0.0-6.0-1.42","3803357","co37585","norming","","","","","","",""
"12821.870000000112","","","post_mooney1_questions","survey-likert","302","1564621","0.0-6.0-2.42","3803357","co37585","norming","","","{""curiosity"":3,""confidence"":2}","[0,1]","../img/tt/194tt.jpg","",""
"3821.8900000001304","","","recognition","survey-text","303","1568444","0.0-6.0-3.42","3803357","co37585","norming","","","{""guess"":""schilder""}","","../img/tt/194tt.jpg","",""
"null","../img/gs/194gs.jpg","null","reveal","image-keyboard-response","304","1570449","0.0-6.0-4.42","3803357","co37585","norming","","","","","","",""
"null","../img/tt/194tt.jpg","null","mooney2","image-keyboard-response","305","1572459","0.0-6.0-5.42","3803357","co37585","norming","","","","","","",""
"3780.7650000001304","","","post_reveal_questions","survey-likert","306","1576245","0.0-6.0-6.42","3803357","co37585","norming","","","{""aha"":5}","[0]","../img/tt/194tt.jpg","",""
"null","<div style=""font-size:60px;""> </div>","null","fixation","html-keyboard-response","307","1576451","0.0-6.0-0.43","3803357","co37585","norming","","","","","","",""
"null","../img/tt/380tt.jpg","null","mooney1","image-keyboard-response","308","1579458","0.0-6.0-1.43","3803357","co37585","norming","","","","","","",""
"5777.574999999953","","","post_mooney1_questions","survey-likert","309","1585237","0.0-6.0-2.43","3803357","co37585","norming","","","{""curiosity"":5,""confidence"":1}","[0,1]","../img/tt/380tt.jpg","",""
"4438.070000000065","","","recognition","survey-text","310","1589676","0.0-6.0-3.43","3803357","co37585","norming","","","{""guess"":""rat""}","","../img/tt/380tt.jpg","",""
"null","../img/gs/380gs.jpg","null","reveal","image-keyboard-response","311","1591680","0.0-6.0-4.43","3803357","co37585","norming","","","","","","",""
"null","../img/tt/380tt.jpg","null","mooney2","image-keyboard-response","312","1593696","0.0-6.0-5.43","3803357","co37585","norming","","","","","","",""
"4625.624999999767","","","post_reveal_questions","survey-likert","313","1598324","0.0-6.0-6.43","3803357","co37585","norming","","","{""aha"":6}","[0]","../img/tt/380tt.jpg","",""
"null","<div style=""font-size:60px;""> </div>","null","fixation","html-keyboard-response","314","1598530","0.0-6.0-0.44","3803357","co37585","norming","","","","","","",""
"null","../img/tt/534tt.jpg","null","mooney1","image-keyboard-response","315","1601532","0.0-6.0-1.44","3803357","co37585","norming","","","","","","",""
"11070.824999999953","","","post_mooney1_questions","survey-likert","316","1612604","0.0-6.0-2.44","3803357","co37585","norming","","","{""curiosity"":3,""confidence"":1}","[0,1]","../img/tt/534tt.jpg","",""
"7517.920000000158","","","recognition","survey-text","317","1620124","0.0-6.0-3.44","3803357","co37585","norming","","","{""guess"":""cacti""}","","../img/tt/534tt.jpg","",""
"null","../img/gs/534gs.jpg","null","reveal","image-keyboard-response","318","1622132","0.0-6.0-4.44","3803357","co37585","norming","","","","","","",""
"null","../img/tt/534tt.jpg","null","mooney2","image-keyboard-response","319","1624143","0.0-6.0-5.44","3803357","co37585","norming","","","","","","",""
"4666.44000000041","","","post_reveal_questions","survey-likert","320","1628812","0.0-6.0-6.44","3803357","co37585","norming","","","{""aha"":2}","[0]","../img/tt/534tt.jpg","",""
"null","<div style=""font-size:60px;""> </div>","null","fixation","html-keyboard-response","321","1629017","0.0-6.0-0.45","3803357","co37585","norming","","","","","","",""
"null","../img/tt/140tt.jpg","null","mooney1","image-keyboard-response","322","1632023","0.0-6.0-1.45","3803357","co37585","norming","","","","","","",""
"11026.51500000013","","","post_mooney1_questions","survey-likert","323","1643052","0.0-6.0-2.45","3803357","co37585","norming","","","{""curiosity"":1,""confidence"":4}","[0,1]","../img/tt/140tt.jpg","",""
"4397.824999999953","","","recognition","survey-text","324","1647452","0.0-6.0-3.45","3803357","co37585","norming","","","{""guess"":""vorken""}","","../img/tt/140tt.jpg","",""
"null","../img/gs/140gs.jpg","null","reveal","image-keyboard-response","325","1649460","0.0-6.0-4.45","3803357","co37585","norming","","","","","","",""
"null","../img/tt/140tt.jpg","null","mooney2","image-keyboard-response","326","1651464","0.0-6.0-5.45","3803357","co37585","norming","","","","","","",""
"3019.4249999998137","","","post_reveal_questions","survey-likert","327","1654481","0.0-6.0-6.45","3803357","co37585","norming","","","{""aha"":0}","[0]","../img/tt/140tt.jpg","",""
"null","<div style=""font-size:60px;""> </div>","null","fixation","html-keyboard-response","328","1654688","0.0-6.0-0.46","3803357","co37585","norming","","","","","","",""
"null","../img/tt/060tt.jpg","null","mooney1","image-keyboard-response","329","1657693","0.0-6.0-1.46","3803357","co37585","norming","","","","","","",""
"7905.364999999758","","","post_mooney1_questions","survey-likert","330","1665601","0.0-6.0-2.46","3803357","co37585","norming","","","{""curiosity"":5,""confidence"":1}","[0,1]","../img/tt/060tt.jpg","",""
"4230.059999999823","","","recognition","survey-text","331","1669833","0.0-6.0-3.46","3803357","co37585","norming","","","{""guess"":""hotdog""}","","../img/tt/060tt.jpg","",""
"null","../img/gs/060gs.jpg","null","reveal","image-keyboard-response","332","1671836","0.0-6.0-4.46","3803357","co37585","norming","","","","","","",""
"null","../img/tt/060tt.jpg","null","mooney2","image-keyboard-response","333","1673837","0.0-6.0-5.46","3803357","co37585","norming","","","","","","",""
"3329.1650000000373","","","post_reveal_questions","survey-likert","334","1677169","0.0-6.0-6.46","3803357","co37585","norming","","","{""aha"":2}","[0]","../img/tt/060tt.jpg","",""
"null","<div style=""font-size:60px;""> </div>","null","fixation","html-keyboard-response","335","1677370","0.0-6.0-0.47","3803357","co37585","norming","","","","","","",""
"null","../img/tt/121tt.jpg","null","mooney1","image-keyboard-response","336","1680383","0.0-6.0-1.47","3803357","co37585","norming","","","","","","",""
"5919.369999999879","","","post_mooney1_questions","survey-likert","337","1686305","0.0-6.0-2.47","3803357","co37585","norming","","","{""curiosity"":2,""confidence"":2}","[0,1]","../img/tt/121tt.jpg","",""
"3645.559999999823","","","recognition","survey-text","338","1689953","0.0-6.0-3.47","3803357","co37585","norming","","","{""guess"":""hangmat""}","","../img/tt/121tt.jpg","",""
"null","../img/gs/121gs.jpg","null","reveal","image-keyboard-response","339","1691963","0.0-6.0-4.47","3803357","co37585","norming","","","","","","",""
"null","../img/tt/121tt.jpg","null","mooney2","image-keyboard-response","340","1693967","0.0-6.0-5.47","3803357","co37585","norming","","","","","","",""
"3311.6049999999814","","","post_reveal_questions","survey-likert","341","1697281","0.0-6.0-6.47","3803357","co37585","norming","","","{""aha"":5}","[0]","../img/tt/121tt.jpg","",""
"null","<div style=""font-size:60px;""> </div>","null","fixation","html-keyboard-response","342","1697482","0.0-6.0-0.48","3803357","co37585","norming","","","","","","",""
"null","../img/tt/559tt.jpg","null","mooney1","image-keyboard-response","343","1700489","0.0-6.0-1.48","3803357","co37585","norming","","","","","","",""
"7237.250000000233","","","post_mooney1_questions","survey-likert","344","1707729","0.0-6.0-2.48","3803357","co37585","norming","","","{""curiosity"":2,""confidence"":2}","[0,1]","../img/tt/559tt.jpg","",""
"3606.130000000121","","","recognition","survey-text","345","1711337","0.0-6.0-3.48","3803357","co37585","norming","","","{""guess"":""bureau""}","","../img/tt/559tt.jpg","",""
"null","../img/gs/559gs.jpg","null","reveal","image-keyboard-response","346","1713342","0.0-6.0-4.48","3803357","co37585","norming","","","","","","",""
"null","../img/tt/559tt.jpg","null","mooney2","image-keyboard-response","347","1715361","0.0-6.0-5.48","3803357","co37585","norming","","","","","","",""
"2173.695000000065","","","post_reveal_questions","survey-likert","348","1717538","0.0-6.0-6.48","3803357","co37585","norming","","","{""aha"":4}","[0]","../img/tt/559tt.jpg","",""
"null","<div style=""font-size:60px;""> </div>","null","fixation","html-keyboard-response","349","1717742","0.0-6.0-0.49","3803357","co37585","norming","","","","","","",""
"null","../img/tt/273tt.jpg","null","mooney1","image-keyboard-response","350","1720750","0.0-6.0-1.49","3803357","co37585","norming","","","","","","",""
"6567.935000000056","","","post_mooney1_questions","survey-likert","351","1727322","0.0-6.0-2.49","3803357","co37585","norming","","","{""curiosity"":2,""confidence"":5}","[0,1]","../img/tt/273tt.jpg","",""
"4541.91500000027","","","recognition","survey-text","352","1731865","0.0-6.0-3.49","3803357","co37585","norming","","","{""guess"":""glimlach""}","","../img/tt/273tt.jpg","",""
"null","../img/gs/273gs.jpg","null","reveal","image-keyboard-response","353","1733871","0.0-6.0-4.49","3803357","co37585","norming","","","","","","",""
"null","../img/tt/273tt.jpg","null","mooney2","image-keyboard-response","354","1735874","0.0-6.0-5.49","3803357","co37585","norming","","","","","","",""
"4189.625","","","post_reveal_questions","survey-likert","355","1740066","0.0-6.0-6.49","3803357","co37585","norming","","","{""aha"":3}","[0]","../img/tt/273tt.jpg","",""
"null","<div style=""font-size:60px;""> </div>","null","fixation","html-keyboard-response","356","1740273","0.0-6.0-0.50","3803357","co37585","norming","","","","","","",""
"null","../img/tt/524tt.jpg","null","mooney1","image-keyboard-response","357","1743279","0.0-6.0-1.50","3803357","co37585","norming","","","","","","",""
"5207.389999999898","","","post_mooney1_questions","survey-likert","358","1748490","0.0-6.0-2.50","3803357","co37585","norming","","","{""curiosity"":2,""confidence"":4}","[0,1]","../img/tt/524tt.jpg","",""
"3606.7100000001956","","","recognition","survey-text","359","1752098","0.0-6.0-3.50","3803357","co37585","norming","","","{""guess"":""olifant""}","","../img/tt/524tt.jpg","",""
"null","../img/gs/524gs.jpg","null","reveal","image-keyboard-response","360","1754101","0.0-6.0-4.50","3803357","co37585","norming","","","","","","",""
"null","../img/tt/524tt.jpg","null","mooney2","image-keyboard-response","361","1756103","0.0-6.0-5.50","3803357","co37585","norming","","","","","","",""
"3849.0200000000186","","","post_reveal_questions","survey-likert","362","1759953","0.0-6.0-6.50","3803357","co37585","norming","","","{""aha"":4}","[0]","../img/tt/524tt.jpg","",""
"null","<div style=""font-size:60px;""> </div>","null","fixation","html-keyboard-response","363","1760161","0.0-6.0-0.51","3803357","co37585","norming","","","","","","",""
"null","../img/tt/598tt.jpg","null","mooney1","image-keyboard-response","364","1763164","0.0-6.0-1.51","3803357","co37585","norming","","","","","","",""
"8186.709999999963","","","post_mooney1_questions","survey-likert","365","1771354","0.0-6.0-2.51","3803357","co37585","norming","","","{""curiosity"":4,""confidence"":0}","[0,1]","../img/tt/598tt.jpg","",""
"926.0400000002701","","","recognition","survey-text","366","1772281","0.0-6.0-3.51","3803357","co37585","norming","","","{""guess"":""""}","","../img/tt/598tt.jpg","",""
"null","../img/gs/598gs.jpg","null","reveal","image-keyboard-response","367","1774288","0.0-6.0-4.51","3803357","co37585","norming","","","","","","",""
"null","../img/tt/598tt.jpg","null","mooney2","image-keyboard-response","368","1776294","0.0-6.0-5.51","3803357","co37585","norming","","","","","","",""
"2691.804999999935","","","post_reveal_questions","survey-likert","369","1778988","0.0-6.0-6.51","3803357","co37585","norming","","","{""aha"":5}","[0]","../img/tt/598tt.jpg","",""
"null","<div style=""font-size:60px;""> </div>","null","fixation","html-keyboard-response","370","1779197","0.0-6.0-0.52","3803357","co37585","norming","","","","","","",""
"null","../img/tt/481tt.jpg","null","mooney1","image-keyboard-response","371","1782207","0.0-6.0-1.52","3803357","co37585","norming","","","","","","",""
"8554.810000000056","","","post_mooney1_questions","survey-likert","372","1790765","0.0-6.0-2.52","3803357","co37585","norming","","","{""curiosity"":2,""confidence"":4}","[0,1]","../img/tt/481tt.jpg","",""
"3365.91500000027","","","recognition","survey-text","373","1794132","0.0-6.0-3.52","3803357","co37585","norming","","","{""guess"":""hond""}","","../img/tt/481tt.jpg","",""
"null","../img/gs/481gs.jpg","null","reveal","image-keyboard-response","374","1796135","0.0-6.0-4.52","3803357","co37585","norming","","","","","","",""
"null","../img/tt/481tt.jpg","null","mooney2","image-keyboard-response","375","1798137","0.0-6.0-5.52","3803357","co37585","norming","","","","","","",""
"3728.2350000001024","","","post_reveal_questions","survey-likert","376","1801868","0.0-6.0-6.52","3803357","co37585","norming","","","{""aha"":1}","[0]","../img/tt/481tt.jpg","",""
"null","<div style=""font-size:60px;""> </div>","null","fixation","html-keyboard-response","377","1802073","0.0-6.0-0.53","3803357","co37585","norming","","","","","","",""
"null","../img/tt/1037tt.jpg","null","mooney1","image-keyboard-response","378","1805085","0.0-6.0-1.53","3803357","co37585","norming","","","","","","",""
"4331.97499999986","","","post_mooney1_questions","survey-likert","379","1809421","0.0-6.0-2.53","3803357","co37585","norming","","","{""curiosity"":6,""confidence"":0}","[0,1]","../img/tt/1037tt.jpg","",""
"662.0250000001397","","","recognition","survey-text","380","1810084","0.0-6.0-3.53","3803357","co37585","norming","","","{""guess"":""""}","","../img/tt/1037tt.jpg","",""
"null","../img/gs/1037gs.jpg","null","reveal","image-keyboard-response","381","1812094","0.0-6.0-4.53","3803357","co37585","norming","","","","","","",""
"null","../img/tt/1037tt.jpg","null","mooney2","image-keyboard-response","382","1814096","0.0-6.0-5.53","3803357","co37585","norming","","","","","","",""
"3377.239999999758","","","post_reveal_questions","survey-likert","383","1817476","0.0-6.0-6.53","3803357","co37585","norming","","","{""aha"":5}","[0]","../img/tt/1037tt.jpg","",""
"null","<div style=""font-size:60px;""> </div>","null","fixation","html-keyboard-response","384","1817686","0.0-6.0-0.54","3803357","co37585","norming","","","","","","",""
"null","../img/tt/1270tt.jpg","null","mooney1","image-keyboard-response","385","1820691","0.0-6.0-1.54","3803357","co37585","norming","","","","","","",""
"5614.404999999795","","","post_mooney1_questions","survey-likert","386","1826309","0.0-6.0-2.54","3803357","co37585","norming","","","{""curiosity"":5,""confidence"":1}","[0,1]","../img/tt/1270tt.jpg","",""
"2974.000000000233","","","recognition","survey-text","387","1829284","0.0-6.0-3.54","3803357","co37585","norming","","","{""guess"":""kip""}","","../img/tt/1270tt.jpg","",""
"null","../img/gs/1270gs.jpg","null","reveal","image-keyboard-response","388","1831290","0.0-6.0-4.54","3803357","co37585","norming","","","","","","",""
"null","../img/tt/1270tt.jpg","null","mooney2","image-keyboard-response","389","1833298","0.0-6.0-5.54","3803357","co37585","norming","","","","","","",""
"3840.339999999618","","","post_reveal_questions","survey-likert","390","1837140","0.0-6.0-6.54","3803357","co37585","norming","","","{""aha"":3}","[0]","../img/tt/1270tt.jpg","",""
"null","<div style=""font-size:60px;""> </div>","null","fixation","html-keyboard-response","391","1837345","0.0-6.0-0.55","3803357","co37585","norming","","","","","","",""
"null","../img/tt/1078tt.jpg","null","mooney1","image-keyboard-response","392","1840360","0.0-6.0-1.55","3803357","co37585","norming","","","","","","",""
"27201.399999999907","","","post_mooney1_questions","survey-likert","393","1867564","0.0-6.0-2.55","3803357","co37585","norming","","","{""curiosity"":3,""confidence"":2}","[0,1]","../img/tt/1078tt.jpg","",""
"11382.129999999888","","","recognition","survey-text","394","1878948","0.0-6.0-3.55","3803357","co37585","norming","","","{""guess"":""dijk""}","","../img/tt/1078tt.jpg","",""
"null","../img/gs/1078gs.jpg","null","reveal","image-keyboard-response","395","1880951","0.0-6.0-4.55","3803357","co37585","norming","","","","","","",""
"null","../img/tt/1078tt.jpg","null","mooney2","image-keyboard-response","396","1882953","0.0-6.0-5.55","3803357","co37585","norming","","","","","","",""
"2911.9899999999907","","","post_reveal_questions","survey-likert","397","1885868","0.0-6.0-6.55","3803357","co37585","norming","","","{""aha"":4}","[0]","../img/tt/1078tt.jpg","",""
"null","<div style=""font-size:60px;""> </div>","null","fixation","html-keyboard-response","398","1886073","0.0-6.0-0.56","3803357","co37585","norming","","","","","","",""
"null","../img/tt/1276tt.jpg","null","mooney1","image-keyboard-response","399","1889080","0.0-6.0-1.56","3803357","co37585","norming","","","","","","",""
"4313.554999999702","","","post_mooney1_questions","survey-likert","400","1893397","0.0-6.0-2.56","3803357","co37585","norming","","","{""curiosity"":3,""confidence"":1}","[0,1]","../img/tt/1276tt.jpg","",""
"2989.8600000001024","","","recognition","survey-text","401","1896383","0.0-6.0-3.56","3803357","co37585","norming","","","{""guess"":""hout""}","","../img/tt/1276tt.jpg","",""
"null","../img/gs/1276gs.jpg","null","reveal","image-keyboard-response","402","1898384","0.0-6.0-4.56","3803357","co37585","norming","","","","","","",""
"null","../img/tt/1276tt.jpg","null","mooney2","image-keyboard-response","403","1900386","0.0-6.0-5.56","3803357","co37585","norming","","","","","","",""
"2026.6349999997765","","","post_reveal_questions","survey-likert","404","1902415","0.0-6.0-6.56","3803357","co37585","norming","","","{""aha"":4}","[0]","../img/tt/1276tt.jpg","",""
"null","<div style=""font-size:60px;""> </div>","null","fixation","html-keyboard-response","405","1902620","0.0-6.0-0.57","3803357","co37585","norming","","","","","","",""
"null","../img/tt/1156tt.jpg","null","mooney1","image-keyboard-response","406","1905629","0.0-6.0-1.57","3803357","co37585","norming","","","","","","",""
"3503.5550000004005","","","post_mooney1_questions","survey-likert","407","1909136","0.0-6.0-2.57","3803357","co37585","norming","","","{""curiosity"":5,""confidence"":1}","[0,1]","../img/tt/1156tt.jpg","",""
"12181.919999999925","","","recognition","survey-text","408","1921319","0.0-6.0-3.57","3803357","co37585","norming","","","{""guess"":""liggende olifant""}","","../img/tt/1156tt.jpg","",""
"null","../img/gs/1156gs.jpg","null","reveal","image-keyboard-response","409","1923323","0.0-6.0-4.57","3803357","co37585","norming","","","","","","",""
"null","../img/tt/1156tt.jpg","null","mooney2","image-keyboard-response","410","1925325","0.0-6.0-5.57","3803357","co37585","norming","","","","","","",""
"4639.435000000056","","","post_reveal_questions","survey-likert","411","1929968","0.0-6.0-6.57","3803357","co37585","norming","","","{""aha"":5}","[0]","../img/tt/1156tt.jpg","",""
"null","<div style=""font-size:60px;""> </div>","null","fixation","html-keyboard-response","412","1930170","0.0-6.0-0.58","3803357","co37585","norming","","","","","","",""
"null","../img/tt/1046tt.jpg","null","mooney1","image-keyboard-response","413","1933179","0.0-6.0-1.58","3803357","co37585","norming","","","","","","",""
"3304.9300000001676","","","post_mooney1_questions","survey-likert","414","1936487","0.0-6.0-2.58","3803357","co37585","norming","","","{""curiosity"":3,""confidence"":2}","[0,1]","../img/tt/1046tt.jpg","",""
"3285.744999999646","","","recognition","survey-text","415","1939775","0.0-6.0-3.58","3803357","co37585","norming","","","{""guess"":""pizza""}","","../img/tt/1046tt.jpg","",""
"null","../img/gs/1046gs.jpg","null","reveal","image-keyboard-response","416","1941781","0.0-6.0-4.58","3803357","co37585","norming","","","","","","",""
"null","../img/tt/1046tt.jpg","null","mooney2","image-keyboard-response","417","1943791","0.0-6.0-5.58","3803357","co37585","norming","","","","","","",""
"4670.575000000186","","","post_reveal_questions","survey-likert","418","1948463","0.0-6.0-6.58","3803357","co37585","norming","","","{""aha"":2}","[0]","../img/tt/1046tt.jpg","",""
"null","<div style=""font-size:60px;""> </div>","null","fixation","html-keyboard-response","419","1948668","0.0-6.0-0.59","3803357","co37585","norming","","","","","","",""
"null","../img/tt/1262tt.jpg","null","mooney1","image-keyboard-response","420","1951672","0.0-6.0-1.59","3803357","co37585","norming","","","","","","",""
"5004.249999999767","","","post_mooney1_questions","survey-likert","421","1956683","0.0-6.0-2.59","3803357","co37585","norming","","","{""curiosity"":4,""confidence"":1}","[0,1]","../img/tt/1262tt.jpg","",""
"3029.939999999944","","","recognition","survey-text","422","1959715","0.0-6.0-3.59","3803357","co37585","norming","","","{""guess"":""muis""}","","../img/tt/1262tt.jpg","",""
"null","../img/gs/1262gs.jpg","null","reveal","image-keyboard-response","423","1961726","0.0-6.0-4.59","3803357","co37585","norming","","","","","","",""
"null","../img/tt/1262tt.jpg","null","mooney2","image-keyboard-response","424","1963734","0.0-6.0-5.59","3803357","co37585","norming","","","","","","",""
"4417.619999999879","","","post_reveal_questions","survey-likert","425","1968155","0.0-6.0-6.59","3803357","co37585","norming","","","{""aha"":2}","[0]","../img/tt/1262tt.jpg","",""
"null","<div style=""font-size:60px;""> </div>","null","fixation","html-keyboard-response","426","1968365","0.0-6.0-0.60","3803357","co37585","norming","","","","","","",""
"null","../img/tt/1309tt.jpg","null","mooney1","image-keyboard-response","427","1971370","0.0-6.0-1.60","3803357","co37585","norming","","","","","","",""
"5685.9550000000745","","","post_mooney1_questions","survey-likert","428","1977059","0.0-6.0-2.60","3803357","co37585","norming","","","{""curiosity"":2,""confidence"":3}","[0,1]","../img/tt/1309tt.jpg","",""
"3134.010000000242","","","recognition","survey-text","429","1980195","0.0-6.0-3.60","3803357","co37585","norming","","","{""guess"":""auto""}","","../img/tt/1309tt.jpg","",""
"null","../img/gs/1309gs.jpg","null","reveal","image-keyboard-response","430","1982199","0.0-6.0-4.60","3803357","co37585","norming","","","","","","",""
"null","../img/tt/1309tt.jpg","null","mooney2","image-keyboard-response","431","1984201","0.0-6.0-5.60","3803357","co37585","norming","","","","","","",""
"6606.6800000004005","","","post_reveal_questions","survey-likert","432","1990811","0.0-6.0-6.60","3803357","co37585","norming","","","{""aha"":2}","[0]","../img/tt/1309tt.jpg","",""
"null","<div style=""font-size:60px;""> </div>","null","fixation","html-keyboard-response","433","1991017","0.0-6.0-0.61","3803357","co37585","norming","","","","","","",""
"null","../img/tt/416tt.jpg","null","mooney1","image-keyboard-response","434","1994028","0.0-6.0-1.61","3803357","co37585","norming","","","","","","",""
"4092.314999999944","","","post_mooney1_questions","survey-likert","435","1998123","0.0-6.0-2.61","3803357","co37585","norming","","","{""curiosity"":2,""confidence"":4}","[0,1]","../img/tt/416tt.jpg","",""
"4933.76500000013","","","recognition","survey-text","436","2003059","0.0-6.0-3.61","3803357","co37585","norming","","","{""guess"":""struisvogels""}","","../img/tt/416tt.jpg","",""
"null","../img/gs/416gs.jpg","null","reveal","image-keyboard-response","437","2005067","0.0-6.0-4.61","3803357","co37585","norming","","","","","","",""
"null","../img/tt/416tt.jpg","null","mooney2","image-keyboard-response","438","2007069","0.0-6.0-5.61","3803357","co37585","norming","","","","","","",""
"2787.3050000001676","","","post_reveal_questions","survey-likert","439","2009859","0.0-6.0-6.61","3803357","co37585","norming","","","{""aha"":1}","[0]","../img/tt/416tt.jpg","",""
"null","<div style=""font-size:60px;""> </div>","null","fixation","html-keyboard-response","440","2010063","0.0-6.0-0.62","3803357","co37585","norming","","","","","","",""
"null","../img/tt/315tt.jpg","null","mooney1","image-keyboard-response","441","2013066","0.0-6.0-1.62","3803357","co37585","norming","","","","","","",""
"4838.584999999963","","","post_mooney1_questions","survey-likert","442","2017908","0.0-6.0-2.62","3803357","co37585","norming","","","{""curiosity"":5,""confidence"":1}","[0,1]","../img/tt/315tt.jpg","",""
"2541.994999999646","","","recognition","survey-text","443","2020451","0.0-6.0-3.62","3803357","co37585","norming","","","{""guess"":""kat""}","","../img/tt/315tt.jpg","",""
"null","../img/gs/315gs.jpg","null","reveal","image-keyboard-response","444","2022455","0.0-6.0-4.62","3803357","co37585","norming","","","","","","",""
"null","../img/tt/315tt.jpg","null","mooney2","image-keyboard-response","445","2024457","0.0-6.0-5.62","3803357","co37585","norming","","","","","","",""
"2239.3300000003073","","","post_reveal_questions","survey-likert","446","2026699","0.0-6.0-6.62","3803357","co37585","norming","","","{""aha"":2}","[0]","../img/tt/315tt.jpg","",""
"null","<div style=""font-size:60px;""> </div>","null","fixation","html-keyboard-response","447","2026906","0.0-6.0-0.63","3803357","co37585","norming","","","","","","",""
"null","../img/tt/055tt.jpg","null","mooney1","image-keyboard-response","448","2029916","0.0-6.0-1.63","3803357","co37585","norming","","","","","","",""
"4380.040000000037","","","post_mooney1_questions","survey-likert","449","2034300","0.0-6.0-2.63","3803357","co37585","norming","","","{""curiosity"":5,""confidence"":1}","[0,1]","../img/tt/055tt.jpg","",""
"3781.980000000214","","","recognition","survey-text","450","2038083","0.0-6.0-3.63","3803357","co37585","norming","","","{""guess"":""verfpot""}","","../img/tt/055tt.jpg","",""
"null","../img/gs/055gs.jpg","null","reveal","image-keyboard-response","451","2040087","0.0-6.0-4.63","3803357","co37585","norming","","","","","","",""
"null","../img/tt/055tt.jpg","null","mooney2","image-keyboard-response","452","2042090","0.0-6.0-5.63","3803357","co37585","norming","","","","","","",""
"3262.714999999851","","","post_reveal_questions","survey-likert","453","2045355","0.0-6.0-6.63","3803357","co37585","norming","","","{""aha"":4}","[0]","../img/tt/055tt.jpg","",""
"null","<div style=""font-size:60px;""> </div>","null","fixation","html-keyboard-response","454","2045561","0.0-6.0-0.64","3803357","co37585","norming","","","","","","",""
"null","../img/tt/552tt.jpg","null","mooney1","image-keyboard-response","455","2048572","0.0-6.0-1.64","3803357","co37585","norming","","","","","","",""
"11539.024999999907","","","post_mooney1_questions","survey-likert","456","2060115","0.0-6.0-2.64","3803357","co37585","norming","","","{""curiosity"":3,""confidence"":2}","[0,1]","../img/tt/552tt.jpg","",""
"4662.124999999767","","","recognition","survey-text","457","2064779","0.0-6.0-3.64","3803357","co37585","norming","","","{""guess"":""stinkdier""}","","../img/tt/552tt.jpg","",""
"null","../img/gs/552gs.jpg","null","reveal","image-keyboard-response","458","2066783","0.0-6.0-4.64","3803357","co37585","norming","","","","","","",""
"null","../img/tt/552tt.jpg","null","mooney2","image-keyboard-response","459","2068795","0.0-6.0-5.64","3803357","co37585","norming","","","","","","",""
"4837.844999999972","","","post_reveal_questions","survey-likert","460","2073635","0.0-6.0-6.64","3803357","co37585","norming","","","{""aha"":0}","[0]","../img/tt/552tt.jpg","",""
"null","<div style=""font-size:60px;""> </div>","null","fixation","html-keyboard-response","461","2073843","0.0-6.0-0.65","3803357","co37585","norming","","","","","","",""
"null","../img/tt/296tt.jpg","null","mooney1","image-keyboard-response","462","2076849","0.0-6.0-1.65","3803357","co37585","norming","","","","","","",""
"5889.189999999944","","","post_mooney1_questions","survey-likert","463","2082741","0.0-6.0-2.65","3803357","co37585","norming","","","{""curiosity"":2,""confidence"":2}","[0,1]","../img/tt/296tt.jpg","",""
"4437.844999999972","","","recognition","survey-text","464","2087181","0.0-6.0-3.65","3803357","co37585","norming","","","{""guess"":""restaurant""}","","../img/tt/296tt.jpg","",""
"null","../img/gs/296gs.jpg","null","reveal","image-keyboard-response","465","2089189","0.0-6.0-4.65","3803357","co37585","norming","","","","","","",""
"null","../img/tt/296tt.jpg","null","mooney2","image-keyboard-response","466","2091192","0.0-6.0-5.65","3803357","co37585","norming","","","","","","",""
"1970.2849999999162","","","post_reveal_questions","survey-likert","467","2093165","0.0-6.0-6.65","3803357","co37585","norming","","","{""aha"":6}","[0]","../img/tt/296tt.jpg","",""
"null","<div style=""font-size:60px;""> </div>","null","fixation","html-keyboard-response","468","2093372","0.0-6.0-0.66","3803357","co37585","norming","","","","","","",""
"null","../img/tt/378tt.jpg","null","mooney1","image-keyboard-response","469","2096378","0.0-6.0-1.66","3803357","co37585","norming","","","","","","",""
"4151.3650000002235","","","post_mooney1_questions","survey-likert","470","2100533","0.0-6.0-2.66","3803357","co37585","norming","","","{""curiosity"":5,""confidence"":1}","[0,1]","../img/tt/378tt.jpg","",""
"3989.9650000003166","","","recognition","survey-text","471","2104525","0.0-6.0-3.66","3803357","co37585","norming","","","{""guess"":""courgette""}","","../img/tt/378tt.jpg","",""
"null","../img/gs/378gs.jpg","null","reveal","image-keyboard-response","472","2106529","0.0-6.0-4.66","3803357","co37585","norming","","","","","","",""
"null","../img/tt/378tt.jpg","null","mooney2","image-keyboard-response","473","2108535","0.0-6.0-5.66","3803357","co37585","norming","","","","","","",""
"4379.179999999702","","","post_reveal_questions","survey-likert","474","2112917","0.0-6.0-6.66","3803357","co37585","norming","","","{""aha"":4}","[0]","../img/tt/378tt.jpg","",""
"null","<div style=""font-size:60px;""> </div>","null","fixation","html-keyboard-response","475","2113125","0.0-6.0-0.67","3803357","co37585","norming","","","","","","",""
"null","../img/tt/1033tt.jpg","null","mooney1","image-keyboard-response","476","2116129","0.0-6.0-1.67","3803357","co37585","norming","","","","","","",""
"6224.2949999999255","","","post_mooney1_questions","survey-likert","477","2122357","0.0-6.0-2.67","3803357","co37585","norming","","","{""curiosity"":2,""confidence"":3}","[0,1]","../img/tt/1033tt.jpg","",""
"2942.1150000002235","","","recognition","survey-text","478","2125301","0.0-6.0-3.67","3803357","co37585","norming","","","{""guess"":""jager""}","","../img/tt/1033tt.jpg","",""
"null","../img/gs/1033gs.jpg","null","reveal","image-keyboard-response","479","2127309","0.0-6.0-4.67","3803357","co37585","norming","","","","","","",""
"null","../img/tt/1033tt.jpg","null","mooney2","image-keyboard-response","480","2129322","0.0-6.0-5.67","3803357","co37585","norming","","","","","","",""
"3216.4599999999627","","","post_reveal_questions","survey-likert","481","2132541","0.0-6.0-6.67","3803357","co37585","norming","","","{""aha"":4}","[0]","../img/tt/1033tt.jpg","",""
"null","<div style=""font-size:60px;""> </div>","null","fixation","html-keyboard-response","482","2132744","0.0-6.0-0.68","3803357","co37585","norming","","","","","","",""
"null","../img/tt/184tt.jpg","null","mooney1","image-keyboard-response","483","2135752","0.0-6.0-1.68","3803357","co37585","norming","","","","","","",""
"3297.0849999999627","","","post_mooney1_questions","survey-likert","484","2139044","0.0-6.0-2.68","3803357","co37585","norming","","","{""curiosity"":5,""confidence"":1}","[0,1]","../img/tt/184tt.jpg","",""
"3333.970000000205","","","recognition","survey-text","485","2142380","0.0-6.0-3.68","3803357","co37585","norming","","","{""guess"":""kampvuur""}","","../img/tt/184tt.jpg","",""
"null","../img/gs/184gs.jpg","null","reveal","image-keyboard-response","486","2144385","0.0-6.0-4.68","3803357","co37585","norming","","","","","","",""
"null","../img/tt/184tt.jpg","null","mooney2","image-keyboard-response","487","2146389","0.0-6.0-5.68","3803357","co37585","norming","","","","","","",""
"3612.899999999907","","","post_reveal_questions","survey-likert","488","2150004","0.0-6.0-6.68","3803357","co37585","norming","","","{""aha"":5}","[0]","../img/tt/184tt.jpg","",""
"null","<div style=""font-size:60px;""> </div>","null","fixation","html-keyboard-response","489","2150212","0.0-6.0-0.69","3803357","co37585","norming","","","","","","",""
"null","../img/tt/108tt.jpg","null","mooney1","image-keyboard-response","490","2153218","0.0-6.0-1.69","3803357","co37585","norming","","","","","","",""
"4302.9199999999255","","","post_mooney1_questions","survey-likert","491","2157524","0.0-6.0-2.69","3803357","co37585","norming","","","{""curiosity"":5,""confidence"":0}","[0,1]","../img/tt/108tt.jpg","",""
"1070.220000000205","","","recognition","survey-text","492","2158596","0.0-6.0-3.69","3803357","co37585","norming","","","{""guess"":""""}","","../img/tt/108tt.jpg","",""
"null","../img/gs/108gs.jpg","null","reveal","image-keyboard-response","493","2160605","0.0-6.0-4.69","3803357","co37585","norming","","","","","","",""
"null","../img/tt/108tt.jpg","null","mooney2","image-keyboard-response","494","2162616","0.0-6.0-5.69","3803357","co37585","norming","","","","","","",""
"2209.4749999996275","","","post_reveal_questions","survey-likert","495","2164828","0.0-6.0-6.69","3803357","co37585","norming","","","{""aha"":5}","[0]","../img/tt/108tt.jpg","",""
"null","<div style=""font-size:60px;""> </div>","null","fixation","html-keyboard-response","496","2165034","0.0-6.0-0.70","3803357","co37585","norming","","","","","","",""
"null","../img/tt/080tt.jpg","null","mooney1","image-keyboard-response","497","2168041","0.0-6.0-1.70","3803357","co37585","norming","","","","","","",""
"5727.514999999665","","","post_mooney1_questions","survey-likert","498","2173772","0.0-6.0-2.70","3803357","co37585","norming","","","{""curiosity"":4,""confidence"":1}","[0,1]","../img/tt/080tt.jpg","",""
"2382.035000000149","","","recognition","survey-text","499","2176156","0.0-6.0-3.70","3803357","co37585","norming","","","{""guess"":""ei""}","","../img/tt/080tt.jpg","",""
"null","../img/gs/080gs.jpg","null","reveal","image-keyboard-response","500","2178158","0.0-6.0-4.70","3803357","co37585","norming","","","","","","",""
"null","../img/tt/080tt.jpg","null","mooney2","image-keyboard-response","501","2180160","0.0-6.0-5.70","3803357","co37585","norming","","","","","","",""
"2817.8950000004843","","","post_reveal_questions","survey-likert","502","2182980","0.0-6.0-6.70","3803357","co37585","norming","","","{""aha"":4}","[0]","../img/tt/080tt.jpg","",""
"null","<div style=""font-size:60px;""> </div>","null","fixation","html-keyboard-response","503","2183185","0.0-6.0-0.71","3803357","co37585","norming","","","","","","",""
"null","../img/tt/1127tt.jpg","null","mooney1","image-keyboard-response","504","2186194","0.0-6.0-1.71","3803357","co37585","norming","","","","","","",""
"9294.450000000186","","","post_mooney1_questions","survey-likert","505","2195492","0.0-6.0-2.71","3803357","co37585","norming","","","{""curiosity"":3,""confidence"":3}","[0,1]","../img/tt/1127tt.jpg","",""
"5174.30999999959","","","recognition","survey-text","506","2200674","0.0-6.0-3.71","3803357","co37585","norming","","","{""guess"":""restaurant""}","","../img/tt/1127tt.jpg","",""
"null","../img/gs/1127gs.jpg","null","reveal","image-keyboard-response","507","2202680","0.0-6.0-4.71","3803357","co37585","norming","","","","","","",""
"null","../img/tt/1127tt.jpg","null","mooney2","image-keyboard-response","508","2204683","0.0-6.0-5.71","3803357","co37585","norming","","","","","","",""
"2996.4799999999814","","","post_reveal_questions","survey-likert","509","2207682","0.0-6.0-6.71","3803357","co37585","norming","","","{""aha"":6}","[0]","../img/tt/1127tt.jpg","",""
"null","<div style=""font-size:60px;""> </div>","null","fixation","html-keyboard-response","510","2207887","0.0-6.0-0.72","3803357","co37585","norming","","","","","","",""
"null","../img/tt/477tt.jpg","null","mooney1","image-keyboard-response","511","2210892","0.0-6.0-1.72","3803357","co37585","norming","","","","","","",""
"4203.2050000000745","","","post_mooney1_questions","survey-likert","512","2215098","0.0-6.0-2.72","3803357","co37585","norming","","","{""curiosity"":4,""confidence"":3}","[0,1]","../img/tt/477tt.jpg","",""
"2309.904999999795","","","recognition","survey-text","513","2217410","0.0-6.0-3.72","3803357","co37585","norming","","","{""guess"":""beer""}","","../img/tt/477tt.jpg","",""
"null","../img/gs/477gs.jpg","null","reveal","image-keyboard-response","514","2219413","0.0-6.0-4.72","3803357","co37585","norming","","","","","","",""
"null","../img/tt/477tt.jpg","null","mooney2","image-keyboard-response","515","2221421","0.0-6.0-5.72","3803357","co37585","norming","","","","","","",""
"3618.5300000002608","","","post_reveal_questions","survey-likert","516","2225042","0.0-6.0-6.72","3803357","co37585","norming","","","{""aha"":4}","[0]","../img/tt/477tt.jpg","",""
"null","<div style=""font-size:60px;""> </div>","null","fixation","html-keyboard-response","517","2225248","0.0-6.0-0.73","3803357","co37585","norming","","","","","","",""
"null","../img/tt/1097tt.jpg","null","mooney1","image-keyboard-response","518","2228258","0.0-6.0-1.73","3803357","co37585","norming","","","","","","",""
"6350.369999999646","","","post_mooney1_questions","survey-likert","519","2234610","0.0-6.0-2.73","3803357","co37585","norming","","","{""curiosity"":3,""confidence"":4}","[0,1]","../img/tt/1097tt.jpg","",""
"2805.8250000001863","","","recognition","survey-text","520","2237418","0.0-6.0-3.73","3803357","co37585","norming","","","{""guess"":""vlot""}","","../img/tt/1097tt.jpg","",""
"null","../img/gs/1097gs.jpg","null","reveal","image-keyboard-response","521","2239421","0.0-6.0-4.73","3803357","co37585","norming","","","","","","",""
"null","../img/tt/1097tt.jpg","null","mooney2","image-keyboard-response","522","2241424","0.0-6.0-5.73","3803357","co37585","norming","","","","","","",""
"4991.135000000242","","","post_reveal_questions","survey-likert","523","2246418","0.0-6.0-6.73","3803357","co37585","norming","","","{""aha"":5}","[0]","../img/tt/1097tt.jpg","",""
"null","<div style=""font-size:60px;""> </div>","null","fixation","html-keyboard-response","524","2246625","0.0-6.0-0.74","3803357","co37585","norming","","","","","","",""
"null","../img/tt/1241tt.jpg","null","mooney1","image-keyboard-response","525","2249635","0.0-6.0-1.74","3803357","co37585","norming","","","","","","",""
"7461.805000000168","","","post_mooney1_questions","survey-likert","526","2257098","0.0-6.0-2.74","3803357","co37585","norming","","","{""curiosity"":2,""confidence"":4}","[0,1]","../img/tt/1241tt.jpg","",""
"2669.68499999959","","","recognition","survey-text","527","2259763","0.0-6.0-3.74","3803357","co37585","norming","","","{""guess"":""beer""}","","../img/tt/1241tt.jpg","",""
"null","../img/gs/1241gs.jpg","null","reveal","image-keyboard-response","528","2261766","0.0-6.0-4.74","3803357","co37585","norming","","","","","","",""
"null","../img/tt/1241tt.jpg","null","mooney2","image-keyboard-response","529","2263775","0.0-6.0-5.74","3803357","co37585","norming","","","","","","",""
"8882.285000000149","","","post_reveal_questions","survey-likert","530","2272660","0.0-6.0-6.74","3803357","co37585","norming","","","{""aha"":3}","[0]","../img/tt/1241tt.jpg","",""
"null","<div style=""font-size:60px;""> </div>","null","fixation","html-keyboard-response","531","2272862","0.0-6.0-0.75","3803357","co37585","norming","","","","","","",""
"null","../img/tt/307tt.jpg","null","mooney1","image-keyboard-response","532","2275869","0.0-6.0-1.75","3803357","co37585","norming","","","","","","",""
"6531.625000000466","","","post_mooney1_questions","survey-likert","533","2282404","0.0-6.0-2.75","3803357","co37585","norming","","","{""curiosity"":5,""confidence"":2}","[0,1]","../img/tt/307tt.jpg","",""
"3934.095000000205","","","recognition","survey-text","534","2286340","0.0-6.0-3.75","3803357","co37585","norming","","","{""guess"":""schoen""}","","../img/tt/307tt.jpg","",""
"null","../img/gs/307gs.jpg","null","reveal","image-keyboard-response","535","2288341","0.0-6.0-4.75","3803357","co37585","norming","","","","","","",""
"null","../img/tt/307tt.jpg","null","mooney2","image-keyboard-response","536","2290343","0.0-6.0-5.75","3803357","co37585","norming","","","","","","",""
"3362.0150000001304","","","post_reveal_questions","survey-likert","537","2293708","0.0-6.0-6.75","3803357","co37585","norming","","","{""aha"":5}","[0]","../img/tt/307tt.jpg","",""
"null","<div style=""font-size:60px;""> </div>","null","fixation","html-keyboard-response","538","2293909","0.0-6.0-0.76","3803357","co37585","norming","","","","","","",""
"null","../img/tt/1199tt.jpg","null","mooney1","image-keyboard-response","539","2296913","0.0-6.0-1.76","3803357","co37585","norming","","","","","","",""
"10487.744999999646","","","post_mooney1_questions","survey-likert","540","2307404","0.0-6.0-2.76","3803357","co37585","norming","","","{""curiosity"":2,""confidence"":2}","[0,1]","../img/tt/1199tt.jpg","",""
"6997.989999999758","","","recognition","survey-text","541","2314404","0.0-6.0-3.76","3803357","co37585","norming","","","{""guess"":""ziekenbed""}","","../img/tt/1199tt.jpg","",""
"null","../img/gs/1199gs.jpg","null","reveal","image-keyboard-response","542","2316412","0.0-6.0-4.76","3803357","co37585","norming","","","","","","",""
"null","../img/tt/1199tt.jpg","null","mooney2","image-keyboard-response","543","2318422","0.0-6.0-5.76","3803357","co37585","norming","","","","","","",""
"6451.620000000112","","","post_reveal_questions","survey-likert","544","2324877","0.0-6.0-6.76","3803357","co37585","norming","","","{""aha"":5}","[0]","../img/tt/1199tt.jpg","",""
"null","<div style=""font-size:60px;""> </div>","null","fixation","html-keyboard-response","545","2325081","0.0-6.0-0.77","3803357","co37585","norming","","","","","","",""
"null","../img/tt/031tt.jpg","null","mooney1","image-keyboard-response","546","2328087","0.0-6.0-1.77","3803357","co37585","norming","","","","","","",""
"8331.004999999888","","","post_mooney1_questions","survey-likert","547","2336421","0.0-6.0-2.77","3803357","co37585","norming","","","{""curiosity"":1,""confidence"":4}","[0,1]","../img/tt/031tt.jpg","",""
"1701.959999999497","","","recognition","survey-text","548","2338125","0.0-6.0-3.77","3803357","co37585","norming","","","{""guess"":""beer""}","","../img/tt/031tt.jpg","",""
"null","../img/gs/031gs.jpg","null","reveal","image-keyboard-response","549","2340130","0.0-6.0-4.77","3803357","co37585","norming","","","","","","",""
"null","../img/tt/031tt.jpg","null","mooney2","image-keyboard-response","550","2342140","0.0-6.0-5.77","3803357","co37585","norming","","","","","","",""
"3862.3199999998324","","","post_reveal_questions","survey-likert","551","2346005","0.0-6.0-6.77","3803357","co37585","norming","","","{""aha"":0}","[0]","../img/tt/031tt.jpg","",""
