"rt","stimulus","key_press","test_part","trial_type","trial_index","time_elapsed","internal_node_id","totalTime","subject","experiment_name","button_pressed","success","responses","question_order","currentStim","old","correct"
"8641","Welcome to the experiment. This is an online experiment so please don't close the tab/window until we say goodbye.  Press any key to begin.","32","instructions","html-keyboard-response","0","8660","0.0-0.0","4063389","co37723","norming","","","","","","",""
"33100","<div style='word-wrap: break-word; width: 900px'><h3>Please consider this information carefully before deciding whether to participate in this research</h3><ul style='text-align: left; font-size: .8em;'><li><b>Purpose of the research</b>: To examine how people process images.</li><li><b>What you will do in this research</b>:  Stimuli (images) will be presented on the computer and you will be asked different questions about them.</li><li><b>Time required</b>: Participation will take between 45 and 60 minutes to complete.</li><li><b>Risks</b>:  There are no anticipated risks associated with participating in this study. The effects of participating should be comparable to those you would experience from viewing a computer monitor for 30 minutes and using a mouse or keyboard.</li><li><b>Benefits</b>:  This study provides no benefits to you individually except for the credit. The study provides important information about the nature of perception and learning.</li><li><b>Confidentiality</b>:  Your participation in this study will remain confidential. No personally identifiable information will be associated with your data. Your de-identified data may be shared with other researchers and used in future projects.</li><li><b>Participation and withdrawal</b>:  Your participation in this study is completely voluntary and you may refuse to participate or you may choose to withdraw at any time without penalty.</li><li><b>How to contact the researchers</b>: If you have questions or concerns about your participation or payment, or want to request a summary of research findings, please contact Sander Van de Cruys (KU Leuven), at sander.vandecruys@kuleuven.be.</li></ul><p>The nature and purpose of this research have been sufficiently explained and I agree to participate in this study.  I understand that I am free to withdraw at any time without incurring any penalty.</p><p>Please consent by clicking the button below to continue. Otherwise, please exit the study at this time.</p></div>","","instructions","html-button-response","1","41766","0.0-1.0","4063389","co37723","norming","0","","","","","",""
"","","","instructions","fullscreen","2","45598","0.0-2.0","4063389","co37723","norming","","true","","","","",""
"42023","","","sona","survey-html-form","3","87625","0.0-3.0","4063389","co37723","norming","","","[{""name"":""sonaid"",""value"":""37723""},{""name"":""debrief"",""value"":""no""},{""name"":""datajoin"",""value"":""yes""}]","","","",""
"83633.00000000001","<div style='word-wrap: break-word; width: 900px'><h3>Instructions</h3><p>This experiment will have 3 parts. In the first part you will see a series of distorted images like the one below on the left. As you can see in the righthand image, the distorted images are derived from actual photographs. In what follows, you will <strong>briefly</strong> be presented with <strong>only</strong> the distorted image.</p> <div style='float: left; margin-right: 20px;'><img src='../img/018tt.jpg' height='250' width='250'></img></div><div style='float: right; margin-left: 20px;'><img src='../img/018gs.jpg' height='250' width='250'></img></div><p>Subsequently you will be asked a few questions about the image: One question on how <strong>curious</strong> you are about the solution and one on how <strong>confident</strong> you are that you know the solution.</p>Next, we ask you to make a guess on what is in the image. Note that it is OK to name just the <strong>basic level category</strong>. For example when you see a parrot in the image, 'parrot' will obviously be a correct answer but also correct is 'bird'. However, 'animal' will <strong>not</strong> be counted as a correct response. For the example above, 'rose' would be correct or 'flower', but not 'plant'. When soccer players are depicted, 'soccer', 'football', 'soccer players' will be correct, but not 'humans', 'outdoors', or 'sports'. You do not need to describe the image in full, just name the main object in it <strong>in one or two words</strong>. All images depict objects from one of the following broad level categories: animals, inanimate objects, plants, sports, vehicles, and food. Recognizing means knowing <strong>more</strong> than these broad labels for a given image. But we always encourage you to <strong>make a guess</strong> if you can. Note that you are allowed to use <strong>Dutch and English</strong> in your answers, whatever comes easiest for you.</p><p>Press any key to continue.</p></div>","32","instructions","html-keyboard-response","4","171261","0.0-4.0","4063389","co37723","norming","","","","","","",""
"12810","<div style='word-wrap: break-word; width: 900px'><h3>Instructions</h3> <p>Next, the solution image will be revealed to you and you'll be asked to indicate how strong your <strong>aha-experience</strong> was after seeing the solution. This describes the positive feeling of the 'click' you sometimes experience, when the pieces of the 'puzzle' fall together and you suddenly have 'insight' in the image.</p><img src='aha.jpg' height='188' width='250'></img><p>Note that there are no right or wrong answers. We are interested in what <strong>you</strong> see in the image and how <strong>you</strong> feel about it.</p><p>Press any key to start the experiment.</p></div>","32","instructions","html-keyboard-response","5","184073","0.0-5.0","4063389","co37723","norming","","","","","","",""
"null","<div style=""font-size:60px;""> </div>","null","fixation","html-keyboard-response","6","184275","0.0-6.0-0.0","4063389","co37723","norming","","","","","","",""
"null","../img/tt/091tt.jpg","null","mooney1","image-keyboard-response","7","187279","0.0-6.0-1.0","4063389","co37723","norming","","","","","","",""
"10627","","","post_mooney1_questions","survey-likert","8","197909","0.0-6.0-2.0","4063389","co37723","norming","","","{""curiosity"":3,""confidence"":1}","[0,1]","../img/tt/091tt.jpg","",""
"3364","","","recognition","survey-text","9","201283","0.0-6.0-3.0","4063389","co37723","norming","","","{""guess"":""dog""}","","../img/tt/091tt.jpg","",""
"null","../img/gs/091gs.jpg","null","reveal","image-keyboard-response","10","203285","0.0-6.0-4.0","4063389","co37723","norming","","","","","","",""
"null","../img/tt/091tt.jpg","null","mooney2","image-keyboard-response","11","205287","0.0-6.0-5.0","4063389","co37723","norming","","","","","","",""
"6053","","","post_reveal_questions","survey-likert","12","211342","0.0-6.0-6.0","4063389","co37723","norming","","","{""aha"":3}","[0]","../img/tt/091tt.jpg","",""
"null","<div style=""font-size:60px;""> </div>","null","fixation","html-keyboard-response","13","211547","0.0-6.0-0.1","4063389","co37723","norming","","","","","","",""
"null","../img/tt/036tt.jpg","null","mooney1","image-keyboard-response","14","214550","0.0-6.0-1.1","4063389","co37723","norming","","","","","","",""
"9209","","","post_mooney1_questions","survey-likert","15","223762","0.0-6.0-2.1","4063389","co37723","norming","","","{""curiosity"":5,""confidence"":0}","[0,1]","../img/tt/036tt.jpg","",""
"2681.000000000029","","","recognition","survey-text","16","226452","0.0-6.0-3.1","4063389","co37723","norming","","","{""guess"":""""}","","../img/tt/036tt.jpg","",""
"null","../img/gs/036gs.jpg","null","reveal","image-keyboard-response","17","228454","0.0-6.0-4.1","4063389","co37723","norming","","","","","","",""
"null","../img/tt/036tt.jpg","null","mooney2","image-keyboard-response","18","230457","0.0-6.0-5.1","4063389","co37723","norming","","","","","","",""
"3449.999999999971","","","post_reveal_questions","survey-likert","19","233909","0.0-6.0-6.1","4063389","co37723","norming","","","{""aha"":4}","[0]","../img/tt/036tt.jpg","",""
"null","<div style=""font-size:60px;""> </div>","null","fixation","html-keyboard-response","20","234112","0.0-6.0-0.2","4063389","co37723","norming","","","","","","",""
"null","../img/tt/032tt.jpg","null","mooney1","image-keyboard-response","21","237115","0.0-6.0-1.2","4063389","co37723","norming","","","","","","",""
"5879","","","post_mooney1_questions","survey-likert","22","242996","0.0-6.0-2.2","4063389","co37723","norming","","","{""curiosity"":4,""confidence"":0}","[0,1]","../img/tt/032tt.jpg","",""
"2934.000000000029","","","recognition","survey-text","23","245941","0.0-6.0-3.2","4063389","co37723","norming","","","{""guess"":""frog""}","","../img/tt/032tt.jpg","",""
"null","../img/gs/032gs.jpg","null","reveal","image-keyboard-response","24","247944","0.0-6.0-4.2","4063389","co37723","norming","","","","","","",""
"null","../img/tt/032tt.jpg","null","mooney2","image-keyboard-response","25","249946","0.0-6.0-5.2","4063389","co37723","norming","","","","","","",""
"3423","","","post_reveal_questions","survey-likert","26","253371","0.0-6.0-6.2","4063389","co37723","norming","","","{""aha"":4}","[0]","../img/tt/032tt.jpg","",""
"null","<div style=""font-size:60px;""> </div>","null","fixation","html-keyboard-response","27","253575","0.0-6.0-0.3","4063389","co37723","norming","","","","","","",""
"null","../img/tt/010tt.jpg","null","mooney1","image-keyboard-response","28","256577","0.0-6.0-1.3","4063389","co37723","norming","","","","","","",""
"13742","","","post_mooney1_questions","survey-likert","29","270322","0.0-6.0-2.3","4063389","co37723","norming","","","{""curiosity"":5,""confidence"":1}","[0,1]","../img/tt/010tt.jpg","",""
"16132.000000000058","","","recognition","survey-text","30","286463","0.0-6.0-3.3","4063389","co37723","norming","","","{""guess"":""basketball""}","","../img/tt/010tt.jpg","",""
"null","../img/gs/010gs.jpg","null","reveal","image-keyboard-response","31","288465","0.0-6.0-4.3","4063389","co37723","norming","","","","","","",""
"null","../img/tt/010tt.jpg","null","mooney2","image-keyboard-response","32","290468","0.0-6.0-5.3","4063389","co37723","norming","","","","","","",""
"3106","","","post_reveal_questions","survey-likert","33","293575","0.0-6.0-6.3","4063389","co37723","norming","","","{""aha"":0}","[0]","../img/tt/010tt.jpg","",""
"null","<div style=""font-size:60px;""> </div>","null","fixation","html-keyboard-response","34","293779","0.0-6.0-0.4","4063389","co37723","norming","","","","","","",""
"null","../img/tt/301tt.jpg","null","mooney1","image-keyboard-response","35","296782","0.0-6.0-1.4","4063389","co37723","norming","","","","","","",""
"9857","","","post_mooney1_questions","survey-likert","36","306641","0.0-6.0-2.4","4063389","co37723","norming","","","{""curiosity"":3,""confidence"":5}","[0,1]","../img/tt/301tt.jpg","",""
"5487.000000000058","","","recognition","survey-text","37","312136","0.0-6.0-3.4","4063389","co37723","norming","","","{""guess"":""cinema""}","","../img/tt/301tt.jpg","",""
"null","../img/gs/301gs.jpg","null","reveal","image-keyboard-response","38","314139","0.0-6.0-4.4","4063389","co37723","norming","","","","","","",""
"null","../img/tt/301tt.jpg","null","mooney2","image-keyboard-response","39","316141","0.0-6.0-5.4","4063389","co37723","norming","","","","","","",""
"3450","","","post_reveal_questions","survey-likert","40","319593","0.0-6.0-6.4","4063389","co37723","norming","","","{""aha"":3}","[0]","../img/tt/301tt.jpg","",""
"null","<div style=""font-size:60px;""> </div>","null","fixation","html-keyboard-response","41","319797","0.0-6.0-0.5","4063389","co37723","norming","","","","","","",""
"null","../img/tt/1037tt.jpg","null","mooney1","image-keyboard-response","42","322800","0.0-6.0-1.5","4063389","co37723","norming","","","","","","",""
"7841","","","post_mooney1_questions","survey-likert","43","330643","0.0-6.0-2.5","4063389","co37723","norming","","","{""curiosity"":4,""confidence"":3}","[0,1]","../img/tt/1037tt.jpg","",""
"2179","","","recognition","survey-text","44","332831","0.0-6.0-3.5","4063389","co37723","norming","","","{""guess"":""eekhoorn""}","","../img/tt/1037tt.jpg","",""
"null","../img/gs/1037gs.jpg","null","reveal","image-keyboard-response","45","334833","0.0-6.0-4.5","4063389","co37723","norming","","","","","","",""
"null","../img/tt/1037tt.jpg","null","mooney2","image-keyboard-response","46","336835","0.0-6.0-5.5","4063389","co37723","norming","","","","","","",""
"2257","","","post_reveal_questions","survey-likert","47","339094","0.0-6.0-6.5","4063389","co37723","norming","","","{""aha"":4}","[0]","../img/tt/1037tt.jpg","",""
"null","<div style=""font-size:60px;""> </div>","null","fixation","html-keyboard-response","48","339297","0.0-6.0-0.6","4063389","co37723","norming","","","","","","",""
"null","../img/tt/013tt.jpg","null","mooney1","image-keyboard-response","49","342300","0.0-6.0-1.6","4063389","co37723","norming","","","","","","",""
"5247","","","post_mooney1_questions","survey-likert","50","347550","0.0-6.0-2.6","4063389","co37723","norming","","","{""curiosity"":4,""confidence"":0}","[0,1]","../img/tt/013tt.jpg","",""
"1310","","","recognition","survey-text","51","348869","0.0-6.0-3.6","4063389","co37723","norming","","","{""guess"":""""}","","../img/tt/013tt.jpg","",""
"null","../img/gs/013gs.jpg","null","reveal","image-keyboard-response","52","350872","0.0-6.0-4.6","4063389","co37723","norming","","","","","","",""
"null","../img/tt/013tt.jpg","null","mooney2","image-keyboard-response","53","352874","0.0-6.0-5.6","4063389","co37723","norming","","","","","","",""
"2340","","","post_reveal_questions","survey-likert","54","355216","0.0-6.0-6.6","4063389","co37723","norming","","","{""aha"":5}","[0]","../img/tt/013tt.jpg","",""
"null","<div style=""font-size:60px;""> </div>","null","fixation","html-keyboard-response","55","355419","0.0-6.0-0.7","4063389","co37723","norming","","","","","","",""
"null","../img/tt/1211tt.jpg","null","mooney1","image-keyboard-response","56","358422","0.0-6.0-1.7","4063389","co37723","norming","","","","","","",""
"9301","","","post_mooney1_questions","survey-likert","57","367726","0.0-6.0-2.7","4063389","co37723","norming","","","{""curiosity"":4,""confidence"":3}","[0,1]","../img/tt/1211tt.jpg","",""
"7148.000000000058","","","recognition","survey-text","58","374882","0.0-6.0-3.7","4063389","co37723","norming","","","{""guess"":""onderzeeër ""}","","../img/tt/1211tt.jpg","",""
"null","../img/gs/1211gs.jpg","null","reveal","image-keyboard-response","59","376885","0.0-6.0-4.7","4063389","co37723","norming","","","","","","",""
"null","../img/tt/1211tt.jpg","null","mooney2","image-keyboard-response","60","378887","0.0-6.0-5.7","4063389","co37723","norming","","","","","","",""
"2797","","","post_reveal_questions","survey-likert","61","381687","0.0-6.0-6.7","4063389","co37723","norming","","","{""aha"":4}","[0]","../img/tt/1211tt.jpg","",""
"null","<div style=""font-size:60px;""> </div>","null","fixation","html-keyboard-response","62","381890","0.0-6.0-0.8","4063389","co37723","norming","","","","","","",""
"null","../img/tt/1186tt.jpg","null","mooney1","image-keyboard-response","63","384892","0.0-6.0-1.8","4063389","co37723","norming","","","","","","",""
"8724.999999999942","","","post_mooney1_questions","survey-likert","64","393620","0.0-6.0-2.8","4063389","co37723","norming","","","{""curiosity"":4,""confidence"":3}","[0,1]","../img/tt/1186tt.jpg","",""
"3121","","","recognition","survey-text","65","396749","0.0-6.0-3.8","4063389","co37723","norming","","","{""guess"":""walvis""}","","../img/tt/1186tt.jpg","",""
"null","../img/gs/1186gs.jpg","null","reveal","image-keyboard-response","66","398752","0.0-6.0-4.8","4063389","co37723","norming","","","","","","",""
"null","../img/tt/1186tt.jpg","null","mooney2","image-keyboard-response","67","400755","0.0-6.0-5.8","4063389","co37723","norming","","","","","","",""
"3199","","","post_reveal_questions","survey-likert","68","403956","0.0-6.0-6.8","4063389","co37723","norming","","","{""aha"":1}","[0]","../img/tt/1186tt.jpg","",""
"null","<div style=""font-size:60px;""> </div>","null","fixation","html-keyboard-response","69","404159","0.0-6.0-0.9","4063389","co37723","norming","","","","","","",""
"null","../img/tt/081tt.jpg","null","mooney1","image-keyboard-response","70","407162","0.0-6.0-1.9","4063389","co37723","norming","","","","","","",""
"6492","","","post_mooney1_questions","survey-likert","71","413656","0.0-6.0-2.9","4063389","co37723","norming","","","{""curiosity"":5,""confidence"":2}","[0,1]","../img/tt/081tt.jpg","",""
"1831.0000000000582","","","recognition","survey-text","72","415496","0.0-6.0-3.9","4063389","co37723","norming","","","{""guess"":""hond""}","","../img/tt/081tt.jpg","",""
"null","../img/gs/081gs.jpg","null","reveal","image-keyboard-response","73","417498","0.0-6.0-4.9","4063389","co37723","norming","","","","","","",""
"null","../img/tt/081tt.jpg","null","mooney2","image-keyboard-response","74","419501","0.0-6.0-5.9","4063389","co37723","norming","","","","","","",""
"3112","","","post_reveal_questions","survey-likert","75","422615","0.0-6.0-6.9","4063389","co37723","norming","","","{""aha"":4}","[0]","../img/tt/081tt.jpg","",""
"null","<div style=""font-size:60px;""> </div>","null","fixation","html-keyboard-response","76","422819","0.0-6.0-0.10","4063389","co37723","norming","","","","","","",""
"null","../img/tt/270tt.jpg","null","mooney1","image-keyboard-response","77","425821","0.0-6.0-1.10","4063389","co37723","norming","","","","","","",""
"4192.999999999942","","","post_mooney1_questions","survey-likert","78","430017","0.0-6.0-2.10","4063389","co37723","norming","","","{""curiosity"":5,""confidence"":0}","[0,1]","../img/tt/270tt.jpg","",""
"811.0000000000582","","","recognition","survey-text","79","430836","0.0-6.0-3.10","4063389","co37723","norming","","","{""guess"":""""}","","../img/tt/270tt.jpg","",""
"null","../img/gs/270gs.jpg","null","reveal","image-keyboard-response","80","432838","0.0-6.0-4.10","4063389","co37723","norming","","","","","","",""
"null","../img/tt/270tt.jpg","null","mooney2","image-keyboard-response","81","434841","0.0-6.0-5.10","4063389","co37723","norming","","","","","","",""
"2726","","","post_reveal_questions","survey-likert","82","437569","0.0-6.0-6.10","4063389","co37723","norming","","","{""aha"":3}","[0]","../img/tt/270tt.jpg","",""
"null","<div style=""font-size:60px;""> </div>","null","fixation","html-keyboard-response","83","437773","0.0-6.0-0.11","4063389","co37723","norming","","","","","","",""
"null","../img/tt/105tt.jpg","null","mooney1","image-keyboard-response","84","440775","0.0-6.0-1.11","4063389","co37723","norming","","","","","","",""
"11634","","","post_mooney1_questions","survey-likert","85","452412","0.0-6.0-2.11","4063389","co37723","norming","","","{""curiosity"":5,""confidence"":3}","[0,1]","../img/tt/105tt.jpg","",""
"1987.0000000000582","","","recognition","survey-text","86","454408","0.0-6.0-3.11","4063389","co37723","norming","","","{""guess"":""wormen""}","","../img/tt/105tt.jpg","",""
"null","../img/gs/105gs.jpg","null","reveal","image-keyboard-response","87","456411","0.0-6.0-4.11","4063389","co37723","norming","","","","","","",""
"null","../img/tt/105tt.jpg","null","mooney2","image-keyboard-response","88","458414","0.0-6.0-5.11","4063389","co37723","norming","","","","","","",""
"3740","","","post_reveal_questions","survey-likert","89","462157","0.0-6.0-6.11","4063389","co37723","norming","","","{""aha"":3}","[0]","../img/tt/105tt.jpg","",""
"null","<div style=""font-size:60px;""> </div>","null","fixation","html-keyboard-response","90","462361","0.0-6.0-0.12","4063389","co37723","norming","","","","","","",""
"null","../img/tt/1046tt.jpg","null","mooney1","image-keyboard-response","91","465364","0.0-6.0-1.12","4063389","co37723","norming","","","","","","",""
"8145","","","post_mooney1_questions","survey-likert","92","473512","0.0-6.0-2.12","4063389","co37723","norming","","","{""curiosity"":4,""confidence"":0}","[0,1]","../img/tt/1046tt.jpg","",""
"826","","","recognition","survey-text","93","474347","0.0-6.0-3.12","4063389","co37723","norming","","","{""guess"":""""}","","../img/tt/1046tt.jpg","",""
"null","../img/gs/1046gs.jpg","null","reveal","image-keyboard-response","94","476349","0.0-6.0-4.12","4063389","co37723","norming","","","","","","",""
"null","../img/tt/1046tt.jpg","null","mooney2","image-keyboard-response","95","478352","0.0-6.0-5.12","4063389","co37723","norming","","","","","","",""
"4269","","","post_reveal_questions","survey-likert","96","482623","0.0-6.0-6.12","4063389","co37723","norming","","","{""aha"":1}","[0]","../img/tt/1046tt.jpg","",""
"null","<div style=""font-size:60px;""> </div>","null","fixation","html-keyboard-response","97","482826","0.0-6.0-0.13","4063389","co37723","norming","","","","","","",""
"null","../img/tt/108tt.jpg","null","mooney1","image-keyboard-response","98","485828","0.0-6.0-1.13","4063389","co37723","norming","","","","","","",""
"5695","","","post_mooney1_questions","survey-likert","99","491526","0.0-6.0-2.13","4063389","co37723","norming","","","{""curiosity"":3,""confidence"":0}","[0,1]","../img/tt/108tt.jpg","",""
"1926","","","recognition","survey-text","100","493463","0.0-6.0-3.13","4063389","co37723","norming","","","{""guess"":""  ""}","","../img/tt/108tt.jpg","",""
"null","../img/gs/108gs.jpg","null","reveal","image-keyboard-response","101","495465","0.0-6.0-4.13","4063389","co37723","norming","","","","","","",""
"null","../img/tt/108tt.jpg","null","mooney2","image-keyboard-response","102","497467","0.0-6.0-5.13","4063389","co37723","norming","","","","","","",""
"2414","","","post_reveal_questions","survey-likert","103","499883","0.0-6.0-6.13","4063389","co37723","norming","","","{""aha"":4}","[0]","../img/tt/108tt.jpg","",""
"null","<div style=""font-size:60px;""> </div>","null","fixation","html-keyboard-response","104","500086","0.0-6.0-0.14","4063389","co37723","norming","","","","","","",""
"null","../img/tt/111tt.jpg","null","mooney1","image-keyboard-response","105","503089","0.0-6.0-1.14","4063389","co37723","norming","","","","","","",""
"6211","","","post_mooney1_questions","survey-likert","106","509302","0.0-6.0-2.14","4063389","co37723","norming","","","{""curiosity"":2,""confidence"":5}","[0,1]","../img/tt/111tt.jpg","",""
"2242","","","recognition","survey-text","107","511553","0.0-6.0-3.14","4063389","co37723","norming","","","{""guess"":""telefoon""}","","../img/tt/111tt.jpg","",""
"null","../img/gs/111gs.jpg","null","reveal","image-keyboard-response","108","513555","0.0-6.0-4.14","4063389","co37723","norming","","","","","","",""
"null","../img/tt/111tt.jpg","null","mooney2","image-keyboard-response","109","515558","0.0-6.0-5.14","4063389","co37723","norming","","","","","","",""
"3759.000000000058","","","post_reveal_questions","survey-likert","110","519319","0.0-6.0-6.14","4063389","co37723","norming","","","{""aha"":4}","[0]","../img/tt/111tt.jpg","",""
"null","<div style=""font-size:60px;""> </div>","null","fixation","html-keyboard-response","111","519523","0.0-6.0-0.15","4063389","co37723","norming","","","","","","",""
"null","../img/tt/056tt.jpg","null","mooney1","image-keyboard-response","112","522526","0.0-6.0-1.15","4063389","co37723","norming","","","","","","",""
"4746","","","post_mooney1_questions","survey-likert","113","527273","0.0-6.0-2.15","4063389","co37723","norming","","","{""curiosity"":4,""confidence"":1}","[0,1]","../img/tt/056tt.jpg","",""
"3102","","","recognition","survey-text","114","530384","0.0-6.0-3.15","4063389","co37723","norming","","","{""guess"":""zangeres""}","","../img/tt/056tt.jpg","",""
"null","../img/gs/056gs.jpg","null","reveal","image-keyboard-response","115","532387","0.0-6.0-4.15","4063389","co37723","norming","","","","","","",""
"null","../img/tt/056tt.jpg","null","mooney2","image-keyboard-response","116","534389","0.0-6.0-5.15","4063389","co37723","norming","","","","","","",""
"2142","","","post_reveal_questions","survey-likert","117","536533","0.0-6.0-6.15","4063389","co37723","norming","","","{""aha"":2}","[0]","../img/tt/056tt.jpg","",""
"null","<div style=""font-size:60px;""> </div>","null","fixation","html-keyboard-response","118","536737","0.0-6.0-0.16","4063389","co37723","norming","","","","","","",""
"null","../img/tt/1254tt.jpg","null","mooney1","image-keyboard-response","119","539740","0.0-6.0-1.16","4063389","co37723","norming","","","","","","",""
"6964","","","post_mooney1_questions","survey-likert","120","546706","0.0-6.0-2.16","4063389","co37723","norming","","","{""curiosity"":4,""confidence"":1}","[0,1]","../img/tt/1254tt.jpg","",""
"1764.9999999998836","","","recognition","survey-text","121","548479","0.0-6.0-3.16","4063389","co37723","norming","","","{""guess"":""krab""}","","../img/tt/1254tt.jpg","",""
"null","../img/gs/1254gs.jpg","null","reveal","image-keyboard-response","122","550482","0.0-6.0-4.16","4063389","co37723","norming","","","","","","",""
"null","../img/tt/1254tt.jpg","null","mooney2","image-keyboard-response","123","552484","0.0-6.0-5.16","4063389","co37723","norming","","","","","","",""
"6135","","","post_reveal_questions","survey-likert","124","558621","0.0-6.0-6.16","4063389","co37723","norming","","","{""aha"":2}","[0]","../img/tt/1254tt.jpg","",""
"null","<div style=""font-size:60px;""> </div>","null","fixation","html-keyboard-response","125","558825","0.0-6.0-0.17","4063389","co37723","norming","","","","","","",""
"null","../img/tt/442tt.jpg","null","mooney1","image-keyboard-response","126","561827","0.0-6.0-1.17","4063389","co37723","norming","","","","","","",""
"7477","","","post_mooney1_questions","survey-likert","127","569307","0.0-6.0-2.17","4063389","co37723","norming","","","{""curiosity"":5,""confidence"":1}","[0,1]","../img/tt/442tt.jpg","",""
"2240","","","recognition","survey-text","128","571554","0.0-6.0-3.17","4063389","co37723","norming","","","{""guess"":""insect""}","","../img/tt/442tt.jpg","",""
"null","../img/gs/442gs.jpg","null","reveal","image-keyboard-response","129","573557","0.0-6.0-4.17","4063389","co37723","norming","","","","","","",""
"null","../img/tt/442tt.jpg","null","mooney2","image-keyboard-response","130","575560","0.0-6.0-5.17","4063389","co37723","norming","","","","","","",""
"2283.0000000001164","","","post_reveal_questions","survey-likert","131","577845","0.0-6.0-6.17","4063389","co37723","norming","","","{""aha"":3}","[0]","../img/tt/442tt.jpg","",""
"null","<div style=""font-size:60px;""> </div>","null","fixation","html-keyboard-response","132","578048","0.0-6.0-0.18","4063389","co37723","norming","","","","","","",""
"null","../img/tt/1116tt.jpg","null","mooney1","image-keyboard-response","133","581051","0.0-6.0-1.18","4063389","co37723","norming","","","","","","",""
"6853","","","post_mooney1_questions","survey-likert","134","587906","0.0-6.0-2.18","4063389","co37723","norming","","","{""curiosity"":4,""confidence"":3}","[0,1]","../img/tt/1116tt.jpg","",""
"2784","","","recognition","survey-text","135","590698","0.0-6.0-3.18","4063389","co37723","norming","","","{""guess"":""vliegtuig""}","","../img/tt/1116tt.jpg","",""
"null","../img/gs/1116gs.jpg","null","reveal","image-keyboard-response","136","592700","0.0-6.0-4.18","4063389","co37723","norming","","","","","","",""
"null","../img/tt/1116tt.jpg","null","mooney2","image-keyboard-response","137","594703","0.0-6.0-5.18","4063389","co37723","norming","","","","","","",""
"4276","","","post_reveal_questions","survey-likert","138","598981","0.0-6.0-6.18","4063389","co37723","norming","","","{""aha"":0}","[0]","../img/tt/1116tt.jpg","",""
"null","<div style=""font-size:60px;""> </div>","null","fixation","html-keyboard-response","139","599184","0.0-6.0-0.19","4063389","co37723","norming","","","","","","",""
"null","../img/tt/1276tt.jpg","null","mooney1","image-keyboard-response","140","602187","0.0-6.0-1.19","4063389","co37723","norming","","","","","","",""
"5580","","","post_mooney1_questions","survey-likert","141","607769","0.0-6.0-2.19","4063389","co37723","norming","","","{""curiosity"":5,""confidence"":0}","[0,1]","../img/tt/1276tt.jpg","",""
"1085","","","recognition","survey-text","142","608863","0.0-6.0-3.19","4063389","co37723","norming","","","{""guess"":""""}","","../img/tt/1276tt.jpg","",""
"null","../img/gs/1276gs.jpg","null","reveal","image-keyboard-response","143","610866","0.0-6.0-4.19","4063389","co37723","norming","","","","","","",""
"null","../img/tt/1276tt.jpg","null","mooney2","image-keyboard-response","144","612868","0.0-6.0-5.19","4063389","co37723","norming","","","","","","",""
"4515","","","post_reveal_questions","survey-likert","145","617386","0.0-6.0-6.19","4063389","co37723","norming","","","{""aha"":0}","[0]","../img/tt/1276tt.jpg","",""
"null","<div style=""font-size:60px;""> </div>","null","fixation","html-keyboard-response","146","617590","0.0-6.0-0.20","4063389","co37723","norming","","","","","","",""
"null","../img/tt/1175tt.jpg","null","mooney1","image-keyboard-response","147","620593","0.0-6.0-1.20","4063389","co37723","norming","","","","","","",""
"7384","","","post_mooney1_questions","survey-likert","148","627979","0.0-6.0-2.20","4063389","co37723","norming","","","{""curiosity"":4,""confidence"":1}","[0,1]","../img/tt/1175tt.jpg","",""
"14188","","","recognition","survey-text","149","642175","0.0-6.0-3.20","4063389","co37723","norming","","","{""guess"":""man shooting""}","","../img/tt/1175tt.jpg","",""
"null","../img/gs/1175gs.jpg","null","reveal","image-keyboard-response","150","644178","0.0-6.0-4.20","4063389","co37723","norming","","","","","","",""
"null","../img/tt/1175tt.jpg","null","mooney2","image-keyboard-response","151","646180","0.0-6.0-5.20","4063389","co37723","norming","","","","","","",""
"4394","","","post_reveal_questions","survey-likert","152","650577","0.0-6.0-6.20","4063389","co37723","norming","","","{""aha"":1}","[0]","../img/tt/1175tt.jpg","",""
"null","<div style=""font-size:60px;""> </div>","null","fixation","html-keyboard-response","153","650779","0.0-6.0-0.21","4063389","co37723","norming","","","","","","",""
"null","../img/tt/1159tt.jpg","null","mooney1","image-keyboard-response","154","653782","0.0-6.0-1.21","4063389","co37723","norming","","","","","","",""
"5842.000000000116","","","post_mooney1_questions","survey-likert","155","659626","0.0-6.0-2.21","4063389","co37723","norming","","","{""curiosity"":4,""confidence"":4}","[0,1]","../img/tt/1159tt.jpg","",""
"5223","","","recognition","survey-text","156","664853","0.0-6.0-3.21","4063389","co37723","norming","","","{""guess"":""skateboarden""}","","../img/tt/1159tt.jpg","",""
"null","../img/gs/1159gs.jpg","null","reveal","image-keyboard-response","157","666855","0.0-6.0-4.21","4063389","co37723","norming","","","","","","",""
"null","../img/tt/1159tt.jpg","null","mooney2","image-keyboard-response","158","668857","0.0-6.0-5.21","4063389","co37723","norming","","","","","","",""
"3906.0000000001164","","","post_reveal_questions","survey-likert","159","672765","0.0-6.0-6.21","4063389","co37723","norming","","","{""aha"":0}","[0]","../img/tt/1159tt.jpg","",""
"null","<div style=""font-size:60px;""> </div>","null","fixation","html-keyboard-response","160","672968","0.0-6.0-0.22","4063389","co37723","norming","","","","","","",""
"null","../img/tt/477tt.jpg","null","mooney1","image-keyboard-response","161","675971","0.0-6.0-1.22","4063389","co37723","norming","","","","","","",""
"10012","","","post_mooney1_questions","survey-likert","162","685985","0.0-6.0-2.22","4063389","co37723","norming","","","{""curiosity"":4,""confidence"":1}","[0,1]","../img/tt/477tt.jpg","",""
"1562","","","recognition","survey-text","163","687556","0.0-6.0-3.22","4063389","co37723","norming","","","{""guess"":""boom""}","","../img/tt/477tt.jpg","",""
"null","../img/gs/477gs.jpg","null","reveal","image-keyboard-response","164","689558","0.0-6.0-4.22","4063389","co37723","norming","","","","","","",""
"null","../img/tt/477tt.jpg","null","mooney2","image-keyboard-response","165","691561","0.0-6.0-5.22","4063389","co37723","norming","","","","","","",""
"5966.999999999884","","","post_reveal_questions","survey-likert","166","697530","0.0-6.0-6.22","4063389","co37723","norming","","","{""aha"":2}","[0]","../img/tt/477tt.jpg","",""
"null","<div style=""font-size:60px;""> </div>","null","fixation","html-keyboard-response","167","697734","0.0-6.0-0.23","4063389","co37723","norming","","","","","","",""
"null","../img/tt/1362tt.jpg","null","mooney1","image-keyboard-response","168","700736","0.0-6.0-1.23","4063389","co37723","norming","","","","","","",""
"42361","","","post_mooney1_questions","survey-likert","169","743100","0.0-6.0-2.23","4063389","co37723","norming","","","{""curiosity"":4,""confidence"":1}","[0,1]","../img/tt/1362tt.jpg","",""
"4975","","","recognition","survey-text","170","748084","0.0-6.0-3.23","4063389","co37723","norming","","","{""guess"":""recorder""}","","../img/tt/1362tt.jpg","",""
"null","../img/gs/1362gs.jpg","null","reveal","image-keyboard-response","171","750087","0.0-6.0-4.23","4063389","co37723","norming","","","","","","",""
"null","../img/tt/1362tt.jpg","null","mooney2","image-keyboard-response","172","752089","0.0-6.0-5.23","4063389","co37723","norming","","","","","","",""
"421127","","","post_reveal_questions","survey-likert","173","1173227","0.0-6.0-6.23","4063389","co37723","norming","","","{""aha"":4}","[0]","../img/tt/1362tt.jpg","",""
"null","<div style=""font-size:60px;""> </div>","null","fixation","html-keyboard-response","174","1173432","0.0-6.0-0.24","4063389","co37723","norming","","","","","","",""
"null","../img/tt/1128tt.jpg","null","mooney1","image-keyboard-response","175","1176436","0.0-6.0-1.24","4063389","co37723","norming","","","","","","",""
"16767.000000000233","","","post_mooney1_questions","survey-likert","176","1193205","0.0-6.0-2.24","4063389","co37723","norming","","","{""curiosity"":4,""confidence"":1}","[0,1]","../img/tt/1128tt.jpg","",""
"2876","","","recognition","survey-text","177","1196089","0.0-6.0-3.24","4063389","co37723","norming","","","{""guess"":""aap""}","","../img/tt/1128tt.jpg","",""
"null","../img/gs/1128gs.jpg","null","reveal","image-keyboard-response","178","1198091","0.0-6.0-4.24","4063389","co37723","norming","","","","","","",""
"null","../img/tt/1128tt.jpg","null","mooney2","image-keyboard-response","179","1200094","0.0-6.0-5.24","4063389","co37723","norming","","","","","","",""
"27931","","","post_reveal_questions","survey-likert","180","1228027","0.0-6.0-6.24","4063389","co37723","norming","","","{""aha"":0}","[0]","../img/tt/1128tt.jpg","",""
"null","<div style=""font-size:60px;""> </div>","null","fixation","html-keyboard-response","181","1228232","0.0-6.0-0.25","4063389","co37723","norming","","","","","","",""
"null","../img/tt/315tt.jpg","null","mooney1","image-keyboard-response","182","1231235","0.0-6.0-1.25","4063389","co37723","norming","","","","","","",""
"28666","","","post_mooney1_questions","survey-likert","183","1259904","0.0-6.0-2.25","4063389","co37723","norming","","","{""curiosity"":3,""confidence"":1}","[0,1]","../img/tt/315tt.jpg","",""
"6269","","","recognition","survey-text","184","1266184","0.0-6.0-3.25","4063389","co37723","norming","","","{""guess"":""vogel""}","","../img/tt/315tt.jpg","",""
"null","../img/gs/315gs.jpg","null","reveal","image-keyboard-response","185","1268187","0.0-6.0-4.25","4063389","co37723","norming","","","","","","",""
"null","../img/tt/315tt.jpg","null","mooney2","image-keyboard-response","186","1270190","0.0-6.0-5.25","4063389","co37723","norming","","","","","","",""
"6424","","","post_reveal_questions","survey-likert","187","1276616","0.0-6.0-6.25","4063389","co37723","norming","","","{""aha"":2}","[0]","../img/tt/315tt.jpg","",""
"null","<div style=""font-size:60px;""> </div>","null","fixation","html-keyboard-response","188","1276819","0.0-6.0-0.26","4063389","co37723","norming","","","","","","",""
"null","../img/tt/279tt.jpg","null","mooney1","image-keyboard-response","189","1279822","0.0-6.0-1.26","4063389","co37723","norming","","","","","","",""
"11532.999999999767","","","post_mooney1_questions","survey-likert","190","1291356","0.0-6.0-2.26","4063389","co37723","norming","","","{""curiosity"":6,""confidence"":6}","[0,1]","../img/tt/279tt.jpg","",""
"2670.000000000233","","","recognition","survey-text","191","1294034","0.0-6.0-3.26","4063389","co37723","norming","","","{""guess"":""koala""}","","../img/tt/279tt.jpg","",""
"null","../img/gs/279gs.jpg","null","reveal","image-keyboard-response","192","1296037","0.0-6.0-4.26","4063389","co37723","norming","","","","","","",""
"null","../img/tt/279tt.jpg","null","mooney2","image-keyboard-response","193","1298040","0.0-6.0-5.26","4063389","co37723","norming","","","","","","",""
"4446","","","post_reveal_questions","survey-likert","194","1302488","0.0-6.0-6.26","4063389","co37723","norming","","","{""aha"":0}","[0]","../img/tt/279tt.jpg","",""
"null","<div style=""font-size:60px;""> </div>","null","fixation","html-keyboard-response","195","1302692","0.0-6.0-0.27","4063389","co37723","norming","","","","","","",""
"null","../img/tt/1243tt.jpg","null","mooney1","image-keyboard-response","196","1305695","0.0-6.0-1.27","4063389","co37723","norming","","","","","","",""
"5398","","","post_mooney1_questions","survey-likert","197","1311095","0.0-6.0-2.27","4063389","co37723","norming","","","{""curiosity"":5,""confidence"":4}","[0,1]","../img/tt/1243tt.jpg","",""
"1391","","","recognition","survey-text","198","1312494","0.0-6.0-3.27","4063389","co37723","norming","","","{""guess"":""vos""}","","../img/tt/1243tt.jpg","",""
"null","../img/gs/1243gs.jpg","null","reveal","image-keyboard-response","199","1314496","0.0-6.0-4.27","4063389","co37723","norming","","","","","","",""
"null","../img/tt/1243tt.jpg","null","mooney2","image-keyboard-response","200","1316499","0.0-6.0-5.27","4063389","co37723","norming","","","","","","",""
"1754","","","post_reveal_questions","survey-likert","201","1318254","0.0-6.0-6.27","4063389","co37723","norming","","","{""aha"":0}","[0]","../img/tt/1243tt.jpg","",""
"null","<div style=""font-size:60px;""> </div>","null","fixation","html-keyboard-response","202","1318458","0.0-6.0-0.28","4063389","co37723","norming","","","","","","",""
"null","../img/tt/078tt.jpg","null","mooney1","image-keyboard-response","203","1321461","0.0-6.0-1.28","4063389","co37723","norming","","","","","","",""
"4783","","","post_mooney1_questions","survey-likert","204","1326246","0.0-6.0-2.28","4063389","co37723","norming","","","{""curiosity"":5,""confidence"":4}","[0,1]","../img/tt/078tt.jpg","",""
"3102","","","recognition","survey-text","205","1329356","0.0-6.0-3.28","4063389","co37723","norming","","","{""guess"":""druiven""}","","../img/tt/078tt.jpg","",""
"null","../img/gs/078gs.jpg","null","reveal","image-keyboard-response","206","1331359","0.0-6.0-4.28","4063389","co37723","norming","","","","","","",""
"null","../img/tt/078tt.jpg","null","mooney2","image-keyboard-response","207","1333361","0.0-6.0-5.28","4063389","co37723","norming","","","","","","",""
"32813","","","post_reveal_questions","survey-likert","208","1366177","0.0-6.0-6.28","4063389","co37723","norming","","","{""aha"":0}","[0]","../img/tt/078tt.jpg","",""
"null","<div style=""font-size:60px;""> </div>","null","fixation","html-keyboard-response","209","1366381","0.0-6.0-0.29","4063389","co37723","norming","","","","","","",""
"null","../img/tt/1066tt.jpg","null","mooney1","image-keyboard-response","210","1369384","0.0-6.0-1.29","4063389","co37723","norming","","","","","","",""
"5616","","","post_mooney1_questions","survey-likert","211","1375002","0.0-6.0-2.29","4063389","co37723","norming","","","{""curiosity"":4,""confidence"":3}","[0,1]","../img/tt/1066tt.jpg","",""
"3248","","","recognition","survey-text","212","1378258","0.0-6.0-3.29","4063389","co37723","norming","","","{""guess"":""vrachtwagen""}","","../img/tt/1066tt.jpg","",""
"null","../img/gs/1066gs.jpg","null","reveal","image-keyboard-response","213","1380261","0.0-6.0-4.29","4063389","co37723","norming","","","","","","",""
"null","../img/tt/1066tt.jpg","null","mooney2","image-keyboard-response","214","1382264","0.0-6.0-5.29","4063389","co37723","norming","","","","","","",""
"2669","","","post_reveal_questions","survey-likert","215","1384935","0.0-6.0-6.29","4063389","co37723","norming","","","{""aha"":1}","[0]","../img/tt/1066tt.jpg","",""
"null","<div style=""font-size:60px;""> </div>","null","fixation","html-keyboard-response","216","1385139","0.0-6.0-0.30","4063389","co37723","norming","","","","","","",""
"null","../img/tt/517tt.jpg","null","mooney1","image-keyboard-response","217","1388142","0.0-6.0-1.30","4063389","co37723","norming","","","","","","",""
"6098","","","post_mooney1_questions","survey-likert","218","1394242","0.0-6.0-2.30","4063389","co37723","norming","","","{""curiosity"":4,""confidence"":2}","[0,1]","../img/tt/517tt.jpg","",""
"9526","","","recognition","survey-text","219","1403775","0.0-6.0-3.30","4063389","co37723","norming","","","{""guess"":""panda""}","","../img/tt/517tt.jpg","",""
"null","../img/gs/517gs.jpg","null","reveal","image-keyboard-response","220","1405779","0.0-6.0-4.30","4063389","co37723","norming","","","","","","",""
"null","../img/tt/517tt.jpg","null","mooney2","image-keyboard-response","221","1407780","0.0-6.0-5.30","4063389","co37723","norming","","","","","","",""
"3337","","","post_reveal_questions","survey-likert","222","1411119","0.0-6.0-6.30","4063389","co37723","norming","","","{""aha"":0}","[0]","../img/tt/517tt.jpg","",""
"null","<div style=""font-size:60px;""> </div>","null","fixation","html-keyboard-response","223","1411323","0.0-6.0-0.31","4063389","co37723","norming","","","","","","",""
"null","../img/tt/1130tt.jpg","null","mooney1","image-keyboard-response","224","1414326","0.0-6.0-1.31","4063389","co37723","norming","","","","","","",""
"6670","","","post_mooney1_questions","survey-likert","225","1420999","0.0-6.0-2.31","4063389","co37723","norming","","","{""curiosity"":4,""confidence"":4}","[0,1]","../img/tt/1130tt.jpg","",""
"2226","","","recognition","survey-text","226","1423233","0.0-6.0-3.31","4063389","co37723","norming","","","{""guess"":""fietser""}","","../img/tt/1130tt.jpg","",""
"null","../img/gs/1130gs.jpg","null","reveal","image-keyboard-response","227","1425236","0.0-6.0-4.31","4063389","co37723","norming","","","","","","",""
"null","../img/tt/1130tt.jpg","null","mooney2","image-keyboard-response","228","1427239","0.0-6.0-5.31","4063389","co37723","norming","","","","","","",""
"3366","","","post_reveal_questions","survey-likert","229","1430607","0.0-6.0-6.31","4063389","co37723","norming","","","{""aha"":0}","[0]","../img/tt/1130tt.jpg","",""
"null","<div style=""font-size:60px;""> </div>","null","fixation","html-keyboard-response","230","1430810","0.0-6.0-0.32","4063389","co37723","norming","","","","","","",""
"null","../img/tt/440tt.jpg","null","mooney1","image-keyboard-response","231","1433813","0.0-6.0-1.32","4063389","co37723","norming","","","","","","",""
"3981","","","post_mooney1_questions","survey-likert","232","1437797","0.0-6.0-2.32","4063389","co37723","norming","","","{""curiosity"":4,""confidence"":3}","[0,1]","../img/tt/440tt.jpg","",""
"1588.0000000002328","","","recognition","survey-text","233","1439393","0.0-6.0-3.32","4063389","co37723","norming","","","{""guess"":""boom""}","","../img/tt/440tt.jpg","",""
"null","../img/gs/440gs.jpg","null","reveal","image-keyboard-response","234","1441397","0.0-6.0-4.32","4063389","co37723","norming","","","","","","",""
"null","../img/tt/440tt.jpg","null","mooney2","image-keyboard-response","235","1443399","0.0-6.0-5.32","4063389","co37723","norming","","","","","","",""
"3336","","","post_reveal_questions","survey-likert","236","1446738","0.0-6.0-6.32","4063389","co37723","norming","","","{""aha"":3}","[0]","../img/tt/440tt.jpg","",""
"null","<div style=""font-size:60px;""> </div>","null","fixation","html-keyboard-response","237","1446988","0.0-6.0-0.33","4063389","co37723","norming","","","","","","",""
"null","../img/tt/1084tt.jpg","null","mooney1","image-keyboard-response","238","1449990","0.0-6.0-1.33","4063389","co37723","norming","","","","","","",""
"10596","","","post_mooney1_questions","survey-likert","239","1460590","0.0-6.0-2.33","4063389","co37723","norming","","","{""curiosity"":5,""confidence"":1}","[0,1]","../img/tt/1084tt.jpg","",""
"4800","","","recognition","survey-text","240","1465399","0.0-6.0-3.33","4063389","co37723","norming","","","{""guess"":""bord met blok kaas""}","","../img/tt/1084tt.jpg","",""
"null","../img/gs/1084gs.jpg","null","reveal","image-keyboard-response","241","1467402","0.0-6.0-4.33","4063389","co37723","norming","","","","","","",""
"null","../img/tt/1084tt.jpg","null","mooney2","image-keyboard-response","242","1469404","0.0-6.0-5.33","4063389","co37723","norming","","","","","","",""
"4277","","","post_reveal_questions","survey-likert","243","1473683","0.0-6.0-6.33","4063389","co37723","norming","","","{""aha"":3}","[0]","../img/tt/1084tt.jpg","",""
"null","<div style=""font-size:60px;""> </div>","null","fixation","html-keyboard-response","244","1473887","0.0-6.0-0.34","4063389","co37723","norming","","","","","","",""
"null","../img/tt/060tt.jpg","null","mooney1","image-keyboard-response","245","1476890","0.0-6.0-1.34","4063389","co37723","norming","","","","","","",""
"7770","","","post_mooney1_questions","survey-likert","246","1484661","0.0-6.0-2.34","4063389","co37723","norming","","","{""curiosity"":4,""confidence"":3}","[0,1]","../img/tt/060tt.jpg","",""
"1913","","","recognition","survey-text","247","1486580","0.0-6.0-3.34","4063389","co37723","norming","","","{""guess"":""brood""}","","../img/tt/060tt.jpg","",""
"null","../img/gs/060gs.jpg","null","reveal","image-keyboard-response","248","1488583","0.0-6.0-4.34","4063389","co37723","norming","","","","","","",""
"null","../img/tt/060tt.jpg","null","mooney2","image-keyboard-response","249","1490586","0.0-6.0-5.34","4063389","co37723","norming","","","","","","",""
"9641","","","post_reveal_questions","survey-likert","250","1500229","0.0-6.0-6.34","4063389","co37723","norming","","","{""aha"":2}","[0]","../img/tt/060tt.jpg","",""
"null","<div style=""font-size:60px;""> </div>","null","fixation","html-keyboard-response","251","1500433","0.0-6.0-0.35","4063389","co37723","norming","","","","","","",""
"null","../img/tt/1002tt.jpg","null","mooney1","image-keyboard-response","252","1503436","0.0-6.0-1.35","4063389","co37723","norming","","","","","","",""
"5875","","","post_mooney1_questions","survey-likert","253","1509313","0.0-6.0-2.35","4063389","co37723","norming","","","{""curiosity"":4,""confidence"":0}","[0,1]","../img/tt/1002tt.jpg","",""
"1729","","","recognition","survey-text","254","1511050","0.0-6.0-3.35","4063389","co37723","norming","","","{""guess"":""leeuw""}","","../img/tt/1002tt.jpg","",""
"null","../img/gs/1002gs.jpg","null","reveal","image-keyboard-response","255","1513052","0.0-6.0-4.35","4063389","co37723","norming","","","","","","",""
"null","../img/tt/1002tt.jpg","null","mooney2","image-keyboard-response","256","1515055","0.0-6.0-5.35","4063389","co37723","norming","","","","","","",""
"7386.000000000233","","","post_reveal_questions","survey-likert","257","1522443","0.0-6.0-6.35","4063389","co37723","norming","","","{""aha"":1}","[0]","../img/tt/1002tt.jpg","",""
"null","<div style=""font-size:60px;""> </div>","null","fixation","html-keyboard-response","258","1522645","0.0-6.0-0.36","4063389","co37723","norming","","","","","","",""
"null","../img/tt/1044tt.jpg","null","mooney1","image-keyboard-response","259","1525727","0.0-6.0-1.36","4063389","co37723","norming","","","","","","",""
"7035","","","post_mooney1_questions","survey-likert","260","1532764","0.0-6.0-2.36","4063389","co37723","norming","","","{""curiosity"":5,""confidence"":0}","[0,1]","../img/tt/1044tt.jpg","",""
"2111","","","recognition","survey-text","261","1534884","0.0-6.0-3.36","4063389","co37723","norming","","","{""guess"":""vlinder""}","","../img/tt/1044tt.jpg","",""
"null","../img/gs/1044gs.jpg","null","reveal","image-keyboard-response","262","1536889","0.0-6.0-4.36","4063389","co37723","norming","","","","","","",""
"null","../img/tt/1044tt.jpg","null","mooney2","image-keyboard-response","263","1538892","0.0-6.0-5.36","4063389","co37723","norming","","","","","","",""
"9475","","","post_reveal_questions","survey-likert","264","1548360","0.0-6.0-6.36","4063389","co37723","norming","","","{""aha"":0}","[0]","../img/tt/1044tt.jpg","",""
"null","<div style=""font-size:60px;""> </div>","null","fixation","html-keyboard-response","265","1548564","0.0-6.0-0.37","4063389","co37723","norming","","","","","","",""
"null","../img/tt/1091tt.jpg","null","mooney1","image-keyboard-response","266","1551564","0.0-6.0-1.37","4063389","co37723","norming","","","","","","",""
"3665.999999999767","","","post_mooney1_questions","survey-likert","267","1555230","0.0-6.0-2.37","4063389","co37723","norming","","","{""curiosity"":5,""confidence"":2}","[0,1]","../img/tt/1091tt.jpg","",""
"1868.9999999997672","","","recognition","survey-text","268","1557104","0.0-6.0-3.37","4063389","co37723","norming","","","{""guess"":""olifant""}","","../img/tt/1091tt.jpg","",""
"null","../img/gs/1091gs.jpg","null","reveal","image-keyboard-response","269","1559106","0.0-6.0-4.37","4063389","co37723","norming","","","","","","",""
"null","../img/tt/1091tt.jpg","null","mooney2","image-keyboard-response","270","1561108","0.0-6.0-5.37","4063389","co37723","norming","","","","","","",""
"3045.999999999767","","","post_reveal_questions","survey-likert","271","1564155","0.0-6.0-6.37","4063389","co37723","norming","","","{""aha"":4}","[0]","../img/tt/1091tt.jpg","",""
"null","<div style=""font-size:60px;""> </div>","null","fixation","html-keyboard-response","272","1564358","0.0-6.0-0.38","4063389","co37723","norming","","","","","","",""
"null","../img/tt/412tt.jpg","null","mooney1","image-keyboard-response","273","1567361","0.0-6.0-1.38","4063389","co37723","norming","","","","","","",""
"8977","","","post_mooney1_questions","survey-likert","274","1576339","0.0-6.0-2.38","4063389","co37723","norming","","","{""curiosity"":5,""confidence"":2}","[0,1]","../img/tt/412tt.jpg","",""
"4428.999999999767","","","recognition","survey-text","275","1580775","0.0-6.0-3.38","4063389","co37723","norming","","","{""guess"":""microscoop""}","","../img/tt/412tt.jpg","",""
"null","../img/gs/412gs.jpg","null","reveal","image-keyboard-response","276","1582778","0.0-6.0-4.38","4063389","co37723","norming","","","","","","",""
"null","../img/tt/412tt.jpg","null","mooney2","image-keyboard-response","277","1584780","0.0-6.0-5.38","4063389","co37723","norming","","","","","","",""
"28222","","","post_reveal_questions","survey-likert","278","1613004","0.0-6.0-6.38","4063389","co37723","norming","","","{""aha"":0}","[0]","../img/tt/412tt.jpg","",""
"null","<div style=""font-size:60px;""> </div>","null","fixation","html-keyboard-response","279","1613209","0.0-6.0-0.39","4063389","co37723","norming","","","","","","",""
"null","../img/tt/1053tt.jpg","null","mooney1","image-keyboard-response","280","1616212","0.0-6.0-1.39","4063389","co37723","norming","","","","","","",""
"18037","","","post_mooney1_questions","survey-likert","281","1634252","0.0-6.0-2.39","4063389","co37723","norming","","","{""curiosity"":4,""confidence"":0}","[0,1]","../img/tt/1053tt.jpg","",""
"5261","","","recognition","survey-text","282","1639521","0.0-6.0-3.39","4063389","co37723","norming","","","{""guess"":""ezel""}","","../img/tt/1053tt.jpg","",""
"null","../img/gs/1053gs.jpg","null","reveal","image-keyboard-response","283","1641524","0.0-6.0-4.39","4063389","co37723","norming","","","","","","",""
"null","../img/tt/1053tt.jpg","null","mooney2","image-keyboard-response","284","1643526","0.0-6.0-5.39","4063389","co37723","norming","","","","","","",""
"27952","","","post_reveal_questions","survey-likert","285","1671480","0.0-6.0-6.39","4063389","co37723","norming","","","{""aha"":0}","[0]","../img/tt/1053tt.jpg","",""
"null","<div style=""font-size:60px;""> </div>","null","fixation","html-keyboard-response","286","1671684","0.0-6.0-0.40","4063389","co37723","norming","","","","","","",""
"null","../img/tt/1102tt.jpg","null","mooney1","image-keyboard-response","287","1674687","0.0-6.0-1.40","4063389","co37723","norming","","","","","","",""
"7020","","","post_mooney1_questions","survey-likert","288","1681708","0.0-6.0-2.40","4063389","co37723","norming","","","{""curiosity"":4,""confidence"":2}","[0,1]","../img/tt/1102tt.jpg","",""
"2383","","","recognition","survey-text","289","1684095","0.0-6.0-3.40","4063389","co37723","norming","","","{""guess"":""schildpad""}","","../img/tt/1102tt.jpg","",""
"null","../img/gs/1102gs.jpg","null","reveal","image-keyboard-response","290","1686101","0.0-6.0-4.40","4063389","co37723","norming","","","","","","",""
"null","../img/tt/1102tt.jpg","null","mooney2","image-keyboard-response","291","1688103","0.0-6.0-5.40","4063389","co37723","norming","","","","","","",""
"6739","","","post_reveal_questions","survey-likert","292","1694844","0.0-6.0-6.40","4063389","co37723","norming","","","{""aha"":1}","[0]","../img/tt/1102tt.jpg","",""
"null","<div style=""font-size:60px;""> </div>","null","fixation","html-keyboard-response","293","1695048","0.0-6.0-0.41","4063389","co37723","norming","","","","","","",""
"null","../img/tt/123tt.jpg","null","mooney1","image-keyboard-response","294","1698050","0.0-6.0-1.41","4063389","co37723","norming","","","","","","",""
"9492","","","post_mooney1_questions","survey-likert","295","1707545","0.0-6.0-2.41","4063389","co37723","norming","","","{""curiosity"":4,""confidence"":1}","[0,1]","../img/tt/123tt.jpg","",""
"2602.000000000233","","","recognition","survey-text","296","1710155","0.0-6.0-3.41","4063389","co37723","norming","","","{""guess"":""boekentas""}","","../img/tt/123tt.jpg","",""
"null","../img/gs/123gs.jpg","null","reveal","image-keyboard-response","297","1712158","0.0-6.0-4.41","4063389","co37723","norming","","","","","","",""
"null","../img/tt/123tt.jpg","null","mooney2","image-keyboard-response","298","1714161","0.0-6.0-5.41","4063389","co37723","norming","","","","","","",""
"4304","","","post_reveal_questions","survey-likert","299","1718467","0.0-6.0-6.41","4063389","co37723","norming","","","{""aha"":0}","[0]","../img/tt/123tt.jpg","",""
"null","<div style=""font-size:60px;""> </div>","null","fixation","html-keyboard-response","300","1718670","0.0-6.0-0.42","4063389","co37723","norming","","","","","","",""
"null","../img/tt/522tt.jpg","null","mooney1","image-keyboard-response","301","1721673","0.0-6.0-1.42","4063389","co37723","norming","","","","","","",""
"5038","","","post_mooney1_questions","survey-likert","302","1726714","0.0-6.0-2.42","4063389","co37723","norming","","","{""curiosity"":4,""confidence"":2}","[0,1]","../img/tt/522tt.jpg","",""
"11448","","","recognition","survey-text","303","1738170","0.0-6.0-3.42","4063389","co37723","norming","","","{""guess"":""bloem""}","","../img/tt/522tt.jpg","",""
"null","../img/gs/522gs.jpg","null","reveal","image-keyboard-response","304","1740173","0.0-6.0-4.42","4063389","co37723","norming","","","","","","",""
"null","../img/tt/522tt.jpg","null","mooney2","image-keyboard-response","305","1742175","0.0-6.0-5.42","4063389","co37723","norming","","","","","","",""
"2704","","","post_reveal_questions","survey-likert","306","1744882","0.0-6.0-6.42","4063389","co37723","norming","","","{""aha"":3}","[0]","../img/tt/522tt.jpg","",""
"null","<div style=""font-size:60px;""> </div>","null","fixation","html-keyboard-response","307","1745085","0.0-6.0-0.43","4063389","co37723","norming","","","","","","",""
"null","../img/tt/007tt.jpg","null","mooney1","image-keyboard-response","308","1748089","0.0-6.0-1.43","4063389","co37723","norming","","","","","","",""
"6041","","","post_mooney1_questions","survey-likert","309","1754132","0.0-6.0-2.43","4063389","co37723","norming","","","{""curiosity"":4,""confidence"":6}","[0,1]","../img/tt/007tt.jpg","",""
"1969.0000000002328","","","recognition","survey-text","310","1756109","0.0-6.0-3.43","4063389","co37723","norming","","","{""guess"":""kikker""}","","../img/tt/007tt.jpg","",""
"null","../img/gs/007gs.jpg","null","reveal","image-keyboard-response","311","1758112","0.0-6.0-4.43","4063389","co37723","norming","","","","","","",""
"null","../img/tt/007tt.jpg","null","mooney2","image-keyboard-response","312","1760115","0.0-6.0-5.43","4063389","co37723","norming","","","","","","",""
"2711","","","post_reveal_questions","survey-likert","313","1762828","0.0-6.0-6.43","4063389","co37723","norming","","","{""aha"":0}","[0]","../img/tt/007tt.jpg","",""
"null","<div style=""font-size:60px;""> </div>","null","fixation","html-keyboard-response","314","1763031","0.0-6.0-0.44","4063389","co37723","norming","","","","","","",""
"null","../img/tt/1107tt.jpg","null","mooney1","image-keyboard-response","315","1766034","0.0-6.0-1.44","4063389","co37723","norming","","","","","","",""
"5169.000000000233","","","post_mooney1_questions","survey-likert","316","1771205","0.0-6.0-2.44","4063389","co37723","norming","","","{""curiosity"":5,""confidence"":0}","[0,1]","../img/tt/1107tt.jpg","",""
"1330.9999999997672","","","recognition","survey-text","317","1772545","0.0-6.0-3.44","4063389","co37723","norming","","","{""guess"":""kat""}","","../img/tt/1107tt.jpg","",""
"null","../img/gs/1107gs.jpg","null","reveal","image-keyboard-response","318","1774547","0.0-6.0-4.44","4063389","co37723","norming","","","","","","",""
"null","../img/tt/1107tt.jpg","null","mooney2","image-keyboard-response","319","1776549","0.0-6.0-5.44","4063389","co37723","norming","","","","","","",""
"4427.999999999767","","","post_reveal_questions","survey-likert","320","1780979","0.0-6.0-6.44","4063389","co37723","norming","","","{""aha"":2}","[0]","../img/tt/1107tt.jpg","",""
"null","<div style=""font-size:60px;""> </div>","null","fixation","html-keyboard-response","321","1781184","0.0-6.0-0.45","4063389","co37723","norming","","","","","","",""
"null","../img/tt/1043tt.jpg","null","mooney1","image-keyboard-response","322","1784186","0.0-6.0-1.45","4063389","co37723","norming","","","","","","",""
"7857","","","post_mooney1_questions","survey-likert","323","1792045","0.0-6.0-2.45","4063389","co37723","norming","","","{""curiosity"":6,""confidence"":1}","[0,1]","../img/tt/1043tt.jpg","",""
"5895","","","recognition","survey-text","324","1797949","0.0-6.0-3.45","4063389","co37723","norming","","","{""guess"":""bord met een broodje""}","","../img/tt/1043tt.jpg","",""
"null","../img/gs/1043gs.jpg","null","reveal","image-keyboard-response","325","1799952","0.0-6.0-4.45","4063389","co37723","norming","","","","","","",""
"null","../img/tt/1043tt.jpg","null","mooney2","image-keyboard-response","326","1801954","0.0-6.0-5.45","4063389","co37723","norming","","","","","","",""
"10972.999999999767","","","post_reveal_questions","survey-likert","327","1812929","0.0-6.0-6.45","4063389","co37723","norming","","","{""aha"":1}","[0]","../img/tt/1043tt.jpg","",""
"null","<div style=""font-size:60px;""> </div>","null","fixation","html-keyboard-response","328","1813133","0.0-6.0-0.46","4063389","co37723","norming","","","","","","",""
"null","../img/tt/1196tt.jpg","null","mooney1","image-keyboard-response","329","1816136","0.0-6.0-1.46","4063389","co37723","norming","","","","","","",""
"3500.999999999767","","","post_mooney1_questions","survey-likert","330","1819640","0.0-6.0-2.46","4063389","co37723","norming","","","{""curiosity"":5,""confidence"":0}","[0,1]","../img/tt/1196tt.jpg","",""
"538","","","recognition","survey-text","331","1820186","0.0-6.0-3.46","4063389","co37723","norming","","","{""guess"":""""}","","../img/tt/1196tt.jpg","",""
"null","../img/gs/1196gs.jpg","null","reveal","image-keyboard-response","332","1822189","0.0-6.0-4.46","4063389","co37723","norming","","","","","","",""
"null","../img/tt/1196tt.jpg","null","mooney2","image-keyboard-response","333","1824192","0.0-6.0-5.46","4063389","co37723","norming","","","","","","",""
"3550","","","post_reveal_questions","survey-likert","334","1827743","0.0-6.0-6.46","4063389","co37723","norming","","","{""aha"":0}","[0]","../img/tt/1196tt.jpg","",""
"null","<div style=""font-size:60px;""> </div>","null","fixation","html-keyboard-response","335","1827946","0.0-6.0-0.47","4063389","co37723","norming","","","","","","",""
"null","../img/tt/1154tt.jpg","null","mooney1","image-keyboard-response","336","1830948","0.0-6.0-1.47","4063389","co37723","norming","","","","","","",""
"3699.000000000233","","","post_mooney1_questions","survey-likert","337","1834649","0.0-6.0-2.47","4063389","co37723","norming","","","{""curiosity"":5,""confidence"":3}","[0,1]","../img/tt/1154tt.jpg","",""
"8316","","","recognition","survey-text","338","1842973","0.0-6.0-3.47","4063389","co37723","norming","","","{""guess"":""kayaker ""}","","../img/tt/1154tt.jpg","",""
"null","../img/gs/1154gs.jpg","null","reveal","image-keyboard-response","339","1844975","0.0-6.0-4.47","4063389","co37723","norming","","","","","","",""
"null","../img/tt/1154tt.jpg","null","mooney2","image-keyboard-response","340","1846978","0.0-6.0-5.47","4063389","co37723","norming","","","","","","",""
"2842","","","post_reveal_questions","survey-likert","341","1849824","0.0-6.0-6.47","4063389","co37723","norming","","","{""aha"":1}","[0]","../img/tt/1154tt.jpg","",""
"null","<div style=""font-size:60px;""> </div>","null","fixation","html-keyboard-response","342","1850028","0.0-6.0-0.48","4063389","co37723","norming","","","","","","",""
"null","../img/tt/1151tt.jpg","null","mooney1","image-keyboard-response","343","1853031","0.0-6.0-1.48","4063389","co37723","norming","","","","","","",""
"5265.999999999767","","","post_mooney1_questions","survey-likert","344","1858299","0.0-6.0-2.48","4063389","co37723","norming","","","{""curiosity"":5,""confidence"":0}","[0,1]","../img/tt/1151tt.jpg","",""
"2279","","","recognition","survey-text","345","1860587","0.0-6.0-3.48","4063389","co37723","norming","","","{""guess"":""giraf""}","","../img/tt/1151tt.jpg","",""
"null","../img/gs/1151gs.jpg","null","reveal","image-keyboard-response","346","1862589","0.0-6.0-4.48","4063389","co37723","norming","","","","","","",""
"null","../img/tt/1151tt.jpg","null","mooney2","image-keyboard-response","347","1864592","0.0-6.0-5.48","4063389","co37723","norming","","","","","","",""
"4642.000000000233","","","post_reveal_questions","survey-likert","348","1869236","0.0-6.0-6.48","4063389","co37723","norming","","","{""aha"":0}","[0]","../img/tt/1151tt.jpg","",""
"null","<div style=""font-size:60px;""> </div>","null","fixation","html-keyboard-response","349","1869440","0.0-6.0-0.49","4063389","co37723","norming","","","","","","",""
"null","../img/tt/098tt.jpg","null","mooney1","image-keyboard-response","350","1872443","0.0-6.0-1.49","4063389","co37723","norming","","","","","","",""
"13097","","","post_mooney1_questions","survey-likert","351","1885544","0.0-6.0-2.49","4063389","co37723","norming","","","{""curiosity"":5,""confidence"":0}","[0,1]","../img/tt/098tt.jpg","",""
"2905.999999999767","","","recognition","survey-text","352","1888460","0.0-6.0-3.49","4063389","co37723","norming","","","{""guess"":""mensen""}","","../img/tt/098tt.jpg","",""
"null","../img/gs/098gs.jpg","null","reveal","image-keyboard-response","353","1890464","0.0-6.0-4.49","4063389","co37723","norming","","","","","","",""
"null","../img/tt/098tt.jpg","null","mooney2","image-keyboard-response","354","1892466","0.0-6.0-5.49","4063389","co37723","norming","","","","","","",""
"4187","","","post_reveal_questions","survey-likert","355","1896655","0.0-6.0-6.49","4063389","co37723","norming","","","{""aha"":0}","[0]","../img/tt/098tt.jpg","",""
"null","<div style=""font-size:60px;""> </div>","null","fixation","html-keyboard-response","356","1896859","0.0-6.0-0.50","4063389","co37723","norming","","","","","","",""
"null","../img/tt/1142tt.jpg","null","mooney1","image-keyboard-response","357","1899862","0.0-6.0-1.50","4063389","co37723","norming","","","","","","",""
"4031","","","post_mooney1_questions","survey-likert","358","1903896","0.0-6.0-2.50","4063389","co37723","norming","","","{""curiosity"":5,""confidence"":3}","[0,1]","../img/tt/1142tt.jpg","",""
"3417","","","recognition","survey-text","359","1907321","0.0-6.0-3.50","4063389","co37723","norming","","","{""guess"":""lopen""}","","../img/tt/1142tt.jpg","",""
"null","../img/gs/1142gs.jpg","null","reveal","image-keyboard-response","360","1909324","0.0-6.0-4.50","4063389","co37723","norming","","","","","","",""
"null","../img/tt/1142tt.jpg","null","mooney2","image-keyboard-response","361","1911327","0.0-6.0-5.50","4063389","co37723","norming","","","","","","",""
"85647","","","post_reveal_questions","survey-likert","362","1996978","0.0-6.0-6.50","4063389","co37723","norming","","","{""aha"":2}","[0]","../img/tt/1142tt.jpg","",""
"null","<div style=""font-size:60px;""> </div>","null","fixation","html-keyboard-response","363","1997183","0.0-6.0-0.51","4063389","co37723","norming","","","","","","",""
"null","../img/tt/273tt.jpg","null","mooney1","image-keyboard-response","364","2000186","0.0-6.0-1.51","4063389","co37723","norming","","","","","","",""
"4427.000000000233","","","post_mooney1_questions","survey-likert","365","2004615","0.0-6.0-2.51","4063389","co37723","norming","","","{""curiosity"":4,""confidence"":0}","[0,1]","../img/tt/273tt.jpg","",""
"915.0000000002328","","","recognition","survey-text","366","2005538","0.0-6.0-3.51","4063389","co37723","norming","","","{""guess"":""""}","","../img/tt/273tt.jpg","",""
"null","../img/gs/273gs.jpg","null","reveal","image-keyboard-response","367","2007541","0.0-6.0-4.51","4063389","co37723","norming","","","","","","",""
"null","../img/tt/273tt.jpg","null","mooney2","image-keyboard-response","368","2009544","0.0-6.0-5.51","4063389","co37723","norming","","","","","","",""
"1806","","","post_reveal_questions","survey-likert","369","2011352","0.0-6.0-6.51","4063389","co37723","norming","","","{""aha"":5}","[0]","../img/tt/273tt.jpg","",""
"null","<div style=""font-size:60px;""> </div>","null","fixation","html-keyboard-response","370","2011557","0.0-6.0-0.52","4063389","co37723","norming","","","","","","",""
"null","../img/tt/357tt.jpg","null","mooney1","image-keyboard-response","371","2014561","0.0-6.0-1.52","4063389","co37723","norming","","","","","","",""
"5067","","","post_mooney1_questions","survey-likert","372","2019630","0.0-6.0-2.52","4063389","co37723","norming","","","{""curiosity"":5,""confidence"":1}","[0,1]","../img/tt/357tt.jpg","",""
"1513.0000000002328","","","recognition","survey-text","373","2021153","0.0-6.0-3.52","4063389","co37723","norming","","","{""guess"":""egel""}","","../img/tt/357tt.jpg","",""
"null","../img/gs/357gs.jpg","null","reveal","image-keyboard-response","374","2023156","0.0-6.0-4.52","4063389","co37723","norming","","","","","","",""
"null","../img/tt/357tt.jpg","null","mooney2","image-keyboard-response","375","2025159","0.0-6.0-5.52","4063389","co37723","norming","","","","","","",""
"1910","","","post_reveal_questions","survey-likert","376","2027071","0.0-6.0-6.52","4063389","co37723","norming","","","{""aha"":1}","[0]","../img/tt/357tt.jpg","",""
"null","<div style=""font-size:60px;""> </div>","null","fixation","html-keyboard-response","377","2027274","0.0-6.0-0.53","4063389","co37723","norming","","","","","","",""
"null","../img/tt/1270tt.jpg","null","mooney1","image-keyboard-response","378","2030277","0.0-6.0-1.53","4063389","co37723","norming","","","","","","",""
"24846","","","post_mooney1_questions","survey-likert","379","2055127","0.0-6.0-2.53","4063389","co37723","norming","","","{""curiosity"":5,""confidence"":1}","[0,1]","../img/tt/1270tt.jpg","",""
"12880","","","recognition","survey-text","380","2068015","0.0-6.0-3.53","4063389","co37723","norming","","","{""guess"":""ardvark""}","","../img/tt/1270tt.jpg","",""
"null","../img/gs/1270gs.jpg","null","reveal","image-keyboard-response","381","2070018","0.0-6.0-4.53","4063389","co37723","norming","","","","","","",""
"null","../img/tt/1270tt.jpg","null","mooney2","image-keyboard-response","382","2072021","0.0-6.0-5.53","4063389","co37723","norming","","","","","","",""
"2992.000000000233","","","post_reveal_questions","survey-likert","383","2075015","0.0-6.0-6.53","4063389","co37723","norming","","","{""aha"":3}","[0]","../img/tt/1270tt.jpg","",""
"null","<div style=""font-size:60px;""> </div>","null","fixation","html-keyboard-response","384","2075219","0.0-6.0-0.54","4063389","co37723","norming","","","","","","",""
"null","../img/tt/1224tt.jpg","null","mooney1","image-keyboard-response","385","2078221","0.0-6.0-1.54","4063389","co37723","norming","","","","","","",""
"5029.999999999767","","","post_mooney1_questions","survey-likert","386","2083254","0.0-6.0-2.54","4063389","co37723","norming","","","{""curiosity"":5,""confidence"":1}","[0,1]","../img/tt/1224tt.jpg","",""
"2715.000000000233","","","recognition","survey-text","387","2085978","0.0-6.0-3.54","4063389","co37723","norming","","","{""guess"":""karate""}","","../img/tt/1224tt.jpg","",""
"null","../img/gs/1224gs.jpg","null","reveal","image-keyboard-response","388","2087981","0.0-6.0-4.54","4063389","co37723","norming","","","","","","",""
"null","../img/tt/1224tt.jpg","null","mooney2","image-keyboard-response","389","2089984","0.0-6.0-5.54","4063389","co37723","norming","","","","","","",""
"14701.999999999767","","","post_reveal_questions","survey-likert","390","2104689","0.0-6.0-6.54","4063389","co37723","norming","","","{""aha"":2}","[0]","../img/tt/1224tt.jpg","",""
"null","<div style=""font-size:60px;""> </div>","null","fixation","html-keyboard-response","391","2104892","0.0-6.0-0.55","4063389","co37723","norming","","","","","","",""
"null","../img/tt/1171tt.jpg","null","mooney1","image-keyboard-response","392","2107894","0.0-6.0-1.55","4063389","co37723","norming","","","","","","",""
"10926","","","post_mooney1_questions","survey-likert","393","2118822","0.0-6.0-2.55","4063389","co37723","norming","","","{""curiosity"":5,""confidence"":0}","[0,1]","../img/tt/1171tt.jpg","",""
"1964.0000000004657","","","recognition","survey-text","394","2120795","0.0-6.0-3.55","4063389","co37723","norming","","","{""guess"":""insect""}","","../img/tt/1171tt.jpg","",""
"null","../img/gs/1171gs.jpg","null","reveal","image-keyboard-response","395","2122798","0.0-6.0-4.55","4063389","co37723","norming","","","","","","",""
"null","../img/tt/1171tt.jpg","null","mooney2","image-keyboard-response","396","2124801","0.0-6.0-5.55","4063389","co37723","norming","","","","","","",""
"5886","","","post_reveal_questions","survey-likert","397","2130689","0.0-6.0-6.55","4063389","co37723","norming","","","{""aha"":0}","[0]","../img/tt/1171tt.jpg","",""
"null","<div style=""font-size:60px;""> </div>","null","fixation","html-keyboard-response","398","2130892","0.0-6.0-0.56","4063389","co37723","norming","","","","","","",""
"null","../img/tt/079tt.jpg","null","mooney1","image-keyboard-response","399","2133895","0.0-6.0-1.56","4063389","co37723","norming","","","","","","",""
"5536","","","post_mooney1_questions","survey-likert","400","2139434","0.0-6.0-2.56","4063389","co37723","norming","","","{""curiosity"":5,""confidence"":5}","[0,1]","../img/tt/079tt.jpg","",""
"1466","","","recognition","survey-text","401","2140908","0.0-6.0-3.56","4063389","co37723","norming","","","{""guess"":""beer""}","","../img/tt/079tt.jpg","",""
"null","../img/gs/079gs.jpg","null","reveal","image-keyboard-response","402","2142911","0.0-6.0-4.56","4063389","co37723","norming","","","","","","",""
"null","../img/tt/079tt.jpg","null","mooney2","image-keyboard-response","403","2144914","0.0-6.0-5.56","4063389","co37723","norming","","","","","","",""
"3509","","","post_reveal_questions","survey-likert","404","2148425","0.0-6.0-6.56","4063389","co37723","norming","","","{""aha"":0}","[0]","../img/tt/079tt.jpg","",""
"null","<div style=""font-size:60px;""> </div>","null","fixation","html-keyboard-response","405","2148629","0.0-6.0-0.57","4063389","co37723","norming","","","","","","",""
"null","../img/tt/1004tt.jpg","null","mooney1","image-keyboard-response","406","2151632","0.0-6.0-1.57","4063389","co37723","norming","","","","","","",""
"3901","","","post_mooney1_questions","survey-likert","407","2155538","0.0-6.0-2.57","4063389","co37723","norming","","","{""curiosity"":5,""confidence"":4}","[0,1]","../img/tt/1004tt.jpg","",""
"1658","","","recognition","survey-text","408","2157205","0.0-6.0-3.57","4063389","co37723","norming","","","{""guess"":""beer""}","","../img/tt/1004tt.jpg","",""
"null","../img/gs/1004gs.jpg","null","reveal","image-keyboard-response","409","2159208","0.0-6.0-4.57","4063389","co37723","norming","","","","","","",""
"null","../img/tt/1004tt.jpg","null","mooney2","image-keyboard-response","410","2161210","0.0-6.0-5.57","4063389","co37723","norming","","","","","","",""
"9283","","","post_reveal_questions","survey-likert","411","2170495","0.0-6.0-6.57","4063389","co37723","norming","","","{""aha"":3}","[0]","../img/tt/1004tt.jpg","",""
"null","<div style=""font-size:60px;""> </div>","null","fixation","html-keyboard-response","412","2170700","0.0-6.0-0.58","4063389","co37723","norming","","","","","","",""
"null","../img/tt/040tt.jpg","null","mooney1","image-keyboard-response","413","2173703","0.0-6.0-1.58","4063389","co37723","norming","","","","","","",""
"21266","","","post_mooney1_questions","survey-likert","414","2194972","0.0-6.0-2.58","4063389","co37723","norming","","","{""curiosity"":5,""confidence"":0}","[0,1]","../img/tt/040tt.jpg","",""
"1047.9999999995343","","","recognition","survey-text","415","2196028","0.0-6.0-3.58","4063389","co37723","norming","","","{""guess"":""kat""}","","../img/tt/040tt.jpg","",""
"null","../img/gs/040gs.jpg","null","reveal","image-keyboard-response","416","2198031","0.0-6.0-4.58","4063389","co37723","norming","","","","","","",""
"null","../img/tt/040tt.jpg","null","mooney2","image-keyboard-response","417","2200034","0.0-6.0-5.58","4063389","co37723","norming","","","","","","",""
"2996","","","post_reveal_questions","survey-likert","418","2203032","0.0-6.0-6.58","4063389","co37723","norming","","","{""aha"":2}","[0]","../img/tt/040tt.jpg","",""
"null","<div style=""font-size:60px;""> </div>","null","fixation","html-keyboard-response","419","2203236","0.0-6.0-0.59","4063389","co37723","norming","","","","","","",""
"null","../img/tt/1283tt.jpg","null","mooney1","image-keyboard-response","420","2206239","0.0-6.0-1.59","4063389","co37723","norming","","","","","","",""
"4755","","","post_mooney1_questions","survey-likert","421","2210997","0.0-6.0-2.59","4063389","co37723","norming","","","{""curiosity"":6,""confidence"":0}","[0,1]","../img/tt/1283tt.jpg","",""
"1023","","","recognition","survey-text","422","2212028","0.0-6.0-3.59","4063389","co37723","norming","","","{""guess"":""""}","","../img/tt/1283tt.jpg","",""
"null","../img/gs/1283gs.jpg","null","reveal","image-keyboard-response","423","2214031","0.0-6.0-4.59","4063389","co37723","norming","","","","","","",""
"null","../img/tt/1283tt.jpg","null","mooney2","image-keyboard-response","424","2216033","0.0-6.0-5.59","4063389","co37723","norming","","","","","","",""
"3177","","","post_reveal_questions","survey-likert","425","2219213","0.0-6.0-6.59","4063389","co37723","norming","","","{""aha"":1}","[0]","../img/tt/1283tt.jpg","",""
"null","<div style=""font-size:60px;""> </div>","null","fixation","html-keyboard-response","426","2219416","0.0-6.0-0.60","4063389","co37723","norming","","","","","","",""
"null","../img/tt/559tt.jpg","null","mooney1","image-keyboard-response","427","2222419","0.0-6.0-1.60","4063389","co37723","norming","","","","","","",""
"5901","","","post_mooney1_questions","survey-likert","428","2228323","0.0-6.0-2.60","4063389","co37723","norming","","","{""curiosity"":5,""confidence"":5}","[0,1]","../img/tt/559tt.jpg","",""
"2735","","","recognition","survey-text","429","2231067","0.0-6.0-3.60","4063389","co37723","norming","","","{""guess"":""naaimachine""}","","../img/tt/559tt.jpg","",""
"null","../img/gs/559gs.jpg","null","reveal","image-keyboard-response","430","2233070","0.0-6.0-4.60","4063389","co37723","norming","","","","","","",""
"null","../img/tt/559tt.jpg","null","mooney2","image-keyboard-response","431","2235072","0.0-6.0-5.60","4063389","co37723","norming","","","","","","",""
"32101","","","post_reveal_questions","survey-likert","432","2267176","0.0-6.0-6.60","4063389","co37723","norming","","","{""aha"":0}","[0]","../img/tt/559tt.jpg","",""
"null","<div style=""font-size:60px;""> </div>","null","fixation","html-keyboard-response","433","2267380","0.0-6.0-0.61","4063389","co37723","norming","","","","","","",""
"null","../img/tt/1226tt.jpg","null","mooney1","image-keyboard-response","434","2270383","0.0-6.0-1.61","4063389","co37723","norming","","","","","","",""
"11190.999999999534","","","post_mooney1_questions","survey-likert","435","2281577","0.0-6.0-2.61","4063389","co37723","norming","","","{""curiosity"":5,""confidence"":1}","[0,1]","../img/tt/1226tt.jpg","",""
"4242.000000000466","","","recognition","survey-text","436","2285828","0.0-6.0-3.61","4063389","co37723","norming","","","{""guess"":""chameleon""}","","../img/tt/1226tt.jpg","",""
"null","../img/gs/1226gs.jpg","null","reveal","image-keyboard-response","437","2287832","0.0-6.0-4.61","4063389","co37723","norming","","","","","","",""
"null","../img/tt/1226tt.jpg","null","mooney2","image-keyboard-response","438","2289834","0.0-6.0-5.61","4063389","co37723","norming","","","","","","",""
"3739","","","post_reveal_questions","survey-likert","439","2293575","0.0-6.0-6.61","4063389","co37723","norming","","","{""aha"":3}","[0]","../img/tt/1226tt.jpg","",""
"null","<div style=""font-size:60px;""> </div>","null","fixation","html-keyboard-response","440","2293780","0.0-6.0-0.62","4063389","co37723","norming","","","","","","",""
"null","../img/tt/1262tt.jpg","null","mooney1","image-keyboard-response","441","2296783","0.0-6.0-1.62","4063389","co37723","norming","","","","","","",""
"3581.0000000004657","","","post_mooney1_questions","survey-likert","442","2300366","0.0-6.0-2.62","4063389","co37723","norming","","","{""curiosity"":5,""confidence"":3}","[0,1]","../img/tt/1262tt.jpg","",""
"2345","","","recognition","survey-text","443","2302721","0.0-6.0-3.62","4063389","co37723","norming","","","{""guess"":""vogel""}","","../img/tt/1262tt.jpg","",""
"null","../img/gs/1262gs.jpg","null","reveal","image-keyboard-response","444","2304723","0.0-6.0-4.62","4063389","co37723","norming","","","","","","",""
"null","../img/tt/1262tt.jpg","null","mooney2","image-keyboard-response","445","2306726","0.0-6.0-5.62","4063389","co37723","norming","","","","","","",""
"2999","","","post_reveal_questions","survey-likert","446","2309728","0.0-6.0-6.62","4063389","co37723","norming","","","{""aha"":0}","[0]","../img/tt/1262tt.jpg","",""
"null","<div style=""font-size:60px;""> </div>","null","fixation","html-keyboard-response","447","2309932","0.0-6.0-0.63","4063389","co37723","norming","","","","","","",""
"null","../img/tt/468tt.jpg","null","mooney1","image-keyboard-response","448","2312935","0.0-6.0-1.63","4063389","co37723","norming","","","","","","",""
"27910","","","post_mooney1_questions","survey-likert","449","2340847","0.0-6.0-2.63","4063389","co37723","norming","","","{""curiosity"":4,""confidence"":0}","[0,1]","../img/tt/468tt.jpg","",""
"1465.0000000004657","","","recognition","survey-text","450","2342321","0.0-6.0-3.63","4063389","co37723","norming","","","{""guess"":""""}","","../img/tt/468tt.jpg","",""
"null","../img/gs/468gs.jpg","null","reveal","image-keyboard-response","451","2344323","0.0-6.0-4.63","4063389","co37723","norming","","","","","","",""
"null","../img/tt/468tt.jpg","null","mooney2","image-keyboard-response","452","2346326","0.0-6.0-5.63","4063389","co37723","norming","","","","","","",""
"2091","","","post_reveal_questions","survey-likert","453","2348420","0.0-6.0-6.63","4063389","co37723","norming","","","{""aha"":3}","[0]","../img/tt/468tt.jpg","",""
"null","<div style=""font-size:60px;""> </div>","null","fixation","html-keyboard-response","454","2348624","0.0-6.0-0.64","4063389","co37723","norming","","","","","","",""
"null","../img/tt/1027tt.jpg","null","mooney1","image-keyboard-response","455","2351627","0.0-6.0-1.64","4063389","co37723","norming","","","","","","",""
"9162","","","post_mooney1_questions","survey-likert","456","2360791","0.0-6.0-2.64","4063389","co37723","norming","","","{""curiosity"":5,""confidence"":1}","[0,1]","../img/tt/1027tt.jpg","",""
"1547","","","recognition","survey-text","457","2362346","0.0-6.0-3.64","4063389","co37723","norming","","","{""guess"":""koe""}","","../img/tt/1027tt.jpg","",""
"null","../img/gs/1027gs.jpg","null","reveal","image-keyboard-response","458","2364348","0.0-6.0-4.64","4063389","co37723","norming","","","","","","",""
"null","../img/tt/1027tt.jpg","null","mooney2","image-keyboard-response","459","2366351","0.0-6.0-5.64","4063389","co37723","norming","","","","","","",""
"4908","","","post_reveal_questions","survey-likert","460","2371261","0.0-6.0-6.64","4063389","co37723","norming","","","{""aha"":1}","[0]","../img/tt/1027tt.jpg","",""
"null","<div style=""font-size:60px;""> </div>","null","fixation","html-keyboard-response","461","2371464","0.0-6.0-0.65","4063389","co37723","norming","","","","","","",""
"null","../img/tt/063tt.jpg","null","mooney1","image-keyboard-response","462","2374467","0.0-6.0-1.65","4063389","co37723","norming","","","","","","",""
"5549","","","post_mooney1_questions","survey-likert","463","2380019","0.0-6.0-2.65","4063389","co37723","norming","","","{""curiosity"":5,""confidence"":5}","[0,1]","../img/tt/063tt.jpg","",""
"6117","","","recognition","survey-text","464","2386145","0.0-6.0-3.65","4063389","co37723","norming","","","{""guess"":""accordion ""}","","../img/tt/063tt.jpg","",""
"null","../img/gs/063gs.jpg","null","reveal","image-keyboard-response","465","2388147","0.0-6.0-4.65","4063389","co37723","norming","","","","","","",""
"null","../img/tt/063tt.jpg","null","mooney2","image-keyboard-response","466","2390150","0.0-6.0-5.65","4063389","co37723","norming","","","","","","",""
"3142","","","post_reveal_questions","survey-likert","467","2393295","0.0-6.0-6.65","4063389","co37723","norming","","","{""aha"":0}","[0]","../img/tt/063tt.jpg","",""
"null","<div style=""font-size:60px;""> </div>","null","fixation","html-keyboard-response","468","2393500","0.0-6.0-0.66","4063389","co37723","norming","","","","","","",""
"null","../img/tt/1146tt.jpg","null","mooney1","image-keyboard-response","469","2396503","0.0-6.0-1.66","4063389","co37723","norming","","","","","","",""
"6216","","","post_mooney1_questions","survey-likert","470","2402721","0.0-6.0-2.66","4063389","co37723","norming","","","{""curiosity"":5,""confidence"":1}","[0,1]","../img/tt/1146tt.jpg","",""
"1815","","","recognition","survey-text","471","2404545","0.0-6.0-3.66","4063389","co37723","norming","","","{""guess"":""vissen""}","","../img/tt/1146tt.jpg","",""
"null","../img/gs/1146gs.jpg","null","reveal","image-keyboard-response","472","2406548","0.0-6.0-4.66","4063389","co37723","norming","","","","","","",""
"null","../img/tt/1146tt.jpg","null","mooney2","image-keyboard-response","473","2408552","0.0-6.0-5.66","4063389","co37723","norming","","","","","","",""
"5123.000000000466","","","post_reveal_questions","survey-likert","474","2413678","0.0-6.0-6.66","4063389","co37723","norming","","","{""aha"":2}","[0]","../img/tt/1146tt.jpg","",""
"null","<div style=""font-size:60px;""> </div>","null","fixation","html-keyboard-response","475","2413882","0.0-6.0-0.67","4063389","co37723","norming","","","","","","",""
"null","../img/tt/1096tt.jpg","null","mooney1","image-keyboard-response","476","2416885","0.0-6.0-1.67","4063389","co37723","norming","","","","","","",""
"8442","","","post_mooney1_questions","survey-likert","477","2425330","0.0-6.0-2.67","4063389","co37723","norming","","","{""curiosity"":5,""confidence"":1}","[0,1]","../img/tt/1096tt.jpg","",""
"1145","","","recognition","survey-text","478","2426483","0.0-6.0-3.67","4063389","co37723","norming","","","{""guess"":""kamer""}","","../img/tt/1096tt.jpg","",""
"null","../img/gs/1096gs.jpg","null","reveal","image-keyboard-response","479","2428485","0.0-6.0-4.67","4063389","co37723","norming","","","","","","",""
"null","../img/tt/1096tt.jpg","null","mooney2","image-keyboard-response","480","2430488","0.0-6.0-5.67","4063389","co37723","norming","","","","","","",""
"13802","","","post_reveal_questions","survey-likert","481","2444292","0.0-6.0-6.67","4063389","co37723","norming","","","{""aha"":1}","[0]","../img/tt/1096tt.jpg","",""
"null","<div style=""font-size:60px;""> </div>","null","fixation","html-keyboard-response","482","2444496","0.0-6.0-0.68","4063389","co37723","norming","","","","","","",""
"null","../img/tt/055tt.jpg","null","mooney1","image-keyboard-response","483","2447499","0.0-6.0-1.68","4063389","co37723","norming","","","","","","",""
"3203","","","post_mooney1_questions","survey-likert","484","2450704","0.0-6.0-2.68","4063389","co37723","norming","","","{""curiosity"":5,""confidence"":3}","[0,1]","../img/tt/055tt.jpg","",""
"2293","","","recognition","survey-text","485","2453006","0.0-6.0-3.68","4063389","co37723","norming","","","{""guess"":""zadel""}","","../img/tt/055tt.jpg","",""
"null","../img/gs/055gs.jpg","null","reveal","image-keyboard-response","486","2455009","0.0-6.0-4.68","4063389","co37723","norming","","","","","","",""
"null","../img/tt/055tt.jpg","null","mooney2","image-keyboard-response","487","2457012","0.0-6.0-5.68","4063389","co37723","norming","","","","","","",""
"15536","","","post_reveal_questions","survey-likert","488","2472550","0.0-6.0-6.68","4063389","co37723","norming","","","{""aha"":0}","[0]","../img/tt/055tt.jpg","",""
"null","<div style=""font-size:60px;""> </div>","null","fixation","html-keyboard-response","489","2472754","0.0-6.0-0.69","4063389","co37723","norming","","","","","","",""
"null","../img/tt/124tt.jpg","null","mooney1","image-keyboard-response","490","2475757","0.0-6.0-1.69","4063389","co37723","norming","","","","","","",""
"3814","","","post_mooney1_questions","survey-likert","491","2479573","0.0-6.0-2.69","4063389","co37723","norming","","","{""curiosity"":5,""confidence"":5}","[0,1]","../img/tt/124tt.jpg","",""
"2147","","","recognition","survey-text","492","2481729","0.0-6.0-3.69","4063389","co37723","norming","","","{""guess"":""gorilla""}","","../img/tt/124tt.jpg","",""
"null","../img/gs/124gs.jpg","null","reveal","image-keyboard-response","493","2483732","0.0-6.0-4.69","4063389","co37723","norming","","","","","","",""
"null","../img/tt/124tt.jpg","null","mooney2","image-keyboard-response","494","2485734","0.0-6.0-5.69","4063389","co37723","norming","","","","","","",""
"3474","","","post_reveal_questions","survey-likert","495","2489210","0.0-6.0-6.69","4063389","co37723","norming","","","{""aha"":0}","[0]","../img/tt/124tt.jpg","",""
"null","<div style=""font-size:60px;""> </div>","null","fixation","html-keyboard-response","496","2489414","0.0-6.0-0.70","4063389","co37723","norming","","","","","","",""
"null","../img/tt/1247tt.jpg","null","mooney1","image-keyboard-response","497","2492418","0.0-6.0-1.70","4063389","co37723","norming","","","","","","",""
"5692","","","post_mooney1_questions","survey-likert","498","2498113","0.0-6.0-2.70","4063389","co37723","norming","","","{""curiosity"":5,""confidence"":1}","[0,1]","../img/tt/1247tt.jpg","",""
"10551","","","recognition","survey-text","499","2508674","0.0-6.0-3.70","4063389","co37723","norming","","","{""guess"":""dier met spitse oren""}","","../img/tt/1247tt.jpg","",""
"null","../img/gs/1247gs.jpg","null","reveal","image-keyboard-response","500","2510677","0.0-6.0-4.70","4063389","co37723","norming","","","","","","",""
"null","../img/tt/1247tt.jpg","null","mooney2","image-keyboard-response","501","2512680","0.0-6.0-5.70","4063389","co37723","norming","","","","","","",""
"4269","","","post_reveal_questions","survey-likert","502","2516951","0.0-6.0-6.70","4063389","co37723","norming","","","{""aha"":2}","[0]","../img/tt/1247tt.jpg","",""
"null","<div style=""font-size:60px;""> </div>","null","fixation","html-keyboard-response","503","2517155","0.0-6.0-0.71","4063389","co37723","norming","","","","","","",""
"null","../img/tt/080tt.jpg","null","mooney1","image-keyboard-response","504","2520158","0.0-6.0-1.71","4063389","co37723","norming","","","","","","",""
"24318.999999999534","","","post_mooney1_questions","survey-likert","505","2544480","0.0-6.0-2.71","4063389","co37723","norming","","","{""curiosity"":4,""confidence"":3}","[0,1]","../img/tt/080tt.jpg","",""
"5206.999999999534","","","recognition","survey-text","506","2549696","0.0-6.0-3.71","4063389","co37723","norming","","","{""guess"":""salamander""}","","../img/tt/080tt.jpg","",""
"null","../img/gs/080gs.jpg","null","reveal","image-keyboard-response","507","2551699","0.0-6.0-4.71","4063389","co37723","norming","","","","","","",""
"null","../img/tt/080tt.jpg","null","mooney2","image-keyboard-response","508","2553702","0.0-6.0-5.71","4063389","co37723","norming","","","","","","",""
"3129","","","post_reveal_questions","survey-likert","509","2556832","0.0-6.0-6.71","4063389","co37723","norming","","","{""aha"":0}","[0]","../img/tt/080tt.jpg","",""
"null","<div style=""font-size:60px;""> </div>","null","fixation","html-keyboard-response","510","2557036","0.0-6.0-0.72","4063389","co37723","norming","","","","","","",""
"null","../img/tt/549tt.jpg","null","mooney1","image-keyboard-response","511","2560039","0.0-6.0-1.72","4063389","co37723","norming","","","","","","",""
"7668","","","post_mooney1_questions","survey-likert","512","2567709","0.0-6.0-2.72","4063389","co37723","norming","","","{""curiosity"":3,""confidence"":0}","[0,1]","../img/tt/549tt.jpg","",""
"9835","","","recognition","survey-text","513","2577552","0.0-6.0-3.72","4063389","co37723","norming","","","{""guess"":""mes gestoken in iets van eten""}","","../img/tt/549tt.jpg","",""
"null","../img/gs/549gs.jpg","null","reveal","image-keyboard-response","514","2579555","0.0-6.0-4.72","4063389","co37723","norming","","","","","","",""
"null","../img/tt/549tt.jpg","null","mooney2","image-keyboard-response","515","2581558","0.0-6.0-5.72","4063389","co37723","norming","","","","","","",""
"3537","","","post_reveal_questions","survey-likert","516","2585097","0.0-6.0-6.72","4063389","co37723","norming","","","{""aha"":4}","[0]","../img/tt/549tt.jpg","",""
"null","<div style=""font-size:60px;""> </div>","null","fixation","html-keyboard-response","517","2585301","0.0-6.0-0.73","4063389","co37723","norming","","","","","","",""
"null","../img/tt/1202tt.jpg","null","mooney1","image-keyboard-response","518","2588304","0.0-6.0-1.73","4063389","co37723","norming","","","","","","",""
"4738.000000000466","","","post_mooney1_questions","survey-likert","519","2593048","0.0-6.0-2.73","4063389","co37723","norming","","","{""curiosity"":5,""confidence"":1}","[0,1]","../img/tt/1202tt.jpg","",""
"3637.9999999995343","","","recognition","survey-text","520","2596695","0.0-6.0-3.73","4063389","co37723","norming","","","{""guess"":""yoga""}","","../img/tt/1202tt.jpg","",""
"null","../img/gs/1202gs.jpg","null","reveal","image-keyboard-response","521","2598697","0.0-6.0-4.73","4063389","co37723","norming","","","","","","",""
"null","../img/tt/1202tt.jpg","null","mooney2","image-keyboard-response","522","2600698","0.0-6.0-5.73","4063389","co37723","norming","","","","","","",""
"3640","","","post_reveal_questions","survey-likert","523","2604341","0.0-6.0-6.73","4063389","co37723","norming","","","{""aha"":1}","[0]","../img/tt/1202tt.jpg","",""
"null","<div style=""font-size:60px;""> </div>","null","fixation","html-keyboard-response","524","2604545","0.0-6.0-0.74","4063389","co37723","norming","","","","","","",""
"null","../img/tt/1278tt.jpg","null","mooney1","image-keyboard-response","525","2607548","0.0-6.0-1.74","4063389","co37723","norming","","","","","","",""
"4756","","","post_mooney1_questions","survey-likert","526","2612306","0.0-6.0-2.74","4063389","co37723","norming","","","{""curiosity"":3,""confidence"":0}","[0,1]","../img/tt/1278tt.jpg","",""
"965","","","recognition","survey-text","527","2613279","0.0-6.0-3.74","4063389","co37723","norming","","","{""guess"":""""}","","../img/tt/1278tt.jpg","",""
"null","../img/gs/1278gs.jpg","null","reveal","image-keyboard-response","528","2615282","0.0-6.0-4.74","4063389","co37723","norming","","","","","","",""
"null","../img/tt/1278tt.jpg","null","mooney2","image-keyboard-response","529","2617285","0.0-6.0-5.74","4063389","co37723","norming","","","","","","",""
"2210.9999999995343","","","post_reveal_questions","survey-likert","530","2619498","0.0-6.0-6.74","4063389","co37723","norming","","","{""aha"":0}","[0]","../img/tt/1278tt.jpg","",""
"null","<div style=""font-size:60px;""> </div>","null","fixation","html-keyboard-response","531","2619702","0.0-6.0-0.75","4063389","co37723","norming","","","","","","",""
"null","../img/tt/1279tt.jpg","null","mooney1","image-keyboard-response","532","2622705","0.0-6.0-1.75","4063389","co37723","norming","","","","","","",""
"7005","","","post_mooney1_questions","survey-likert","533","2629713","0.0-6.0-2.75","4063389","co37723","norming","","","{""curiosity"":4,""confidence"":0}","[0,1]","../img/tt/1279tt.jpg","",""
"3270.9999999995343","","","recognition","survey-text","534","2632991","0.0-6.0-3.75","4063389","co37723","norming","","","{""guess"":""""}","","../img/tt/1279tt.jpg","",""
"null","../img/gs/1279gs.jpg","null","reveal","image-keyboard-response","535","2634994","0.0-6.0-4.75","4063389","co37723","norming","","","","","","",""
"null","../img/tt/1279tt.jpg","null","mooney2","image-keyboard-response","536","2636996","0.0-6.0-5.75","4063389","co37723","norming","","","","","","",""
"17793","","","post_reveal_questions","survey-likert","537","2654793","0.0-6.0-6.75","4063389","co37723","norming","","","{""aha"":1}","[0]","../img/tt/1279tt.jpg","",""
"null","<div style=""font-size:60px;""> </div>","null","fixation","html-keyboard-response","538","2654997","0.0-6.0-0.76","4063389","co37723","norming","","","","","","",""
"null","../img/tt/1227tt.jpg","null","mooney1","image-keyboard-response","539","2658001","0.0-6.0-1.76","4063389","co37723","norming","","","","","","",""
"23201.000000000466","","","post_mooney1_questions","survey-likert","540","2681204","0.0-6.0-2.76","4063389","co37723","norming","","","{""curiosity"":5,""confidence"":3}","[0,1]","../img/tt/1227tt.jpg","",""
"3230","","","recognition","survey-text","541","2684442","0.0-6.0-3.76","4063389","co37723","norming","","","{""guess"":""kippen""}","","../img/tt/1227tt.jpg","",""
"null","../img/gs/1227gs.jpg","null","reveal","image-keyboard-response","542","2686445","0.0-6.0-4.76","4063389","co37723","norming","","","","","","",""
"null","../img/tt/1227tt.jpg","null","mooney2","image-keyboard-response","543","2688448","0.0-6.0-5.76","4063389","co37723","norming","","","","","","",""
"20380","","","post_reveal_questions","survey-likert","544","2708830","0.0-6.0-6.76","4063389","co37723","norming","","","{""aha"":0}","[0]","../img/tt/1227tt.jpg","",""
"null","<div style=""font-size:60px;""> </div>","null","fixation","html-keyboard-response","545","2709034","0.0-6.0-0.77","4063389","co37723","norming","","","","","","",""
"null","../img/tt/082tt.jpg","null","mooney1","image-keyboard-response","546","2712037","0.0-6.0-1.77","4063389","co37723","norming","","","","","","",""
"10277.999999999534","","","post_mooney1_questions","survey-likert","547","2722318","0.0-6.0-2.77","4063389","co37723","norming","","","{""curiosity"":5,""confidence"":3}","[0,1]","../img/tt/082tt.jpg","",""
"5653","","","recognition","survey-text","548","2727978","0.0-6.0-3.77","4063389","co37723","norming","","","{""guess"":""parkiet (vogel)""}","","../img/tt/082tt.jpg","",""
"null","../img/gs/082gs.jpg","null","reveal","image-keyboard-response","549","2729981","0.0-6.0-4.77","4063389","co37723","norming","","","","","","",""
"null","../img/tt/082tt.jpg","null","mooney2","image-keyboard-response","550","2731983","0.0-6.0-5.77","4063389","co37723","norming","","","","","","",""
"2890","","","post_reveal_questions","survey-likert","551","2734875","0.0-6.0-6.77","4063389","co37723","norming","","","{""aha"":0}","[0]","../img/tt/082tt.jpg","",""
"null","<div style=""font-size:60px;""> </div>","null","fixation","html-keyboard-response","552","2735079","0.0-6.0-0.78","4063389","co37723","norming","","","","","","",""
"null","../img/tt/163tt.jpg","null","mooney1","image-keyboard-response","553","2738082","0.0-6.0-1.78","4063389","co37723","norming","","","","","","",""
"8612","","","post_mooney1_questions","survey-likert","554","2746697","0.0-6.0-2.78","4063389","co37723","norming","","","{""curiosity"":4,""confidence"":4}","[0,1]","../img/tt/163tt.jpg","",""
"3146.9999999995343","","","recognition","survey-text","555","2749853","0.0-6.0-3.78","4063389","co37723","norming","","","{""guess"":""kikker""}","","../img/tt/163tt.jpg","",""
"null","../img/gs/163gs.jpg","null","reveal","image-keyboard-response","556","2751856","0.0-6.0-4.78","4063389","co37723","norming","","","","","","",""
"null","../img/tt/163tt.jpg","null","mooney2","image-keyboard-response","557","2753858","0.0-6.0-5.78","4063389","co37723","norming","","","","","","",""
"4060","","","post_reveal_questions","survey-likert","558","2757920","0.0-6.0-6.78","4063389","co37723","norming","","","{""aha"":0}","[0]","../img/tt/163tt.jpg","",""
"null","<div style=""font-size:60px;""> </div>","null","fixation","html-keyboard-response","559","2758124","0.0-6.0-0.79","4063389","co37723","norming","","","","","","",""
"null","../img/tt/094tt.jpg","null","mooney1","image-keyboard-response","560","2761128","0.0-6.0-1.79","4063389","co37723","norming","","","","","","",""
"3975","","","post_mooney1_questions","survey-likert","561","2765105","0.0-6.0-2.79","4063389","co37723","norming","","","{""curiosity"":5,""confidence"":1}","[0,1]","../img/tt/094tt.jpg","",""
"1518","","","recognition","survey-text","562","2766633","0.0-6.0-3.79","4063389","co37723","norming","","","{""guess"":""uil""}","","../img/tt/094tt.jpg","",""
"null","../img/gs/094gs.jpg","null","reveal","image-keyboard-response","563","2768635","0.0-6.0-4.79","4063389","co37723","norming","","","","","","",""
"null","../img/tt/094tt.jpg","null","mooney2","image-keyboard-response","564","2770638","0.0-6.0-5.79","4063389","co37723","norming","","","","","","",""
