"rt","stimulus","key_press","test_part","trial_type","trial_index","time_elapsed","internal_node_id","totalTime","subject","experiment_name","button_pressed","success","responses","question_order","currentStim","old","correct"
"7559.950000000014","Welcome to the experiment. This is an online experiment so please don't close the tab/window until we say goodbye.  Press any key to begin.","32","instructions","html-keyboard-response","0","7575","0.0-0.0","2715164","co37675","norming","","","","","","",""
"71946.34000000003","<div style='word-wrap: break-word; width: 900px'><h3>Please consider this information carefully before deciding whether to participate in this research</h3><ul style='text-align: left; font-size: .8em;'><li><b>Purpose of the research</b>: To examine how people process images.</li><li><b>What you will do in this research</b>:  Stimuli (images) will be presented on the computer and you will be asked different questions about them.</li><li><b>Time required</b>: Participation will take between 45 and 60 minutes to complete.</li><li><b>Risks</b>:  There are no anticipated risks associated with participating in this study. The effects of participating should be comparable to those you would experience from viewing a computer monitor for 30 minutes and using a mouse or keyboard.</li><li><b>Benefits</b>:  This study provides no benefits to you individually except for the credit. The study provides important information about the nature of perception and learning.</li><li><b>Confidentiality</b>:  Your participation in this study will remain confidential. No personally identifiable information will be associated with your data. Your de-identified data may be shared with other researchers and used in future projects.</li><li><b>Participation and withdrawal</b>:  Your participation in this study is completely voluntary and you may refuse to participate or you may choose to withdraw at any time without penalty.</li><li><b>How to contact the researchers</b>: If you have questions or concerns about your participation or payment, or want to request a summary of research findings, please contact Sander Van de Cruys (KU Leuven), at sander.vandecruys@kuleuven.be.</li></ul><p>The nature and purpose of this research have been sufficiently explained and I agree to participate in this study.  I understand that I am free to withdraw at any time without incurring any penalty.</p><p>Please consent by clicking the button below to continue. Otherwise, please exit the study at this time.</p></div>","","instructions","html-button-response","1","78839","0.0-1.0","2715164","co37675","norming","0","","","","","",""
"","","","instructions","fullscreen","2","85078","0.0-2.0","2715164","co37675","norming","","true","","","","",""
"34910.12000000001","","","sona","survey-html-form","3","119991","0.0-3.0","2715164","co37675","norming","","","[{""name"":""sonaid"",""value"":""37675""},{""name"":""debrief"",""value"":""no""},{""name"":""datajoin"",""value"":""yes""}]","","","",""
"65131.65000000002","<div style='word-wrap: break-word; width: 900px'><h3>Instructions</h3><p>This experiment will have 3 parts. In the first part you will see a series of distorted images like the one below on the left. As you can see in the righthand image, the distorted images are derived from actual photographs. In what follows, you will <strong>briefly</strong> be presented with <strong>only</strong> the distorted image.</p> <div style='float: left; margin-right: 20px;'><img src='../img/018tt.jpg' height='250' width='250'></img></div><div style='float: right; margin-left: 20px;'><img src='../img/018gs.jpg' height='250' width='250'></img></div><p>Subsequently you will be asked a few questions about the image: One question on how <strong>curious</strong> you are about the solution and one on how <strong>confident</strong> you are that you know the solution.</p>Next, we ask you to make a guess on what is in the image. Note that it is OK to name just the <strong>basic level category</strong>. For example when you see a parrot in the image, 'parrot' will obviously be a correct answer but also correct is 'bird'. However, 'animal' will <strong>not</strong> be counted as a correct response. For the example above, 'rose' would be correct or 'flower', but not 'plant'. When soccer players are depicted, 'soccer', 'football', 'soccer players' will be correct, but not 'humans', 'outdoors', or 'sports'. You do not need to describe the image in full, just name the main object in it <strong>in one or two words</strong>. All images depict objects from one of the following broad level categories: animals, inanimate objects, plants, sports, vehicles, and food. Recognizing means knowing <strong>more</strong> than these broad labels for a given image. But we always encourage you to <strong>make a guess</strong> if you can. Note that you are allowed to use <strong>Dutch and English</strong> in your answers, whatever comes easiest for you.</p><p>Press any key to continue.</p></div>","32","instructions","html-keyboard-response","4","184694","0.0-4.0","2715164","co37675","norming","","","","","","",""
"17996.670000000013","<div style='word-wrap: break-word; width: 900px'><h3>Instructions</h3> <p>Next, the solution image will be revealed to you and you'll be asked to indicate how strong your <strong>aha-experience</strong> was after seeing the solution. This describes the positive feeling of the 'click' you sometimes experience, when the pieces of the 'puzzle' fall together and you suddenly have 'insight' in the image.</p><img src='aha.jpg' height='188' width='250'></img><p>Note that there are no right or wrong answers. We are interested in what <strong>you</strong> see in the image and how <strong>you</strong> feel about it.</p><p>Press any key to start the experiment.</p></div>","32","instructions","html-keyboard-response","5","202692","0.0-5.0","2715164","co37675","norming","","","","","","",""
"null","<div style=""font-size:60px;""> </div>","null","fixation","html-keyboard-response","6","202902","0.0-6.0-0.0","2715164","co37675","norming","","","","","","",""
"null","../img/tt/1283tt.jpg","null","mooney1","image-keyboard-response","7","205910","0.0-6.0-1.0","2715164","co37675","norming","","","","","","",""
"10333.96000000005","","","post_mooney1_questions","survey-likert","8","216245","0.0-6.0-2.0","2715164","co37675","norming","","","{""curiosity"":1,""confidence"":1}","[0,1]","../img/tt/1283tt.jpg","",""
"14509.554999999964","","","recognition","survey-text","9","230756","0.0-6.0-3.0","2715164","co37675","norming","","","{""guess"":""bloem""}","","../img/tt/1283tt.jpg","",""
"null","../img/gs/1283gs.jpg","null","reveal","image-keyboard-response","10","232758","0.0-6.0-4.0","2715164","co37675","norming","","","","","","",""
"null","../img/tt/1283tt.jpg","null","mooney2","image-keyboard-response","11","234767","0.0-6.0-5.0","2715164","co37675","norming","","","","","","",""
"4547.455000000016","","","post_reveal_questions","survey-likert","12","239316","0.0-6.0-6.0","2715164","co37675","norming","","","{""aha"":4}","[0]","../img/tt/1283tt.jpg","",""
"null","<div style=""font-size:60px;""> </div>","null","fixation","html-keyboard-response","13","239523","0.0-6.0-0.1","2715164","co37675","norming","","","","","","",""
"null","../img/tt/1102tt.jpg","null","mooney1","image-keyboard-response","14","242528","0.0-6.0-1.1","2715164","co37675","norming","","","","","","",""
"6035.150000000052","","","post_mooney1_questions","survey-likert","15","248567","0.0-6.0-2.1","2715164","co37675","norming","","","{""curiosity"":1,""confidence"":2}","[0,1]","../img/tt/1102tt.jpg","",""
"4125.90499999997","","","recognition","survey-text","16","252695","0.0-6.0-3.1","2715164","co37675","norming","","","{""guess"":""boom""}","","../img/tt/1102tt.jpg","",""
"null","../img/gs/1102gs.jpg","null","reveal","image-keyboard-response","17","254699","0.0-6.0-4.1","2715164","co37675","norming","","","","","","",""
"null","../img/tt/1102tt.jpg","null","mooney2","image-keyboard-response","18","256700","0.0-6.0-5.1","2715164","co37675","norming","","","","","","",""
"2689.250000000029","","","post_reveal_questions","survey-likert","19","259391","0.0-6.0-6.1","2715164","co37675","norming","","","{""aha"":1}","[0]","../img/tt/1102tt.jpg","",""
"null","<div style=""font-size:60px;""> </div>","null","fixation","html-keyboard-response","20","259594","0.0-6.0-0.2","2715164","co37675","norming","","","","","","",""
"null","../img/tt/1116tt.jpg","null","mooney1","image-keyboard-response","21","262596","0.0-6.0-1.2","2715164","co37675","norming","","","","","","",""
"3392.454999999958","","","post_mooney1_questions","survey-likert","22","265991","0.0-6.0-2.2","2715164","co37675","norming","","","{""curiosity"":3,""confidence"":2}","[0,1]","../img/tt/1116tt.jpg","",""
"4030.149999999965","","","recognition","survey-text","23","270023","0.0-6.0-3.2","2715164","co37675","norming","","","{""guess"":""boot""}","","../img/tt/1116tt.jpg","",""
"null","../img/gs/1116gs.jpg","null","reveal","image-keyboard-response","24","272029","0.0-6.0-4.2","2715164","co37675","norming","","","","","","",""
"null","../img/tt/1116tt.jpg","null","mooney2","image-keyboard-response","25","274039","0.0-6.0-5.2","2715164","co37675","norming","","","","","","",""
"3382.130000000063","","","post_reveal_questions","survey-likert","26","277422","0.0-6.0-6.2","2715164","co37675","norming","","","{""aha"":2}","[0]","../img/tt/1116tt.jpg","",""
"null","<div style=""font-size:60px;""> </div>","null","fixation","html-keyboard-response","27","277632","0.0-6.0-0.3","2715164","co37675","norming","","","","","","",""
"null","../img/tt/1353tt.jpg","null","mooney1","image-keyboard-response","28","280642","0.0-6.0-1.3","2715164","co37675","norming","","","","","","",""
"3706.8249999999534","","","post_mooney1_questions","survey-likert","29","284351","0.0-6.0-2.3","2715164","co37675","norming","","","{""curiosity"":2,""confidence"":5}","[0,1]","../img/tt/1353tt.jpg","",""
"2886.3850000000675","","","recognition","survey-text","30","287239","0.0-6.0-3.3","2715164","co37675","norming","","","{""guess"":""paprika""}","","../img/tt/1353tt.jpg","",""
"null","../img/gs/1353gs.jpg","null","reveal","image-keyboard-response","31","289242","0.0-6.0-4.3","2715164","co37675","norming","","","","","","",""
"null","../img/tt/1353tt.jpg","null","mooney2","image-keyboard-response","32","291246","0.0-6.0-5.3","2715164","co37675","norming","","","","","","",""
"1302.6050000000978","","","post_reveal_questions","survey-likert","33","292551","0.0-6.0-6.3","2715164","co37675","norming","","","{""aha"":6}","[0]","../img/tt/1353tt.jpg","",""
"null","<div style=""font-size:60px;""> </div>","null","fixation","html-keyboard-response","34","292761","0.0-6.0-0.4","2715164","co37675","norming","","","","","","",""
"null","../img/tt/1217tt.jpg","null","mooney1","image-keyboard-response","35","295763","0.0-6.0-1.4","2715164","co37675","norming","","","","","","",""
"4857.585000000079","","","post_mooney1_questions","survey-likert","36","300623","0.0-6.0-2.4","2715164","co37675","norming","","","{""curiosity"":3,""confidence"":2}","[0,1]","../img/tt/1217tt.jpg","",""
"2070.005000000063","","","recognition","survey-text","37","302695","0.0-6.0-3.4","2715164","co37675","norming","","","{""guess"":""hond""}","","../img/tt/1217tt.jpg","",""
"null","../img/gs/1217gs.jpg","null","reveal","image-keyboard-response","38","304705","0.0-6.0-4.4","2715164","co37675","norming","","","","","","",""
"null","../img/tt/1217tt.jpg","null","mooney2","image-keyboard-response","39","306723","0.0-6.0-5.4","2715164","co37675","norming","","","","","","",""
"1615.609999999986","","","post_reveal_questions","survey-likert","40","308340","0.0-6.0-6.4","2715164","co37675","norming","","","{""aha"":1}","[0]","../img/tt/1217tt.jpg","",""
"null","<div style=""font-size:60px;""> </div>","null","fixation","html-keyboard-response","41","308549","0.0-6.0-0.5","2715164","co37675","norming","","","","","","",""
"null","../img/tt/1130tt.jpg","null","mooney1","image-keyboard-response","42","311557","0.0-6.0-1.5","2715164","co37675","norming","","","","","","",""
"6053.8850000000675","","","post_mooney1_questions","survey-likert","43","317612","0.0-6.0-2.5","2715164","co37675","norming","","","{""curiosity"":3,""confidence"":4}","[0,1]","../img/tt/1130tt.jpg","",""
"3678.1699999999255","","","recognition","survey-text","44","321292","0.0-6.0-3.5","2715164","co37675","norming","","","{""guess"":""voetballer""}","","../img/tt/1130tt.jpg","",""
"null","../img/gs/1130gs.jpg","null","reveal","image-keyboard-response","45","323294","0.0-6.0-4.5","2715164","co37675","norming","","","","","","",""
"null","../img/tt/1130tt.jpg","null","mooney2","image-keyboard-response","46","325296","0.0-6.0-5.5","2715164","co37675","norming","","","","","","",""
"4961.894999999902","","","post_reveal_questions","survey-likert","47","330260","0.0-6.0-6.5","2715164","co37675","norming","","","{""aha"":2}","[0]","../img/tt/1130tt.jpg","",""
"null","<div style=""font-size:60px;""> </div>","null","fixation","html-keyboard-response","48","330471","0.0-6.0-0.6","2715164","co37675","norming","","","","","","",""
"null","../img/tt/1142tt.jpg","null","mooney1","image-keyboard-response","49","333474","0.0-6.0-1.6","2715164","co37675","norming","","","","","","",""
"6560.980000000098","","","post_mooney1_questions","survey-likert","50","340036","0.0-6.0-2.6","2715164","co37675","norming","","","{""curiosity"":3,""confidence"":4}","[0,1]","../img/tt/1142tt.jpg","",""
"4821.869999999995","","","recognition","survey-text","51","344859","0.0-6.0-3.6","2715164","co37675","norming","","","{""guess"":""hoogspringer""}","","../img/tt/1142tt.jpg","",""
"null","../img/gs/1142gs.jpg","null","reveal","image-keyboard-response","52","346868","0.0-6.0-4.6","2715164","co37675","norming","","","","","","",""
"null","../img/tt/1142tt.jpg","null","mooney2","image-keyboard-response","53","348870","0.0-6.0-5.6","2715164","co37675","norming","","","","","","",""
"2364.0449999999255","","","post_reveal_questions","survey-likert","54","351236","0.0-6.0-6.6","2715164","co37675","norming","","","{""aha"":4}","[0]","../img/tt/1142tt.jpg","",""
"null","<div style=""font-size:60px;""> </div>","null","fixation","html-keyboard-response","55","351437","0.0-6.0-0.7","2715164","co37675","norming","","","","","","",""
"null","../img/tt/1251tt.jpg","null","mooney1","image-keyboard-response","56","354439","0.0-6.0-1.7","2715164","co37675","norming","","","","","","",""
"4723.26999999996","","","post_mooney1_questions","survey-likert","57","359164","0.0-6.0-2.7","2715164","co37675","norming","","","{""curiosity"":4,""confidence"":1}","[0,1]","../img/tt/1251tt.jpg","",""
"5414.0299999999115","","","recognition","survey-text","58","364580","0.0-6.0-3.7","2715164","co37675","norming","","","{""guess"":""""}","","../img/tt/1251tt.jpg","",""
"null","../img/gs/1251gs.jpg","null","reveal","image-keyboard-response","59","366588","0.0-6.0-4.7","2715164","co37675","norming","","","","","","",""
"null","../img/tt/1251tt.jpg","null","mooney2","image-keyboard-response","60","368590","0.0-6.0-5.7","2715164","co37675","norming","","","","","","",""
"1645.0199999999604","","","post_reveal_questions","survey-likert","61","370237","0.0-6.0-6.7","2715164","co37675","norming","","","{""aha"":0}","[0]","../img/tt/1251tt.jpg","",""
"null","<div style=""font-size:60px;""> </div>","null","fixation","html-keyboard-response","62","370444","0.0-6.0-0.8","2715164","co37675","norming","","","","","","",""
"null","../img/tt/353tt.jpg","null","mooney1","image-keyboard-response","63","373447","0.0-6.0-1.8","2715164","co37675","norming","","","","","","",""
"4116.824999999953","","","post_mooney1_questions","survey-likert","64","377565","0.0-6.0-2.8","2715164","co37675","norming","","","{""curiosity"":3,""confidence"":4}","[0,1]","../img/tt/353tt.jpg","",""
"3342.2350000001024","","","recognition","survey-text","65","380908","0.0-6.0-3.8","2715164","co37675","norming","","","{""guess"":""pinguin""}","","../img/tt/353tt.jpg","",""
"null","../img/gs/353gs.jpg","null","reveal","image-keyboard-response","66","382916","0.0-6.0-4.8","2715164","co37675","norming","","","","","","",""
"null","../img/tt/353tt.jpg","null","mooney2","image-keyboard-response","67","384918","0.0-6.0-5.8","2715164","co37675","norming","","","","","","",""
"1756.570000000007","","","post_reveal_questions","survey-likert","68","386676","0.0-6.0-6.8","2715164","co37675","norming","","","{""aha"":5}","[0]","../img/tt/353tt.jpg","",""
"null","<div style=""font-size:60px;""> </div>","null","fixation","html-keyboard-response","69","386885","0.0-6.0-0.9","2715164","co37675","norming","","","","","","",""
"null","../img/tt/300tt.jpg","null","mooney1","image-keyboard-response","70","389886","0.0-6.0-1.9","2715164","co37675","norming","","","","","","",""
"4381.430000000051","","","post_mooney1_questions","survey-likert","71","394269","0.0-6.0-2.9","2715164","co37675","norming","","","{""curiosity"":3,""confidence"":3}","[0,1]","../img/tt/300tt.jpg","",""
"2766.1849999999395","","","recognition","survey-text","72","397037","0.0-6.0-3.9","2715164","co37675","norming","","","{""guess"":""kat""}","","../img/tt/300tt.jpg","",""
"null","../img/gs/300gs.jpg","null","reveal","image-keyboard-response","73","399047","0.0-6.0-4.9","2715164","co37675","norming","","","","","","",""
"null","../img/tt/300tt.jpg","null","mooney2","image-keyboard-response","74","401057","0.0-6.0-5.9","2715164","co37675","norming","","","","","","",""
"2193.984999999986","","","post_reveal_questions","survey-likert","75","403252","0.0-6.0-6.9","2715164","co37675","norming","","","{""aha"":1}","[0]","../img/tt/300tt.jpg","",""
"null","<div style=""font-size:60px;""> </div>","null","fixation","html-keyboard-response","76","403460","0.0-6.0-0.10","2715164","co37675","norming","","","","","","",""
"null","../img/tt/599tt.jpg","null","mooney1","image-keyboard-response","77","406461","0.0-6.0-1.10","2715164","co37675","norming","","","","","","",""
"3333.060000000056","","","post_mooney1_questions","survey-likert","78","409797","0.0-6.0-2.10","2715164","co37675","norming","","","{""curiosity"":2,""confidence"":5}","[0,1]","../img/tt/599tt.jpg","",""
"3446.219999999914","","","recognition","survey-text","79","413244","0.0-6.0-3.10","2715164","co37675","norming","","","{""guess"":""uil""}","","../img/tt/599tt.jpg","",""
"null","../img/gs/599gs.jpg","null","reveal","image-keyboard-response","80","415248","0.0-6.0-4.10","2715164","co37675","norming","","","","","","",""
"null","../img/tt/599tt.jpg","null","mooney2","image-keyboard-response","81","417249","0.0-6.0-5.10","2715164","co37675","norming","","","","","","",""
"1745.3649999999907","","","post_reveal_questions","survey-likert","82","418996","0.0-6.0-6.10","2715164","co37675","norming","","","{""aha"":4}","[0]","../img/tt/599tt.jpg","",""
"null","<div style=""font-size:60px;""> </div>","null","fixation","html-keyboard-response","83","419199","0.0-6.0-0.11","2715164","co37675","norming","","","","","","",""
"null","../img/tt/517tt.jpg","null","mooney1","image-keyboard-response","84","422202","0.0-6.0-1.11","2715164","co37675","norming","","","","","","",""
"4256.354999999981","","","post_mooney1_questions","survey-likert","85","426461","0.0-6.0-2.11","2715164","co37675","norming","","","{""curiosity"":2,""confidence"":3}","[0,1]","../img/tt/517tt.jpg","",""
"3518.1549999999697","","","recognition","survey-text","86","429978","0.0-6.0-3.11","2715164","co37675","norming","","","{""guess"":""panda""}","","../img/tt/517tt.jpg","",""
"null","../img/gs/517gs.jpg","null","reveal","image-keyboard-response","87","431979","0.0-6.0-4.11","2715164","co37675","norming","","","","","","",""
"null","../img/tt/517tt.jpg","null","mooney2","image-keyboard-response","88","433987","0.0-6.0-5.11","2715164","co37675","norming","","","","","","",""
"2756.8850000000093","","","post_reveal_questions","survey-likert","89","436746","0.0-6.0-6.11","2715164","co37675","norming","","","{""aha"":2}","[0]","../img/tt/517tt.jpg","",""
"null","<div style=""font-size:60px;""> </div>","null","fixation","html-keyboard-response","90","436947","0.0-6.0-0.12","2715164","co37675","norming","","","","","","",""
"null","../img/tt/007tt.jpg","null","mooney1","image-keyboard-response","91","439949","0.0-6.0-1.12","2715164","co37675","norming","","","","","","",""
"3355.079999999958","","","post_mooney1_questions","survey-likert","92","443306","0.0-6.0-2.12","2715164","co37675","norming","","","{""curiosity"":4,""confidence"":1}","[0,1]","../img/tt/007tt.jpg","",""
"646.1399999999558","","","recognition","survey-text","93","443953","0.0-6.0-3.12","2715164","co37675","norming","","","{""guess"":""""}","","../img/tt/007tt.jpg","",""
"null","../img/gs/007gs.jpg","null","reveal","image-keyboard-response","94","445957","0.0-6.0-4.12","2715164","co37675","norming","","","","","","",""
"null","../img/tt/007tt.jpg","null","mooney2","image-keyboard-response","95","447959","0.0-6.0-5.12","2715164","co37675","norming","","","","","","",""
"2369.3399999999674","","","post_reveal_questions","survey-likert","96","450330","0.0-6.0-6.12","2715164","co37675","norming","","","{""aha"":0}","[0]","../img/tt/007tt.jpg","",""
"null","<div style=""font-size:60px;""> </div>","null","fixation","html-keyboard-response","97","450531","0.0-6.0-0.13","2715164","co37675","norming","","","","","","",""
"null","../img/tt/010tt.jpg","null","mooney1","image-keyboard-response","98","453535","0.0-6.0-1.13","2715164","co37675","norming","","","","","","",""
"3945.1500000000233","","","post_mooney1_questions","survey-likert","99","457481","0.0-6.0-2.13","2715164","co37675","norming","","","{""curiosity"":2,""confidence"":2}","[0,1]","../img/tt/010tt.jpg","",""
"2814.505000000063","","","recognition","survey-text","100","460298","0.0-6.0-3.13","2715164","co37675","norming","","","{""guess"":""vis""}","","../img/tt/010tt.jpg","",""
"null","../img/gs/010gs.jpg","null","reveal","image-keyboard-response","101","462304","0.0-6.0-4.13","2715164","co37675","norming","","","","","","",""
"null","../img/tt/010tt.jpg","null","mooney2","image-keyboard-response","102","464309","0.0-6.0-5.13","2715164","co37675","norming","","","","","","",""
"3538.4400000000605","","","post_reveal_questions","survey-likert","103","467850","0.0-6.0-6.13","2715164","co37675","norming","","","{""aha"":1}","[0]","../img/tt/010tt.jpg","",""
"null","<div style=""font-size:60px;""> </div>","null","fixation","html-keyboard-response","104","468055","0.0-6.0-0.14","2715164","co37675","norming","","","","","","",""
"null","../img/tt/1235tt.jpg","null","mooney1","image-keyboard-response","105","471058","0.0-6.0-1.14","2715164","co37675","norming","","","","","","",""
"6173.935000000056","","","post_mooney1_questions","survey-likert","106","477234","0.0-6.0-2.14","2715164","co37675","norming","","","{""curiosity"":4,""confidence"":3}","[0,1]","../img/tt/1235tt.jpg","",""
"4134.054999999993","","","recognition","survey-text","107","481370","0.0-6.0-3.14","2715164","co37675","norming","","","{""guess"":""koe""}","","../img/tt/1235tt.jpg","",""
"null","../img/gs/1235gs.jpg","null","reveal","image-keyboard-response","108","483376","0.0-6.0-4.14","2715164","co37675","norming","","","","","","",""
"null","../img/tt/1235tt.jpg","null","mooney2","image-keyboard-response","109","485378","0.0-6.0-5.14","2715164","co37675","norming","","","","","","",""
"2229.2050000000745","","","post_reveal_questions","survey-likert","110","487610","0.0-6.0-6.14","2715164","co37675","norming","","","{""aha"":1}","[0]","../img/tt/1235tt.jpg","",""
"null","<div style=""font-size:60px;""> </div>","null","fixation","html-keyboard-response","111","487813","0.0-6.0-0.15","2715164","co37675","norming","","","","","","",""
"null","../img/tt/078tt.jpg","null","mooney1","image-keyboard-response","112","490822","0.0-6.0-1.15","2715164","co37675","norming","","","","","","",""
"5003.644999999902","","","post_mooney1_questions","survey-likert","113","495828","0.0-6.0-2.15","2715164","co37675","norming","","","{""curiosity"":3,""confidence"":5}","[0,1]","../img/tt/078tt.jpg","",""
"3030.420000000042","","","recognition","survey-text","114","498860","0.0-6.0-3.15","2715164","co37675","norming","","","{""guess"":""druiven""}","","../img/tt/078tt.jpg","",""
"null","../img/gs/078gs.jpg","null","reveal","image-keyboard-response","115","500863","0.0-6.0-4.15","2715164","co37675","norming","","","","","","",""
"null","../img/tt/078tt.jpg","null","mooney2","image-keyboard-response","116","502865","0.0-6.0-5.15","2715164","co37675","norming","","","","","","",""
"2561.310000000056","","","post_reveal_questions","survey-likert","117","505428","0.0-6.0-6.15","2715164","co37675","norming","","","{""aha"":4}","[0]","../img/tt/078tt.jpg","",""
"null","<div style=""font-size:60px;""> </div>","null","fixation","html-keyboard-response","118","505633","0.0-6.0-0.16","2715164","co37675","norming","","","","","","",""
"null","../img/tt/1078tt.jpg","null","mooney1","image-keyboard-response","119","508639","0.0-6.0-1.16","2715164","co37675","norming","","","","","","",""
"5897.590000000084","","","post_mooney1_questions","survey-likert","120","514540","0.0-6.0-2.16","2715164","co37675","norming","","","{""curiosity"":1,""confidence"":4}","[0,1]","../img/tt/1078tt.jpg","",""
"4237.974999999977","","","recognition","survey-text","121","518780","0.0-6.0-3.16","2715164","co37675","norming","","","{""guess"":""skateboarder""}","","../img/tt/1078tt.jpg","",""
"null","../img/gs/1078gs.jpg","null","reveal","image-keyboard-response","122","520781","0.0-6.0-4.16","2715164","co37675","norming","","","","","","",""
"null","../img/tt/1078tt.jpg","null","mooney2","image-keyboard-response","123","522784","0.0-6.0-5.16","2715164","co37675","norming","","","","","","",""
"2009.994999999879","","","post_reveal_questions","survey-likert","124","524796","0.0-6.0-6.16","2715164","co37675","norming","","","{""aha"":3}","[0]","../img/tt/1078tt.jpg","",""
"null","<div style=""font-size:60px;""> </div>","null","fixation","html-keyboard-response","125","525002","0.0-6.0-0.17","2715164","co37675","norming","","","","","","",""
"null","../img/tt/1161tt.jpg","null","mooney1","image-keyboard-response","126","528004","0.0-6.0-1.17","2715164","co37675","norming","","","","","","",""
"4277.954999999958","","","post_mooney1_questions","survey-likert","127","532284","0.0-6.0-2.17","2715164","co37675","norming","","","{""curiosity"":3,""confidence"":4}","[0,1]","../img/tt/1161tt.jpg","",""
"3710.2099999999627","","","recognition","survey-text","128","535996","0.0-6.0-3.17","2715164","co37675","norming","","","{""guess"":""bergbeklimmer""}","","../img/tt/1161tt.jpg","",""
"null","../img/gs/1161gs.jpg","null","reveal","image-keyboard-response","129","538004","0.0-6.0-4.17","2715164","co37675","norming","","","","","","",""
"null","../img/tt/1161tt.jpg","null","mooney2","image-keyboard-response","130","540006","0.0-6.0-5.17","2715164","co37675","norming","","","","","","",""
"1756.5100000000093","","","post_reveal_questions","survey-likert","131","541764","0.0-6.0-6.17","2715164","co37675","norming","","","{""aha"":6}","[0]","../img/tt/1161tt.jpg","",""
"null","<div style=""font-size:60px;""> </div>","null","fixation","html-keyboard-response","132","541965","0.0-6.0-0.18","2715164","co37675","norming","","","","","","",""
"null","../img/tt/1254tt.jpg","null","mooney1","image-keyboard-response","133","544970","0.0-6.0-1.18","2715164","co37675","norming","","","","","","",""
"6487.535000000265","","","post_mooney1_questions","survey-likert","134","551456","0.0-6.0-2.18","2715164","co37675","norming","","","{""curiosity"":1,""confidence"":2}","[0,1]","../img/tt/1254tt.jpg","",""
"1142.285000000149","","","recognition","survey-text","135","552600","0.0-6.0-3.18","2715164","co37675","norming","","","{""guess"":""""}","","../img/tt/1254tt.jpg","",""
"null","../img/gs/1254gs.jpg","null","reveal","image-keyboard-response","136","554606","0.0-6.0-4.18","2715164","co37675","norming","","","","","","",""
"null","../img/tt/1254tt.jpg","null","mooney2","image-keyboard-response","137","556615","0.0-6.0-5.18","2715164","co37675","norming","","","","","","",""
"2182.9100000000326","","","post_reveal_questions","survey-likert","138","558800","0.0-6.0-6.18","2715164","co37675","norming","","","{""aha"":0}","[0]","../img/tt/1254tt.jpg","",""
"null","<div style=""font-size:60px;""> </div>","null","fixation","html-keyboard-response","139","559010","0.0-6.0-0.19","2715164","co37675","norming","","","","","","",""
"null","../img/tt/1211tt.jpg","null","mooney1","image-keyboard-response","140","562018","0.0-6.0-1.19","2715164","co37675","norming","","","","","","",""
"5204.289999999804","","","post_mooney1_questions","survey-likert","141","567224","0.0-6.0-2.19","2715164","co37675","norming","","","{""curiosity"":4,""confidence"":0}","[0,1]","../img/tt/1211tt.jpg","",""
"734.3299999999581","","","recognition","survey-text","142","567960","0.0-6.0-3.19","2715164","co37675","norming","","","{""guess"":""""}","","../img/tt/1211tt.jpg","",""
"null","../img/gs/1211gs.jpg","null","reveal","image-keyboard-response","143","569969","0.0-6.0-4.19","2715164","co37675","norming","","","","","","",""
"null","../img/tt/1211tt.jpg","null","mooney2","image-keyboard-response","144","571978","0.0-6.0-5.19","2715164","co37675","norming","","","","","","",""
"1940.515000000014","","","post_reveal_questions","survey-likert","145","573920","0.0-6.0-6.19","2715164","co37675","norming","","","{""aha"":0}","[0]","../img/tt/1211tt.jpg","",""
"null","<div style=""font-size:60px;""> </div>","null","fixation","html-keyboard-response","146","574123","0.0-6.0-0.20","2715164","co37675","norming","","","","","","",""
"null","../img/tt/1087tt.jpg","null","mooney1","image-keyboard-response","147","577132","0.0-6.0-1.20","2715164","co37675","norming","","","","","","",""
"3762.615000000107","","","post_mooney1_questions","survey-likert","148","580897","0.0-6.0-2.20","2715164","co37675","norming","","","{""curiosity"":1,""confidence"":4}","[0,1]","../img/tt/1087tt.jpg","",""
"2982.2049999997253","","","recognition","survey-text","149","583880","0.0-6.0-3.20","2715164","co37675","norming","","","{""guess"":""cavia""}","","../img/tt/1087tt.jpg","",""
"null","../img/gs/1087gs.jpg","null","reveal","image-keyboard-response","150","585882","0.0-6.0-4.20","2715164","co37675","norming","","","","","","",""
"null","../img/tt/1087tt.jpg","null","mooney2","image-keyboard-response","151","587886","0.0-6.0-5.20","2715164","co37675","norming","","","","","","",""
"4168.324999999953","","","post_reveal_questions","survey-likert","152","592056","0.0-6.0-6.20","2715164","co37675","norming","","","{""aha"":2}","[0]","../img/tt/1087tt.jpg","",""
"null","<div style=""font-size:60px;""> </div>","null","fixation","html-keyboard-response","153","592259","0.0-6.0-0.21","2715164","co37675","norming","","","","","","",""
"null","../img/tt/1061tt.jpg","null","mooney1","image-keyboard-response","154","595269","0.0-6.0-1.21","2715164","co37675","norming","","","","","","",""
"8305.345000000088","","","post_mooney1_questions","survey-likert","155","603576","0.0-6.0-2.21","2715164","co37675","norming","","","{""curiosity"":3,""confidence"":1}","[0,1]","../img/tt/1061tt.jpg","",""
"1574.170000000042","","","recognition","survey-text","156","605152","0.0-6.0-3.21","2715164","co37675","norming","","","{""guess"":""""}","","../img/tt/1061tt.jpg","",""
"null","../img/gs/1061gs.jpg","null","reveal","image-keyboard-response","157","607155","0.0-6.0-4.21","2715164","co37675","norming","","","","","","",""
"null","../img/tt/1061tt.jpg","null","mooney2","image-keyboard-response","158","609159","0.0-6.0-5.21","2715164","co37675","norming","","","","","","",""
"2879.865000000107","","","post_reveal_questions","survey-likert","159","612042","0.0-6.0-6.21","2715164","co37675","norming","","","{""aha"":2}","[0]","../img/tt/1061tt.jpg","",""
"null","<div style=""font-size:60px;""> </div>","null","fixation","html-keyboard-response","160","612248","0.0-6.0-0.22","2715164","co37675","norming","","","","","","",""
"null","../img/tt/036tt.jpg","null","mooney1","image-keyboard-response","161","615250","0.0-6.0-1.22","2715164","co37675","norming","","","","","","",""
"6629.880000000005","","","post_mooney1_questions","survey-likert","162","621882","0.0-6.0-2.22","2715164","co37675","norming","","","{""curiosity"":4,""confidence"":2}","[0,1]","../img/tt/036tt.jpg","",""
"4510.15000000014","","","recognition","survey-text","163","626394","0.0-6.0-3.22","2715164","co37675","norming","","","{""guess"":""spinnenweb""}","","../img/tt/036tt.jpg","",""
"null","../img/gs/036gs.jpg","null","reveal","image-keyboard-response","164","628396","0.0-6.0-4.22","2715164","co37675","norming","","","","","","",""
"null","../img/tt/036tt.jpg","null","mooney2","image-keyboard-response","165","630404","0.0-6.0-5.22","2715164","co37675","norming","","","","","","",""
"3637.484999999986","","","post_reveal_questions","survey-likert","166","634042","0.0-6.0-6.22","2715164","co37675","norming","","","{""aha"":1}","[0]","../img/tt/036tt.jpg","",""
"null","<div style=""font-size:60px;""> </div>","null","fixation","html-keyboard-response","167","634253","0.0-6.0-0.23","2715164","co37675","norming","","","","","","",""
"null","../img/tt/1186tt.jpg","null","mooney1","image-keyboard-response","168","637258","0.0-6.0-1.23","2715164","co37675","norming","","","","","","",""
"5574.869999999879","","","post_mooney1_questions","survey-likert","169","642834","0.0-6.0-2.23","2715164","co37675","norming","","","{""curiosity"":1,""confidence"":1}","[0,1]","../img/tt/1186tt.jpg","",""
"7670.214999999851","","","recognition","survey-text","170","650506","0.0-6.0-3.23","2715164","co37675","norming","","","{""guess"":""wandelaar""}","","../img/tt/1186tt.jpg","",""
"null","../img/gs/1186gs.jpg","null","reveal","image-keyboard-response","171","652508","0.0-6.0-4.23","2715164","co37675","norming","","","","","","",""
"null","../img/tt/1186tt.jpg","null","mooney2","image-keyboard-response","172","654510","0.0-6.0-5.23","2715164","co37675","norming","","","","","","",""
"3866.2600000000093","","","post_reveal_questions","survey-likert","173","658378","0.0-6.0-6.23","2715164","co37675","norming","","","{""aha"":1}","[0]","../img/tt/1186tt.jpg","",""
"null","<div style=""font-size:60px;""> </div>","null","fixation","html-keyboard-response","174","658583","0.0-6.0-0.24","2715164","co37675","norming","","","","","","",""
"null","../img/tt/1237tt.jpg","null","mooney1","image-keyboard-response","175","661592","0.0-6.0-1.24","2715164","co37675","norming","","","","","","",""
"4096.544999999809","","","post_mooney1_questions","survey-likert","176","665690","0.0-6.0-2.24","2715164","co37675","norming","","","{""curiosity"":3,""confidence"":4}","[0,1]","../img/tt/1237tt.jpg","",""
"1998.1250000001164","","","recognition","survey-text","177","667690","0.0-6.0-3.24","2715164","co37675","norming","","","{""guess"":""geit""}","","../img/tt/1237tt.jpg","",""
"null","../img/gs/1237gs.jpg","null","reveal","image-keyboard-response","178","669693","0.0-6.0-4.24","2715164","co37675","norming","","","","","","",""
"null","../img/tt/1237tt.jpg","null","mooney2","image-keyboard-response","179","671704","0.0-6.0-5.24","2715164","co37675","norming","","","","","","",""
"3592.5750000001863","","","post_reveal_questions","survey-likert","180","675299","0.0-6.0-6.24","2715164","co37675","norming","","","{""aha"":1}","[0]","../img/tt/1237tt.jpg","",""
"null","<div style=""font-size:60px;""> </div>","null","fixation","html-keyboard-response","181","675502","0.0-6.0-0.25","2715164","co37675","norming","","","","","","",""
"null","../img/tt/1268tt.jpg","null","mooney1","image-keyboard-response","182","678503","0.0-6.0-1.25","2715164","co37675","norming","","","","","","",""
"5802.400000000023","","","post_mooney1_questions","survey-likert","183","684308","0.0-6.0-2.25","2715164","co37675","norming","","","{""curiosity"":1,""confidence"":0}","[0,1]","../img/tt/1268tt.jpg","",""
"517.8350000000792","","","recognition","survey-text","184","684827","0.0-6.0-3.25","2715164","co37675","norming","","","{""guess"":""""}","","../img/tt/1268tt.jpg","",""
"null","../img/gs/1268gs.jpg","null","reveal","image-keyboard-response","185","686834","0.0-6.0-4.25","2715164","co37675","norming","","","","","","",""
"null","../img/tt/1268tt.jpg","null","mooney2","image-keyboard-response","186","688842","0.0-6.0-5.25","2715164","co37675","norming","","","","","","",""
"3254.380000000121","","","post_reveal_questions","survey-likert","187","692099","0.0-6.0-6.25","2715164","co37675","norming","","","{""aha"":4}","[0]","../img/tt/1268tt.jpg","",""
"null","<div style=""font-size:60px;""> </div>","null","fixation","html-keyboard-response","188","692308","0.0-6.0-0.26","2715164","co37675","norming","","","","","","",""
"null","../img/tt/1188tt.jpg","null","mooney1","image-keyboard-response","189","695316","0.0-6.0-1.26","2715164","co37675","norming","","","","","","",""
"8252.969999999972","","","post_mooney1_questions","survey-likert","190","703571","0.0-6.0-2.26","2715164","co37675","norming","","","{""curiosity"":4,""confidence"":4}","[0,1]","../img/tt/1188tt.jpg","",""
"2342.210000000079","","","recognition","survey-text","191","705915","0.0-6.0-3.26","2715164","co37675","norming","","","{""guess"":""kuiken""}","","../img/tt/1188tt.jpg","",""
"null","../img/gs/1188gs.jpg","null","reveal","image-keyboard-response","192","707917","0.0-6.0-4.26","2715164","co37675","norming","","","","","","",""
"null","../img/tt/1188tt.jpg","null","mooney2","image-keyboard-response","193","709925","0.0-6.0-5.26","2715164","co37675","norming","","","","","","",""
"2844.350000000093","","","post_reveal_questions","survey-likert","194","712771","0.0-6.0-6.26","2715164","co37675","norming","","","{""aha"":4}","[0]","../img/tt/1188tt.jpg","",""
"null","<div style=""font-size:60px;""> </div>","null","fixation","html-keyboard-response","195","712972","0.0-6.0-0.27","2715164","co37675","norming","","","","","","",""
"null","../img/tt/1143tt.jpg","null","mooney1","image-keyboard-response","196","715976","0.0-6.0-1.27","2715164","co37675","norming","","","","","","",""
"4688.9700000000885","","","post_mooney1_questions","survey-likert","197","720668","0.0-6.0-2.27","2715164","co37675","norming","","","{""curiosity"":5,""confidence"":0}","[0,1]","../img/tt/1143tt.jpg","",""
"654.0649999999441","","","recognition","survey-text","198","721323","0.0-6.0-3.27","2715164","co37675","norming","","","{""guess"":""""}","","../img/tt/1143tt.jpg","",""
"null","../img/gs/1143gs.jpg","null","reveal","image-keyboard-response","199","723334","0.0-6.0-4.27","2715164","co37675","norming","","","","","","",""
"null","../img/tt/1143tt.jpg","null","mooney2","image-keyboard-response","200","725336","0.0-6.0-5.27","2715164","co37675","norming","","","","","","",""
"2105.5050000000047","","","post_reveal_questions","survey-likert","201","727443","0.0-6.0-6.27","2715164","co37675","norming","","","{""aha"":5}","[0]","../img/tt/1143tt.jpg","",""
"null","<div style=""font-size:60px;""> </div>","null","fixation","html-keyboard-response","202","727646","0.0-6.0-0.28","2715164","co37675","norming","","","","","","",""
"null","../img/tt/1260tt.jpg","null","mooney1","image-keyboard-response","203","730652","0.0-6.0-1.28","2715164","co37675","norming","","","","","","",""
"4293.140000000014","","","post_mooney1_questions","survey-likert","204","734946","0.0-6.0-2.28","2715164","co37675","norming","","","{""curiosity"":2,""confidence"":4}","[0,1]","../img/tt/1260tt.jpg","",""
"2613.8450000000885","","","recognition","survey-text","205","737562","0.0-6.0-3.28","2715164","co37675","norming","","","{""guess"":""hamster""}","","../img/tt/1260tt.jpg","",""
"null","../img/gs/1260gs.jpg","null","reveal","image-keyboard-response","206","739565","0.0-6.0-4.28","2715164","co37675","norming","","","","","","",""
"null","../img/tt/1260tt.jpg","null","mooney2","image-keyboard-response","207","741565","0.0-6.0-5.28","2715164","co37675","norming","","","","","","",""
"4075.820000000065","","","post_reveal_questions","survey-likert","208","745642","0.0-6.0-6.28","2715164","co37675","norming","","","{""aha"":1}","[0]","../img/tt/1260tt.jpg","",""
"null","<div style=""font-size:60px;""> </div>","null","fixation","html-keyboard-response","209","745848","0.0-6.0-0.29","2715164","co37675","norming","","","","","","",""
"null","../img/tt/307tt.jpg","null","mooney1","image-keyboard-response","210","748854","0.0-6.0-1.29","2715164","co37675","norming","","","","","","",""
"5091.509999999893","","","post_mooney1_questions","survey-likert","211","753946","0.0-6.0-2.29","2715164","co37675","norming","","","{""curiosity"":1,""confidence"":0}","[0,1]","../img/tt/307tt.jpg","",""
"1845.9750000002095","","","recognition","survey-text","212","755794","0.0-6.0-3.29","2715164","co37675","norming","","","{""guess"":""""}","","../img/tt/307tt.jpg","",""
"null","../img/gs/307gs.jpg","null","reveal","image-keyboard-response","213","757802","0.0-6.0-4.29","2715164","co37675","norming","","","","","","",""
"null","../img/tt/307tt.jpg","null","mooney2","image-keyboard-response","214","759808","0.0-6.0-5.29","2715164","co37675","norming","","","","","","",""
"3784.695000000065","","","post_reveal_questions","survey-likert","215","763594","0.0-6.0-6.29","2715164","co37675","norming","","","{""aha"":4}","[0]","../img/tt/307tt.jpg","",""
"null","<div style=""font-size:60px;""> </div>","null","fixation","html-keyboard-response","216","763803","0.0-6.0-0.30","2715164","co37675","norming","","","","","","",""
"null","../img/tt/1262tt.jpg","null","mooney1","image-keyboard-response","217","766813","0.0-6.0-1.30","2715164","co37675","norming","","","","","","",""
"7363.935000000172","","","post_mooney1_questions","survey-likert","218","774178","0.0-6.0-2.30","2715164","co37675","norming","","","{""curiosity"":1,""confidence"":2}","[0,1]","../img/tt/1262tt.jpg","",""
"2085.9100000000326","","","recognition","survey-text","219","776266","0.0-6.0-3.30","2715164","co37675","norming","","","{""guess"":""slang""}","","../img/tt/1262tt.jpg","",""
"null","../img/gs/1262gs.jpg","null","reveal","image-keyboard-response","220","778268","0.0-6.0-4.30","2715164","co37675","norming","","","","","","",""
"null","../img/tt/1262tt.jpg","null","mooney2","image-keyboard-response","221","780272","0.0-6.0-5.30","2715164","co37675","norming","","","","","","",""
"2216.570000000065","","","post_reveal_questions","survey-likert","222","782490","0.0-6.0-6.30","2715164","co37675","norming","","","{""aha"":3}","[0]","../img/tt/1262tt.jpg","",""
"null","<div style=""font-size:60px;""> </div>","null","fixation","html-keyboard-response","223","782695","0.0-6.0-0.31","2715164","co37675","norming","","","","","","",""
"null","../img/tt/096tt.jpg","null","mooney1","image-keyboard-response","224","785700","0.0-6.0-1.31","2715164","co37675","norming","","","","","","",""
"7941.224999999977","","","post_mooney1_questions","survey-likert","225","793642","0.0-6.0-2.31","2715164","co37675","norming","","","{""curiosity"":1,""confidence"":6}","[0,1]","../img/tt/096tt.jpg","",""
"2317.6500000000233","","","recognition","survey-text","226","795962","0.0-6.0-3.31","2715164","co37675","norming","","","{""guess"":""piano""}","","../img/tt/096tt.jpg","",""
"null","../img/gs/096gs.jpg","null","reveal","image-keyboard-response","227","797964","0.0-6.0-4.31","2715164","co37675","norming","","","","","","",""
"null","../img/tt/096tt.jpg","null","mooney2","image-keyboard-response","228","799971","0.0-6.0-5.31","2715164","co37675","norming","","","","","","",""
"2141.920000000042","","","post_reveal_questions","survey-likert","229","802114","0.0-6.0-6.31","2715164","co37675","norming","","","{""aha"":0}","[0]","../img/tt/096tt.jpg","",""
"null","<div style=""font-size:60px;""> </div>","null","fixation","html-keyboard-response","230","802315","0.0-6.0-0.32","2715164","co37675","norming","","","","","","",""
"null","../img/tt/580tt.jpg","null","mooney1","image-keyboard-response","231","805319","0.0-6.0-1.32","2715164","co37675","norming","","","","","","",""
"4337.040000000037","","","post_mooney1_questions","survey-likert","232","809658","0.0-6.0-2.32","2715164","co37675","norming","","","{""curiosity"":4,""confidence"":0}","[0,1]","../img/tt/580tt.jpg","",""
"1085.6799999999348","","","recognition","survey-text","233","810745","0.0-6.0-3.32","2715164","co37675","norming","","","{""guess"":""""}","","../img/tt/580tt.jpg","",""
"null","../img/gs/580gs.jpg","null","reveal","image-keyboard-response","234","812754","0.0-6.0-4.32","2715164","co37675","norming","","","","","","",""
"null","../img/tt/580tt.jpg","null","mooney2","image-keyboard-response","235","814755","0.0-6.0-5.32","2715164","co37675","norming","","","","","","",""
"6093.5449999999255","","","post_reveal_questions","survey-likert","236","820849","0.0-6.0-6.32","2715164","co37675","norming","","","{""aha"":3}","[0]","../img/tt/580tt.jpg","",""
"null","<div style=""font-size:60px;""> </div>","null","fixation","html-keyboard-response","237","821053","0.0-6.0-0.33","2715164","co37675","norming","","","","","","",""
"null","../img/tt/296tt.jpg","null","mooney1","image-keyboard-response","238","824059","0.0-6.0-1.33","2715164","co37675","norming","","","","","","",""
"4509.165000000154","","","post_mooney1_questions","survey-likert","239","828570","0.0-6.0-2.33","2715164","co37675","norming","","","{""curiosity"":2,""confidence"":3}","[0,1]","../img/tt/296tt.jpg","",""
"3917.6500000001397","","","recognition","survey-text","240","832490","0.0-6.0-3.33","2715164","co37675","norming","","","{""guess"":""kinderwagen""}","","../img/tt/296tt.jpg","",""
"null","../img/gs/296gs.jpg","null","reveal","image-keyboard-response","241","834498","0.0-6.0-4.33","2715164","co37675","norming","","","","","","",""
"null","../img/tt/296tt.jpg","null","mooney2","image-keyboard-response","242","836504","0.0-6.0-5.33","2715164","co37675","norming","","","","","","",""
"4273.084999999963","","","post_reveal_questions","survey-likert","243","840778","0.0-6.0-6.33","2715164","co37675","norming","","","{""aha"":4}","[0]","../img/tt/296tt.jpg","",""
"null","<div style=""font-size:60px;""> </div>","null","fixation","html-keyboard-response","244","840980","0.0-6.0-0.34","2715164","co37675","norming","","","","","","",""
"null","../img/tt/435tt.jpg","null","mooney1","image-keyboard-response","245","843989","0.0-6.0-1.34","2715164","co37675","norming","","","","","","",""
"6947.519999999902","","","post_mooney1_questions","survey-likert","246","850938","0.0-6.0-2.34","2715164","co37675","norming","","","{""curiosity"":1,""confidence"":5}","[0,1]","../img/tt/435tt.jpg","",""
"2189.8799999998882","","","recognition","survey-text","247","853129","0.0-6.0-3.34","2715164","co37675","norming","","","{""guess"":""paard""}","","../img/tt/435tt.jpg","",""
"null","../img/gs/435gs.jpg","null","reveal","image-keyboard-response","248","855136","0.0-6.0-4.34","2715164","co37675","norming","","","","","","",""
"null","../img/tt/435tt.jpg","null","mooney2","image-keyboard-response","249","857144","0.0-6.0-5.34","2715164","co37675","norming","","","","","","",""
"3728.2550000000047","","","post_reveal_questions","survey-likert","250","860873","0.0-6.0-6.34","2715164","co37675","norming","","","{""aha"":5}","[0]","../img/tt/435tt.jpg","",""
"null","<div style=""font-size:60px;""> </div>","null","fixation","html-keyboard-response","251","861079","0.0-6.0-0.35","2715164","co37675","norming","","","","","","",""
"null","../img/tt/1228tt.jpg","null","mooney1","image-keyboard-response","252","864084","0.0-6.0-1.35","2715164","co37675","norming","","","","","","",""
"3610.6500000000233","","","post_mooney1_questions","survey-likert","253","867697","0.0-6.0-2.35","2715164","co37675","norming","","","{""curiosity"":1,""confidence"":4}","[0,1]","../img/tt/1228tt.jpg","",""
"2966.1849999999395","","","recognition","survey-text","254","870665","0.0-6.0-3.35","2715164","co37675","norming","","","{""guess"":""kip""}","","../img/tt/1228tt.jpg","",""
"null","../img/gs/1228gs.jpg","null","reveal","image-keyboard-response","255","872667","0.0-6.0-4.35","2715164","co37675","norming","","","","","","",""
"null","../img/tt/1228tt.jpg","null","mooney2","image-keyboard-response","256","874671","0.0-6.0-5.35","2715164","co37675","norming","","","","","","",""
"3032.1600000000326","","","post_reveal_questions","survey-likert","257","877705","0.0-6.0-6.35","2715164","co37675","norming","","","{""aha"":1}","[0]","../img/tt/1228tt.jpg","",""
"null","<div style=""font-size:60px;""> </div>","null","fixation","html-keyboard-response","258","877916","0.0-6.0-0.36","2715164","co37675","norming","","","","","","",""
"null","../img/tt/481tt.jpg","null","mooney1","image-keyboard-response","259","880926","0.0-6.0-1.36","2715164","co37675","norming","","","","","","",""
"3977.2899999998044","","","post_mooney1_questions","survey-likert","260","884905","0.0-6.0-2.36","2715164","co37675","norming","","","{""curiosity"":2,""confidence"":5}","[0,1]","../img/tt/481tt.jpg","",""
"3406.1099999998696","","","recognition","survey-text","261","888313","0.0-6.0-3.36","2715164","co37675","norming","","","{""guess"":""hond""}","","../img/tt/481tt.jpg","",""
"null","../img/gs/481gs.jpg","null","reveal","image-keyboard-response","262","890316","0.0-6.0-4.36","2715164","co37675","norming","","","","","","",""
"null","../img/tt/481tt.jpg","null","mooney2","image-keyboard-response","263","892323","0.0-6.0-5.36","2715164","co37675","norming","","","","","","",""
"1499.9199999999255","","","post_reveal_questions","survey-likert","264","893825","0.0-6.0-6.36","2715164","co37675","norming","","","{""aha"":0}","[0]","../img/tt/481tt.jpg","",""
"null","<div style=""font-size:60px;""> </div>","null","fixation","html-keyboard-response","265","894033","0.0-6.0-0.37","2715164","co37675","norming","","","","","","",""
"null","../img/tt/406tt.jpg","null","mooney1","image-keyboard-response","266","897043","0.0-6.0-1.37","2715164","co37675","norming","","","","","","",""
"5683.349999999977","","","post_mooney1_questions","survey-likert","267","902729","0.0-6.0-2.37","2715164","co37675","norming","","","{""curiosity"":2,""confidence"":0}","[0,1]","../img/tt/406tt.jpg","",""
"485.79999999993015","","","recognition","survey-text","268","903217","0.0-6.0-3.37","2715164","co37675","norming","","","{""guess"":""""}","","../img/tt/406tt.jpg","",""
"null","../img/gs/406gs.jpg","null","reveal","image-keyboard-response","269","905227","0.0-6.0-4.37","2715164","co37675","norming","","","","","","",""
"null","../img/tt/406tt.jpg","null","mooney2","image-keyboard-response","270","907230","0.0-6.0-5.37","2715164","co37675","norming","","","","","","",""
"2992.8200000001816","","","post_reveal_questions","survey-likert","271","910225","0.0-6.0-6.37","2715164","co37675","norming","","","{""aha"":5}","[0]","../img/tt/406tt.jpg","",""
"null","<div style=""font-size:60px;""> </div>","null","fixation","html-keyboard-response","272","910434","0.0-6.0-0.38","2715164","co37675","norming","","","","","","",""
"null","../img/tt/1269tt.jpg","null","mooney1","image-keyboard-response","273","913442","0.0-6.0-1.38","2715164","co37675","norming","","","","","","",""
"4388.570000000065","","","post_mooney1_questions","survey-likert","274","917833","0.0-6.0-2.38","2715164","co37675","norming","","","{""curiosity"":2,""confidence"":1}","[0,1]","../img/tt/1269tt.jpg","",""
"3326.2000000001863","","","recognition","survey-text","275","921161","0.0-6.0-3.38","2715164","co37675","norming","","","{""guess"":""vogelnest""}","","../img/tt/1269tt.jpg","",""
"null","../img/gs/1269gs.jpg","null","reveal","image-keyboard-response","276","923169","0.0-6.0-4.38","2715164","co37675","norming","","","","","","",""
"null","../img/tt/1269tt.jpg","null","mooney2","image-keyboard-response","277","925171","0.0-6.0-5.38","2715164","co37675","norming","","","","","","",""
"1610.3850000000093","","","post_reveal_questions","survey-likert","278","926785","0.0-6.0-6.38","2715164","co37675","norming","","","{""aha"":4}","[0]","../img/tt/1269tt.jpg","",""
"null","<div style=""font-size:60px;""> </div>","null","fixation","html-keyboard-response","279","926986","0.0-6.0-0.39","2715164","co37675","norming","","","","","","",""
"null","../img/tt/1004tt.jpg","null","mooney1","image-keyboard-response","280","929991","0.0-6.0-1.39","2715164","co37675","norming","","","","","","",""
"6903.385000000126","","","post_mooney1_questions","survey-likert","281","936897","0.0-6.0-2.39","2715164","co37675","norming","","","{""curiosity"":5,""confidence"":4}","[0,1]","../img/tt/1004tt.jpg","",""
"1702.2249999999767","","","recognition","survey-text","282","938601","0.0-6.0-3.39","2715164","co37675","norming","","","{""guess"":""vos""}","","../img/tt/1004tt.jpg","",""
"null","../img/gs/1004gs.jpg","null","reveal","image-keyboard-response","283","940610","0.0-6.0-4.39","2715164","co37675","norming","","","","","","",""
"null","../img/tt/1004tt.jpg","null","mooney2","image-keyboard-response","284","942611","0.0-6.0-5.39","2715164","co37675","norming","","","","","","",""
"3611.3850000001257","","","post_reveal_questions","survey-likert","285","946225","0.0-6.0-6.39","2715164","co37675","norming","","","{""aha"":3}","[0]","../img/tt/1004tt.jpg","",""
"null","<div style=""font-size:60px;""> </div>","null","fixation","html-keyboard-response","286","946426","0.0-6.0-0.40","2715164","co37675","norming","","","","","","",""
"null","../img/tt/1049tt.jpg","null","mooney1","image-keyboard-response","287","949428","0.0-6.0-1.40","2715164","co37675","norming","","","","","","",""
"5881.724999999977","","","post_mooney1_questions","survey-likert","288","955313","0.0-6.0-2.40","2715164","co37675","norming","","","{""curiosity"":3,""confidence"":5}","[0,1]","../img/tt/1049tt.jpg","",""
"1974.1350000000093","","","recognition","survey-text","289","957289","0.0-6.0-3.40","2715164","co37675","norming","","","{""guess"":""koe""}","","../img/tt/1049tt.jpg","",""
"null","../img/gs/1049gs.jpg","null","reveal","image-keyboard-response","290","959294","0.0-6.0-4.40","2715164","co37675","norming","","","","","","",""
"null","../img/tt/1049tt.jpg","null","mooney2","image-keyboard-response","291","961305","0.0-6.0-5.40","2715164","co37675","norming","","","","","","",""
"3028.695000000065","","","post_reveal_questions","survey-likert","292","964336","0.0-6.0-6.40","2715164","co37675","norming","","","{""aha"":1}","[0]","../img/tt/1049tt.jpg","",""
"null","<div style=""font-size:60px;""> </div>","null","fixation","html-keyboard-response","293","964544","0.0-6.0-0.41","2715164","co37675","norming","","","","","","",""
"null","../img/tt/126tt.jpg","null","mooney1","image-keyboard-response","294","967554","0.0-6.0-1.41","2715164","co37675","norming","","","","","","",""
"5381.869999999879","","","post_mooney1_questions","survey-likert","295","972937","0.0-6.0-2.41","2715164","co37675","norming","","","{""curiosity"":0,""confidence"":1}","[0,1]","../img/tt/126tt.jpg","",""
"2477.920000000042","","","recognition","survey-text","296","975409","0.0-6.0-3.41","2715164","co37675","norming","","","{""guess"":""meer""}","","../img/tt/126tt.jpg","",""
"null","../img/gs/126gs.jpg","null","reveal","image-keyboard-response","297","977414","0.0-6.0-4.41","2715164","co37675","norming","","","","","","",""
"null","../img/tt/126tt.jpg","null","mooney2","image-keyboard-response","298","979422","0.0-6.0-5.41","2715164","co37675","norming","","","","","","",""
"1553.9800000000978","","","post_reveal_questions","survey-likert","299","980977","0.0-6.0-6.41","2715164","co37675","norming","","","{""aha"":2}","[0]","../img/tt/126tt.jpg","",""
"null","<div style=""font-size:60px;""> </div>","null","fixation","html-keyboard-response","300","981187","0.0-6.0-0.42","2715164","co37675","norming","","","","","","",""
"null","../img/tt/1241tt.jpg","null","mooney1","image-keyboard-response","301","984195","0.0-6.0-1.42","2715164","co37675","norming","","","","","","",""
"5148.110000000102","","","post_mooney1_questions","survey-likert","302","989345","0.0-6.0-2.42","2715164","co37675","norming","","","{""curiosity"":4,""confidence"":4}","[0,1]","../img/tt/1241tt.jpg","",""
"1790.0899999999674","","","recognition","survey-text","303","991137","0.0-6.0-3.42","2715164","co37675","norming","","","{""guess"":""wolf""}","","../img/tt/1241tt.jpg","",""
"null","../img/gs/1241gs.jpg","null","reveal","image-keyboard-response","304","993147","0.0-6.0-4.42","2715164","co37675","norming","","","","","","",""
"null","../img/tt/1241tt.jpg","null","mooney2","image-keyboard-response","305","995155","0.0-6.0-5.42","2715164","co37675","norming","","","","","","",""
"1889.8799999998882","","","post_reveal_questions","survey-likert","306","997049","0.0-6.0-6.42","2715164","co37675","norming","","","{""aha"":1}","[0]","../img/tt/1241tt.jpg","",""
"null","<div style=""font-size:60px;""> </div>","null","fixation","html-keyboard-response","307","997253","0.0-6.0-0.43","2715164","co37675","norming","","","","","","",""
"null","../img/tt/1066tt.jpg","null","mooney1","image-keyboard-response","308","1000260","0.0-6.0-1.43","2715164","co37675","norming","","","","","","",""
"7210.489999999874","","","post_mooney1_questions","survey-likert","309","1007473","0.0-6.0-2.43","2715164","co37675","norming","","","{""curiosity"":2,""confidence"":4}","[0,1]","../img/tt/1066tt.jpg","",""
"13822.149999999907","","","recognition","survey-text","310","1021297","0.0-6.0-3.43","2715164","co37675","norming","","","{""guess"":""stal""}","","../img/tt/1066tt.jpg","",""
"null","../img/gs/1066gs.jpg","null","reveal","image-keyboard-response","311","1023301","0.0-6.0-4.43","2715164","co37675","norming","","","","","","",""
"null","../img/tt/1066tt.jpg","null","mooney2","image-keyboard-response","312","1025303","0.0-6.0-5.43","2715164","co37675","norming","","","","","","",""
"1944.015000000014","","","post_reveal_questions","survey-likert","313","1027249","0.0-6.0-6.43","2715164","co37675","norming","","","{""aha"":4}","[0]","../img/tt/1066tt.jpg","",""
"null","<div style=""font-size:60px;""> </div>","null","fixation","html-keyboard-response","314","1027456","0.0-6.0-0.44","2715164","co37675","norming","","","","","","",""
"null","../img/tt/412tt.jpg","null","mooney1","image-keyboard-response","315","1030462","0.0-6.0-1.44","2715164","co37675","norming","","","","","","",""
"4280.675000000047","","","post_mooney1_questions","survey-likert","316","1034748","0.0-6.0-2.44","2715164","co37675","norming","","","{""curiosity"":4,""confidence"":3}","[0,1]","../img/tt/412tt.jpg","",""
"5845.675000000047","","","recognition","survey-text","317","1040595","0.0-6.0-3.44","2715164","co37675","norming","","","{""guess"":""koffieapparaat""}","","../img/tt/412tt.jpg","",""
"null","../img/gs/412gs.jpg","null","reveal","image-keyboard-response","318","1042598","0.0-6.0-4.44","2715164","co37675","norming","","","","","","",""
"null","../img/tt/412tt.jpg","null","mooney2","image-keyboard-response","319","1044610","0.0-6.0-5.44","2715164","co37675","norming","","","","","","",""
"1319.315000000177","","","post_reveal_questions","survey-likert","320","1045931","0.0-6.0-6.44","2715164","co37675","norming","","","{""aha"":1}","[0]","../img/tt/412tt.jpg","",""
"null","<div style=""font-size:60px;""> </div>","null","fixation","html-keyboard-response","321","1046135","0.0-6.0-0.45","2715164","co37675","norming","","","","","","",""
"null","../img/tt/008tt.jpg","null","mooney1","image-keyboard-response","322","1049137","0.0-6.0-1.45","2715164","co37675","norming","","","","","","",""
"7575.475000000093","","","post_mooney1_questions","survey-likert","323","1056715","0.0-6.0-2.45","2715164","co37675","norming","","","{""curiosity"":2,""confidence"":3}","[0,1]","../img/tt/008tt.jpg","",""
"2086.2999999998137","","","recognition","survey-text","324","1058804","0.0-6.0-3.45","2715164","co37675","norming","","","{""guess"":""raket""}","","../img/tt/008tt.jpg","",""
"null","../img/gs/008gs.jpg","null","reveal","image-keyboard-response","325","1060814","0.0-6.0-4.45","2715164","co37675","norming","","","","","","",""
"null","../img/tt/008tt.jpg","null","mooney2","image-keyboard-response","326","1062819","0.0-6.0-5.45","2715164","co37675","norming","","","","","","",""
"2566.475000000093","","","post_reveal_questions","survey-likert","327","1065387","0.0-6.0-6.45","2715164","co37675","norming","","","{""aha"":1}","[0]","../img/tt/008tt.jpg","",""
"null","<div style=""font-size:60px;""> </div>","null","fixation","html-keyboard-response","328","1065589","0.0-6.0-0.46","2715164","co37675","norming","","","","","","",""
"null","../img/tt/1101tt.jpg","null","mooney1","image-keyboard-response","329","1068598","0.0-6.0-1.46","2715164","co37675","norming","","","","","","",""
"9643.219999999972","","","post_mooney1_questions","survey-likert","330","1078244","0.0-6.0-2.46","2715164","co37675","norming","","","{""curiosity"":1,""confidence"":2}","[0,1]","../img/tt/1101tt.jpg","",""
"6110.154999999795","","","recognition","survey-text","331","1084356","0.0-6.0-3.46","2715164","co37675","norming","","","{""guess"":""voetballer""}","","../img/tt/1101tt.jpg","",""
"null","../img/gs/1101gs.jpg","null","reveal","image-keyboard-response","332","1086365","0.0-6.0-4.46","2715164","co37675","norming","","","","","","",""
"null","../img/tt/1101tt.jpg","null","mooney2","image-keyboard-response","333","1088368","0.0-6.0-5.46","2715164","co37675","norming","","","","","","",""
"1617.4399999999441","","","post_reveal_questions","survey-likert","334","1089988","0.0-6.0-6.46","2715164","co37675","norming","","","{""aha"":0}","[0]","../img/tt/1101tt.jpg","",""
"null","<div style=""font-size:60px;""> </div>","null","fixation","html-keyboard-response","335","1090196","0.0-6.0-0.47","2715164","co37675","norming","","","","","","",""
"null","../img/tt/1033tt.jpg","null","mooney1","image-keyboard-response","336","1093207","0.0-6.0-1.47","2715164","co37675","norming","","","","","","",""
"4473.39000000013","","","post_mooney1_questions","survey-likert","337","1097682","0.0-6.0-2.47","2715164","co37675","norming","","","{""curiosity"":1,""confidence"":4}","[0,1]","../img/tt/1033tt.jpg","",""
"2733.9000000001397","","","recognition","survey-text","338","1100418","0.0-6.0-3.47","2715164","co37675","norming","","","{""guess"":""baseballer""}","","../img/tt/1033tt.jpg","",""
"null","../img/gs/1033gs.jpg","null","reveal","image-keyboard-response","339","1102419","0.0-6.0-4.47","2715164","co37675","norming","","","","","","",""
"null","../img/tt/1033tt.jpg","null","mooney2","image-keyboard-response","340","1104429","0.0-6.0-5.47","2715164","co37675","norming","","","","","","",""
"1666.4750000000931","","","post_reveal_questions","survey-likert","341","1106098","0.0-6.0-6.47","2715164","co37675","norming","","","{""aha"":0}","[0]","../img/tt/1033tt.jpg","",""
"null","<div style=""font-size:60px;""> </div>","null","fixation","html-keyboard-response","342","1106303","0.0-6.0-0.48","2715164","co37675","norming","","","","","","",""
"null","../img/tt/1024tt.jpg","null","mooney1","image-keyboard-response","343","1109305","0.0-6.0-1.48","2715164","co37675","norming","","","","","","",""
"4008.304999999935","","","post_mooney1_questions","survey-likert","344","1113314","0.0-6.0-2.48","2715164","co37675","norming","","","{""curiosity"":0,""confidence"":6}","[0,1]","../img/tt/1024tt.jpg","",""
"7102.024999999907","","","recognition","survey-text","345","1120418","0.0-6.0-3.48","2715164","co37675","norming","","","{""guess"":""tennister""}","","../img/tt/1024tt.jpg","",""
"null","../img/gs/1024gs.jpg","null","reveal","image-keyboard-response","346","1122424","0.0-6.0-4.48","2715164","co37675","norming","","","","","","",""
"null","../img/tt/1024tt.jpg","null","mooney2","image-keyboard-response","347","1124432","0.0-6.0-5.48","2715164","co37675","norming","","","","","","",""
"2239.744999999879","","","post_reveal_questions","survey-likert","348","1126674","0.0-6.0-6.48","2715164","co37675","norming","","","{""aha"":0}","[0]","../img/tt/1024tt.jpg","",""
"null","<div style=""font-size:60px;""> </div>","null","fixation","html-keyboard-response","349","1126885","0.0-6.0-0.49","2715164","co37675","norming","","","","","","",""
"null","../img/tt/118tt.jpg","null","mooney1","image-keyboard-response","350","1129894","0.0-6.0-1.49","2715164","co37675","norming","","","","","","",""
"3186.339999999851","","","post_mooney1_questions","survey-likert","351","1133082","0.0-6.0-2.49","2715164","co37675","norming","","","{""curiosity"":1,""confidence"":3}","[0,1]","../img/tt/118tt.jpg","",""
"1990","","","recognition","survey-text","352","1135074","0.0-6.0-3.49","2715164","co37675","norming","","","{""guess"":""trap""}","","../img/tt/118tt.jpg","",""
"null","../img/gs/118gs.jpg","null","reveal","image-keyboard-response","353","1137083","0.0-6.0-4.49","2715164","co37675","norming","","","","","","",""
"null","../img/tt/118tt.jpg","null","mooney2","image-keyboard-response","354","1139085","0.0-6.0-5.49","2715164","co37675","norming","","","","","","",""
"2115.340000000084","","","post_reveal_questions","survey-likert","355","1141202","0.0-6.0-6.49","2715164","co37675","norming","","","{""aha"":4}","[0]","../img/tt/118tt.jpg","",""
"null","<div style=""font-size:60px;""> </div>","null","fixation","html-keyboard-response","356","1141403","0.0-6.0-0.50","2715164","co37675","norming","","","","","","",""
"null","../img/tt/1363tt.jpg","null","mooney1","image-keyboard-response","357","1144413","0.0-6.0-1.50","2715164","co37675","norming","","","","","","",""
"6563.100000000093","","","post_mooney1_questions","survey-likert","358","1150978","0.0-6.0-2.50","2715164","co37675","norming","","","{""curiosity"":1,""confidence"":3}","[0,1]","../img/tt/1363tt.jpg","",""
"5582.060000000056","","","recognition","survey-text","359","1156567","0.0-6.0-3.50","2715164","co37675","norming","","","{""guess"":""koffietas""}","","../img/tt/1363tt.jpg","",""
"null","../img/gs/1363gs.jpg","null","reveal","image-keyboard-response","360","1158573","0.0-6.0-4.50","2715164","co37675","norming","","","","","","",""
"null","../img/tt/1363tt.jpg","null","mooney2","image-keyboard-response","361","1160576","0.0-6.0-5.50","2715164","co37675","norming","","","","","","",""
"1413.094999999972","","","post_reveal_questions","survey-likert","362","1161991","0.0-6.0-6.50","2715164","co37675","norming","","","{""aha"":1}","[0]","../img/tt/1363tt.jpg","",""
"null","<div style=""font-size:60px;""> </div>","null","fixation","html-keyboard-response","363","1162195","0.0-6.0-0.51","2715164","co37675","norming","","","","","","",""
"null","../img/tt/1148tt.jpg","null","mooney1","image-keyboard-response","364","1165197","0.0-6.0-1.51","2715164","co37675","norming","","","","","","",""
"5934.975000000093","","","post_mooney1_questions","survey-likert","365","1171135","0.0-6.0-2.51","2715164","co37675","norming","","","{""curiosity"":0,""confidence"":4}","[0,1]","../img/tt/1148tt.jpg","",""
"3510.1850000002887","","","recognition","survey-text","366","1174647","0.0-6.0-3.51","2715164","co37675","norming","","","{""guess"":""roeier""}","","../img/tt/1148tt.jpg","",""
"null","../img/gs/1148gs.jpg","null","reveal","image-keyboard-response","367","1176650","0.0-6.0-4.51","2715164","co37675","norming","","","","","","",""
"null","../img/tt/1148tt.jpg","null","mooney2","image-keyboard-response","368","1178651","0.0-6.0-5.51","2715164","co37675","norming","","","","","","",""
"1970.1099999998696","","","post_reveal_questions","survey-likert","369","1180623","0.0-6.0-6.51","2715164","co37675","norming","","","{""aha"":3}","[0]","../img/tt/1148tt.jpg","",""
"null","<div style=""font-size:60px;""> </div>","null","fixation","html-keyboard-response","370","1180834","0.0-6.0-0.52","2715164","co37675","norming","","","","","","",""
"null","../img/tt/080tt.jpg","null","mooney1","image-keyboard-response","371","1183837","0.0-6.0-1.52","2715164","co37675","norming","","","","","","",""
"4591.720000000205","","","post_mooney1_questions","survey-likert","372","1188431","0.0-6.0-2.52","2715164","co37675","norming","","","{""curiosity"":3,""confidence"":0}","[0,1]","../img/tt/080tt.jpg","",""
"1534.0249999999069","","","recognition","survey-text","373","1189967","0.0-6.0-3.52","2715164","co37675","norming","","","{""guess"":""""}","","../img/tt/080tt.jpg","",""
"null","../img/gs/080gs.jpg","null","reveal","image-keyboard-response","374","1191972","0.0-6.0-4.52","2715164","co37675","norming","","","","","","",""
"null","../img/tt/080tt.jpg","null","mooney2","image-keyboard-response","375","1193976","0.0-6.0-5.52","2715164","co37675","norming","","","","","","",""
"1604.3600000001024","","","post_reveal_questions","survey-likert","376","1195583","0.0-6.0-6.52","2715164","co37675","norming","","","{""aha"":5}","[0]","../img/tt/080tt.jpg","",""
"null","<div style=""font-size:60px;""> </div>","null","fixation","html-keyboard-response","377","1195791","0.0-6.0-0.53","2715164","co37675","norming","","","","","","",""
"null","../img/tt/189tt.jpg","null","mooney1","image-keyboard-response","378","1198799","0.0-6.0-1.53","2715164","co37675","norming","","","","","","",""
"6412.879999999655","","","post_mooney1_questions","survey-likert","379","1205215","0.0-6.0-2.53","2715164","co37675","norming","","","{""curiosity"":4,""confidence"":4}","[0,1]","../img/tt/189tt.jpg","",""
"1958.1750000000466","","","recognition","survey-text","380","1207175","0.0-6.0-3.53","2715164","co37675","norming","","","{""guess"":""danser""}","","../img/tt/189tt.jpg","",""
"null","../img/gs/189gs.jpg","null","reveal","image-keyboard-response","381","1209182","0.0-6.0-4.53","2715164","co37675","norming","","","","","","",""
"null","../img/tt/189tt.jpg","null","mooney2","image-keyboard-response","382","1211184","0.0-6.0-5.53","2715164","co37675","norming","","","","","","",""
"1765.0200000000186","","","post_reveal_questions","survey-likert","383","1212951","0.0-6.0-6.53","2715164","co37675","norming","","","{""aha"":5}","[0]","../img/tt/189tt.jpg","",""
"null","<div style=""font-size:60px;""> </div>","null","fixation","html-keyboard-response","384","1213159","0.0-6.0-0.54","2715164","co37675","norming","","","","","","",""
"null","../img/tt/084tt.jpg","null","mooney1","image-keyboard-response","385","1216166","0.0-6.0-1.54","2715164","co37675","norming","","","","","","",""
"5991.7700000002515","","","post_mooney1_questions","survey-likert","386","1222161","0.0-6.0-2.54","2715164","co37675","norming","","","{""curiosity"":1,""confidence"":5}","[0,1]","../img/tt/084tt.jpg","",""
"1734.0900000000838","","","recognition","survey-text","387","1223897","0.0-6.0-3.54","2715164","co37675","norming","","","{""guess"":""eend""}","","../img/tt/084tt.jpg","",""
"null","../img/gs/084gs.jpg","null","reveal","image-keyboard-response","388","1225898","0.0-6.0-4.54","2715164","co37675","norming","","","","","","",""
"null","../img/tt/084tt.jpg","null","mooney2","image-keyboard-response","389","1227901","0.0-6.0-5.54","2715164","co37675","norming","","","","","","",""
"1809.1500000001397","","","post_reveal_questions","survey-likert","390","1229712","0.0-6.0-6.54","2715164","co37675","norming","","","{""aha"":0}","[0]","../img/tt/084tt.jpg","",""
"null","<div style=""font-size:60px;""> </div>","null","fixation","html-keyboard-response","391","1229913","0.0-6.0-0.55","2715164","co37675","norming","","","","","","",""
"null","../img/tt/019tt.jpg","null","mooney1","image-keyboard-response","392","1232922","0.0-6.0-1.55","2715164","co37675","norming","","","","","","",""
"3275.3349999999627","","","post_mooney1_questions","survey-likert","393","1236201","0.0-6.0-2.55","2715164","co37675","norming","","","{""curiosity"":1,""confidence"":0}","[0,1]","../img/tt/019tt.jpg","",""
"654.0949999999721","","","recognition","survey-text","394","1236856","0.0-6.0-3.55","2715164","co37675","norming","","","{""guess"":""""}","","../img/tt/019tt.jpg","",""
"null","../img/gs/019gs.jpg","null","reveal","image-keyboard-response","395","1238864","0.0-6.0-4.55","2715164","co37675","norming","","","","","","",""
"null","../img/tt/019tt.jpg","null","mooney2","image-keyboard-response","396","1240865","0.0-6.0-5.55","2715164","co37675","norming","","","","","","",""
"1845.8700000001118","","","post_reveal_questions","survey-likert","397","1242713","0.0-6.0-6.55","2715164","co37675","norming","","","{""aha"":2}","[0]","../img/tt/019tt.jpg","",""
"null","<div style=""font-size:60px;""> </div>","null","fixation","html-keyboard-response","398","1242919","0.0-6.0-0.56","2715164","co37675","norming","","","","","","",""
"null","../img/tt/135tt.jpg","null","mooney1","image-keyboard-response","399","1245927","0.0-6.0-1.56","2715164","co37675","norming","","","","","","",""
"3335.7249999998603","","","post_mooney1_questions","survey-likert","400","1249265","0.0-6.0-2.56","2715164","co37675","norming","","","{""curiosity"":2,""confidence"":5}","[0,1]","../img/tt/135tt.jpg","",""
"1766.0100000000093","","","recognition","survey-text","401","1251033","0.0-6.0-3.56","2715164","co37675","norming","","","{""guess"":""wc""}","","../img/tt/135tt.jpg","",""
"null","../img/gs/135gs.jpg","null","reveal","image-keyboard-response","402","1253043","0.0-6.0-4.56","2715164","co37675","norming","","","","","","",""
"null","../img/tt/135tt.jpg","null","mooney2","image-keyboard-response","403","1255045","0.0-6.0-5.56","2715164","co37675","norming","","","","","","",""
"4049.6750000000466","","","post_reveal_questions","survey-likert","404","1259097","0.0-6.0-6.56","2715164","co37675","norming","","","{""aha"":0}","[0]","../img/tt/135tt.jpg","",""
"null","<div style=""font-size:60px;""> </div>","null","fixation","html-keyboard-response","405","1259303","0.0-6.0-0.57","2715164","co37675","norming","","","","","","",""
"null","../img/tt/1107tt.jpg","null","mooney1","image-keyboard-response","406","1262305","0.0-6.0-1.57","2715164","co37675","norming","","","","","","",""
"3717.3599999998696","","","post_mooney1_questions","survey-likert","407","1266025","0.0-6.0-2.57","2715164","co37675","norming","","","{""curiosity"":1,""confidence"":6}","[0,1]","../img/tt/1107tt.jpg","",""
"3006.130000000121","","","recognition","survey-text","408","1269033","0.0-6.0-3.57","2715164","co37675","norming","","","{""guess"":""kitten""}","","../img/tt/1107tt.jpg","",""
"null","../img/gs/1107gs.jpg","null","reveal","image-keyboard-response","409","1271036","0.0-6.0-4.57","2715164","co37675","norming","","","","","","",""
"null","../img/tt/1107tt.jpg","null","mooney2","image-keyboard-response","410","1273038","0.0-6.0-5.57","2715164","co37675","norming","","","","","","",""
"1960.1800000001676","","","post_reveal_questions","survey-likert","411","1275001","0.0-6.0-6.57","2715164","co37675","norming","","","{""aha"":0}","[0]","../img/tt/1107tt.jpg","",""
"null","<div style=""font-size:60px;""> </div>","null","fixation","html-keyboard-response","412","1275208","0.0-6.0-0.58","2715164","co37675","norming","","","","","","",""
"null","../img/tt/1275tt.jpg","null","mooney1","image-keyboard-response","413","1278218","0.0-6.0-1.58","2715164","co37675","norming","","","","","","",""
"3197.5749999999534","","","post_mooney1_questions","survey-likert","414","1281417","0.0-6.0-2.58","2715164","co37675","norming","","","{""curiosity"":0,""confidence"":0}","[0,1]","../img/tt/1275tt.jpg","",""
"670.1700000001583","","","recognition","survey-text","415","1282089","0.0-6.0-3.58","2715164","co37675","norming","","","{""guess"":""""}","","../img/tt/1275tt.jpg","",""
"null","../img/gs/1275gs.jpg","null","reveal","image-keyboard-response","416","1284092","0.0-6.0-4.58","2715164","co37675","norming","","","","","","",""
"null","../img/tt/1275tt.jpg","null","mooney2","image-keyboard-response","417","1286101","0.0-6.0-5.58","2715164","co37675","norming","","","","","","",""
"1857.244999999879","","","post_reveal_questions","survey-likert","418","1287961","0.0-6.0-6.58","2715164","co37675","norming","","","{""aha"":1}","[0]","../img/tt/1275tt.jpg","",""
"null","<div style=""font-size:60px;""> </div>","null","fixation","html-keyboard-response","419","1288165","0.0-6.0-0.59","2715164","co37675","norming","","","","","","",""
"null","../img/tt/497tt.jpg","null","mooney1","image-keyboard-response","420","1291175","0.0-6.0-1.59","2715164","co37675","norming","","","","","","",""
"4790.964999999851","","","post_mooney1_questions","survey-likert","421","1295969","0.0-6.0-2.59","2715164","co37675","norming","","","{""curiosity"":5,""confidence"":1}","[0,1]","../img/tt/497tt.jpg","",""
"9237.710000000196","","","recognition","survey-text","422","1305208","0.0-6.0-3.59","2715164","co37675","norming","","","{""guess"":""zwemband""}","","../img/tt/497tt.jpg","",""
"null","../img/gs/497gs.jpg","null","reveal","image-keyboard-response","423","1307215","0.0-6.0-4.59","2715164","co37675","norming","","","","","","",""
"null","../img/tt/497tt.jpg","null","mooney2","image-keyboard-response","424","1309216","0.0-6.0-5.59","2715164","co37675","norming","","","","","","",""
"1534.5","","","post_reveal_questions","survey-likert","425","1310753","0.0-6.0-6.59","2715164","co37675","norming","","","{""aha"":3}","[0]","../img/tt/497tt.jpg","",""
"null","<div style=""font-size:60px;""> </div>","null","fixation","html-keyboard-response","426","1310956","0.0-6.0-0.60","2715164","co37675","norming","","","","","","",""
"null","../img/tt/184tt.jpg","null","mooney1","image-keyboard-response","427","1313962","0.0-6.0-1.60","2715164","co37675","norming","","","","","","",""
"2979.869999999879","","","post_mooney1_questions","survey-likert","428","1316945","0.0-6.0-2.60","2715164","co37675","norming","","","{""curiosity"":0,""confidence"":0}","[0,1]","../img/tt/184tt.jpg","",""
"629.8349999999627","","","recognition","survey-text","429","1317576","0.0-6.0-3.60","2715164","co37675","norming","","","{""guess"":""""}","","../img/tt/184tt.jpg","",""
"null","../img/gs/184gs.jpg","null","reveal","image-keyboard-response","430","1319586","0.0-6.0-4.60","2715164","co37675","norming","","","","","","",""
"null","../img/tt/184tt.jpg","null","mooney2","image-keyboard-response","431","1321587","0.0-6.0-5.60","2715164","co37675","norming","","","","","","",""
"1148.4899999999907","","","post_reveal_questions","survey-likert","432","1322737","0.0-6.0-6.60","2715164","co37675","norming","","","{""aha"":3}","[0]","../img/tt/184tt.jpg","",""
"null","<div style=""font-size:60px;""> </div>","null","fixation","html-keyboard-response","433","1322940","0.0-6.0-0.61","2715164","co37675","norming","","","","","","",""
"null","../img/tt/111tt.jpg","null","mooney1","image-keyboard-response","434","1325943","0.0-6.0-1.61","2715164","co37675","norming","","","","","","",""
"5175.695000000065","","","post_mooney1_questions","survey-likert","435","1331121","0.0-6.0-2.61","2715164","co37675","norming","","","{""curiosity"":3,""confidence"":3}","[0,1]","../img/tt/111tt.jpg","",""
"3414.304999999935","","","recognition","survey-text","436","1334537","0.0-6.0-3.61","2715164","co37675","norming","","","{""guess"":""telefoon""}","","../img/tt/111tt.jpg","",""
"null","../img/gs/111gs.jpg","null","reveal","image-keyboard-response","437","1336547","0.0-6.0-4.61","2715164","co37675","norming","","","","","","",""
"null","../img/tt/111tt.jpg","null","mooney2","image-keyboard-response","438","1338550","0.0-6.0-5.61","2715164","co37675","norming","","","","","","",""
"1721.1799999999348","","","post_reveal_questions","survey-likert","439","1340273","0.0-6.0-6.61","2715164","co37675","norming","","","{""aha"":5}","[0]","../img/tt/111tt.jpg","",""
"null","<div style=""font-size:60px;""> </div>","null","fixation","html-keyboard-response","440","1340474","0.0-6.0-0.62","2715164","co37675","norming","","","","","","",""
"null","../img/tt/329tt.jpg","null","mooney1","image-keyboard-response","441","1343480","0.0-6.0-1.62","2715164","co37675","norming","","","","","","",""
"4045.6350000000093","","","post_mooney1_questions","survey-likert","442","1347529","0.0-6.0-2.62","2715164","co37675","norming","","","{""curiosity"":1,""confidence"":1}","[0,1]","../img/tt/329tt.jpg","",""
"781.8549999999814","","","recognition","survey-text","443","1348313","0.0-6.0-3.62","2715164","co37675","norming","","","{""guess"":""""}","","../img/tt/329tt.jpg","",""
"null","../img/gs/329gs.jpg","null","reveal","image-keyboard-response","444","1350319","0.0-6.0-4.62","2715164","co37675","norming","","","","","","",""
"null","../img/tt/329tt.jpg","null","mooney2","image-keyboard-response","445","1352328","0.0-6.0-5.62","2715164","co37675","norming","","","","","","",""
"2350.2399999999907","","","post_reveal_questions","survey-likert","446","1354681","0.0-6.0-6.62","2715164","co37675","norming","","","{""aha"":6}","[0]","../img/tt/329tt.jpg","",""
"null","<div style=""font-size:60px;""> </div>","null","fixation","html-keyboard-response","447","1354887","0.0-6.0-0.63","2715164","co37675","norming","","","","","","",""
"null","../img/tt/112tt.jpg","null","mooney1","image-keyboard-response","448","1357889","0.0-6.0-1.63","2715164","co37675","norming","","","","","","",""
"2917.090000000084","","","post_mooney1_questions","survey-likert","449","1360809","0.0-6.0-2.63","2715164","co37675","norming","","","{""curiosity"":1,""confidence"":6}","[0,1]","../img/tt/112tt.jpg","",""
"3582.1400000001304","","","recognition","survey-text","450","1364393","0.0-6.0-3.63","2715164","co37675","norming","","","{""guess"":""fluitje""}","","../img/tt/112tt.jpg","",""
"null","../img/gs/112gs.jpg","null","reveal","image-keyboard-response","451","1366399","0.0-6.0-4.63","2715164","co37675","norming","","","","","","",""
"null","../img/tt/112tt.jpg","null","mooney2","image-keyboard-response","452","1368407","0.0-6.0-5.63","2715164","co37675","norming","","","","","","",""
"2895.3349999999627","","","post_reveal_questions","survey-likert","453","1371305","0.0-6.0-6.63","2715164","co37675","norming","","","{""aha"":0}","[0]","../img/tt/112tt.jpg","",""
"null","<div style=""font-size:60px;""> </div>","null","fixation","html-keyboard-response","454","1371507","0.0-6.0-0.64","2715164","co37675","norming","","","","","","",""
"null","../img/tt/1191tt.jpg","null","mooney1","image-keyboard-response","455","1374515","0.0-6.0-1.64","2715164","co37675","norming","","","","","","",""
"5460.385000000009","","","post_mooney1_questions","survey-likert","456","1379977","0.0-6.0-2.64","2715164","co37675","norming","","","{""curiosity"":1,""confidence"":4}","[0,1]","../img/tt/1191tt.jpg","",""
"2221.6200000001118","","","recognition","survey-text","457","1382201","0.0-6.0-3.64","2715164","co37675","norming","","","{""guess"":""giraf""}","","../img/tt/1191tt.jpg","",""
"null","../img/gs/1191gs.jpg","null","reveal","image-keyboard-response","458","1384207","0.0-6.0-4.64","2715164","co37675","norming","","","","","","",""
"null","../img/tt/1191tt.jpg","null","mooney2","image-keyboard-response","459","1386209","0.0-6.0-5.64","2715164","co37675","norming","","","","","","",""
"1638.2600000002421","","","post_reveal_questions","survey-likert","460","1387849","0.0-6.0-6.64","2715164","co37675","norming","","","{""aha"":5}","[0]","../img/tt/1191tt.jpg","",""
"null","<div style=""font-size:60px;""> </div>","null","fixation","html-keyboard-response","461","1388057","0.0-6.0-0.65","2715164","co37675","norming","","","","","","",""
"null","../img/tt/001tt.jpg","null","mooney1","image-keyboard-response","462","1391064","0.0-6.0-1.65","2715164","co37675","norming","","","","","","",""
"2951.9250000000466","","","post_mooney1_questions","survey-likert","463","1394017","0.0-6.0-2.65","2715164","co37675","norming","","","{""curiosity"":1,""confidence"":1}","[0,1]","../img/tt/001tt.jpg","",""
"1557.7450000001118","","","recognition","survey-text","464","1395577","0.0-6.0-3.65","2715164","co37675","norming","","","{""guess"":""koe""}","","../img/tt/001tt.jpg","",""
"null","../img/gs/001gs.jpg","null","reveal","image-keyboard-response","465","1397587","0.0-6.0-4.65","2715164","co37675","norming","","","","","","",""
"null","../img/tt/001tt.jpg","null","mooney2","image-keyboard-response","466","1399592","0.0-6.0-5.65","2715164","co37675","norming","","","","","","",""
"4919.98499999987","","","post_reveal_questions","survey-likert","467","1404513","0.0-6.0-6.65","2715164","co37675","norming","","","{""aha"":5}","[0]","../img/tt/001tt.jpg","",""
"null","<div style=""font-size:60px;""> </div>","null","fixation","html-keyboard-response","468","1404714","0.0-6.0-0.66","2715164","co37675","norming","","","","","","",""
"null","../img/tt/1250tt.jpg","null","mooney1","image-keyboard-response","469","1407725","0.0-6.0-1.66","2715164","co37675","norming","","","","","","",""
"4457.0449999999255","","","post_mooney1_questions","survey-likert","470","1412185","0.0-6.0-2.66","2715164","co37675","norming","","","{""curiosity"":5,""confidence"":0}","[0,1]","../img/tt/1250tt.jpg","",""
"670.0300000000279","","","recognition","survey-text","471","1412857","0.0-6.0-3.66","2715164","co37675","norming","","","{""guess"":""""}","","../img/tt/1250tt.jpg","",""
"null","../img/gs/1250gs.jpg","null","reveal","image-keyboard-response","472","1414859","0.0-6.0-4.66","2715164","co37675","norming","","","","","","",""
"null","../img/tt/1250tt.jpg","null","mooney2","image-keyboard-response","473","1416861","0.0-6.0-5.66","2715164","co37675","norming","","","","","","",""
"1330.119999999879","","","post_reveal_questions","survey-likert","474","1418193","0.0-6.0-6.66","2715164","co37675","norming","","","{""aha"":4}","[0]","../img/tt/1250tt.jpg","",""
"null","<div style=""font-size:60px;""> </div>","null","fixation","html-keyboard-response","475","1418403","0.0-6.0-0.67","2715164","co37675","norming","","","","","","",""
"null","../img/tt/085tt.jpg","null","mooney1","image-keyboard-response","476","1421411","0.0-6.0-1.67","2715164","co37675","norming","","","","","","",""
"4771.5","","","post_mooney1_questions","survey-likert","477","1426185","0.0-6.0-2.67","2715164","co37675","norming","","","{""curiosity"":4,""confidence"":3}","[0,1]","../img/tt/085tt.jpg","",""
"3646.090000000084","","","recognition","survey-text","478","1429833","0.0-6.0-3.67","2715164","co37675","norming","","","{""guess"":""sprinkhaan""}","","../img/tt/085tt.jpg","",""
"null","../img/gs/085gs.jpg","null","reveal","image-keyboard-response","479","1431834","0.0-6.0-4.67","2715164","co37675","norming","","","","","","",""
"null","../img/tt/085tt.jpg","null","mooney2","image-keyboard-response","480","1433836","0.0-6.0-5.67","2715164","co37675","norming","","","","","","",""
"1354.8949999997858","","","post_reveal_questions","survey-likert","481","1435193","0.0-6.0-6.67","2715164","co37675","norming","","","{""aha"":1}","[0]","../img/tt/085tt.jpg","",""
"null","<div style=""font-size:60px;""> </div>","null","fixation","html-keyboard-response","482","1435396","0.0-6.0-0.68","2715164","co37675","norming","","","","","","",""
"null","../img/tt/358tt.jpg","null","mooney1","image-keyboard-response","483","1438401","0.0-6.0-1.68","2715164","co37675","norming","","","","","","",""
"4172.975000000093","","","post_mooney1_questions","survey-likert","484","1442577","0.0-6.0-2.68","2715164","co37675","norming","","","{""curiosity"":4,""confidence"":2}","[0,1]","../img/tt/358tt.jpg","",""
"1910.1399999998976","","","recognition","survey-text","485","1444489","0.0-6.0-3.68","2715164","co37675","norming","","","{""guess"":""hond""}","","../img/tt/358tt.jpg","",""
"null","../img/gs/358gs.jpg","null","reveal","image-keyboard-response","486","1446490","0.0-6.0-4.68","2715164","co37675","norming","","","","","","",""
"null","../img/tt/358tt.jpg","null","mooney2","image-keyboard-response","487","1448501","0.0-6.0-5.68","2715164","co37675","norming","","","","","","",""
"1193.744999999646","","","post_reveal_questions","survey-likert","488","1449697","0.0-6.0-6.68","2715164","co37675","norming","","","{""aha"":3}","[0]","../img/tt/358tt.jpg","",""
"null","<div style=""font-size:60px;""> </div>","null","fixation","html-keyboard-response","489","1449908","0.0-6.0-0.69","2715164","co37675","norming","","","","","","",""
"null","../img/tt/1279tt.jpg","null","mooney1","image-keyboard-response","490","1452916","0.0-6.0-1.69","2715164","co37675","norming","","","","","","",""
"3370.3350000001956","","","post_mooney1_questions","survey-likert","491","1456289","0.0-6.0-2.69","2715164","co37675","norming","","","{""curiosity"":4,""confidence"":1}","[0,1]","../img/tt/1279tt.jpg","",""
"2518.1500000001397","","","recognition","survey-text","492","1458809","0.0-6.0-3.69","2715164","co37675","norming","","","{""guess"":""hond""}","","../img/tt/1279tt.jpg","",""
"null","../img/gs/1279gs.jpg","null","reveal","image-keyboard-response","493","1460811","0.0-6.0-4.69","2715164","co37675","norming","","","","","","",""
"null","../img/tt/1279tt.jpg","null","mooney2","image-keyboard-response","494","1462812","0.0-6.0-5.69","2715164","co37675","norming","","","","","","",""
"1722.309999999823","","","post_reveal_questions","survey-likert","495","1464537","0.0-6.0-6.69","2715164","co37675","norming","","","{""aha"":2}","[0]","../img/tt/1279tt.jpg","",""
"null","<div style=""font-size:60px;""> </div>","null","fixation","html-keyboard-response","496","1464740","0.0-6.0-0.70","2715164","co37675","norming","","","","","","",""
"null","../img/tt/1239tt.jpg","null","mooney1","image-keyboard-response","497","1467743","0.0-6.0-1.70","2715164","co37675","norming","","","","","","",""
"2943.030000000028","","","post_mooney1_questions","survey-likert","498","1470689","0.0-6.0-2.70","2715164","co37675","norming","","","{""curiosity"":3,""confidence"":5}","[0,1]","../img/tt/1239tt.jpg","",""
"1606.2549999998882","","","recognition","survey-text","499","1472297","0.0-6.0-3.70","2715164","co37675","norming","","","{""guess"":""hond""}","","../img/tt/1239tt.jpg","",""
"null","../img/gs/1239gs.jpg","null","reveal","image-keyboard-response","500","1474298","0.0-6.0-4.70","2715164","co37675","norming","","","","","","",""
"null","../img/tt/1239tt.jpg","null","mooney2","image-keyboard-response","501","1476301","0.0-6.0-5.70","2715164","co37675","norming","","","","","","",""
"1673.9299999999348","","","post_reveal_questions","survey-likert","502","1477977","0.0-6.0-6.70","2715164","co37675","norming","","","{""aha"":0}","[0]","../img/tt/1239tt.jpg","",""
"null","<div style=""font-size:60px;""> </div>","null","fixation","html-keyboard-response","503","1478179","0.0-6.0-0.71","2715164","co37675","norming","","","","","","",""
"null","../img/tt/1276tt.jpg","null","mooney1","image-keyboard-response","504","1481191","0.0-6.0-1.71","2715164","co37675","norming","","","","","","",""
"5806.665000000037","","","post_mooney1_questions","survey-likert","505","1487001","0.0-6.0-2.71","2715164","co37675","norming","","","{""curiosity"":5,""confidence"":1}","[0,1]","../img/tt/1276tt.jpg","",""
"3614.1400000001304","","","recognition","survey-text","506","1490617","0.0-6.0-3.71","2715164","co37675","norming","","","{""guess"":""""}","","../img/tt/1276tt.jpg","",""
"null","../img/gs/1276gs.jpg","null","reveal","image-keyboard-response","507","1492622","0.0-6.0-4.71","2715164","co37675","norming","","","","","","",""
"null","../img/tt/1276tt.jpg","null","mooney2","image-keyboard-response","508","1494625","0.0-6.0-5.71","2715164","co37675","norming","","","","","","",""
"1509.3700000001118","","","post_reveal_questions","survey-likert","509","1496137","0.0-6.0-6.71","2715164","co37675","norming","","","{""aha"":6}","[0]","../img/tt/1276tt.jpg","",""
"null","<div style=""font-size:60px;""> </div>","null","fixation","html-keyboard-response","510","1496338","0.0-6.0-0.72","2715164","co37675","norming","","","","","","",""
"null","../img/tt/318tt.jpg","null","mooney1","image-keyboard-response","511","1499350","0.0-6.0-1.72","2715164","co37675","norming","","","","","","",""
"6168.10999999987","","","post_mooney1_questions","survey-likert","512","1505521","0.0-6.0-2.72","2715164","co37675","norming","","","{""curiosity"":4,""confidence"":1}","[0,1]","../img/tt/318tt.jpg","",""
"3654.3549999997485","","","recognition","survey-text","513","1509177","0.0-6.0-3.72","2715164","co37675","norming","","","{""guess"":""auto""}","","../img/tt/318tt.jpg","",""
"null","../img/gs/318gs.jpg","null","reveal","image-keyboard-response","514","1511183","0.0-6.0-4.72","2715164","co37675","norming","","","","","","",""
"null","../img/tt/318tt.jpg","null","mooney2","image-keyboard-response","515","1513187","0.0-6.0-5.72","2715164","co37675","norming","","","","","","",""
"1226.8550000002142","","","post_reveal_questions","survey-likert","516","1514417","0.0-6.0-6.72","2715164","co37675","norming","","","{""aha"":6}","[0]","../img/tt/318tt.jpg","",""
"null","<div style=""font-size:60px;""> </div>","null","fixation","html-keyboard-response","517","1514625","0.0-6.0-0.73","2715164","co37675","norming","","","","","","",""
"null","../img/tt/1261tt.jpg","null","mooney1","image-keyboard-response","518","1517628","0.0-6.0-1.73","2715164","co37675","norming","","","","","","",""
"4579.934999999823","","","post_mooney1_questions","survey-likert","519","1522203","0.0-6.0-2.73","2715164","co37675","norming","","","{""curiosity"":3,""confidence"":0}","[0,1]","../img/tt/1261tt.jpg","",""
"1022.0849999999627","","","recognition","survey-text","520","1523227","0.0-6.0-3.73","2715164","co37675","norming","","","{""guess"":""""}","","../img/tt/1261tt.jpg","",""
"null","../img/gs/1261gs.jpg","null","reveal","image-keyboard-response","521","1525233","0.0-6.0-4.73","2715164","co37675","norming","","","","","","",""
"null","../img/tt/1261tt.jpg","null","mooney2","image-keyboard-response","522","1527239","0.0-6.0-5.73","2715164","co37675","norming","","","","","","",""
"2465.5600000002887","","","post_reveal_questions","survey-likert","523","1529707","0.0-6.0-6.73","2715164","co37675","norming","","","{""aha"":3}","[0]","../img/tt/1261tt.jpg","",""
"null","<div style=""font-size:60px;""> </div>","null","fixation","html-keyboard-response","524","1529916","0.0-6.0-0.74","2715164","co37675","norming","","","","","","",""
"null","../img/tt/1278tt.jpg","null","mooney1","image-keyboard-response","525","1532921","0.0-6.0-1.74","2715164","co37675","norming","","","","","","",""
"6823.314999999711","","","post_mooney1_questions","survey-likert","526","1539747","0.0-6.0-2.74","2715164","co37675","norming","","","{""curiosity"":1,""confidence"":0}","[0,1]","../img/tt/1278tt.jpg","",""
"653.9699999999721","","","recognition","survey-text","527","1540403","0.0-6.0-3.74","2715164","co37675","norming","","","{""guess"":""""}","","../img/tt/1278tt.jpg","",""
"null","../img/gs/1278gs.jpg","null","reveal","image-keyboard-response","528","1542412","0.0-6.0-4.74","2715164","co37675","norming","","","","","","",""
"null","../img/tt/1278tt.jpg","null","mooney2","image-keyboard-response","529","1544420","0.0-6.0-5.74","2715164","co37675","norming","","","","","","",""
"2964.350000000093","","","post_reveal_questions","survey-likert","530","1547387","0.0-6.0-6.74","2715164","co37675","norming","","","{""aha"":5}","[0]","../img/tt/1278tt.jpg","",""
"null","<div style=""font-size:60px;""> </div>","null","fixation","html-keyboard-response","531","1547590","0.0-6.0-0.75","2715164","co37675","norming","","","","","","",""
"null","../img/tt/076tt.jpg","null","mooney1","image-keyboard-response","532","1550599","0.0-6.0-1.75","2715164","co37675","norming","","","","","","",""
"3705.6999999999534","","","post_mooney1_questions","survey-likert","533","1554307","0.0-6.0-2.75","2715164","co37675","norming","","","{""curiosity"":3,""confidence"":5}","[0,1]","../img/tt/076tt.jpg","",""
"5485.795000000158","","","recognition","survey-text","534","1559795","0.0-6.0-3.75","2715164","co37675","norming","","","{""guess"":""rolschaats""}","","../img/tt/076tt.jpg","",""
"null","../img/gs/076gs.jpg","null","reveal","image-keyboard-response","535","1561797","0.0-6.0-4.75","2715164","co37675","norming","","","","","","",""
"null","../img/tt/076tt.jpg","null","mooney2","image-keyboard-response","536","1563798","0.0-6.0-5.75","2715164","co37675","norming","","","","","","",""
"6050.899999999907","","","post_reveal_questions","survey-likert","537","1569851","0.0-6.0-6.75","2715164","co37675","norming","","","{""aha"":1}","[0]","../img/tt/076tt.jpg","",""
"null","<div style=""font-size:60px;""> </div>","null","fixation","html-keyboard-response","538","1570062","0.0-6.0-0.76","2715164","co37675","norming","","","","","","",""
"null","../img/tt/222tt.jpg","null","mooney1","image-keyboard-response","539","1573074","0.0-6.0-1.76","2715164","co37675","norming","","","","","","",""
"3726.3299999998417","","","post_mooney1_questions","survey-likert","540","1576803","0.0-6.0-2.76","2715164","co37675","norming","","","{""curiosity"":1,""confidence"":3}","[0,1]","../img/tt/222tt.jpg","",""
"1502.040000000503","","","recognition","survey-text","541","1578307","0.0-6.0-3.76","2715164","co37675","norming","","","{""guess"":""bad""}","","../img/tt/222tt.jpg","",""
"null","../img/gs/222gs.jpg","null","reveal","image-keyboard-response","542","1580311","0.0-6.0-4.76","2715164","co37675","norming","","","","","","",""
"null","../img/tt/222tt.jpg","null","mooney2","image-keyboard-response","543","1582319","0.0-6.0-5.76","2715164","co37675","norming","","","","","","",""
"1430.3400000003166","","","post_reveal_questions","survey-likert","544","1583753","0.0-6.0-6.76","2715164","co37675","norming","","","{""aha"":3}","[0]","../img/tt/222tt.jpg","",""
"null","<div style=""font-size:60px;""> </div>","null","fixation","html-keyboard-response","545","1583954","0.0-6.0-0.77","2715164","co37675","norming","","","","","","",""
"null","../img/tt/507tt.jpg","null","mooney1","image-keyboard-response","546","1586965","0.0-6.0-1.77","2715164","co37675","norming","","","","","","",""
"4328.864999999991","","","post_mooney1_questions","survey-likert","547","1591297","0.0-6.0-2.77","2715164","co37675","norming","","","{""curiosity"":4,""confidence"":3}","[0,1]","../img/tt/507tt.jpg","",""
"3269.809999999823","","","recognition","survey-text","548","1594569","0.0-6.0-3.77","2715164","co37675","norming","","","{""guess"":""non""}","","../img/tt/507tt.jpg","",""
"null","../img/gs/507gs.jpg","null","reveal","image-keyboard-response","549","1596573","0.0-6.0-4.77","2715164","co37675","norming","","","","","","",""
"null","../img/tt/507tt.jpg","null","mooney2","image-keyboard-response","550","1598577","0.0-6.0-5.77","2715164","co37675","norming","","","","","","",""
"1861.8999999999069","","","post_reveal_questions","survey-likert","551","1600441","0.0-6.0-6.77","2715164","co37675","norming","","","{""aha"":3}","[0]","../img/tt/507tt.jpg","",""
"null","<div style=""font-size:60px;""> </div>","null","fixation","html-keyboard-response","552","1600647","0.0-6.0-0.78","2715164","co37675","norming","","","","","","",""
