"rt","stimulus","key_press","test_part","trial_type","trial_index","time_elapsed","internal_node_id","totalTime","subject","experiment_name","button_pressed","success","responses","question_order","currentStim","old","correct"
"5408.649999999398","Welcome to the experiment. This is an online experiment so please don't close the tab/window until we say goodbye.  Press any key to begin.","13","instructions","html-keyboard-response","0","5449","0.0-0.0","2512849","co37924","norming","","","","","","",""
"4958.324999999604","<div style='word-wrap: break-word; width: 900px'><h3>Please consider this information carefully before deciding whether to participate in this research</h3><ul style='text-align: left; font-size: .8em;'><li><b>Purpose of the research</b>: To examine how people process images.</li><li><b>What you will do in this research</b>:  Stimuli (images) will be presented on the computer and you will be asked different questions about them.</li><li><b>Time required</b>: Participation will take between 45 and 60 minutes to complete.</li><li><b>Risks</b>:  There are no anticipated risks associated with participating in this study. The effects of participating should be comparable to those you would experience from viewing a computer monitor for 30 minutes and using a mouse or keyboard.</li><li><b>Benefits</b>:  This study provides no benefits to you individually except for the credit. The study provides important information about the nature of perception and learning.</li><li><b>Confidentiality</b>:  Your participation in this study will remain confidential. No personally identifiable information will be associated with your data. Your de-identified data may be shared with other researchers and used in future projects.</li><li><b>Participation and withdrawal</b>:  Your participation in this study is completely voluntary and you may refuse to participate or you may choose to withdraw at any time without penalty.</li><li><b>How to contact the researchers</b>: If you have questions or concerns about your participation or payment, or want to request a summary of research findings, please contact Sander Van de Cruys (KU Leuven), at sander.vandecruys@kuleuven.be.</li></ul><p>The nature and purpose of this research have been sufficiently explained and I agree to participate in this study.  I understand that I am free to withdraw at any time without incurring any penalty.</p><p>Please consent by clicking the button below to continue. Otherwise, please exit the study at this time.</p></div>","","instructions","html-button-response","1","10409","0.0-1.0","2512849","co37924","norming","0","","","","","",""
"","","","instructions","fullscreen","2","13329","0.0-2.0","2512849","co37924","norming","","true","","","","",""
"89460.97999999984","","","sona","survey-html-form","3","102789","0.0-3.0","2512849","co37924","norming","","","[{""name"":""sonaid"",""value"":""37924""},{""name"":""debrief"",""value"":""yes""},{""name"":""datajoin"",""value"":""yes""}]","","","",""
"49978.630000001445","<div style='word-wrap: break-word; width: 900px'><h3>Instructions</h3><p>This experiment will have 3 parts. In the first part you will see a series of distorted images like the one below on the left. As you can see in the righthand image, the distorted images are derived from actual photographs. In what follows, you will <strong>briefly</strong> be presented with <strong>only</strong> the distorted image.</p> <div style='float: left; margin-right: 20px;'><img src='../img/018tt.jpg' height='250' width='250'></img></div><div style='float: right; margin-left: 20px;'><img src='../img/018gs.jpg' height='250' width='250'></img></div><p>Subsequently you will be asked a few questions about the image: One question on how <strong>curious</strong> you are about the solution and one on how <strong>confident</strong> you are that you know the solution.</p>Next, we ask you to make a guess on what is in the image. Note that it is OK to name just the <strong>basic level category</strong>. For example when you see a parrot in the image, 'parrot' will obviously be a correct answer but also correct is 'bird'. However, 'animal' will <strong>not</strong> be counted as a correct response. For the example above, 'rose' would be correct or 'flower', but not 'plant'. When soccer players are depicted, 'soccer', 'football', 'soccer players' will be correct, but not 'humans', 'outdoors', or 'sports'. You do not need to describe the image in full, just name the main object in it <strong>in one or two words</strong>. All images depict objects from one of the following broad level categories: animals, inanimate objects, plants, sports, vehicles, and food. Recognizing means knowing <strong>more</strong> than these broad labels for a given image. But we always encourage you to <strong>make a guess</strong> if you can. Note that you are allowed to use <strong>Dutch and English</strong> in your answers, whatever comes easiest for you.</p><p>Press any key to continue.</p></div>","13","instructions","html-keyboard-response","4","152774","0.0-4.0","2512849","co37924","norming","","","","","","",""
"7231.350000000006","<div style='word-wrap: break-word; width: 900px'><h3>Instructions</h3> <p>Next, the solution image will be revealed to you and you'll be asked to indicate how strong your <strong>aha-experience</strong> was after seeing the solution. This describes the positive feeling of the 'click' you sometimes experience, when the pieces of the 'puzzle' fall together and you suddenly have 'insight' in the image.</p><img src='aha.jpg' height='188' width='250'></img><p>Note that there are no right or wrong answers. We are interested in what <strong>you</strong> see in the image and how <strong>you</strong> feel about it.</p><p>Press any key to start the experiment.</p></div>","13","instructions","html-keyboard-response","5","160006","0.0-5.0","2512849","co37924","norming","","","","","","",""
"null","<div style=""font-size:60px;""> </div>","null","fixation","html-keyboard-response","6","160209","0.0-6.0-0.0","2512849","co37924","norming","","","","","","",""
"null","../img/tt/416tt.jpg","null","mooney1","image-keyboard-response","7","163217","0.0-6.0-1.0","2512849","co37924","norming","","","","","","",""
"9362.76499999984","","","post_mooney1_questions","survey-likert","8","172583","0.0-6.0-2.0","2512849","co37924","norming","","","{""curiosity"":2,""confidence"":1}","[0,1]","../img/tt/416tt.jpg","",""
"3133.255000000645","","","recognition","survey-text","9","175718","0.0-6.0-3.0","2512849","co37924","norming","","","{""guess"":""cow""}","","../img/tt/416tt.jpg","",""
"null","../img/gs/416gs.jpg","null","reveal","image-keyboard-response","10","177725","0.0-6.0-4.0","2512849","co37924","norming","","","","","","",""
"null","../img/tt/416tt.jpg","null","mooney2","image-keyboard-response","11","179732","0.0-6.0-5.0","2512849","co37924","norming","","","","","","",""
"4657.4549999986775","","","post_reveal_questions","survey-likert","12","184391","0.0-6.0-6.0","2512849","co37924","norming","","","{""aha"":3}","[0]","../img/tt/416tt.jpg","",""
"null","<div style=""font-size:60px;""> </div>","null","fixation","html-keyboard-response","13","184600","0.0-6.0-0.1","2512849","co37924","norming","","","","","","",""
"null","../img/tt/1027tt.jpg","null","mooney1","image-keyboard-response","14","187608","0.0-6.0-1.1","2512849","co37924","norming","","","","","","",""
"5196.4200000002165","","","post_mooney1_questions","survey-likert","15","192807","0.0-6.0-2.1","2512849","co37924","norming","","","{""curiosity"":3,""confidence"":1}","[0,1]","../img/tt/1027tt.jpg","",""
"3806.1900000011665","","","recognition","survey-text","16","196615","0.0-6.0-3.1","2512849","co37924","norming","","","{""guess"":""bird""}","","../img/tt/1027tt.jpg","",""
"null","../img/gs/1027gs.jpg","null","reveal","image-keyboard-response","17","198617","0.0-6.0-4.1","2512849","co37924","norming","","","","","","",""
"null","../img/tt/1027tt.jpg","null","mooney2","image-keyboard-response","18","200620","0.0-6.0-5.1","2512849","co37924","norming","","","","","","",""
"4560.295000001148","","","post_reveal_questions","survey-likert","19","205183","0.0-6.0-6.1","2512849","co37924","norming","","","{""aha"":4}","[0]","../img/tt/1027tt.jpg","",""
"null","<div style=""font-size:60px;""> </div>","null","fixation","html-keyboard-response","20","205384","0.0-6.0-0.2","2512849","co37924","norming","","","","","","",""
"null","../img/tt/1255tt.jpg","null","mooney1","image-keyboard-response","21","208393","0.0-6.0-1.2","2512849","co37924","norming","","","","","","",""
"5671.229999999923","","","post_mooney1_questions","survey-likert","22","214067","0.0-6.0-2.2","2512849","co37924","norming","","","{""curiosity"":2,""confidence"":3}","[0,1]","../img/tt/1255tt.jpg","",""
"2550.144999999233","","","recognition","survey-text","23","216618","0.0-6.0-3.2","2512849","co37924","norming","","","{""guess"":""konijn""}","","../img/tt/1255tt.jpg","",""
"null","../img/gs/1255gs.jpg","null","reveal","image-keyboard-response","24","218623","0.0-6.0-4.2","2512849","co37924","norming","","","","","","",""
"null","../img/tt/1255tt.jpg","null","mooney2","image-keyboard-response","25","220624","0.0-6.0-5.2","2512849","co37924","norming","","","","","","",""
"2071.6250000004948","","","post_reveal_questions","survey-likert","26","222698","0.0-6.0-6.2","2512849","co37924","norming","","","{""aha"":0}","[0]","../img/tt/1255tt.jpg","",""
"null","<div style=""font-size:60px;""> </div>","null","fixation","html-keyboard-response","27","222899","0.0-6.0-0.3","2512849","co37924","norming","","","","","","",""
"null","../img/tt/031tt.jpg","null","mooney1","image-keyboard-response","28","225905","0.0-6.0-1.3","2512849","co37924","norming","","","","","","",""
"5047.024999999849","","","post_mooney1_questions","survey-likert","29","230954","0.0-6.0-2.3","2512849","co37924","norming","","","{""curiosity"":2,""confidence"":2}","[0,1]","../img/tt/031tt.jpg","",""
"2717.8249999997206","","","recognition","survey-text","30","233674","0.0-6.0-3.3","2512849","co37924","norming","","","{""guess"":""cat""}","","../img/tt/031tt.jpg","",""
"null","../img/gs/031gs.jpg","null","reveal","image-keyboard-response","31","235684","0.0-6.0-4.3","2512849","co37924","norming","","","","","","",""
"null","../img/tt/031tt.jpg","null","mooney2","image-keyboard-response","32","237695","0.0-6.0-5.3","2512849","co37924","norming","","","","","","",""
"1898.5150000007707","","","post_reveal_questions","survey-likert","33","239594","0.0-6.0-6.3","2512849","co37924","norming","","","{""aha"":4}","[0]","../img/tt/031tt.jpg","",""
"null","<div style=""font-size:60px;""> </div>","null","fixation","html-keyboard-response","34","239799","0.0-6.0-0.4","2512849","co37924","norming","","","","","","",""
"null","../img/tt/319tt.jpg","null","mooney1","image-keyboard-response","35","242806","0.0-6.0-1.4","2512849","co37924","norming","","","","","","",""
"4425.590000000724","","","post_mooney1_questions","survey-likert","36","247234","0.0-6.0-2.4","2512849","co37924","norming","","","{""curiosity"":3,""confidence"":5}","[0,1]","../img/tt/319tt.jpg","",""
"2501.8450000006997","","","recognition","survey-text","37","249738","0.0-6.0-3.4","2512849","co37924","norming","","","{""guess"":""ezel""}","","../img/tt/319tt.jpg","",""
"null","../img/gs/319gs.jpg","null","reveal","image-keyboard-response","38","251742","0.0-6.0-4.4","2512849","co37924","norming","","","","","","",""
"null","../img/tt/319tt.jpg","null","mooney2","image-keyboard-response","39","253744","0.0-6.0-5.4","2512849","co37924","norming","","","","","","",""
"1753.960000000021","","","post_reveal_questions","survey-likert","40","255498","0.0-6.0-6.4","2512849","co37924","norming","","","{""aha"":1}","[0]","../img/tt/319tt.jpg","",""
"null","<div style=""font-size:60px;""> </div>","null","fixation","html-keyboard-response","41","255701","0.0-6.0-0.5","2512849","co37924","norming","","","","","","",""
"null","../img/tt/1202tt.jpg","null","mooney1","image-keyboard-response","42","258702","0.0-6.0-1.5","2512849","co37924","norming","","","","","","",""
"3337.6950000001816","","","post_mooney1_questions","survey-likert","43","262042","0.0-6.0-2.5","2512849","co37924","norming","","","{""curiosity"":2,""confidence"":2}","[0,1]","../img/tt/1202tt.jpg","",""
"2189.7850000004983","","","recognition","survey-text","44","264234","0.0-6.0-3.5","2512849","co37924","norming","","","{""guess"":""""}","","../img/tt/1202tt.jpg","",""
"null","../img/gs/1202gs.jpg","null","reveal","image-keyboard-response","45","266240","0.0-6.0-4.5","2512849","co37924","norming","","","","","","",""
"null","../img/tt/1202tt.jpg","null","mooney2","image-keyboard-response","46","268242","0.0-6.0-5.5","2512849","co37924","norming","","","","","","",""
"2813.9200000005076","","","post_reveal_questions","survey-likert","47","271050","0.0-6.0-6.5","2512849","co37924","norming","","","{""aha"":6}","[0]","../img/tt/1202tt.jpg","",""
"null","<div style=""font-size:60px;""> </div>","null","fixation","html-keyboard-response","48","271256","0.0-6.0-0.6","2512849","co37924","norming","","","","","","",""
"null","../img/tt/1224tt.jpg","null","mooney1","image-keyboard-response","49","274263","0.0-6.0-1.6","2512849","co37924","norming","","","","","","",""
"3168.4049999985145","","","post_mooney1_questions","survey-likert","50","277434","0.0-6.0-2.6","2512849","co37924","norming","","","{""curiosity"":2,""confidence"":2}","[0,1]","../img/tt/1224tt.jpg","",""
"3334.109999999753","","","recognition","survey-text","51","280770","0.0-6.0-3.6","2512849","co37924","norming","","","{""guess"":""human""}","","../img/tt/1224tt.jpg","",""
"null","../img/gs/1224gs.jpg","null","reveal","image-keyboard-response","52","282777","0.0-6.0-4.6","2512849","co37924","norming","","","","","","",""
"null","../img/tt/1224tt.jpg","null","mooney2","image-keyboard-response","53","284779","0.0-6.0-5.6","2512849","co37924","norming","","","","","","",""
"1645.05999999895","","","post_reveal_questions","survey-likert","54","286426","0.0-6.0-6.6","2512849","co37924","norming","","","{""aha"":2}","[0]","../img/tt/1224tt.jpg","",""
"null","<div style=""font-size:60px;""> </div>","null","fixation","html-keyboard-response","55","286631","0.0-6.0-0.7","2512849","co37924","norming","","","","","","",""
"null","../img/tt/1086tt.jpg","null","mooney1","image-keyboard-response","56","289635","0.0-6.0-1.7","2512849","co37924","norming","","","","","","",""
"4452.649999999267","","","post_mooney1_questions","survey-likert","57","294090","0.0-6.0-2.7","2512849","co37924","norming","","","{""curiosity"":2,""confidence"":2}","[0,1]","../img/tt/1086tt.jpg","",""
"1038.034999999567","","","recognition","survey-text","58","295130","0.0-6.0-3.7","2512849","co37924","norming","","","{""guess"":""""}","","../img/tt/1086tt.jpg","",""
"null","../img/gs/1086gs.jpg","null","reveal","image-keyboard-response","59","297133","0.0-6.0-4.7","2512849","co37924","norming","","","","","","",""
"null","../img/tt/1086tt.jpg","null","mooney2","image-keyboard-response","60","299140","0.0-6.0-5.7","2512849","co37924","norming","","","","","","",""
"2331.340000000666","","","post_reveal_questions","survey-likert","61","301474","0.0-6.0-6.7","2512849","co37924","norming","","","{""aha"":5}","[0]","../img/tt/1086tt.jpg","",""
"null","<div style=""font-size:60px;""> </div>","null","fixation","html-keyboard-response","62","301681","0.0-6.0-0.8","2512849","co37924","norming","","","","","","",""
"null","../img/tt/1363tt.jpg","null","mooney1","image-keyboard-response","63","304689","0.0-6.0-1.8","2512849","co37924","norming","","","","","","",""
"4726.645000000659","","","post_mooney1_questions","survey-likert","64","309418","0.0-6.0-2.8","2512849","co37924","norming","","","{""curiosity"":1,""confidence"":4}","[0,1]","../img/tt/1363tt.jpg","",""
"5686.224999999453","","","recognition","survey-text","65","315106","0.0-6.0-3.8","2512849","co37924","norming","","","{""guess"":""sauskan""}","","../img/tt/1363tt.jpg","",""
"null","../img/gs/1363gs.jpg","null","reveal","image-keyboard-response","66","317110","0.0-6.0-4.8","2512849","co37924","norming","","","","","","",""
"null","../img/tt/1363tt.jpg","null","mooney2","image-keyboard-response","67","319119","0.0-6.0-5.8","2512849","co37924","norming","","","","","","",""
"1448.195000000822","","","post_reveal_questions","survey-likert","68","320570","0.0-6.0-6.8","2512849","co37924","norming","","","{""aha"":1}","[0]","../img/tt/1363tt.jpg","",""
"null","<div style=""font-size:60px;""> </div>","null","fixation","html-keyboard-response","69","320772","0.0-6.0-0.9","2512849","co37924","norming","","","","","","",""
"null","../img/tt/1118tt.jpg","null","mooney1","image-keyboard-response","70","323779","0.0-6.0-1.9","2512849","co37924","norming","","","","","","",""
"3181.849999998987","","","post_mooney1_questions","survey-likert","71","326962","0.0-6.0-2.9","2512849","co37924","norming","","","{""curiosity"":2,""confidence"":3}","[0,1]","../img/tt/1118tt.jpg","",""
"1758.2000000002445","","","recognition","survey-text","72","328722","0.0-6.0-3.9","2512849","co37924","norming","","","{""guess"":""hand""}","","../img/tt/1118tt.jpg","",""
"null","../img/gs/1118gs.jpg","null","reveal","image-keyboard-response","73","330739","0.0-6.0-4.9","2512849","co37924","norming","","","","","","",""
"null","../img/tt/1118tt.jpg","null","mooney2","image-keyboard-response","74","332750","0.0-6.0-5.9","2512849","co37924","norming","","","","","","",""
"3138.7899999990477","","","post_reveal_questions","survey-likert","75","335891","0.0-6.0-6.9","2512849","co37924","norming","","","{""aha"":6}","[0]","../img/tt/1118tt.jpg","",""
"null","<div style=""font-size:60px;""> </div>","null","fixation","html-keyboard-response","76","336093","0.0-6.0-0.10","2512849","co37924","norming","","","","","","",""
"null","../img/tt/1159tt.jpg","null","mooney1","image-keyboard-response","77","339104","0.0-6.0-1.10","2512849","co37924","norming","","","","","","",""
"5080.169999999227","","","post_mooney1_questions","survey-likert","78","344187","0.0-6.0-2.10","2512849","co37924","norming","","","{""curiosity"":2,""confidence"":1}","[0,1]","../img/tt/1159tt.jpg","",""
"653.9950000005774","","","recognition","survey-text","79","344843","0.0-6.0-3.10","2512849","co37924","norming","","","{""guess"":""""}","","../img/tt/1159tt.jpg","",""
"null","../img/gs/1159gs.jpg","null","reveal","image-keyboard-response","80","346852","0.0-6.0-4.10","2512849","co37924","norming","","","","","","",""
"null","../img/tt/1159tt.jpg","null","mooney2","image-keyboard-response","81","348855","0.0-6.0-5.10","2512849","co37924","norming","","","","","","",""
"2169.8749999995343","","","post_reveal_questions","survey-likert","82","351027","0.0-6.0-6.10","2512849","co37924","norming","","","{""aha"":3}","[0]","../img/tt/1159tt.jpg","",""
"null","<div style=""font-size:60px;""> </div>","null","fixation","html-keyboard-response","83","351237","0.0-6.0-0.11","2512849","co37924","norming","","","","","","",""
"null","../img/tt/163tt.jpg","null","mooney1","image-keyboard-response","84","354243","0.0-6.0-1.11","2512849","co37924","norming","","","","","","",""
"3092.6300000010524","","","post_mooney1_questions","survey-likert","85","357339","0.0-6.0-2.11","2512849","co37924","norming","","","{""curiosity"":2,""confidence"":2}","[0,1]","../img/tt/163tt.jpg","",""
"806.2399999999325","","","recognition","survey-text","86","358147","0.0-6.0-3.11","2512849","co37924","norming","","","{""guess"":""""}","","../img/tt/163tt.jpg","",""
"null","../img/gs/163gs.jpg","null","reveal","image-keyboard-response","87","360154","0.0-6.0-4.11","2512849","co37924","norming","","","","","","",""
"null","../img/tt/163tt.jpg","null","mooney2","image-keyboard-response","88","362156","0.0-6.0-5.11","2512849","co37924","norming","","","","","","",""
"3276.8300000006566","","","post_reveal_questions","survey-likert","89","365435","0.0-6.0-6.11","2512849","co37924","norming","","","{""aha"":5}","[0]","../img/tt/163tt.jpg","",""
"null","<div style=""font-size:60px;""> </div>","null","fixation","html-keyboard-response","90","365641","0.0-6.0-0.12","2512849","co37924","norming","","","","","","",""
"null","../img/tt/1040tt.jpg","null","mooney1","image-keyboard-response","91","368649","0.0-6.0-1.12","2512849","co37924","norming","","","","","","",""
"3663.9950000008103","","","post_mooney1_questions","survey-likert","92","372315","0.0-6.0-2.12","2512849","co37924","norming","","","{""curiosity"":2,""confidence"":0}","[0,1]","../img/tt/1040tt.jpg","",""
"502.18999999924563","","","recognition","survey-text","93","372819","0.0-6.0-3.12","2512849","co37924","norming","","","{""guess"":""""}","","../img/tt/1040tt.jpg","",""
"null","../img/gs/1040gs.jpg","null","reveal","image-keyboard-response","94","374820","0.0-6.0-4.12","2512849","co37924","norming","","","","","","",""
"null","../img/tt/1040tt.jpg","null","mooney2","image-keyboard-response","95","376825","0.0-6.0-5.12","2512849","co37924","norming","","","","","","",""
"2127.244999999646","","","post_reveal_questions","survey-likert","96","378955","0.0-6.0-6.12","2512849","co37924","norming","","","{""aha"":5}","[0]","../img/tt/1040tt.jpg","",""
"null","<div style=""font-size:60px;""> </div>","null","fixation","html-keyboard-response","97","379165","0.0-6.0-0.13","2512849","co37924","norming","","","","","","",""
"null","../img/tt/1236tt.jpg","null","mooney1","image-keyboard-response","98","382169","0.0-6.0-1.13","2512849","co37924","norming","","","","","","",""
"3022.7850000010803","","","post_mooney1_questions","survey-likert","99","385195","0.0-6.0-2.13","2512849","co37924","norming","","","{""curiosity"":2,""confidence"":2}","[0,1]","../img/tt/1236tt.jpg","",""
"5310.385000000708","","","recognition","survey-text","100","390507","0.0-6.0-3.13","2512849","co37924","norming","","","{""guess"":""stenen muur""}","","../img/tt/1236tt.jpg","",""
"null","../img/gs/1236gs.jpg","null","reveal","image-keyboard-response","101","392510","0.0-6.0-4.13","2512849","co37924","norming","","","","","","",""
"null","../img/tt/1236tt.jpg","null","mooney2","image-keyboard-response","102","394512","0.0-6.0-5.13","2512849","co37924","norming","","","","","","",""
"2952.5549999998184","","","post_reveal_questions","survey-likert","103","397467","0.0-6.0-6.13","2512849","co37924","norming","","","{""aha"":5}","[0]","../img/tt/1236tt.jpg","",""
"null","<div style=""font-size:60px;""> </div>","null","fixation","html-keyboard-response","104","397674","0.0-6.0-0.14","2512849","co37924","norming","","","","","","",""
"null","../img/tt/380tt.jpg","null","mooney1","image-keyboard-response","105","400684","0.0-6.0-1.14","2512849","co37924","norming","","","","","","",""
"4308.370000000636","","","post_mooney1_questions","survey-likert","106","404995","0.0-6.0-2.14","2512849","co37924","norming","","","{""curiosity"":2,""confidence"":1}","[0,1]","../img/tt/380tt.jpg","",""
"613.9249999996391","","","recognition","survey-text","107","405611","0.0-6.0-3.14","2512849","co37924","norming","","","{""guess"":""""}","","../img/tt/380tt.jpg","",""
"null","../img/gs/380gs.jpg","null","reveal","image-keyboard-response","108","407613","0.0-6.0-4.14","2512849","co37924","norming","","","","","","",""
"null","../img/tt/380tt.jpg","null","mooney2","image-keyboard-response","109","409614","0.0-6.0-5.14","2512849","co37924","norming","","","","","","",""
"1146.5049999987823","","","post_reveal_questions","survey-likert","110","410763","0.0-6.0-6.14","2512849","co37924","norming","","","{""aha"":3}","[0]","../img/tt/380tt.jpg","",""
"null","<div style=""font-size:60px;""> </div>","null","fixation","html-keyboard-response","111","410971","0.0-6.0-0.15","2512849","co37924","norming","","","","","","",""
"null","../img/tt/515tt.jpg","null","mooney1","image-keyboard-response","112","413981","0.0-6.0-1.15","2512849","co37924","norming","","","","","","",""
"3659.3549999998068","","","post_mooney1_questions","survey-likert","113","417643","0.0-6.0-2.15","2512849","co37924","norming","","","{""curiosity"":3,""confidence"":1}","[0,1]","../img/tt/515tt.jpg","",""
"694.0900000008405","","","recognition","survey-text","114","418339","0.0-6.0-3.15","2512849","co37924","norming","","","{""guess"":""""}","","../img/tt/515tt.jpg","",""
"null","../img/gs/515gs.jpg","null","reveal","image-keyboard-response","115","420350","0.0-6.0-4.15","2512849","co37924","norming","","","","","","",""
"null","../img/tt/515tt.jpg","null","mooney2","image-keyboard-response","116","422356","0.0-6.0-5.15","2512849","co37924","norming","","","","","","",""
"2940.875000000233","","","post_reveal_questions","survey-likert","117","425299","0.0-6.0-6.15","2512849","co37924","norming","","","{""aha"":3}","[0]","../img/tt/515tt.jpg","",""
"null","<div style=""font-size:60px;""> </div>","null","fixation","html-keyboard-response","118","425501","0.0-6.0-0.16","2512849","co37924","norming","","","","","","",""
"null","../img/tt/296tt.jpg","null","mooney1","image-keyboard-response","119","428511","0.0-6.0-1.16","2512849","co37924","norming","","","","","","",""
"4545.210000000196","","","post_mooney1_questions","survey-likert","120","433059","0.0-6.0-2.16","2512849","co37924","norming","","","{""curiosity"":2,""confidence"":2}","[0,1]","../img/tt/296tt.jpg","",""
"918.2550000005285","","","recognition","survey-text","121","433979","0.0-6.0-3.16","2512849","co37924","norming","","","{""guess"":""""}","","../img/tt/296tt.jpg","",""
"null","../img/gs/296gs.jpg","null","reveal","image-keyboard-response","122","435981","0.0-6.0-4.16","2512849","co37924","norming","","","","","","",""
"null","../img/tt/296tt.jpg","null","mooney2","image-keyboard-response","123","437992","0.0-6.0-5.16","2512849","co37924","norming","","","","","","",""
"2409.3549999997485","","","post_reveal_questions","survey-likert","124","440403","0.0-6.0-6.16","2512849","co37924","norming","","","{""aha"":3}","[0]","../img/tt/296tt.jpg","",""
"null","<div style=""font-size:60px;""> </div>","null","fixation","html-keyboard-response","125","440612","0.0-6.0-0.17","2512849","co37924","norming","","","","","","",""
"null","../img/tt/279tt.jpg","null","mooney1","image-keyboard-response","126","443623","0.0-6.0-1.17","2512849","co37924","norming","","","","","","",""
"3833.655000000377","","","post_mooney1_questions","survey-likert","127","447459","0.0-6.0-2.17","2512849","co37924","norming","","","{""curiosity"":3,""confidence"":6}","[0,1]","../img/tt/279tt.jpg","",""
"2438.250000001106","","","recognition","survey-text","128","449899","0.0-6.0-3.17","2512849","co37924","norming","","","{""guess"":""koala""}","","../img/tt/279tt.jpg","",""
"null","../img/gs/279gs.jpg","null","reveal","image-keyboard-response","129","451902","0.0-6.0-4.17","2512849","co37924","norming","","","","","","",""
"null","../img/tt/279tt.jpg","null","mooney2","image-keyboard-response","130","453906","0.0-6.0-5.17","2512849","co37924","norming","","","","","","",""
"1671.355000000447","","","post_reveal_questions","survey-likert","131","455579","0.0-6.0-6.17","2512849","co37924","norming","","","{""aha"":0}","[0]","../img/tt/279tt.jpg","",""
"null","<div style=""font-size:60px;""> </div>","null","fixation","html-keyboard-response","132","455781","0.0-6.0-0.18","2512849","co37924","norming","","","","","","",""
"null","../img/tt/1251tt.jpg","null","mooney1","image-keyboard-response","133","458786","0.0-6.0-1.18","2512849","co37924","norming","","","","","","",""
"4150.61999999854","","","post_mooney1_questions","survey-likert","134","462940","0.0-6.0-2.18","2512849","co37924","norming","","","{""curiosity"":4,""confidence"":3}","[0,1]","../img/tt/1251tt.jpg","",""
"4478.2149999991525","","","recognition","survey-text","135","467419","0.0-6.0-3.18","2512849","co37924","norming","","","{""guess"":""hek""}","","../img/tt/1251tt.jpg","",""
"null","../img/gs/1251gs.jpg","null","reveal","image-keyboard-response","136","469426","0.0-6.0-4.18","2512849","co37924","norming","","","","","","",""
"null","../img/tt/1251tt.jpg","null","mooney2","image-keyboard-response","137","471429","0.0-6.0-5.18","2512849","co37924","norming","","","","","","",""
"2276.214999999851","","","post_reveal_questions","survey-likert","138","473707","0.0-6.0-6.18","2512849","co37924","norming","","","{""aha"":3}","[0]","../img/tt/1251tt.jpg","",""
"null","<div style=""font-size:60px;""> </div>","null","fixation","html-keyboard-response","139","473909","0.0-6.0-0.19","2512849","co37924","norming","","","","","","",""
"null","../img/tt/1243tt.jpg","null","mooney1","image-keyboard-response","140","476914","0.0-6.0-1.19","2512849","co37924","norming","","","","","","",""
"4926.669999998936","","","post_mooney1_questions","survey-likert","141","481844","0.0-6.0-2.19","2512849","co37924","norming","","","{""curiosity"":3,""confidence"":3}","[0,1]","../img/tt/1243tt.jpg","",""
"1557.8900000000722","","","recognition","survey-text","142","483403","0.0-6.0-3.19","2512849","co37924","norming","","","{""guess"":""aap""}","","../img/tt/1243tt.jpg","",""
"null","../img/gs/1243gs.jpg","null","reveal","image-keyboard-response","143","485408","0.0-6.0-4.19","2512849","co37924","norming","","","","","","",""
"null","../img/tt/1243tt.jpg","null","mooney2","image-keyboard-response","144","487420","0.0-6.0-5.19","2512849","co37924","norming","","","","","","",""
"3285.529999999155","","","post_reveal_questions","survey-likert","145","490707","0.0-6.0-6.19","2512849","co37924","norming","","","{""aha"":4}","[0]","../img/tt/1243tt.jpg","",""
"null","<div style=""font-size:60px;""> </div>","null","fixation","html-keyboard-response","146","490909","0.0-6.0-0.20","2512849","co37924","norming","","","","","","",""
"null","../img/tt/1123tt.jpg","null","mooney1","image-keyboard-response","147","493911","0.0-6.0-1.20","2512849","co37924","norming","","","","","","",""
"3258.1300000001793","","","post_mooney1_questions","survey-likert","148","497172","0.0-6.0-2.20","2512849","co37924","norming","","","{""curiosity"":3,""confidence"":3}","[0,1]","../img/tt/1123tt.jpg","",""
"4421.69000000105","","","recognition","survey-text","149","501595","0.0-6.0-3.20","2512849","co37924","norming","","","{""guess"":""volleybal""}","","../img/tt/1123tt.jpg","",""
"null","../img/gs/1123gs.jpg","null","reveal","image-keyboard-response","150","503600","0.0-6.0-4.20","2512849","co37924","norming","","","","","","",""
"null","../img/tt/1123tt.jpg","null","mooney2","image-keyboard-response","151","505605","0.0-6.0-5.20","2512849","co37924","norming","","","","","","",""
"2868.275000000722","","","post_reveal_questions","survey-likert","152","508475","0.0-6.0-6.20","2512849","co37924","norming","","","{""aha"":3}","[0]","../img/tt/1123tt.jpg","",""
"null","<div style=""font-size:60px;""> </div>","null","fixation","html-keyboard-response","153","508677","0.0-6.0-0.21","2512849","co37924","norming","","","","","","",""
"null","../img/tt/080tt.jpg","null","mooney1","image-keyboard-response","154","511680","0.0-6.0-1.21","2512849","co37924","norming","","","","","","",""
"3568.769999999902","","","post_mooney1_questions","survey-likert","155","515252","0.0-6.0-2.21","2512849","co37924","norming","","","{""curiosity"":2,""confidence"":1}","[0,1]","../img/tt/080tt.jpg","",""
"1182.1600000002654","","","recognition","survey-text","156","516435","0.0-6.0-3.21","2512849","co37924","norming","","","{""guess"":""""}","","../img/tt/080tt.jpg","",""
"null","../img/gs/080gs.jpg","null","reveal","image-keyboard-response","157","518444","0.0-6.0-4.21","2512849","co37924","norming","","","","","","",""
"null","../img/tt/080tt.jpg","null","mooney2","image-keyboard-response","158","520447","0.0-6.0-5.21","2512849","co37924","norming","","","","","","",""
"2338.470000000554","","","post_reveal_questions","survey-likert","159","522787","0.0-6.0-6.21","2512849","co37924","norming","","","{""aha"":4}","[0]","../img/tt/080tt.jpg","",""
"null","<div style=""font-size:60px;""> </div>","null","fixation","html-keyboard-response","160","522992","0.0-6.0-0.22","2512849","co37924","norming","","","","","","",""
"null","../img/tt/020tt.jpg","null","mooney1","image-keyboard-response","161","526000","0.0-6.0-1.22","2512849","co37924","norming","","","","","","",""
"3000.570000000065","","","post_mooney1_questions","survey-likert","162","529004","0.0-6.0-2.22","2512849","co37924","norming","","","{""curiosity"":2,""confidence"":3}","[0,1]","../img/tt/020tt.jpg","",""
"4014.444999998901","","","recognition","survey-text","163","533020","0.0-6.0-3.22","2512849","co37924","norming","","","{""guess"":""bob marley""}","","../img/tt/020tt.jpg","",""
"null","../img/gs/020gs.jpg","null","reveal","image-keyboard-response","164","535025","0.0-6.0-4.22","2512849","co37924","norming","","","","","","",""
"null","../img/tt/020tt.jpg","null","mooney2","image-keyboard-response","165","537027","0.0-6.0-5.22","2512849","co37924","norming","","","","","","",""
"2325.694999999483","","","post_reveal_questions","survey-likert","166","539355","0.0-6.0-6.22","2512849","co37924","norming","","","{""aha"":5}","[0]","../img/tt/020tt.jpg","",""
"null","<div style=""font-size:60px;""> </div>","null","fixation","html-keyboard-response","167","539557","0.0-6.0-0.23","2512849","co37924","norming","","","","","","",""
"null","../img/tt/1307tt.jpg","null","mooney1","image-keyboard-response","168","542566","0.0-6.0-1.23","2512849","co37924","norming","","","","","","",""
"3690.924999998999","","","post_mooney1_questions","survey-likert","169","546260","0.0-6.0-2.23","2512849","co37924","norming","","","{""curiosity"":2,""confidence"":2}","[0,1]","../img/tt/1307tt.jpg","",""
"2294.10499999905","","","recognition","survey-text","170","548555","0.0-6.0-3.23","2512849","co37924","norming","","","{""guess"":""kapel""}","","../img/tt/1307tt.jpg","",""
"null","../img/gs/1307gs.jpg","null","reveal","image-keyboard-response","171","550557","0.0-6.0-4.23","2512849","co37924","norming","","","","","","",""
"null","../img/tt/1307tt.jpg","null","mooney2","image-keyboard-response","172","552569","0.0-6.0-5.23","2512849","co37924","norming","","","","","","",""
"2304.2399999994086","","","post_reveal_questions","survey-likert","173","554875","0.0-6.0-6.23","2512849","co37924","norming","","","{""aha"":3}","[0]","../img/tt/1307tt.jpg","",""
"null","<div style=""font-size:60px;""> </div>","null","fixation","html-keyboard-response","174","555081","0.0-6.0-0.24","2512849","co37924","norming","","","","","","",""
"null","../img/tt/098tt.jpg","null","mooney1","image-keyboard-response","175","558088","0.0-6.0-1.24","2512849","co37924","norming","","","","","","",""
"3913.015000000014","","","post_mooney1_questions","survey-likert","176","562004","0.0-6.0-2.24","2512849","co37924","norming","","","{""curiosity"":3,""confidence"":2}","[0,1]","../img/tt/098tt.jpg","",""
"717.9449999984354","","","recognition","survey-text","177","562723","0.0-6.0-3.24","2512849","co37924","norming","","","{""guess"":""""}","","../img/tt/098tt.jpg","",""
"null","../img/gs/098gs.jpg","null","reveal","image-keyboard-response","178","564729","0.0-6.0-4.24","2512849","co37924","norming","","","","","","",""
"null","../img/tt/098tt.jpg","null","mooney2","image-keyboard-response","179","566734","0.0-6.0-5.24","2512849","co37924","norming","","","","","","",""
"3458.5399999995716","","","post_reveal_questions","survey-likert","180","570195","0.0-6.0-6.24","2512849","co37924","norming","","","{""aha"":3}","[0]","../img/tt/098tt.jpg","",""
"null","<div style=""font-size:60px;""> </div>","null","fixation","html-keyboard-response","181","570398","0.0-6.0-0.25","2512849","co37924","norming","","","","","","",""
"null","../img/tt/438tt.jpg","null","mooney1","image-keyboard-response","182","573407","0.0-6.0-1.25","2512849","co37924","norming","","","","","","",""
"3169.250000000815","","","post_mooney1_questions","survey-likert","183","576575","0.0-6.0-2.25","2512849","co37924","norming","","","{""curiosity"":3,""confidence"":4}","[0,1]","../img/tt/438tt.jpg","",""
"2198.614999999292","","","recognition","survey-text","184","578775","0.0-6.0-3.25","2512849","co37924","norming","","","{""guess"":""vlinder""}","","../img/tt/438tt.jpg","",""
"null","../img/gs/438gs.jpg","null","reveal","image-keyboard-response","185","580781","0.0-6.0-4.25","2512849","co37924","norming","","","","","","",""
"null","../img/tt/438tt.jpg","null","mooney2","image-keyboard-response","186","582790","0.0-6.0-5.25","2512849","co37924","norming","","","","","","",""
"2430.159999999916","","","post_reveal_questions","survey-likert","187","585223","0.0-6.0-6.25","2512849","co37924","norming","","","{""aha"":5}","[0]","../img/tt/438tt.jpg","",""
"null","<div style=""font-size:60px;""> </div>","null","fixation","html-keyboard-response","188","585424","0.0-6.0-0.26","2512849","co37924","norming","","","","","","",""
"null","../img/tt/049tt.jpg","null","mooney1","image-keyboard-response","189","588429","0.0-6.0-1.26","2512849","co37924","norming","","","","","","",""
"3326.9899999996414","","","post_mooney1_questions","survey-likert","190","591759","0.0-6.0-2.26","2512849","co37924","norming","","","{""curiosity"":2,""confidence"":0}","[0,1]","../img/tt/049tt.jpg","",""
"462.0899999990361","","","recognition","survey-text","191","592223","0.0-6.0-3.26","2512849","co37924","norming","","","{""guess"":""""}","","../img/tt/049tt.jpg","",""
"null","../img/gs/049gs.jpg","null","reveal","image-keyboard-response","192","594232","0.0-6.0-4.26","2512849","co37924","norming","","","","","","",""
"null","../img/tt/049tt.jpg","null","mooney2","image-keyboard-response","193","596241","0.0-6.0-5.26","2512849","co37924","norming","","","","","","",""
"2973.0799999998417","","","post_reveal_questions","survey-likert","194","599215","0.0-6.0-6.26","2512849","co37924","norming","","","{""aha"":3}","[0]","../img/tt/049tt.jpg","",""
"null","<div style=""font-size:60px;""> </div>","null","fixation","html-keyboard-response","195","599419","0.0-6.0-0.27","2512849","co37924","norming","","","","","","",""
"null","../img/tt/094tt.jpg","null","mooney1","image-keyboard-response","196","602427","0.0-6.0-1.27","2512849","co37924","norming","","","","","","",""
"3608.664999999688","","","post_mooney1_questions","survey-likert","197","606039","0.0-6.0-2.27","2512849","co37924","norming","","","{""curiosity"":3,""confidence"":3}","[0,1]","../img/tt/094tt.jpg","",""
"1709.8650000006892","","","recognition","survey-text","198","607751","0.0-6.0-3.27","2512849","co37924","norming","","","{""guess"":""koe""}","","../img/tt/094tt.jpg","",""
"null","../img/gs/094gs.jpg","null","reveal","image-keyboard-response","199","609753","0.0-6.0-4.27","2512849","co37924","norming","","","","","","",""
"null","../img/tt/094tt.jpg","null","mooney2","image-keyboard-response","200","611758","0.0-6.0-5.27","2512849","co37924","norming","","","","","","",""
"2631.379999998957","","","post_reveal_questions","survey-likert","201","614391","0.0-6.0-6.27","2512849","co37924","norming","","","{""aha"":5}","[0]","../img/tt/094tt.jpg","",""
"null","<div style=""font-size:60px;""> </div>","null","fixation","html-keyboard-response","202","614594","0.0-6.0-0.28","2512849","co37924","norming","","","","","","",""
"null","../img/tt/184tt.jpg","null","mooney1","image-keyboard-response","203","617602","0.0-6.0-1.28","2512849","co37924","norming","","","","","","",""
"3610.090000000084","","","post_mooney1_questions","survey-likert","204","621215","0.0-6.0-2.28","2512849","co37924","norming","","","{""curiosity"":4,""confidence"":1}","[0,1]","../img/tt/184tt.jpg","",""
"706.7849999984028","","","recognition","survey-text","205","621926","0.0-6.0-3.28","2512849","co37924","norming","","","{""guess"":""""}","","../img/tt/184tt.jpg","",""
"null","../img/gs/184gs.jpg","null","reveal","image-keyboard-response","206","623937","0.0-6.0-4.28","2512849","co37924","norming","","","","","","",""
"null","../img/tt/184tt.jpg","null","mooney2","image-keyboard-response","207","625939","0.0-6.0-5.28","2512849","co37924","norming","","","","","","",""
"1544.9850000004517","","","post_reveal_questions","survey-likert","208","627487","0.0-6.0-6.28","2512849","co37924","norming","","","{""aha"":4}","[0]","../img/tt/184tt.jpg","",""
"null","<div style=""font-size:60px;""> </div>","null","fixation","html-keyboard-response","209","627691","0.0-6.0-0.29","2512849","co37924","norming","","","","","","",""
"null","../img/tt/064tt.jpg","null","mooney1","image-keyboard-response","210","630703","0.0-6.0-1.29","2512849","co37924","norming","","","","","","",""
"3893.1850000007544","","","post_mooney1_questions","survey-likert","211","634599","0.0-6.0-2.29","2512849","co37924","norming","","","{""curiosity"":4,""confidence"":1}","[0,1]","../img/tt/064tt.jpg","",""
"3198.2349999998696","","","recognition","survey-text","212","637804","0.0-6.0-3.29","2512849","co37924","norming","","","{""guess"":""oester""}","","../img/tt/064tt.jpg","",""
"null","../img/gs/064gs.jpg","null","reveal","image-keyboard-response","213","639810","0.0-6.0-4.29","2512849","co37924","norming","","","","","","",""
"null","../img/tt/064tt.jpg","null","mooney2","image-keyboard-response","214","641811","0.0-6.0-5.29","2512849","co37924","norming","","","","","","",""
"2312.250000000815","","","post_reveal_questions","survey-likert","215","644124","0.0-6.0-6.29","2512849","co37924","norming","","","{""aha"":5}","[0]","../img/tt/064tt.jpg","",""
"null","<div style=""font-size:60px;""> </div>","null","fixation","html-keyboard-response","216","644329","0.0-6.0-0.30","2512849","co37924","norming","","","","","","",""
"null","../img/tt/1044tt.jpg","null","mooney1","image-keyboard-response","217","647341","0.0-6.0-1.30","2512849","co37924","norming","","","","","","",""
"2363.680000000284","","","post_mooney1_questions","survey-likert","218","649708","0.0-6.0-2.30","2512849","co37924","norming","","","{""curiosity"":3,""confidence"":3}","[0,1]","../img/tt/1044tt.jpg","",""
"750.3349999987986","","","recognition","survey-text","219","650460","0.0-6.0-3.30","2512849","co37924","norming","","","{""guess"":""""}","","../img/tt/1044tt.jpg","",""
"null","../img/gs/1044gs.jpg","null","reveal","image-keyboard-response","220","652465","0.0-6.0-4.30","2512849","co37924","norming","","","","","","",""
"null","../img/tt/1044tt.jpg","null","mooney2","image-keyboard-response","221","654477","0.0-6.0-5.30","2512849","co37924","norming","","","","","","",""
"2220.409999999916","","","post_reveal_questions","survey-likert","222","656700","0.0-6.0-6.30","2512849","co37924","norming","","","{""aha"":6}","[0]","../img/tt/1044tt.jpg","",""
"null","<div style=""font-size:60px;""> </div>","null","fixation","html-keyboard-response","223","656904","0.0-6.0-0.31","2512849","co37924","norming","","","","","","",""
"null","../img/tt/1278tt.jpg","null","mooney1","image-keyboard-response","224","659909","0.0-6.0-1.31","2512849","co37924","norming","","","","","","",""
"2714.9050000007264","","","post_mooney1_questions","survey-likert","225","662628","0.0-6.0-2.31","2512849","co37924","norming","","","{""curiosity"":4,""confidence"":3}","[0,1]","../img/tt/1278tt.jpg","",""
"1846.1299999998882","","","recognition","survey-text","226","664476","0.0-6.0-3.31","2512849","co37924","norming","","","{""guess"":""mens""}","","../img/tt/1278tt.jpg","",""
"null","../img/gs/1278gs.jpg","null","reveal","image-keyboard-response","227","666482","0.0-6.0-4.31","2512849","co37924","norming","","","","","","",""
"null","../img/tt/1278tt.jpg","null","mooney2","image-keyboard-response","228","668492","0.0-6.0-5.31","2512849","co37924","norming","","","","","","",""
"3261.164999999921","","","post_reveal_questions","survey-likert","229","671755","0.0-6.0-6.31","2512849","co37924","norming","","","{""aha"":2}","[0]","../img/tt/1278tt.jpg","",""
"null","<div style=""font-size:60px;""> </div>","null","fixation","html-keyboard-response","230","671962","0.0-6.0-0.32","2512849","co37924","norming","","","","","","",""
"null","../img/tt/580tt.jpg","null","mooney1","image-keyboard-response","231","674965","0.0-6.0-1.32","2512849","co37924","norming","","","","","","",""
"4011.684999999474","","","post_mooney1_questions","survey-likert","232","678980","0.0-6.0-2.32","2512849","co37924","norming","","","{""curiosity"":3,""confidence"":0}","[0,1]","../img/tt/580tt.jpg","",""
"717.8149999999441","","","recognition","survey-text","233","679699","0.0-6.0-3.32","2512849","co37924","norming","","","{""guess"":""""}","","../img/tt/580tt.jpg","",""
"null","../img/gs/580gs.jpg","null","reveal","image-keyboard-response","234","681705","0.0-6.0-4.32","2512849","co37924","norming","","","","","","",""
"null","../img/tt/580tt.jpg","null","mooney2","image-keyboard-response","235","683715","0.0-6.0-5.32","2512849","co37924","norming","","","","","","",""
"2679.6950000006473","","","post_reveal_questions","survey-likert","236","686396","0.0-6.0-6.32","2512849","co37924","norming","","","{""aha"":3}","[0]","../img/tt/580tt.jpg","",""
"null","<div style=""font-size:60px;""> </div>","null","fixation","html-keyboard-response","237","686604","0.0-6.0-0.33","2512849","co37924","norming","","","","","","",""
"null","../img/tt/1087tt.jpg","null","mooney1","image-keyboard-response","238","689607","0.0-6.0-1.33","2512849","co37924","norming","","","","","","",""
"5522.275000001187","","","post_mooney1_questions","survey-likert","239","695132","0.0-6.0-2.33","2512849","co37924","norming","","","{""curiosity"":3,""confidence"":1}","[0,1]","../img/tt/1087tt.jpg","",""
"2605.8999999987427","","","recognition","survey-text","240","697739","0.0-6.0-3.33","2512849","co37924","norming","","","{""guess"":""varkens""}","","../img/tt/1087tt.jpg","",""
"null","../img/gs/1087gs.jpg","null","reveal","image-keyboard-response","241","699748","0.0-6.0-4.33","2512849","co37924","norming","","","","","","",""
"null","../img/tt/1087tt.jpg","null","mooney2","image-keyboard-response","242","701756","0.0-6.0-5.33","2512849","co37924","norming","","","","","","",""
"2653.9650000013644","","","post_reveal_questions","survey-likert","243","704411","0.0-6.0-6.33","2512849","co37924","norming","","","{""aha"":4}","[0]","../img/tt/1087tt.jpg","",""
"null","<div style=""font-size:60px;""> </div>","null","fixation","html-keyboard-response","244","704620","0.0-6.0-0.34","2512849","co37924","norming","","","","","","",""
"null","../img/tt/055tt.jpg","null","mooney1","image-keyboard-response","245","707623","0.0-6.0-1.34","2512849","co37924","norming","","","","","","",""
"3386.979999999283","","","post_mooney1_questions","survey-likert","246","711011","0.0-6.0-2.34","2512849","co37924","norming","","","{""curiosity"":3,""confidence"":1}","[0,1]","../img/tt/055tt.jpg","",""
"654.1949999991339","","","recognition","survey-text","247","711667","0.0-6.0-3.34","2512849","co37924","norming","","","{""guess"":""""}","","../img/tt/055tt.jpg","",""
"null","../img/gs/055gs.jpg","null","reveal","image-keyboard-response","248","713669","0.0-6.0-4.34","2512849","co37924","norming","","","","","","",""
"null","../img/tt/055tt.jpg","null","mooney2","image-keyboard-response","249","715671","0.0-6.0-5.34","2512849","co37924","norming","","","","","","",""
"2546.159999999916","","","post_reveal_questions","survey-likert","250","718219","0.0-6.0-6.34","2512849","co37924","norming","","","{""aha"":3}","[0]","../img/tt/055tt.jpg","",""
"null","<div style=""font-size:60px;""> </div>","null","fixation","html-keyboard-response","251","718425","0.0-6.0-0.35","2512849","co37924","norming","","","","","","",""
"null","../img/tt/076tt.jpg","null","mooney1","image-keyboard-response","252","721433","0.0-6.0-1.35","2512849","co37924","norming","","","","","","",""
"3079.1200000003446","","","post_mooney1_questions","survey-likert","253","724515","0.0-6.0-2.35","2512849","co37924","norming","","","{""curiosity"":2,""confidence"":3}","[0,1]","../img/tt/076tt.jpg","",""
"3510.360000000219","","","recognition","survey-text","254","728027","0.0-6.0-3.35","2512849","co37924","norming","","","{""guess"":""rolschaatsen""}","","../img/tt/076tt.jpg","",""
"null","../img/gs/076gs.jpg","null","reveal","image-keyboard-response","255","730029","0.0-6.0-4.35","2512849","co37924","norming","","","","","","",""
"null","../img/tt/076tt.jpg","null","mooney2","image-keyboard-response","256","732030","0.0-6.0-5.35","2512849","co37924","norming","","","","","","",""
"3090.520000001532","","","post_reveal_questions","survey-likert","257","735123","0.0-6.0-6.35","2512849","co37924","norming","","","{""aha"":0}","[0]","../img/tt/076tt.jpg","",""
"null","<div style=""font-size:60px;""> </div>","null","fixation","html-keyboard-response","258","735324","0.0-6.0-0.36","2512849","co37924","norming","","","","","","",""
"null","../img/tt/1269tt.jpg","null","mooney1","image-keyboard-response","259","738333","0.0-6.0-1.36","2512849","co37924","norming","","","","","","",""
"3403.0800000000745","","","post_mooney1_questions","survey-likert","260","741739","0.0-6.0-2.36","2512849","co37924","norming","","","{""curiosity"":2,""confidence"":4}","[0,1]","../img/tt/1269tt.jpg","",""
"6750.370000001625","","","recognition","survey-text","261","748491","0.0-6.0-3.36","2512849","co37924","norming","","","{""guess"":""eekhoorn""}","","../img/tt/1269tt.jpg","",""
"null","../img/gs/1269gs.jpg","null","reveal","image-keyboard-response","262","750499","0.0-6.0-4.36","2512849","co37924","norming","","","","","","",""
"null","../img/tt/1269tt.jpg","null","mooney2","image-keyboard-response","263","752501","0.0-6.0-5.36","2512849","co37924","norming","","","","","","",""
"2652.529999999446","","","post_reveal_questions","survey-likert","264","755155","0.0-6.0-6.36","2512849","co37924","norming","","","{""aha"":0}","[0]","../img/tt/1269tt.jpg","",""
"null","<div style=""font-size:60px;""> </div>","null","fixation","html-keyboard-response","265","755364","0.0-6.0-0.37","2512849","co37924","norming","","","","","","",""
"null","../img/tt/1366tt.jpg","null","mooney1","image-keyboard-response","266","758369","0.0-6.0-1.37","2512849","co37924","norming","","","","","","",""
"5104.245000000461","","","post_mooney1_questions","survey-likert","267","763477","0.0-6.0-2.37","2512849","co37924","norming","","","{""curiosity"":4,""confidence"":0}","[0,1]","../img/tt/1366tt.jpg","",""
"1525.9800000003306","","","recognition","survey-text","268","765004","0.0-6.0-3.37","2512849","co37924","norming","","","{""guess"":""""}","","../img/tt/1366tt.jpg","",""
"null","../img/gs/1366gs.jpg","null","reveal","image-keyboard-response","269","767011","0.0-6.0-4.37","2512849","co37924","norming","","","","","","",""
"null","../img/tt/1366tt.jpg","null","mooney2","image-keyboard-response","270","769013","0.0-6.0-5.37","2512849","co37924","norming","","","","","","",""
"2916.9149999998044","","","post_reveal_questions","survey-likert","271","771932","0.0-6.0-6.37","2512849","co37924","norming","","","{""aha"":3}","[0]","../img/tt/1366tt.jpg","",""
"null","<div style=""font-size:60px;""> </div>","null","fixation","html-keyboard-response","272","772142","0.0-6.0-0.38","2512849","co37924","norming","","","","","","",""
"null","../img/tt/1241tt.jpg","null","mooney1","image-keyboard-response","273","775146","0.0-6.0-1.38","2512849","co37924","norming","","","","","","",""
"6527.4199999985285","","","post_mooney1_questions","survey-likert","274","781677","0.0-6.0-2.38","2512849","co37924","norming","","","{""curiosity"":5,""confidence"":0}","[0,1]","../img/tt/1241tt.jpg","",""
"909.8400000002002","","","recognition","survey-text","275","782588","0.0-6.0-3.38","2512849","co37924","norming","","","{""guess"":""""}","","../img/tt/1241tt.jpg","",""
"null","../img/gs/1241gs.jpg","null","reveal","image-keyboard-response","276","784591","0.0-6.0-4.38","2512849","co37924","norming","","","","","","",""
"null","../img/tt/1241tt.jpg","null","mooney2","image-keyboard-response","277","786599","0.0-6.0-5.38","2512849","co37924","norming","","","","","","",""
"2786.5849999998463","","","post_reveal_questions","survey-likert","278","789388","0.0-6.0-6.38","2512849","co37924","norming","","","{""aha"":3}","[0]","../img/tt/1241tt.jpg","",""
"null","<div style=""font-size:60px;""> </div>","null","fixation","html-keyboard-response","279","789590","0.0-6.0-0.39","2512849","co37924","norming","","","","","","",""
"null","../img/tt/1037tt.jpg","null","mooney1","image-keyboard-response","280","792600","0.0-6.0-1.39","2512849","co37924","norming","","","","","","",""
"4584.899999999907","","","post_mooney1_questions","survey-likert","281","797188","0.0-6.0-2.39","2512849","co37924","norming","","","{""curiosity"":4,""confidence"":1}","[0,1]","../img/tt/1037tt.jpg","",""
"2358.3149999994785","","","recognition","survey-text","282","799548","0.0-6.0-3.39","2512849","co37924","norming","","","{""guess"":""beer""}","","../img/tt/1037tt.jpg","",""
"null","../img/gs/1037gs.jpg","null","reveal","image-keyboard-response","283","801559","0.0-6.0-4.39","2512849","co37924","norming","","","","","","",""
"null","../img/tt/1037tt.jpg","null","mooney2","image-keyboard-response","284","803563","0.0-6.0-5.39","2512849","co37924","norming","","","","","","",""
"2783.1600000008475","","","post_reveal_questions","survey-likert","285","806348","0.0-6.0-6.39","2512849","co37924","norming","","","{""aha"":4}","[0]","../img/tt/1037tt.jpg","",""
"null","<div style=""font-size:60px;""> </div>","null","fixation","html-keyboard-response","286","806556","0.0-6.0-0.40","2512849","co37924","norming","","","","","","",""
"null","../img/tt/1272tt.jpg","null","mooney1","image-keyboard-response","287","809564","0.0-6.0-1.40","2512849","co37924","norming","","","","","","",""
"4205.024999999325","","","post_mooney1_questions","survey-likert","288","813772","0.0-6.0-2.40","2512849","co37924","norming","","","{""curiosity"":3,""confidence"":3}","[0,1]","../img/tt/1272tt.jpg","",""
"3502.034999999567","","","recognition","survey-text","289","817276","0.0-6.0-3.40","2512849","co37924","norming","","","{""guess"":""kangaroo""}","","../img/tt/1272tt.jpg","",""
"null","../img/gs/1272gs.jpg","null","reveal","image-keyboard-response","290","819284","0.0-6.0-4.40","2512849","co37924","norming","","","","","","",""
"null","../img/tt/1272tt.jpg","null","mooney2","image-keyboard-response","291","821285","0.0-6.0-5.40","2512849","co37924","norming","","","","","","",""
"2261.889999999781","","","post_reveal_questions","survey-likert","292","823548","0.0-6.0-6.40","2512849","co37924","norming","","","{""aha"":4}","[0]","../img/tt/1272tt.jpg","",""
"null","<div style=""font-size:60px;""> </div>","null","fixation","html-keyboard-response","293","823757","0.0-6.0-0.41","2512849","co37924","norming","","","","","","",""
"null","../img/tt/189tt.jpg","null","mooney1","image-keyboard-response","294","826768","0.0-6.0-1.41","2512849","co37924","norming","","","","","","",""
"3923.4550000000745","","","post_mooney1_questions","survey-likert","295","830693","0.0-6.0-2.41","2512849","co37924","norming","","","{""curiosity"":4,""confidence"":1}","[0,1]","../img/tt/189tt.jpg","",""
"2854.0949999986915","","","recognition","survey-text","296","833548","0.0-6.0-3.41","2512849","co37924","norming","","","{""guess"":""skatebord""}","","../img/tt/189tt.jpg","",""
"null","../img/gs/189gs.jpg","null","reveal","image-keyboard-response","297","835556","0.0-6.0-4.41","2512849","co37924","norming","","","","","","",""
"null","../img/tt/189tt.jpg","null","mooney2","image-keyboard-response","298","837563","0.0-6.0-5.41","2512849","co37924","norming","","","","","","",""
"2679.795000000042","","","post_reveal_questions","survey-likert","299","840244","0.0-6.0-6.41","2512849","co37924","norming","","","{""aha"":5}","[0]","../img/tt/189tt.jpg","",""
"null","<div style=""font-size:60px;""> </div>","null","fixation","html-keyboard-response","300","840450","0.0-6.0-0.42","2512849","co37924","norming","","","","","","",""
"null","../img/tt/1309tt.jpg","null","mooney1","image-keyboard-response","301","843452","0.0-6.0-1.42","2512849","co37924","norming","","","","","","",""
"3999.094999999157","","","post_mooney1_questions","survey-likert","302","847453","0.0-6.0-2.42","2512849","co37924","norming","","","{""curiosity"":4,""confidence"":3}","[0,1]","../img/tt/1309tt.jpg","",""
"2253.754999999772","","","recognition","survey-text","303","849708","0.0-6.0-3.42","2512849","co37924","norming","","","{""guess"":""auto""}","","../img/tt/1309tt.jpg","",""
"null","../img/gs/1309gs.jpg","null","reveal","image-keyboard-response","304","851715","0.0-6.0-4.42","2512849","co37924","norming","","","","","","",""
"null","../img/tt/1309tt.jpg","null","mooney2","image-keyboard-response","305","853720","0.0-6.0-5.42","2512849","co37924","norming","","","","","","",""
"2651.394999998971","","","post_reveal_questions","survey-likert","306","856373","0.0-6.0-6.42","2512849","co37924","norming","","","{""aha"":2}","[0]","../img/tt/1309tt.jpg","",""
"null","<div style=""font-size:60px;""> </div>","null","fixation","html-keyboard-response","307","856581","0.0-6.0-0.43","2512849","co37924","norming","","","","","","",""
"null","../img/tt/1004tt.jpg","null","mooney1","image-keyboard-response","308","859588","0.0-6.0-1.43","2512849","co37924","norming","","","","","","",""
"2358.2050000004238","","","post_mooney1_questions","survey-likert","309","861949","0.0-6.0-2.43","2512849","co37924","norming","","","{""curiosity"":2,""confidence"":3}","[0,1]","../img/tt/1004tt.jpg","",""
"1501.8099999997066","","","recognition","survey-text","310","863453","0.0-6.0-3.43","2512849","co37924","norming","","","{""guess"":""beer""}","","../img/tt/1004tt.jpg","",""
"null","../img/gs/1004gs.jpg","null","reveal","image-keyboard-response","311","865454","0.0-6.0-4.43","2512849","co37924","norming","","","","","","",""
"null","../img/tt/1004tt.jpg","null","mooney2","image-keyboard-response","312","867457","0.0-6.0-5.43","2512849","co37924","norming","","","","","","",""
"1711.1000000004424","","","post_reveal_questions","survey-likert","313","869173","0.0-6.0-6.43","2512849","co37924","norming","","","{""aha"":4}","[0]","../img/tt/1004tt.jpg","",""
"null","<div style=""font-size:60px;""> </div>","null","fixation","html-keyboard-response","314","869376","0.0-6.0-0.44","2512849","co37924","norming","","","","","","",""
"null","../img/tt/084tt.jpg","null","mooney1","image-keyboard-response","315","872382","0.0-6.0-1.44","2512849","co37924","norming","","","","","","",""
"3525.654999999446","","","post_mooney1_questions","survey-likert","316","875909","0.0-6.0-2.44","2512849","co37924","norming","","","{""curiosity"":2,""confidence"":1}","[0,1]","../img/tt/084tt.jpg","",""
"1574.2150000005495","","","recognition","survey-text","317","877485","0.0-6.0-3.44","2512849","co37924","norming","","","{""guess"":""gans""}","","../img/tt/084tt.jpg","",""
"null","../img/gs/084gs.jpg","null","reveal","image-keyboard-response","318","879495","0.0-6.0-4.44","2512849","co37924","norming","","","","","","",""
"null","../img/tt/084tt.jpg","null","mooney2","image-keyboard-response","319","881497","0.0-6.0-5.44","2512849","co37924","norming","","","","","","",""
"2473.5049999998882","","","post_reveal_questions","survey-likert","320","883973","0.0-6.0-6.44","2512849","co37924","norming","","","{""aha"":4}","[0]","../img/tt/084tt.jpg","",""
"null","<div style=""font-size:60px;""> </div>","null","fixation","html-keyboard-response","321","884175","0.0-6.0-0.45","2512849","co37924","norming","","","","","","",""
"null","../img/tt/1186tt.jpg","null","mooney1","image-keyboard-response","322","887185","0.0-6.0-1.45","2512849","co37924","norming","","","","","","",""
"3992.515000000014","","","post_mooney1_questions","survey-likert","323","891181","0.0-6.0-2.45","2512849","co37924","norming","","","{""curiosity"":2,""confidence"":0}","[0,1]","../img/tt/1186tt.jpg","",""
"798.2300000003306","","","recognition","survey-text","324","891981","0.0-6.0-3.45","2512849","co37924","norming","","","{""guess"":""""}","","../img/tt/1186tt.jpg","",""
"null","../img/gs/1186gs.jpg","null","reveal","image-keyboard-response","325","893983","0.0-6.0-4.45","2512849","co37924","norming","","","","","","",""
"null","../img/tt/1186tt.jpg","null","mooney2","image-keyboard-response","326","895987","0.0-6.0-5.45","2512849","co37924","norming","","","","","","",""
"2599.229999999865","","","post_reveal_questions","survey-likert","327","898589","0.0-6.0-6.45","2512849","co37924","norming","","","{""aha"":5}","[0]","../img/tt/1186tt.jpg","",""
"null","<div style=""font-size:60px;""> </div>","null","fixation","html-keyboard-response","328","898792","0.0-6.0-0.46","2512849","co37924","norming","","","","","","",""
"null","../img/tt/1211tt.jpg","null","mooney1","image-keyboard-response","329","901800","0.0-6.0-1.46","2512849","co37924","norming","","","","","","",""
"5763.580000000773","","","post_mooney1_questions","survey-likert","330","907565","0.0-6.0-2.46","2512849","co37924","norming","","","{""curiosity"":1,""confidence"":0}","[0,1]","../img/tt/1211tt.jpg","",""
"1990.0049999996554","","","recognition","survey-text","331","909557","0.0-6.0-3.46","2512849","co37924","norming","","","{""guess"":""""}","","../img/tt/1211tt.jpg","",""
"null","../img/gs/1211gs.jpg","null","reveal","image-keyboard-response","332","911567","0.0-6.0-4.46","2512849","co37924","norming","","","","","","",""
"null","../img/tt/1211tt.jpg","null","mooney2","image-keyboard-response","333","913570","0.0-6.0-5.46","2512849","co37924","norming","","","","","","",""
"1832.3650000002235","","","post_reveal_questions","survey-likert","334","915405","0.0-6.0-6.46","2512849","co37924","norming","","","{""aha"":5}","[0]","../img/tt/1211tt.jpg","",""
"null","<div style=""font-size:60px;""> </div>","null","fixation","html-keyboard-response","335","915606","0.0-6.0-0.47","2512849","co37924","norming","","","","","","",""
"null","../img/tt/091tt.jpg","null","mooney1","image-keyboard-response","336","918617","0.0-6.0-1.47","2512849","co37924","norming","","","","","","",""
"4224.994999998715","","","post_mooney1_questions","survey-likert","337","922845","0.0-6.0-2.47","2512849","co37924","norming","","","{""curiosity"":4,""confidence"":0}","[0,1]","../img/tt/091tt.jpg","",""
"749.3250000006519","","","recognition","survey-text","338","923597","0.0-6.0-3.47","2512849","co37924","norming","","","{""guess"":""""}","","../img/tt/091tt.jpg","",""
"null","../img/gs/091gs.jpg","null","reveal","image-keyboard-response","339","925607","0.0-6.0-4.47","2512849","co37924","norming","","","","","","",""
"null","../img/tt/091tt.jpg","null","mooney2","image-keyboard-response","340","927609","0.0-6.0-5.47","2512849","co37924","norming","","","","","","",""
"1521.1899999994785","","","post_reveal_questions","survey-likert","341","929133","0.0-6.0-6.47","2512849","co37924","norming","","","{""aha"":4}","[0]","../img/tt/091tt.jpg","",""
"null","<div style=""font-size:60px;""> </div>","null","fixation","html-keyboard-response","342","929335","0.0-6.0-0.48","2512849","co37924","norming","","","","","","",""
"null","../img/tt/013tt.jpg","null","mooney1","image-keyboard-response","343","932338","0.0-6.0-1.48","2512849","co37924","norming","","","","","","",""
"3863.4600000004284","","","post_mooney1_questions","survey-likert","344","936205","0.0-6.0-2.48","2512849","co37924","norming","","","{""curiosity"":3,""confidence"":2}","[0,1]","../img/tt/013tt.jpg","",""
"2269.974999999162","","","recognition","survey-text","345","938477","0.0-6.0-3.48","2512849","co37924","norming","","","{""guess"":""paard""}","","../img/tt/013tt.jpg","",""
"null","../img/gs/013gs.jpg","null","reveal","image-keyboard-response","346","940480","0.0-6.0-4.48","2512849","co37924","norming","","","","","","",""
"null","../img/tt/013tt.jpg","null","mooney2","image-keyboard-response","347","942488","0.0-6.0-5.48","2512849","co37924","norming","","","","","","",""
"2578.5450000002747","","","post_reveal_questions","survey-likert","348","945069","0.0-6.0-6.48","2512849","co37924","norming","","","{""aha"":5}","[0]","../img/tt/013tt.jpg","",""
"null","<div style=""font-size:60px;""> </div>","null","fixation","html-keyboard-response","349","945278","0.0-6.0-0.49","2512849","co37924","norming","","","","","","",""
"null","../img/tt/329tt.jpg","null","mooney1","image-keyboard-response","350","948282","0.0-6.0-1.49","2512849","co37924","norming","","","","","","",""
"3695.959999999148","","","post_mooney1_questions","survey-likert","351","951981","0.0-6.0-2.49","2512849","co37924","norming","","","{""curiosity"":2,""confidence"":2}","[0,1]","../img/tt/329tt.jpg","",""
"2605.574999999604","","","recognition","survey-text","352","954589","0.0-6.0-3.49","2512849","co37924","norming","","","{""guess"":""octopus""}","","../img/tt/329tt.jpg","",""
"null","../img/gs/329gs.jpg","null","reveal","image-keyboard-response","353","956596","0.0-6.0-4.49","2512849","co37924","norming","","","","","","",""
"null","../img/tt/329tt.jpg","null","mooney2","image-keyboard-response","354","958602","0.0-6.0-5.49","2512849","co37924","norming","","","","","","",""
"1801.1599999991013","","","post_reveal_questions","survey-likert","355","960405","0.0-6.0-6.49","2512849","co37924","norming","","","{""aha"":0}","[0]","../img/tt/329tt.jpg","",""
"null","<div style=""font-size:60px;""> </div>","null","fixation","html-keyboard-response","356","960611","0.0-6.0-0.50","2512849","co37924","norming","","","","","","",""
"null","../img/tt/010tt.jpg","null","mooney1","image-keyboard-response","357","963616","0.0-6.0-1.50","2512849","co37924","norming","","","","","","",""
"3475.7950000002747","","","post_mooney1_questions","survey-likert","358","967093","0.0-6.0-2.50","2512849","co37924","norming","","","{""curiosity"":5,""confidence"":0}","[0,1]","../img/tt/010tt.jpg","",""
"990.5400000007357","","","recognition","survey-text","359","968085","0.0-6.0-3.50","2512849","co37924","norming","","","{""guess"":""""}","","../img/tt/010tt.jpg","",""
"null","../img/gs/010gs.jpg","null","reveal","image-keyboard-response","360","970096","0.0-6.0-4.50","2512849","co37924","norming","","","","","","",""
"null","../img/tt/010tt.jpg","null","mooney2","image-keyboard-response","361","972098","0.0-6.0-5.50","2512849","co37924","norming","","","","","","",""
"3192.0950000003213","","","post_reveal_questions","survey-likert","362","975293","0.0-6.0-6.50","2512849","co37924","norming","","","{""aha"":6}","[0]","../img/tt/010tt.jpg","",""
"null","<div style=""font-size:60px;""> </div>","null","fixation","html-keyboard-response","363","975498","0.0-6.0-0.51","2512849","co37924","norming","","","","","","",""
"null","../img/tt/1260tt.jpg","null","mooney1","image-keyboard-response","364","978504","0.0-6.0-1.51","2512849","co37924","norming","","","","","","",""
"5121.290000000969","","","post_mooney1_questions","survey-likert","365","983629","0.0-6.0-2.51","2512849","co37924","norming","","","{""curiosity"":4,""confidence"":0}","[0,1]","../img/tt/1260tt.jpg","",""
"766.2000000000698","","","recognition","survey-text","366","984397","0.0-6.0-3.51","2512849","co37924","norming","","","{""guess"":""""}","","../img/tt/1260tt.jpg","",""
"null","../img/gs/1260gs.jpg","null","reveal","image-keyboard-response","367","986399","0.0-6.0-4.51","2512849","co37924","norming","","","","","","",""
"null","../img/tt/1260tt.jpg","null","mooney2","image-keyboard-response","368","988408","0.0-6.0-5.51","2512849","co37924","norming","","","","","","",""
"2050.599999998696","","","post_reveal_questions","survey-likert","369","990461","0.0-6.0-6.51","2512849","co37924","norming","","","{""aha"":4}","[0]","../img/tt/1260tt.jpg","",""
"null","<div style=""font-size:60px;""> </div>","null","fixation","html-keyboard-response","370","990663","0.0-6.0-0.52","2512849","co37924","norming","","","","","","",""
"null","../img/tt/1171tt.jpg","null","mooney1","image-keyboard-response","371","993669","0.0-6.0-1.52","2512849","co37924","norming","","","","","","",""
"3260.614999999176","","","post_mooney1_questions","survey-likert","372","996933","0.0-6.0-2.52","2512849","co37924","norming","","","{""curiosity"":3,""confidence"":2}","[0,1]","../img/tt/1171tt.jpg","",""
"2342.275000000838","","","recognition","survey-text","373","999277","0.0-6.0-3.52","2512849","co37924","norming","","","{""guess"":""panda""}","","../img/tt/1171tt.jpg","",""
"null","../img/gs/1171gs.jpg","null","reveal","image-keyboard-response","374","1001282","0.0-6.0-4.52","2512849","co37924","norming","","","","","","",""
"null","../img/tt/1171tt.jpg","null","mooney2","image-keyboard-response","375","1003292","0.0-6.0-5.52","2512849","co37924","norming","","","","","","",""
"2110.86499999871","","","post_reveal_questions","survey-likert","376","1005405","0.0-6.0-6.52","2512849","co37924","norming","","","{""aha"":5}","[0]","../img/tt/1171tt.jpg","",""
"null","<div style=""font-size:60px;""> </div>","null","fixation","html-keyboard-response","377","1005611","0.0-6.0-0.53","2512849","co37924","norming","","","","","","",""
"null","../img/tt/085tt.jpg","null","mooney1","image-keyboard-response","378","1008619","0.0-6.0-1.53","2512849","co37924","norming","","","","","","",""
"3758.5799999997253","","","post_mooney1_questions","survey-likert","379","1012381","0.0-6.0-2.53","2512849","co37924","norming","","","{""curiosity"":3,""confidence"":2}","[0,1]","../img/tt/085tt.jpg","",""
"2142.11499999871","","","recognition","survey-text","380","1014525","0.0-6.0-3.53","2512849","co37924","norming","","","{""guess"":""vlinder""}","","../img/tt/085tt.jpg","",""
"null","../img/gs/085gs.jpg","null","reveal","image-keyboard-response","381","1016531","0.0-6.0-4.53","2512849","co37924","norming","","","","","","",""
"null","../img/tt/085tt.jpg","null","mooney2","image-keyboard-response","382","1018537","0.0-6.0-5.53","2512849","co37924","norming","","","","","","",""
"1833.189999999362","","","post_reveal_questions","survey-likert","383","1020373","0.0-6.0-6.53","2512849","co37924","norming","","","{""aha"":5}","[0]","../img/tt/085tt.jpg","",""
"null","<div style=""font-size:60px;""> </div>","null","fixation","html-keyboard-response","384","1020577","0.0-6.0-0.54","2512849","co37924","norming","","","","","","",""
"null","../img/tt/046tt.jpg","null","mooney1","image-keyboard-response","385","1023582","0.0-6.0-1.54","2512849","co37924","norming","","","","","","",""
"3891.9800000003306","","","post_mooney1_questions","survey-likert","386","1027477","0.0-6.0-2.54","2512849","co37924","norming","","","{""curiosity"":1,""confidence"":0}","[0,1]","../img/tt/046tt.jpg","",""
"973.9749999990454","","","recognition","survey-text","387","1028453","0.0-6.0-3.54","2512849","co37924","norming","","","{""guess"":""""}","","../img/tt/046tt.jpg","",""
"null","../img/gs/046gs.jpg","null","reveal","image-keyboard-response","388","1030455","0.0-6.0-4.54","2512849","co37924","norming","","","","","","",""
"null","../img/tt/046tt.jpg","null","mooney2","image-keyboard-response","389","1032466","0.0-6.0-5.54","2512849","co37924","norming","","","","","","",""
"2848.8249999991385","","","post_reveal_questions","survey-likert","390","1035317","0.0-6.0-6.54","2512849","co37924","norming","","","{""aha"":5}","[0]","../img/tt/046tt.jpg","",""
"null","<div style=""font-size:60px;""> </div>","null","fixation","html-keyboard-response","391","1035524","0.0-6.0-0.55","2512849","co37924","norming","","","","","","",""
"null","../img/tt/078tt.jpg","null","mooney1","image-keyboard-response","392","1038536","0.0-6.0-1.55","2512849","co37924","norming","","","","","","",""
"4994.01500000013","","","post_mooney1_questions","survey-likert","393","1043533","0.0-6.0-2.55","2512849","co37924","norming","","","{""curiosity"":4,""confidence"":1}","[0,1]","../img/tt/078tt.jpg","",""
"1998.0599999999395","","","recognition","survey-text","394","1045533","0.0-6.0-3.55","2512849","co37924","norming","","","{""guess"":""bloe""}","","../img/tt/078tt.jpg","",""
"null","../img/gs/078gs.jpg","null","reveal","image-keyboard-response","395","1047540","0.0-6.0-4.55","2512849","co37924","norming","","","","","","",""
"null","../img/tt/078tt.jpg","null","mooney2","image-keyboard-response","396","1049544","0.0-6.0-5.55","2512849","co37924","norming","","","","","","",""
"2123.0849999992643","","","post_reveal_questions","survey-likert","397","1051669","0.0-6.0-6.55","2512849","co37924","norming","","","{""aha"":4}","[0]","../img/tt/078tt.jpg","",""
"null","<div style=""font-size:60px;""> </div>","null","fixation","html-keyboard-response","398","1051878","0.0-6.0-0.56","2512849","co37924","norming","","","","","","",""
"null","../img/tt/1232tt.jpg","null","mooney1","image-keyboard-response","399","1054888","0.0-6.0-1.56","2512849","co37924","norming","","","","","","",""
"3785.434999999823","","","post_mooney1_questions","survey-likert","400","1058677","0.0-6.0-2.56","2512849","co37924","norming","","","{""curiosity"":3,""confidence"":2}","[0,1]","../img/tt/1232tt.jpg","",""
"2053.7800000002608","","","recognition","survey-text","401","1060733","0.0-6.0-3.56","2512849","co37924","norming","","","{""guess"":""krab""}","","../img/tt/1232tt.jpg","",""
"null","../img/gs/1232gs.jpg","null","reveal","image-keyboard-response","402","1062732","0.0-6.0-4.56","2512849","co37924","norming","","","","","","",""
"null","../img/tt/1232tt.jpg","null","mooney2","image-keyboard-response","403","1064743","0.0-6.0-5.56","2512849","co37924","norming","","","","","","",""
"1961.1349999995437","","","post_reveal_questions","survey-likert","404","1066706","0.0-6.0-6.56","2512849","co37924","norming","","","{""aha"":5}","[0]","../img/tt/1232tt.jpg","",""
"null","<div style=""font-size:60px;""> </div>","null","fixation","html-keyboard-response","405","1066914","0.0-6.0-0.57","2512849","co37924","norming","","","","","","",""
"null","../img/tt/112tt.jpg","null","mooney1","image-keyboard-response","406","1069925","0.0-6.0-1.57","2512849","co37924","norming","","","","","","",""
"5910.149999999674","","","post_mooney1_questions","survey-likert","407","1075842","0.0-6.0-2.57","2512849","co37924","norming","","","{""curiosity"":3,""confidence"":2}","[0,1]","../img/tt/112tt.jpg","",""
"1798.2249999986961","","","recognition","survey-text","408","1077642","0.0-6.0-3.57","2512849","co37924","norming","","","{""guess"":""fles""}","","../img/tt/112tt.jpg","",""
"null","../img/gs/112gs.jpg","null","reveal","image-keyboard-response","409","1079651","0.0-6.0-4.57","2512849","co37924","norming","","","","","","",""
"null","../img/tt/112tt.jpg","null","mooney2","image-keyboard-response","410","1081662","0.0-6.0-5.57","2512849","co37924","norming","","","","","","",""
"2009.9650000010151","","","post_reveal_questions","survey-likert","411","1083674","0.0-6.0-6.57","2512849","co37924","norming","","","{""aha"":5}","[0]","../img/tt/112tt.jpg","",""
"null","<div style=""font-size:60px;""> </div>","null","fixation","html-keyboard-response","412","1083880","0.0-6.0-0.58","2512849","co37924","norming","","","","","","",""
"null","../img/tt/1175tt.jpg","null","mooney1","image-keyboard-response","413","1086883","0.0-6.0-1.58","2512849","co37924","norming","","","","","","",""
"3868.705000000773","","","post_mooney1_questions","survey-likert","414","1090755","0.0-6.0-2.58","2512849","co37924","norming","","","{""curiosity"":4,""confidence"":2}","[0,1]","../img/tt/1175tt.jpg","",""
"2901.8599999998696","","","recognition","survey-text","415","1093658","0.0-6.0-3.58","2512849","co37924","norming","","","{""guess"":""publiek""}","","../img/tt/1175tt.jpg","",""
"null","../img/gs/1175gs.jpg","null","reveal","image-keyboard-response","416","1095664","0.0-6.0-4.58","2512849","co37924","norming","","","","","","",""
"null","../img/tt/1175tt.jpg","null","mooney2","image-keyboard-response","417","1097671","0.0-6.0-5.58","2512849","co37924","norming","","","","","","",""
"1864.890000000596","","","post_reveal_questions","survey-likert","418","1099538","0.0-6.0-6.58","2512849","co37924","norming","","","{""aha"":6}","[0]","../img/tt/1175tt.jpg","",""
"null","<div style=""font-size:60px;""> </div>","null","fixation","html-keyboard-response","419","1099749","0.0-6.0-0.59","2512849","co37924","norming","","","","","","",""
"null","../img/tt/124tt.jpg","null","mooney1","image-keyboard-response","420","1102759","0.0-6.0-1.59","2512849","co37924","norming","","","","","","",""
"3775.1150000002235","","","post_mooney1_questions","survey-likert","421","1106539","0.0-6.0-2.59","2512849","co37924","norming","","","{""curiosity"":3,""confidence"":2}","[0,1]","../img/tt/124tt.jpg","",""
"1726.075000000652","","","recognition","survey-text","422","1108266","0.0-6.0-3.59","2512849","co37924","norming","","","{""guess"":""panda""}","","../img/tt/124tt.jpg","",""
"null","../img/gs/124gs.jpg","null","reveal","image-keyboard-response","423","1110275","0.0-6.0-4.59","2512849","co37924","norming","","","","","","",""
"null","../img/tt/124tt.jpg","null","mooney2","image-keyboard-response","424","1112277","0.0-6.0-5.59","2512849","co37924","norming","","","","","","",""
"1978.9749999998603","","","post_reveal_questions","survey-likert","425","1114258","0.0-6.0-6.59","2512849","co37924","norming","","","{""aha"":5}","[0]","../img/tt/124tt.jpg","",""
"null","<div style=""font-size:60px;""> </div>","null","fixation","html-keyboard-response","426","1114467","0.0-6.0-0.60","2512849","co37924","norming","","","","","","",""
"null","../img/tt/1205tt.jpg","null","mooney1","image-keyboard-response","427","1117479","0.0-6.0-1.60","2512849","co37924","norming","","","","","","",""
"5624.559999998426","","","post_mooney1_questions","survey-likert","428","1123103","0.0-6.0-2.60","2512849","co37924","norming","","","{""curiosity"":4,""confidence"":2}","[0,1]","../img/tt/1205tt.jpg","",""
"2533.949999999255","","","recognition","survey-text","429","1125639","0.0-6.0-3.60","2512849","co37924","norming","","","{""guess"":""publiek""}","","../img/tt/1205tt.jpg","",""
"null","../img/gs/1205gs.jpg","null","reveal","image-keyboard-response","430","1127641","0.0-6.0-4.60","2512849","co37924","norming","","","","","","",""
"null","../img/tt/1205tt.jpg","null","mooney2","image-keyboard-response","431","1129649","0.0-6.0-5.60","2512849","co37924","norming","","","","","","",""
"4403.000000000233","","","post_reveal_questions","survey-likert","432","1134055","0.0-6.0-6.60","2512849","co37924","norming","","","{""aha"":6}","[0]","../img/tt/1205tt.jpg","",""
"null","<div style=""font-size:60px;""> </div>","null","fixation","html-keyboard-response","433","1134260","0.0-6.0-0.61","2512849","co37924","norming","","","","","","",""
"null","../img/tt/063tt.jpg","null","mooney1","image-keyboard-response","434","1137270","0.0-6.0-1.61","2512849","co37924","norming","","","","","","",""
"3805.5000000004657","","","post_mooney1_questions","survey-likert","435","1141079","0.0-6.0-2.61","2512849","co37924","norming","","","{""curiosity"":3,""confidence"":4}","[0,1]","../img/tt/063tt.jpg","",""
"3102.0850000004284","","","recognition","survey-text","436","1144183","0.0-6.0-3.61","2512849","co37924","norming","","","{""guess"":""accordeon""}","","../img/tt/063tt.jpg","",""
"null","../img/gs/063gs.jpg","null","reveal","image-keyboard-response","437","1146189","0.0-6.0-4.61","2512849","co37924","norming","","","","","","",""
"null","../img/tt/063tt.jpg","null","mooney2","image-keyboard-response","438","1148196","0.0-6.0-5.61","2512849","co37924","norming","","","","","","",""
"2919.7899999998044","","","post_reveal_questions","survey-likert","439","1151119","0.0-6.0-6.61","2512849","co37924","norming","","","{""aha"":5}","[0]","../img/tt/063tt.jpg","",""
"null","<div style=""font-size:60px;""> </div>","null","fixation","html-keyboard-response","440","1151327","0.0-6.0-0.62","2512849","co37924","norming","","","","","","",""
"null","../img/tt/517tt.jpg","null","mooney1","image-keyboard-response","441","1154335","0.0-6.0-1.62","2512849","co37924","norming","","","","","","",""
"3268.4100000006147","","","post_mooney1_questions","survey-likert","442","1157607","0.0-6.0-2.62","2512849","co37924","norming","","","{""curiosity"":2,""confidence"":2}","[0,1]","../img/tt/517tt.jpg","",""
"2478.114999999758","","","recognition","survey-text","443","1160087","0.0-6.0-3.62","2512849","co37924","norming","","","{""guess"":""panda""}","","../img/tt/517tt.jpg","",""
"null","../img/gs/517gs.jpg","null","reveal","image-keyboard-response","444","1162095","0.0-6.0-4.62","2512849","co37924","norming","","","","","","",""
"null","../img/tt/517tt.jpg","null","mooney2","image-keyboard-response","445","1164104","0.0-6.0-5.62","2512849","co37924","norming","","","","","","",""
"3827.579999999376","","","post_reveal_questions","survey-likert","446","1167935","0.0-6.0-6.62","2512849","co37924","norming","","","{""aha"":4}","[0]","../img/tt/517tt.jpg","",""
"null","<div style=""font-size:60px;""> </div>","null","fixation","html-keyboard-response","447","1168144","0.0-6.0-0.63","2512849","co37924","norming","","","","","","",""
"null","../img/tt/307tt.jpg","null","mooney1","image-keyboard-response","448","1171153","0.0-6.0-1.63","2512849","co37924","norming","","","","","","",""
"3090.7499999993015","","","post_mooney1_questions","survey-likert","449","1174247","0.0-6.0-2.63","2512849","co37924","norming","","","{""curiosity"":3,""confidence"":2}","[0,1]","../img/tt/307tt.jpg","",""
"2766.079999999376","","","recognition","survey-text","450","1177015","0.0-6.0-3.63","2512849","co37924","norming","","","{""guess"":""schildpad""}","","../img/tt/307tt.jpg","",""
"null","../img/gs/307gs.jpg","null","reveal","image-keyboard-response","451","1179019","0.0-6.0-4.63","2512849","co37924","norming","","","","","","",""
"null","../img/tt/307tt.jpg","null","mooney2","image-keyboard-response","452","1181022","0.0-6.0-5.63","2512849","co37924","norming","","","","","","",""
"2885.0550000006333","","","post_reveal_questions","survey-likert","453","1183911","0.0-6.0-6.63","2512849","co37924","norming","","","{""aha"":2}","[0]","../img/tt/307tt.jpg","",""
"null","<div style=""font-size:60px;""> </div>","null","fixation","html-keyboard-response","454","1184116","0.0-6.0-0.64","2512849","co37924","norming","","","","","","",""
"null","../img/tt/108tt.jpg","null","mooney1","image-keyboard-response","455","1187120","0.0-6.0-1.64","2512849","co37924","norming","","","","","","",""
"3699.939999998547","","","post_mooney1_questions","survey-likert","456","1190824","0.0-6.0-2.64","2512849","co37924","norming","","","{""curiosity"":5,""confidence"":1}","[0,1]","../img/tt/108tt.jpg","",""
"542.1000000005588","","","recognition","survey-text","457","1191367","0.0-6.0-3.64","2512849","co37924","norming","","","{""guess"":""""}","","../img/tt/108tt.jpg","",""
"null","../img/gs/108gs.jpg","null","reveal","image-keyboard-response","458","1193374","0.0-6.0-4.64","2512849","co37924","norming","","","","","","",""
"null","../img/tt/108tt.jpg","null","mooney2","image-keyboard-response","459","1195378","0.0-6.0-5.64","2512849","co37924","norming","","","","","","",""
"1698.95999999973","","","post_reveal_questions","survey-likert","460","1197079","0.0-6.0-6.64","2512849","co37924","norming","","","{""aha"":6}","[0]","../img/tt/108tt.jpg","",""
"null","<div style=""font-size:60px;""> </div>","null","fixation","html-keyboard-response","461","1197290","0.0-6.0-0.65","2512849","co37924","norming","","","","","","",""
"null","../img/tt/1107tt.jpg","null","mooney1","image-keyboard-response","462","1200298","0.0-6.0-1.65","2512849","co37924","norming","","","","","","",""
"3882.229999999283","","","post_mooney1_questions","survey-likert","463","1204184","0.0-6.0-2.65","2512849","co37924","norming","","","{""curiosity"":4,""confidence"":1}","[0,1]","../img/tt/1107tt.jpg","",""
"485.8850000000093","","","recognition","survey-text","464","1204671","0.0-6.0-3.65","2512849","co37924","norming","","","{""guess"":""""}","","../img/tt/1107tt.jpg","",""
"null","../img/gs/1107gs.jpg","null","reveal","image-keyboard-response","465","1206681","0.0-6.0-4.65","2512849","co37924","norming","","","","","","",""
"null","../img/tt/1107tt.jpg","null","mooney2","image-keyboard-response","466","1208687","0.0-6.0-5.65","2512849","co37924","norming","","","","","","",""
"1613.494999999646","","","post_reveal_questions","survey-likert","467","1210303","0.0-6.0-6.65","2512849","co37924","norming","","","{""aha"":6}","[0]","../img/tt/1107tt.jpg","",""
"null","<div style=""font-size:60px;""> </div>","null","fixation","html-keyboard-response","468","1210509","0.0-6.0-0.66","2512849","co37924","norming","","","","","","",""
"null","../img/tt/081tt.jpg","null","mooney1","image-keyboard-response","469","1213513","0.0-6.0-1.66","2512849","co37924","norming","","","","","","",""
"2778.9549999998417","","","post_mooney1_questions","survey-likert","470","1216296","0.0-6.0-2.66","2512849","co37924","norming","","","{""curiosity"":4,""confidence"":1}","[0,1]","../img/tt/081tt.jpg","",""
"2045.9500000015832","","","recognition","survey-text","471","1218343","0.0-6.0-3.66","2512849","co37924","norming","","","{""guess"":""kikker""}","","../img/tt/081tt.jpg","",""
"null","../img/gs/081gs.jpg","null","reveal","image-keyboard-response","472","1220345","0.0-6.0-4.66","2512849","co37924","norming","","","","","","",""
"null","../img/tt/081tt.jpg","null","mooney2","image-keyboard-response","473","1222347","0.0-6.0-5.66","2512849","co37924","norming","","","","","","",""
"2505.3950000002515","","","post_reveal_questions","survey-likert","474","1224855","0.0-6.0-6.66","2512849","co37924","norming","","","{""aha"":2}","[0]","../img/tt/081tt.jpg","",""
"null","<div style=""font-size:60px;""> </div>","null","fixation","html-keyboard-response","475","1225056","0.0-6.0-0.67","2512849","co37924","norming","","","","","","",""
"null","../img/tt/1262tt.jpg","null","mooney1","image-keyboard-response","476","1228068","0.0-6.0-1.67","2512849","co37924","norming","","","","","","",""
"4591.644999998389","","","post_mooney1_questions","survey-likert","477","1232664","0.0-6.0-2.67","2512849","co37924","norming","","","{""curiosity"":6,""confidence"":1}","[0,1]","../img/tt/1262tt.jpg","",""
"621.8599999991711","","","recognition","survey-text","478","1233287","0.0-6.0-3.67","2512849","co37924","norming","","","{""guess"":""""}","","../img/tt/1262tt.jpg","",""
"null","../img/gs/1262gs.jpg","null","reveal","image-keyboard-response","479","1235290","0.0-6.0-4.67","2512849","co37924","norming","","","","","","",""
"null","../img/tt/1262tt.jpg","null","mooney2","image-keyboard-response","480","1237292","0.0-6.0-5.67","2512849","co37924","norming","","","","","","",""
"3440.5200000000186","","","post_reveal_questions","survey-likert","481","1240735","0.0-6.0-6.67","2512849","co37924","norming","","","{""aha"":5}","[0]","../img/tt/1262tt.jpg","",""
"null","<div style=""font-size:60px;""> </div>","null","fixation","html-keyboard-response","482","1240940","0.0-6.0-0.68","2512849","co37924","norming","","","","","","",""
"null","../img/tt/052tt.jpg","null","mooney1","image-keyboard-response","483","1243958","0.0-6.0-1.68","2512849","co37924","norming","","","","","","",""
"4083.375000000233","","","post_mooney1_questions","survey-likert","484","1248045","0.0-6.0-2.68","2512849","co37924","norming","","","{""curiosity"":3,""confidence"":3}","[0,1]","../img/tt/052tt.jpg","",""
"3133.9900000002235","","","recognition","survey-text","485","1251181","0.0-6.0-3.68","2512849","co37924","norming","","","{""guess"":""trommel""}","","../img/tt/052tt.jpg","",""
"null","../img/gs/052gs.jpg","null","reveal","image-keyboard-response","486","1253192","0.0-6.0-4.68","2512849","co37924","norming","","","","","","",""
"null","../img/tt/052tt.jpg","null","mooney2","image-keyboard-response","487","1255200","0.0-6.0-5.68","2512849","co37924","norming","","","","","","",""
"3098.4950000001118","","","post_reveal_questions","survey-likert","488","1258301","0.0-6.0-6.68","2512849","co37924","norming","","","{""aha"":2}","[0]","../img/tt/052tt.jpg","",""
"null","<div style=""font-size:60px;""> </div>","null","fixation","html-keyboard-response","489","1258506","0.0-6.0-0.69","2512849","co37924","norming","","","","","","",""
"null","../img/tt/1091tt.jpg","null","mooney1","image-keyboard-response","490","1261510","0.0-6.0-1.69","2512849","co37924","norming","","","","","","",""
"3979.3250000001863","","","post_mooney1_questions","survey-likert","491","1265493","0.0-6.0-2.69","2512849","co37924","norming","","","{""curiosity"":5,""confidence"":5}","[0,1]","../img/tt/1091tt.jpg","",""
"1990.2050000000745","","","recognition","survey-text","492","1267485","0.0-6.0-3.69","2512849","co37924","norming","","","{""guess"":""paard""}","","../img/tt/1091tt.jpg","",""
"null","../img/gs/1091gs.jpg","null","reveal","image-keyboard-response","493","1269491","0.0-6.0-4.69","2512849","co37924","norming","","","","","","",""
"null","../img/tt/1091tt.jpg","null","mooney2","image-keyboard-response","494","1271493","0.0-6.0-5.69","2512849","co37924","norming","","","","","","",""
"1413.4450000000652","","","post_reveal_questions","survey-likert","495","1272909","0.0-6.0-6.69","2512849","co37924","norming","","","{""aha"":3}","[0]","../img/tt/1091tt.jpg","",""
"null","<div style=""font-size:60px;""> </div>","null","fixation","html-keyboard-response","496","1273111","0.0-6.0-0.70","2512849","co37924","norming","","","","","","",""
"null","../img/tt/436tt.jpg","null","mooney1","image-keyboard-response","497","1276121","0.0-6.0-1.70","2512849","co37924","norming","","","","","","",""
"8424.91999999946","","","post_mooney1_questions","survey-likert","498","1284549","0.0-6.0-2.70","2512849","co37924","norming","","","{""curiosity"":4,""confidence"":3}","[0,1]","../img/tt/436tt.jpg","",""
"2341.9350000005215","","","recognition","survey-text","499","1286893","0.0-6.0-3.70","2512849","co37924","norming","","","{""guess"":""hagedis""}","","../img/tt/436tt.jpg","",""
"null","../img/gs/436gs.jpg","null","reveal","image-keyboard-response","500","1288901","0.0-6.0-4.70","2512849","co37924","norming","","","","","","",""
"null","../img/tt/436tt.jpg","null","mooney2","image-keyboard-response","501","1290911","0.0-6.0-5.70","2512849","co37924","norming","","","","","","",""
"2002.5800000003073","","","post_reveal_questions","survey-likert","502","1292917","0.0-6.0-6.70","2512849","co37924","norming","","","{""aha"":5}","[0]","../img/tt/436tt.jpg","",""
"null","<div style=""font-size:60px;""> </div>","null","fixation","html-keyboard-response","503","1293124","0.0-6.0-0.71","2512849","co37924","norming","","","","","","",""
"null","../img/tt/412tt.jpg","null","mooney1","image-keyboard-response","504","1296135","0.0-6.0-1.71","2512849","co37924","norming","","","","","","",""
"3634.3649999999907","","","post_mooney1_questions","survey-likert","505","1299772","0.0-6.0-2.71","2512849","co37924","norming","","","{""curiosity"":4,""confidence"":1}","[0,1]","../img/tt/412tt.jpg","",""
"3550.600000000559","","","recognition","survey-text","506","1303325","0.0-6.0-3.71","2512849","co37924","norming","","","{""guess"":""parfumflesje""}","","../img/tt/412tt.jpg","",""
"null","../img/gs/412gs.jpg","null","reveal","image-keyboard-response","507","1305320","0.0-6.0-4.71","2512849","co37924","norming","","","","","","",""
"null","../img/tt/412tt.jpg","null","mooney2","image-keyboard-response","508","1307330","0.0-6.0-5.71","2512849","co37924","norming","","","","","","",""
"5074.790000000736","","","post_reveal_questions","survey-likert","509","1312407","0.0-6.0-6.71","2512849","co37924","norming","","","{""aha"":4}","[0]","../img/tt/412tt.jpg","",""
"null","<div style=""font-size:60px;""> </div>","null","fixation","html-keyboard-response","510","1312610","0.0-6.0-0.72","2512849","co37924","norming","","","","","","",""
"null","../img/tt/1142tt.jpg","null","mooney1","image-keyboard-response","511","1315622","0.0-6.0-1.72","2512849","co37924","norming","","","","","","",""
"5188.334999998799","","","post_mooney1_questions","survey-likert","512","1320815","0.0-6.0-2.72","2512849","co37924","norming","","","{""curiosity"":4,""confidence"":1}","[0,1]","../img/tt/1142tt.jpg","",""
"3190.0800000003073","","","recognition","survey-text","513","1324007","0.0-6.0-3.72","2512849","co37924","norming","","","{""guess"":""atleer""}","","../img/tt/1142tt.jpg","",""
"null","../img/gs/1142gs.jpg","null","reveal","image-keyboard-response","514","1326016","0.0-6.0-4.72","2512849","co37924","norming","","","","","","",""
"null","../img/tt/1142tt.jpg","null","mooney2","image-keyboard-response","515","1328026","0.0-6.0-5.72","2512849","co37924","norming","","","","","","",""
"3273.8699999991804","","","post_reveal_questions","survey-likert","516","1331303","0.0-6.0-6.72","2512849","co37924","norming","","","{""aha"":2}","[0]","../img/tt/1142tt.jpg","",""
"null","<div style=""font-size:60px;""> </div>","null","fixation","html-keyboard-response","517","1331506","0.0-6.0-0.73","2512849","co37924","norming","","","","","","",""
"null","../img/tt/378tt.jpg","null","mooney1","image-keyboard-response","518","1334517","0.0-6.0-1.73","2512849","co37924","norming","","","","","","",""
"4326.975000000093","","","post_mooney1_questions","survey-likert","519","1338847","0.0-6.0-2.73","2512849","co37924","norming","","","{""curiosity"":5,""confidence"":0}","[0,1]","../img/tt/378tt.jpg","",""
"749.9900000002235","","","recognition","survey-text","520","1339599","0.0-6.0-3.73","2512849","co37924","norming","","","{""guess"":""""}","","../img/tt/378tt.jpg","",""
"null","../img/gs/378gs.jpg","null","reveal","image-keyboard-response","521","1341609","0.0-6.0-4.73","2512849","co37924","norming","","","","","","",""
"null","../img/tt/378tt.jpg","null","mooney2","image-keyboard-response","522","1343615","0.0-6.0-5.73","2512849","co37924","norming","","","","","","",""
"1476.775000001071","","","post_reveal_questions","survey-likert","523","1345095","0.0-6.0-6.73","2512849","co37924","norming","","","{""aha"":4}","[0]","../img/tt/378tt.jpg","",""
"null","<div style=""font-size:60px;""> </div>","null","fixation","html-keyboard-response","524","1345302","0.0-6.0-0.74","2512849","co37924","norming","","","","","","",""
"null","../img/tt/567tt.jpg","null","mooney1","image-keyboard-response","525","1348308","0.0-6.0-1.74","2512849","co37924","norming","","","","","","",""
"3903.470000001136","","","post_mooney1_questions","survey-likert","526","1352215","0.0-6.0-2.74","2512849","co37924","norming","","","{""curiosity"":0,""confidence"":6}","[0,1]","../img/tt/567tt.jpg","",""
"3693.9149999998044","","","recognition","survey-text","527","1355911","0.0-6.0-3.74","2512849","co37924","norming","","","{""guess"":""broodrooster""}","","../img/tt/567tt.jpg","",""
"null","../img/gs/567gs.jpg","null","reveal","image-keyboard-response","528","1357915","0.0-6.0-4.74","2512849","co37924","norming","","","","","","",""
"null","../img/tt/567tt.jpg","null","mooney2","image-keyboard-response","529","1359917","0.0-6.0-5.74","2512849","co37924","norming","","","","","","",""
"1920.700000000419","","","post_reveal_questions","survey-likert","530","1361839","0.0-6.0-6.74","2512849","co37924","norming","","","{""aha"":0}","[0]","../img/tt/567tt.jpg","",""
"null","<div style=""font-size:60px;""> </div>","null","fixation","html-keyboard-response","531","1362043","0.0-6.0-0.75","2512849","co37924","norming","","","","","","",""
"null","../img/tt/1362tt.jpg","null","mooney1","image-keyboard-response","532","1365045","0.0-6.0-1.75","2512849","co37924","norming","","","","","","",""
"3334.3050000004005","","","post_mooney1_questions","survey-likert","533","1368383","0.0-6.0-2.75","2512849","co37924","norming","","","{""curiosity"":0,""confidence"":6}","[0,1]","../img/tt/1362tt.jpg","",""
"2966.2000000008848","","","recognition","survey-text","534","1371351","0.0-6.0-3.75","2512849","co37924","norming","","","{""guess"":""fornuis""}","","../img/tt/1362tt.jpg","",""
"null","../img/gs/1362gs.jpg","null","reveal","image-keyboard-response","535","1373352","0.0-6.0-4.75","2512849","co37924","norming","","","","","","",""
"null","../img/tt/1362tt.jpg","null","mooney2","image-keyboard-response","536","1375355","0.0-6.0-5.75","2512849","co37924","norming","","","","","","",""
"2713.1649999993388","","","post_reveal_questions","survey-likert","537","1378071","0.0-6.0-6.75","2512849","co37924","norming","","","{""aha"":0}","[0]","../img/tt/1362tt.jpg","",""
"null","<div style=""font-size:60px;""> </div>","null","fixation","html-keyboard-response","538","1378278","0.0-6.0-0.76","2512849","co37924","norming","","","","","","",""
"null","../img/tt/1279tt.jpg","null","mooney1","image-keyboard-response","539","1381287","0.0-6.0-1.76","2512849","co37924","norming","","","","","","",""
"4643.250000001164","","","post_mooney1_questions","survey-likert","540","1385935","0.0-6.0-2.76","2512849","co37924","norming","","","{""curiosity"":4,""confidence"":2}","[0,1]","../img/tt/1279tt.jpg","",""
"1910.2150000000838","","","recognition","survey-text","541","1387847","0.0-6.0-3.76","2512849","co37924","norming","","","{""guess"":""honden""}","","../img/tt/1279tt.jpg","",""
"null","../img/gs/1279gs.jpg","null","reveal","image-keyboard-response","542","1389850","0.0-6.0-4.76","2512849","co37924","norming","","","","","","",""
"null","../img/tt/1279tt.jpg","null","mooney2","image-keyboard-response","543","1391855","0.0-6.0-5.76","2512849","co37924","norming","","","","","","",""
"3023.14500000095","","","post_reveal_questions","survey-likert","544","1394879","0.0-6.0-6.76","2512849","co37924","norming","","","{""aha"":4}","[0]","../img/tt/1279tt.jpg","",""
"null","<div style=""font-size:60px;""> </div>","null","fixation","html-keyboard-response","545","1395085","0.0-6.0-0.77","2512849","co37924","norming","","","","","","",""
"null","../img/tt/507tt.jpg","null","mooney1","image-keyboard-response","546","1398096","0.0-6.0-1.77","2512849","co37924","norming","","","","","","",""
"14163.585000000196","","","post_mooney1_questions","survey-likert","547","1412263","0.0-6.0-2.77","2512849","co37924","norming","","","{""curiosity"":5,""confidence"":0}","[0,1]","../img/tt/507tt.jpg","",""
"709.8200000000652","","","recognition","survey-text","548","1412975","0.0-6.0-3.77","2512849","co37924","norming","","","{""guess"":""""}","","../img/tt/507tt.jpg","",""
"null","../img/gs/507gs.jpg","null","reveal","image-keyboard-response","549","1414985","0.0-6.0-4.77","2512849","co37924","norming","","","","","","",""
"null","../img/tt/507tt.jpg","null","mooney2","image-keyboard-response","550","1416996","0.0-6.0-5.77","2512849","co37924","norming","","","","","","",""
"1873.5350000006147","","","post_reveal_questions","survey-likert","551","1418871","0.0-6.0-6.77","2512849","co37924","norming","","","{""aha"":3}","[0]","../img/tt/507tt.jpg","",""
"null","<div style=""font-size:60px;""> </div>","null","fixation","html-keyboard-response","552","1419076","0.0-6.0-0.78","2512849","co37924","norming","","","","","","",""
"null","../img/tt/1080tt.jpg","null","mooney1","image-keyboard-response","553","1422079","0.0-6.0-1.78","2512849","co37924","norming","","","","","","",""
