"rt","stimulus","key_press","test_part","trial_type","trial_index","time_elapsed","internal_node_id","totalTime","subject","experiment_name","button_pressed","success","responses","question_order","currentStim","old","correct"
"17271.74500000001","Welcome to the experiment. This is an online experiment so please don't close the tab/window until we say goodbye.  Press any key to begin.","32","instructions","html-keyboard-response","0","17287","0.0-0.0","2950333","co37525","norming","","","","","","",""
"42910.26499999953","<div style='word-wrap: break-word; width: 900px'><h3>Please consider this information carefully before deciding whether to participate in this research</h3><ul style='text-align: left; font-size: .8em;'><li><b>Purpose of the research</b>: To examine how people process images.</li><li><b>What you will do in this research</b>:  Stimuli (images) will be presented on the computer and you will be asked different questions about them.</li><li><b>Time required</b>: Participation will take between 45 and 60 minutes to complete.</li><li><b>Risks</b>:  There are no anticipated risks associated with participating in this study. The effects of participating should be comparable to those you would experience from viewing a computer monitor for 30 minutes and using a mouse or keyboard.</li><li><b>Benefits</b>:  This study provides no benefits to you individually except for the credit. The study provides important information about the nature of perception and learning.</li><li><b>Confidentiality</b>:  Your participation in this study will remain confidential. No personally identifiable information will be associated with your data. Your de-identified data may be shared with other researchers and used in future projects.</li><li><b>Participation and withdrawal</b>:  Your participation in this study is completely voluntary and you may refuse to participate or you may choose to withdraw at any time without penalty.</li><li><b>How to contact the researchers</b>: If you have questions or concerns about your participation or payment, or want to request a summary of research findings, please contact Sander Van de Cruys (KU Leuven), at sander.vandecruys@kuleuven.be.</li></ul><p>The nature and purpose of this research have been sufficiently explained and I agree to participate in this study.  I understand that I am free to withdraw at any time without incurring any penalty.</p><p>Please consent by clicking the button below to continue. Otherwise, please exit the study at this time.</p></div>","","instructions","html-button-response","1","60189","0.0-1.0","2950333","co37525","norming","0","","","","","",""
"","","","instructions","fullscreen","2","67372","0.0-2.0","2950333","co37525","norming","","true","","","","",""
"29527.38000000044","","","sona","survey-html-form","3","96904","0.0-3.0","2950333","co37525","norming","","","[{""name"":""sonaid"",""value"":""37525""},{""name"":""debrief"",""value"":""yes""},{""name"":""datajoin"",""value"":""no""}]","","","",""
"135410.65999999954","<div style='word-wrap: break-word; width: 900px'><h3>Instructions</h3><p>This experiment will have 3 parts. In the first part you will see a series of distorted images like the one below on the left. As you can see in the righthand image, the distorted images are derived from actual photographs. In what follows, you will <strong>briefly</strong> be presented with <strong>only</strong> the distorted image.</p> <div style='float: left; margin-right: 20px;'><img src='../img/018tt.jpg' height='250' width='250'></img></div><div style='float: right; margin-left: 20px;'><img src='../img/018gs.jpg' height='250' width='250'></img></div><p>Subsequently you will be asked a few questions about the image: One question on how <strong>curious</strong> you are about the solution and one on how <strong>confident</strong> you are that you know the solution.</p>Next, we ask you to make a guess on what is in the image. Note that it is OK to name just the <strong>basic level category</strong>. For example when you see a parrot in the image, 'parrot' will obviously be a correct answer but also correct is 'bird'. However, 'animal' will <strong>not</strong> be counted as a correct response. For the example above, 'rose' would be correct or 'flower', but not 'plant'. When soccer players are depicted, 'soccer', 'football', 'soccer players' will be correct, but not 'humans', 'outdoors', or 'sports'. You do not need to describe the image in full, just name the main object in it <strong>in one or two words</strong>. All images depict objects from one of the following broad level categories: animals, inanimate objects, plants, sports, vehicles, and food. Recognizing means knowing <strong>more</strong> than these broad labels for a given image. But we always encourage you to <strong>make a guess</strong> if you can. Note that you are allowed to use <strong>Dutch and English</strong> in your answers, whatever comes easiest for you.</p><p>Press any key to continue.</p></div>","32","instructions","html-keyboard-response","4","232325","0.0-4.0","2950333","co37525","norming","","","","","","",""
"55039.65499999956","<div style='word-wrap: break-word; width: 900px'><h3>Instructions</h3> <p>Next, the solution image will be revealed to you and you'll be asked to indicate how strong your <strong>aha-experience</strong> was after seeing the solution. This describes the positive feeling of the 'click' you sometimes experience, when the pieces of the 'puzzle' fall together and you suddenly have 'insight' in the image.</p><img src='aha.jpg' height='188' width='250'></img><p>Note that there are no right or wrong answers. We are interested in what <strong>you</strong> see in the image and how <strong>you</strong> feel about it.</p><p>Press any key to start the experiment.</p></div>","32","instructions","html-keyboard-response","5","287365","0.0-5.0","2950333","co37525","norming","","","","","","",""
"null","<div style=""font-size:60px;""> </div>","null","fixation","html-keyboard-response","6","287571","0.0-6.0-0.0","2950333","co37525","norming","","","","","","",""
"null","../img/tt/1161tt.jpg","null","mooney1","image-keyboard-response","7","290574","0.0-6.0-1.0","2950333","co37525","norming","","","","","","",""
"9687.965000000084","","","post_mooney1_questions","survey-likert","8","300264","0.0-6.0-2.0","2950333","co37525","norming","","","{""curiosity"":5,""confidence"":0}","[0,1]","../img/tt/1161tt.jpg","",""
"7901.880000000354","","","recognition","survey-text","9","308168","0.0-6.0-3.0","2950333","co37525","norming","","","{""guess"":""struik""}","","../img/tt/1161tt.jpg","",""
"null","../img/gs/1161gs.jpg","null","reveal","image-keyboard-response","10","310175","0.0-6.0-4.0","2950333","co37525","norming","","","","","","",""
"null","../img/tt/1161tt.jpg","null","mooney2","image-keyboard-response","11","312184","0.0-6.0-5.0","2950333","co37525","norming","","","","","","",""
"3438.8799999997136","","","post_reveal_questions","survey-likert","12","315624","0.0-6.0-6.0","2950333","co37525","norming","","","{""aha"":4}","[0]","../img/tt/1161tt.jpg","",""
"null","<div style=""font-size:60px;""> </div>","null","fixation","html-keyboard-response","13","315826","0.0-6.0-0.1","2950333","co37525","norming","","","","","","",""
"null","../img/tt/357tt.jpg","null","mooney1","image-keyboard-response","14","318837","0.0-6.0-1.1","2950333","co37525","norming","","","","","","",""
"5321.300000000512","","","post_mooney1_questions","survey-likert","15","324159","0.0-6.0-2.1","2950333","co37525","norming","","","{""curiosity"":6,""confidence"":0}","[0,1]","../img/tt/357tt.jpg","",""
"4742.165000000561","","","recognition","survey-text","16","328904","0.0-6.0-3.1","2950333","co37525","norming","","","{""guess"":""vos""}","","../img/tt/357tt.jpg","",""
"null","../img/gs/357gs.jpg","null","reveal","image-keyboard-response","17","330911","0.0-6.0-4.1","2950333","co37525","norming","","","","","","",""
"null","../img/tt/357tt.jpg","null","mooney2","image-keyboard-response","18","332915","0.0-6.0-5.1","2950333","co37525","norming","","","","","","",""
"2747.920000000682","","","post_reveal_questions","survey-likert","19","335664","0.0-6.0-6.1","2950333","co37525","norming","","","{""aha"":6}","[0]","../img/tt/357tt.jpg","",""
"null","<div style=""font-size:60px;""> </div>","null","fixation","html-keyboard-response","20","335868","0.0-6.0-0.2","2950333","co37525","norming","","","","","","",""
"null","../img/tt/1091tt.jpg","null","mooney1","image-keyboard-response","21","338870","0.0-6.0-1.2","2950333","co37525","norming","","","","","","",""
"6617.2000000005355","","","post_mooney1_questions","survey-likert","22","345488","0.0-6.0-2.2","2950333","co37525","norming","","","{""curiosity"":4,""confidence"":3}","[0,1]","../img/tt/1091tt.jpg","",""
"3309.900000000198","","","recognition","survey-text","23","348800","0.0-6.0-3.2","2950333","co37525","norming","","","{""guess"":""horse""}","","../img/tt/1091tt.jpg","",""
"null","../img/gs/1091gs.jpg","null","reveal","image-keyboard-response","24","350807","0.0-6.0-4.2","2950333","co37525","norming","","","","","","",""
"null","../img/tt/1091tt.jpg","null","mooney2","image-keyboard-response","25","352808","0.0-6.0-5.2","2950333","co37525","norming","","","","","","",""
"3791.3349999999045","","","post_reveal_questions","survey-likert","26","356601","0.0-6.0-6.2","2950333","co37525","norming","","","{""aha"":1}","[0]","../img/tt/1091tt.jpg","",""
"null","<div style=""font-size:60px;""> </div>","null","fixation","html-keyboard-response","27","356802","0.0-6.0-0.3","2950333","co37525","norming","","","","","","",""
"null","../img/tt/078tt.jpg","null","mooney1","image-keyboard-response","28","359810","0.0-6.0-1.3","2950333","co37525","norming","","","","","","",""
"6189.494999999646","","","post_mooney1_questions","survey-likert","29","366001","0.0-6.0-2.3","2950333","co37525","norming","","","{""curiosity"":3,""confidence"":2}","[0,1]","../img/tt/078tt.jpg","",""
"3357.8649999999325","","","recognition","survey-text","30","369360","0.0-6.0-3.3","2950333","co37525","norming","","","{""guess"":""druiven""}","","../img/tt/078tt.jpg","",""
"null","../img/gs/078gs.jpg","null","reveal","image-keyboard-response","31","371372","0.0-6.0-4.3","2950333","co37525","norming","","","","","","",""
"null","../img/tt/078tt.jpg","null","mooney2","image-keyboard-response","32","373379","0.0-6.0-5.3","2950333","co37525","norming","","","","","","",""
"2715.2200000000885","","","post_reveal_questions","survey-likert","33","376096","0.0-6.0-6.3","2950333","co37525","norming","","","{""aha"":0}","[0]","../img/tt/078tt.jpg","",""
"null","<div style=""font-size:60px;""> </div>","null","fixation","html-keyboard-response","34","376298","0.0-6.0-0.4","2950333","co37525","norming","","","","","","",""
"null","../img/tt/091tt.jpg","null","mooney1","image-keyboard-response","35","379302","0.0-6.0-1.4","2950333","co37525","norming","","","","","","",""
"4785.390000000014","","","post_mooney1_questions","survey-likert","36","384089","0.0-6.0-2.4","2950333","co37525","norming","","","{""curiosity"":6,""confidence"":0}","[0,1]","../img/tt/091tt.jpg","",""
"5757.7099999999045","","","recognition","survey-text","37","389848","0.0-6.0-3.4","2950333","co37525","norming","","","{""guess"":""rock""}","","../img/tt/091tt.jpg","",""
"null","../img/gs/091gs.jpg","null","reveal","image-keyboard-response","38","391851","0.0-6.0-4.4","2950333","co37525","norming","","","","","","",""
"null","../img/tt/091tt.jpg","null","mooney2","image-keyboard-response","39","393859","0.0-6.0-5.4","2950333","co37525","norming","","","","","","",""
"3483.5350000003236","","","post_reveal_questions","survey-likert","40","397344","0.0-6.0-6.4","2950333","co37525","norming","","","{""aha"":6}","[0]","../img/tt/091tt.jpg","",""
"null","<div style=""font-size:60px;""> </div>","null","fixation","html-keyboard-response","41","397547","0.0-6.0-0.5","2950333","co37525","norming","","","","","","",""
"null","../img/tt/049tt.jpg","null","mooney1","image-keyboard-response","42","400559","0.0-6.0-1.5","2950333","co37525","norming","","","","","","",""
"5207.470000000263","","","post_mooney1_questions","survey-likert","43","405768","0.0-6.0-2.5","2950333","co37525","norming","","","{""curiosity"":4,""confidence"":3}","[0,1]","../img/tt/049tt.jpg","",""
"3862.1399999992573","","","recognition","survey-text","44","409632","0.0-6.0-3.5","2950333","co37525","norming","","","{""guess"":""gordeldier""}","","../img/tt/049tt.jpg","",""
"null","../img/gs/049gs.jpg","null","reveal","image-keyboard-response","45","411634","0.0-6.0-4.5","2950333","co37525","norming","","","","","","",""
"null","../img/tt/049tt.jpg","null","mooney2","image-keyboard-response","46","413636","0.0-6.0-5.5","2950333","co37525","norming","","","","","","",""
"2587.0749999994878","","","post_reveal_questions","survey-likert","47","416225","0.0-6.0-6.5","2950333","co37525","norming","","","{""aha"":4}","[0]","../img/tt/049tt.jpg","",""
"null","<div style=""font-size:60px;""> </div>","null","fixation","html-keyboard-response","48","416426","0.0-6.0-0.6","2950333","co37525","norming","","","","","","",""
"null","../img/tt/1232tt.jpg","null","mooney1","image-keyboard-response","49","419429","0.0-6.0-1.6","2950333","co37525","norming","","","","","","",""
"6587.029999999679","","","post_mooney1_questions","survey-likert","50","426018","0.0-6.0-2.6","2950333","co37525","norming","","","{""curiosity"":4,""confidence"":5}","[0,1]","../img/tt/1232tt.jpg","",""
"3094.269999999553","","","recognition","survey-text","51","429113","0.0-6.0-3.6","2950333","co37525","norming","","","{""guess"":""pigeon""}","","../img/tt/1232tt.jpg","",""
"null","../img/gs/1232gs.jpg","null","reveal","image-keyboard-response","52","431119","0.0-6.0-4.6","2950333","co37525","norming","","","","","","",""
"null","../img/tt/1232tt.jpg","null","mooney2","image-keyboard-response","53","433125","0.0-6.0-5.6","2950333","co37525","norming","","","","","","",""
"2978.605000000214","","","post_reveal_questions","survey-likert","54","436105","0.0-6.0-6.6","2950333","co37525","norming","","","{""aha"":0}","[0]","../img/tt/1232tt.jpg","",""
"null","<div style=""font-size:60px;""> </div>","null","fixation","html-keyboard-response","55","436306","0.0-6.0-0.7","2950333","co37525","norming","","","","","","",""
"null","../img/tt/044tt.jpg","null","mooney1","image-keyboard-response","56","439315","0.0-6.0-1.7","2950333","co37525","norming","","","","","","",""
"4980.155000000203","","","post_mooney1_questions","survey-likert","57","444297","0.0-6.0-2.7","2950333","co37525","norming","","","{""curiosity"":3,""confidence"":4}","[0,1]","../img/tt/044tt.jpg","",""
"2590.2099999993807","","","recognition","survey-text","58","446889","0.0-6.0-3.7","2950333","co37525","norming","","","{""guess"":""desk""}","","../img/tt/044tt.jpg","",""
"null","../img/gs/044gs.jpg","null","reveal","image-keyboard-response","59","448891","0.0-6.0-4.7","2950333","co37525","norming","","","","","","",""
"null","../img/tt/044tt.jpg","null","mooney2","image-keyboard-response","60","450897","0.0-6.0-5.7","2950333","co37525","norming","","","","","","",""
"2622.649999999325","","","post_reveal_questions","survey-likert","61","453521","0.0-6.0-6.7","2950333","co37525","norming","","","{""aha"":4}","[0]","../img/tt/044tt.jpg","",""
"null","<div style=""font-size:60px;""> </div>","null","fixation","html-keyboard-response","62","453727","0.0-6.0-0.8","2950333","co37525","norming","","","","","","",""
"null","../img/tt/1234tt.jpg","null","mooney1","image-keyboard-response","63","456737","0.0-6.0-1.8","2950333","co37525","norming","","","","","","",""
"7246.495000000286","","","post_mooney1_questions","survey-likert","64","463985","0.0-6.0-2.8","2950333","co37525","norming","","","{""curiosity"":4,""confidence"":3}","[0,1]","../img/tt/1234tt.jpg","",""
"3078.199999999895","","","recognition","survey-text","65","467065","0.0-6.0-3.8","2950333","co37525","norming","","","{""guess"":""sunrise""}","","../img/tt/1234tt.jpg","",""
"null","../img/gs/1234gs.jpg","null","reveal","image-keyboard-response","66","469066","0.0-6.0-4.8","2950333","co37525","norming","","","","","","",""
"null","../img/tt/1234tt.jpg","null","mooney2","image-keyboard-response","67","471068","0.0-6.0-5.8","2950333","co37525","norming","","","","","","",""
"3587.660000000149","","","post_reveal_questions","survey-likert","68","474654","0.0-6.0-6.8","2950333","co37525","norming","","","{""aha"":5}","[0]","../img/tt/1234tt.jpg","",""
"null","<div style=""font-size:60px;""> </div>","null","fixation","html-keyboard-response","69","474865","0.0-6.0-0.9","2950333","co37525","norming","","","","","","",""
"null","../img/tt/507tt.jpg","null","mooney1","image-keyboard-response","70","477867","0.0-6.0-1.9","2950333","co37525","norming","","","","","","",""
"5289.985000000335","","","post_mooney1_questions","survey-likert","71","483158","0.0-6.0-2.9","2950333","co37525","norming","","","{""curiosity"":4,""confidence"":0}","[0,1]","../img/tt/507tt.jpg","",""
"3381.9049999992712","","","recognition","survey-text","72","486542","0.0-6.0-3.9","2950333","co37525","norming","","","{""guess"":""theatre""}","","../img/tt/507tt.jpg","",""
"null","../img/gs/507gs.jpg","null","reveal","image-keyboard-response","73","488545","0.0-6.0-4.9","2950333","co37525","norming","","","","","","",""
"null","../img/tt/507tt.jpg","null","mooney2","image-keyboard-response","74","490547","0.0-6.0-5.9","2950333","co37525","norming","","","","","","",""
"4281.090000000375","","","post_reveal_questions","survey-likert","75","494830","0.0-6.0-6.9","2950333","co37525","norming","","","{""aha"":5}","[0]","../img/tt/507tt.jpg","",""
"null","<div style=""font-size:60px;""> </div>","null","fixation","html-keyboard-response","76","495036","0.0-6.0-0.10","2950333","co37525","norming","","","","","","",""
"null","../img/tt/580tt.jpg","null","mooney1","image-keyboard-response","77","498043","0.0-6.0-1.10","2950333","co37525","norming","","","","","","",""
"4865.4550000000745","","","post_mooney1_questions","survey-likert","78","502910","0.0-6.0-2.10","2950333","co37525","norming","","","{""curiosity"":5,""confidence"":0}","[0,1]","../img/tt/580tt.jpg","",""
"4189.9949999997625","","","recognition","survey-text","79","507102","0.0-6.0-3.10","2950333","co37525","norming","","","{""guess"":""jezus""}","","../img/tt/580tt.jpg","",""
"null","../img/gs/580gs.jpg","null","reveal","image-keyboard-response","80","509112","0.0-6.0-4.10","2950333","co37525","norming","","","","","","",""
"null","../img/tt/580tt.jpg","null","mooney2","image-keyboard-response","81","511117","0.0-6.0-5.10","2950333","co37525","norming","","","","","","",""
"3423.2700000002515","","","post_reveal_questions","survey-likert","82","514542","0.0-6.0-6.10","2950333","co37525","norming","","","{""aha"":6}","[0]","../img/tt/580tt.jpg","",""
"null","<div style=""font-size:60px;""> </div>","null","fixation","html-keyboard-response","83","514751","0.0-6.0-0.11","2950333","co37525","norming","","","","","","",""
"null","../img/tt/319tt.jpg","null","mooney1","image-keyboard-response","84","517761","0.0-6.0-1.11","2950333","co37525","norming","","","","","","",""
"4212.169999999809","","","post_mooney1_questions","survey-likert","85","521974","0.0-6.0-2.11","2950333","co37525","norming","","","{""curiosity"":6,""confidence"":4}","[0,1]","../img/tt/319tt.jpg","",""
"1662.220000000205","","","recognition","survey-text","86","523638","0.0-6.0-3.11","2950333","co37525","norming","","","{""guess"":""cow""}","","../img/tt/319tt.jpg","",""
"null","../img/gs/319gs.jpg","null","reveal","image-keyboard-response","87","525648","0.0-6.0-4.11","2950333","co37525","norming","","","","","","",""
"null","../img/tt/319tt.jpg","null","mooney2","image-keyboard-response","88","527657","0.0-6.0-5.11","2950333","co37525","norming","","","","","","",""
"7131.699999999837","","","post_reveal_questions","survey-likert","89","534787","0.0-6.0-6.11","2950333","co37525","norming","","","{""aha"":6}","[0]","../img/tt/319tt.jpg","",""
"null","<div style=""font-size:60px;""> </div>","null","fixation","html-keyboard-response","90","534995","0.0-6.0-0.12","2950333","co37525","norming","","","","","","",""
"null","../img/tt/1190tt.jpg","null","mooney1","image-keyboard-response","91","537999","0.0-6.0-1.12","2950333","co37525","norming","","","","","","",""
"6754.72499999986","","","post_mooney1_questions","survey-likert","92","544756","0.0-6.0-2.12","2950333","co37525","norming","","","{""curiosity"":6,""confidence"":0}","[0,1]","../img/tt/1190tt.jpg","",""
"8125.920000000391","","","recognition","survey-text","93","552883","0.0-6.0-3.12","2950333","co37525","norming","","","{""guess"":""farm""}","","../img/tt/1190tt.jpg","",""
"null","../img/gs/1190gs.jpg","null","reveal","image-keyboard-response","94","554894","0.0-6.0-4.12","2950333","co37525","norming","","","","","","",""
"null","../img/tt/1190tt.jpg","null","mooney2","image-keyboard-response","95","556900","0.0-6.0-5.12","2950333","co37525","norming","","","","","","",""
"3373.890000000829","","","post_reveal_questions","survey-likert","96","560275","0.0-6.0-6.12","2950333","co37525","norming","","","{""aha"":4}","[0]","../img/tt/1190tt.jpg","",""
"null","<div style=""font-size:60px;""> </div>","null","fixation","html-keyboard-response","97","560477","0.0-6.0-0.13","2950333","co37525","norming","","","","","","",""
"null","../img/tt/1255tt.jpg","null","mooney1","image-keyboard-response","98","563488","0.0-6.0-1.13","2950333","co37525","norming","","","","","","",""
"4232.884999999427","","","post_mooney1_questions","survey-likert","99","567723","0.0-6.0-2.13","2950333","co37525","norming","","","{""curiosity"":4,""confidence"":5}","[0,1]","../img/tt/1255tt.jpg","",""
"3286.49000000034","","","recognition","survey-text","100","571011","0.0-6.0-3.13","2950333","co37525","norming","","","{""guess"":""konijn""}","","../img/tt/1255tt.jpg","",""
"null","../img/gs/1255gs.jpg","null","reveal","image-keyboard-response","101","573022","0.0-6.0-4.13","2950333","co37525","norming","","","","","","",""
"null","../img/tt/1255tt.jpg","null","mooney2","image-keyboard-response","102","575025","0.0-6.0-5.13","2950333","co37525","norming","","","","","","",""
"3480.0150000001304","","","post_reveal_questions","survey-likert","103","578507","0.0-6.0-6.13","2950333","co37525","norming","","","{""aha"":3}","[0]","../img/tt/1255tt.jpg","",""
"null","<div style=""font-size:60px;""> </div>","null","fixation","html-keyboard-response","104","578715","0.0-6.0-0.14","2950333","co37525","norming","","","","","","",""
"null","../img/tt/1272tt.jpg","null","mooney1","image-keyboard-response","105","581725","0.0-6.0-1.14","2950333","co37525","norming","","","","","","",""
"5861.184999999707","","","post_mooney1_questions","survey-likert","106","587587","0.0-6.0-2.14","2950333","co37525","norming","","","{""curiosity"":4,""confidence"":4}","[0,1]","../img/tt/1272tt.jpg","",""
"1918.3000000002794","","","recognition","survey-text","107","589507","0.0-6.0-3.14","2950333","co37525","norming","","","{""guess"":""lion""}","","../img/tt/1272tt.jpg","",""
"null","../img/gs/1272gs.jpg","null","reveal","image-keyboard-response","108","591510","0.0-6.0-4.14","2950333","co37525","norming","","","","","","",""
"null","../img/tt/1272tt.jpg","null","mooney2","image-keyboard-response","109","593521","0.0-6.0-5.14","2950333","co37525","norming","","","","","","",""
"2711.7299999999814","","","post_reveal_questions","survey-likert","110","596239","0.0-6.0-6.14","2950333","co37525","norming","","","{""aha"":5}","[0]","../img/tt/1272tt.jpg","",""
"null","<div style=""font-size:60px;""> </div>","null","fixation","html-keyboard-response","111","596440","0.0-6.0-0.15","2950333","co37525","norming","","","","","","",""
"null","../img/tt/076tt.jpg","null","mooney1","image-keyboard-response","112","599446","0.0-6.0-1.15","2950333","co37525","norming","","","","","","",""
"7404.985000000102","","","post_mooney1_questions","survey-likert","113","606855","0.0-6.0-2.15","2950333","co37525","norming","","","{""curiosity"":0,""confidence"":4}","[0,1]","../img/tt/076tt.jpg","",""
"3390.315000000526","","","recognition","survey-text","114","610247","0.0-6.0-3.15","2950333","co37525","norming","","","{""guess"":""rollerskate""}","","../img/tt/076tt.jpg","",""
"null","../img/gs/076gs.jpg","null","reveal","image-keyboard-response","115","612248","0.0-6.0-4.15","2950333","co37525","norming","","","","","","",""
"null","../img/tt/076tt.jpg","null","mooney2","image-keyboard-response","116","614253","0.0-6.0-5.15","2950333","co37525","norming","","","","","","",""
"2432.130000000121","","","post_reveal_questions","survey-likert","117","616687","0.0-6.0-6.15","2950333","co37525","norming","","","{""aha"":3}","[0]","../img/tt/076tt.jpg","",""
"null","<div style=""font-size:60px;""> </div>","null","fixation","html-keyboard-response","118","616896","0.0-6.0-0.16","2950333","co37525","norming","","","","","","",""
"null","../img/tt/1211tt.jpg","null","mooney1","image-keyboard-response","119","619903","0.0-6.0-1.16","2950333","co37525","norming","","","","","","",""
"5133.780000000028","","","post_mooney1_questions","survey-likert","120","625039","0.0-6.0-2.16","2950333","co37525","norming","","","{""curiosity"":2,""confidence"":5}","[0,1]","../img/tt/1211tt.jpg","",""
"2038.1150000002235","","","recognition","survey-text","121","627079","0.0-6.0-3.16","2950333","co37525","norming","","","{""guess"":""duck""}","","../img/tt/1211tt.jpg","",""
"null","../img/gs/1211gs.jpg","null","reveal","image-keyboard-response","122","629089","0.0-6.0-4.16","2950333","co37525","norming","","","","","","",""
"null","../img/tt/1211tt.jpg","null","mooney2","image-keyboard-response","123","631099","0.0-6.0-5.16","2950333","co37525","norming","","","","","","",""
"2290.205000000191","","","post_reveal_questions","survey-likert","124","633391","0.0-6.0-6.16","2950333","co37525","norming","","","{""aha"":6}","[0]","../img/tt/1211tt.jpg","",""
"null","<div style=""font-size:60px;""> </div>","null","fixation","html-keyboard-response","125","633593","0.0-6.0-0.17","2950333","co37525","norming","","","","","","",""
"null","../img/tt/1362tt.jpg","null","mooney1","image-keyboard-response","126","636603","0.0-6.0-1.17","2950333","co37525","norming","","","","","","",""
"5320.964999999851","","","post_mooney1_questions","survey-likert","127","641927","0.0-6.0-2.17","2950333","co37525","norming","","","{""curiosity"":5,""confidence"":2}","[0,1]","../img/tt/1362tt.jpg","",""
"3534.029999999795","","","recognition","survey-text","128","645462","0.0-6.0-3.17","2950333","co37525","norming","","","{""guess"":""shoes""}","","../img/tt/1362tt.jpg","",""
"null","../img/gs/1362gs.jpg","null","reveal","image-keyboard-response","129","647466","0.0-6.0-4.17","2950333","co37525","norming","","","","","","",""
"null","../img/tt/1362tt.jpg","null","mooney2","image-keyboard-response","130","649468","0.0-6.0-5.17","2950333","co37525","norming","","","","","","",""
"3872.580000000191","","","post_reveal_questions","survey-likert","131","653343","0.0-6.0-6.17","2950333","co37525","norming","","","{""aha"":5}","[0]","../img/tt/1362tt.jpg","",""
"null","<div style=""font-size:60px;""> </div>","null","fixation","html-keyboard-response","132","653549","0.0-6.0-0.18","2950333","co37525","norming","","","","","","",""
"null","../img/tt/082tt.jpg","null","mooney1","image-keyboard-response","133","656565","0.0-6.0-1.18","2950333","co37525","norming","","","","","","",""
"5324.714999999735","","","post_mooney1_questions","survey-likert","134","661892","0.0-6.0-2.18","2950333","co37525","norming","","","{""curiosity"":6,""confidence"":0}","[0,1]","../img/tt/082tt.jpg","",""
"3382.2250000002095","","","recognition","survey-text","135","665276","0.0-6.0-3.18","2950333","co37525","norming","","","{""guess"":""wizzard""}","","../img/tt/082tt.jpg","",""
"null","../img/gs/082gs.jpg","null","reveal","image-keyboard-response","136","667285","0.0-6.0-4.18","2950333","co37525","norming","","","","","","",""
"null","../img/tt/082tt.jpg","null","mooney2","image-keyboard-response","137","669289","0.0-6.0-5.18","2950333","co37525","norming","","","","","","",""
"4505.059999999474","","","post_reveal_questions","survey-likert","138","673796","0.0-6.0-6.18","2950333","co37525","norming","","","{""aha"":6}","[0]","../img/tt/082tt.jpg","",""
"null","<div style=""font-size:60px;""> </div>","null","fixation","html-keyboard-response","139","674007","0.0-6.0-0.19","2950333","co37525","norming","","","","","","",""
"null","../img/tt/1154tt.jpg","null","mooney1","image-keyboard-response","140","677009","0.0-6.0-1.19","2950333","co37525","norming","","","","","","",""
"3328.370000000228","","","post_mooney1_questions","survey-likert","141","680340","0.0-6.0-2.19","2950333","co37525","norming","","","{""curiosity"":6,""confidence"":0}","[0,1]","../img/tt/1154tt.jpg","",""
"3126.0750000001863","","","recognition","survey-text","142","683468","0.0-6.0-3.19","2950333","co37525","norming","","","{""guess"":""horse""}","","../img/tt/1154tt.jpg","",""
"null","../img/gs/1154gs.jpg","null","reveal","image-keyboard-response","143","685472","0.0-6.0-4.19","2950333","co37525","norming","","","","","","",""
"null","../img/tt/1154tt.jpg","null","mooney2","image-keyboard-response","144","687482","0.0-6.0-5.19","2950333","co37525","norming","","","","","","",""
"2064.0699999993667","","","post_reveal_questions","survey-likert","145","689548","0.0-6.0-6.19","2950333","co37525","norming","","","{""aha"":5}","[0]","../img/tt/1154tt.jpg","",""
"null","<div style=""font-size:60px;""> </div>","null","fixation","html-keyboard-response","146","689751","0.0-6.0-0.20","2950333","co37525","norming","","","","","","",""
"null","../img/tt/098tt.jpg","null","mooney1","image-keyboard-response","147","692758","0.0-6.0-1.20","2950333","co37525","norming","","","","","","",""
"5235.909999999334","","","post_mooney1_questions","survey-likert","148","697996","0.0-6.0-2.20","2950333","co37525","norming","","","{""curiosity"":0,""confidence"":0}","[0,1]","../img/tt/098tt.jpg","",""
"3534.1950000001816","","","recognition","survey-text","149","701532","0.0-6.0-3.20","2950333","co37525","norming","","","{""guess"":""duck""}","","../img/tt/098tt.jpg","",""
"null","../img/gs/098gs.jpg","null","reveal","image-keyboard-response","150","703539","0.0-6.0-4.20","2950333","co37525","norming","","","","","","",""
"null","../img/tt/098tt.jpg","null","mooney2","image-keyboard-response","151","705547","0.0-6.0-5.20","2950333","co37525","norming","","","","","","",""
"3750.315000000177","","","post_reveal_questions","survey-likert","152","709300","0.0-6.0-6.20","2950333","co37525","norming","","","{""aha"":0}","[0]","../img/tt/098tt.jpg","",""
"null","<div style=""font-size:60px;""> </div>","null","fixation","html-keyboard-response","153","709509","0.0-6.0-0.21","2950333","co37525","norming","","","","","","",""
"null","../img/tt/1181tt.jpg","null","mooney1","image-keyboard-response","154","712515","0.0-6.0-1.21","2950333","co37525","norming","","","","","","",""
"5102.52500000014","","","post_mooney1_questions","survey-likert","155","717620","0.0-6.0-2.21","2950333","co37525","norming","","","{""curiosity"":6,""confidence"":0}","[0,1]","../img/tt/1181tt.jpg","",""
"3510.295000000042","","","recognition","survey-text","156","721132","0.0-6.0-3.21","2950333","co37525","norming","","","{""guess"":""trucky""}","","../img/tt/1181tt.jpg","",""
"null","../img/gs/1181gs.jpg","null","reveal","image-keyboard-response","157","723141","0.0-6.0-4.21","2950333","co37525","norming","","","","","","",""
"null","../img/tt/1181tt.jpg","null","mooney2","image-keyboard-response","158","725144","0.0-6.0-5.21","2950333","co37525","norming","","","","","","",""
"1866.6899999998277","","","post_reveal_questions","survey-likert","159","727012","0.0-6.0-6.21","2950333","co37525","norming","","","{""aha"":5}","[0]","../img/tt/1181tt.jpg","",""
"null","<div style=""font-size:60px;""> </div>","null","fixation","html-keyboard-response","160","727215","0.0-6.0-0.22","2950333","co37525","norming","","","","","","",""
"null","../img/tt/1002tt.jpg","null","mooney1","image-keyboard-response","161","730218","0.0-6.0-1.22","2950333","co37525","norming","","","","","","",""
"5351.630000000121","","","post_mooney1_questions","survey-likert","162","735572","0.0-6.0-2.22","2950333","co37525","norming","","","{""curiosity"":0,""confidence"":6}","[0,1]","../img/tt/1002tt.jpg","",""
"2406.1850000007544","","","recognition","survey-text","163","737980","0.0-6.0-3.22","2950333","co37525","norming","","","{""guess"":""beer""}","","../img/tt/1002tt.jpg","",""
"null","../img/gs/1002gs.jpg","null","reveal","image-keyboard-response","164","739981","0.0-6.0-4.22","2950333","co37525","norming","","","","","","",""
"null","../img/tt/1002tt.jpg","null","mooney2","image-keyboard-response","165","741984","0.0-6.0-5.22","2950333","co37525","norming","","","","","","",""
"2626.2450000003446","","","post_reveal_questions","survey-likert","166","744612","0.0-6.0-6.22","2950333","co37525","norming","","","{""aha"":0}","[0]","../img/tt/1002tt.jpg","",""
"null","<div style=""font-size:60px;""> </div>","null","fixation","html-keyboard-response","167","744822","0.0-6.0-0.23","2950333","co37525","norming","","","","","","",""
"null","../img/tt/040tt.jpg","null","mooney1","image-keyboard-response","168","747830","0.0-6.0-1.23","2950333","co37525","norming","","","","","","",""
"5389.594999999623","","","post_mooney1_questions","survey-likert","169","753220","0.0-6.0-2.23","2950333","co37525","norming","","","{""curiosity"":6,""confidence"":3}","[0,1]","../img/tt/040tt.jpg","",""
"1974.1599999997998","","","recognition","survey-text","170","755196","0.0-6.0-3.23","2950333","co37525","norming","","","{""guess"":""koala""}","","../img/tt/040tt.jpg","",""
"null","../img/gs/040gs.jpg","null","reveal","image-keyboard-response","171","757200","0.0-6.0-4.23","2950333","co37525","norming","","","","","","",""
"null","../img/tt/040tt.jpg","null","mooney2","image-keyboard-response","172","759211","0.0-6.0-5.23","2950333","co37525","norming","","","","","","",""
"2143.780000000377","","","post_reveal_questions","survey-likert","173","761356","0.0-6.0-6.23","2950333","co37525","norming","","","{""aha"":6}","[0]","../img/tt/040tt.jpg","",""
"null","<div style=""font-size:60px;""> </div>","null","fixation","html-keyboard-response","174","761560","0.0-6.0-0.24","2950333","co37525","norming","","","","","","",""
"null","../img/tt/436tt.jpg","null","mooney1","image-keyboard-response","175","764564","0.0-6.0-1.24","2950333","co37525","norming","","","","","","",""
"5022.074999999953","","","post_mooney1_questions","survey-likert","176","769588","0.0-6.0-2.24","2950333","co37525","norming","","","{""curiosity"":4,""confidence"":3}","[0,1]","../img/tt/436tt.jpg","",""
"8582.005000000237","","","recognition","survey-text","177","778165","0.0-6.0-3.24","2950333","co37525","norming","","","{""guess"":""komodovaraan""}","","../img/tt/436tt.jpg","",""
"null","../img/gs/436gs.jpg","null","reveal","image-keyboard-response","178","780172","0.0-6.0-4.24","2950333","co37525","norming","","","","","","",""
"null","../img/tt/436tt.jpg","null","mooney2","image-keyboard-response","179","782177","0.0-6.0-5.24","2950333","co37525","norming","","","","","","",""
"7073.800000000163","","","post_reveal_questions","survey-likert","180","789253","0.0-6.0-6.24","2950333","co37525","norming","","","{""aha"":2}","[0]","../img/tt/436tt.jpg","",""
"null","<div style=""font-size:60px;""> </div>","null","fixation","html-keyboard-response","181","789458","0.0-6.0-0.25","2950333","co37525","norming","","","","","","",""
"null","../img/tt/1097tt.jpg","null","mooney1","image-keyboard-response","182","792463","0.0-6.0-1.25","2950333","co37525","norming","","","","","","",""
"5939.269999999786","","","post_mooney1_questions","survey-likert","183","798405","0.0-6.0-2.25","2950333","co37525","norming","","","{""curiosity"":3,""confidence"":4}","[0,1]","../img/tt/1097tt.jpg","",""
"3646.4150000001537","","","recognition","survey-text","184","802053","0.0-6.0-3.25","2950333","co37525","norming","","","{""guess"":""mountainclimber""}","","../img/tt/1097tt.jpg","",""
"null","../img/gs/1097gs.jpg","null","reveal","image-keyboard-response","185","804063","0.0-6.0-4.25","2950333","co37525","norming","","","","","","",""
"null","../img/tt/1097tt.jpg","null","mooney2","image-keyboard-response","186","806065","0.0-6.0-5.25","2950333","co37525","norming","","","","","","",""
"3986.004999999772","","","post_reveal_questions","survey-likert","187","810053","0.0-6.0-6.25","2950333","co37525","norming","","","{""aha"":4}","[0]","../img/tt/1097tt.jpg","",""
"null","<div style=""font-size:60px;""> </div>","null","fixation","html-keyboard-response","188","810259","0.0-6.0-0.26","2950333","co37525","norming","","","","","","",""
"null","../img/tt/1171tt.jpg","null","mooney1","image-keyboard-response","189","813265","0.0-6.0-1.26","2950333","co37525","norming","","","","","","",""
"4417.730000000098","","","post_mooney1_questions","survey-likert","190","817685","0.0-6.0-2.26","2950333","co37525","norming","","","{""curiosity"":5,""confidence"":0}","[0,1]","../img/tt/1171tt.jpg","",""
"2814.3699999999953","","","recognition","survey-text","191","820501","0.0-6.0-3.26","2950333","co37525","norming","","","{""guess"":""monkey""}","","../img/tt/1171tt.jpg","",""
"null","../img/gs/1171gs.jpg","null","reveal","image-keyboard-response","192","822503","0.0-6.0-4.26","2950333","co37525","norming","","","","","","",""
"null","../img/tt/1171tt.jpg","null","mooney2","image-keyboard-response","193","824505","0.0-6.0-5.26","2950333","co37525","norming","","","","","","",""
"1786.019999999553","","","post_reveal_questions","survey-likert","194","826293","0.0-6.0-6.26","2950333","co37525","norming","","","{""aha"":4}","[0]","../img/tt/1171tt.jpg","",""
"null","<div style=""font-size:60px;""> </div>","null","fixation","html-keyboard-response","195","826500","0.0-6.0-0.27","2950333","co37525","norming","","","","","","",""
"null","../img/tt/1089tt.jpg","null","mooney1","image-keyboard-response","196","829509","0.0-6.0-1.27","2950333","co37525","norming","","","","","","",""
"3645.5450000002747","","","post_mooney1_questions","survey-likert","197","833157","0.0-6.0-2.27","2950333","co37525","norming","","","{""curiosity"":4,""confidence"":2}","[0,1]","../img/tt/1089tt.jpg","",""
"2750.2050000003073","","","recognition","survey-text","198","835909","0.0-6.0-3.27","2950333","co37525","norming","","","{""guess"":""livingroom""}","","../img/tt/1089tt.jpg","",""
"null","../img/gs/1089gs.jpg","null","reveal","image-keyboard-response","199","837918","0.0-6.0-4.27","2950333","co37525","norming","","","","","","",""
"null","../img/tt/1089tt.jpg","null","mooney2","image-keyboard-response","200","839922","0.0-6.0-5.27","2950333","co37525","norming","","","","","","",""
"3096.414999999921","","","post_reveal_questions","survey-likert","201","843021","0.0-6.0-6.27","2950333","co37525","norming","","","{""aha"":4}","[0]","../img/tt/1089tt.jpg","",""
"null","<div style=""font-size:60px;""> </div>","null","fixation","html-keyboard-response","202","843226","0.0-6.0-0.28","2950333","co37525","norming","","","","","","",""
"null","../img/tt/1283tt.jpg","null","mooney1","image-keyboard-response","203","846230","0.0-6.0-1.28","2950333","co37525","norming","","","","","","",""
"4924.074999999953","","","post_mooney1_questions","survey-likert","204","851157","0.0-6.0-2.28","2950333","co37525","norming","","","{""curiosity"":5,""confidence"":0}","[0,1]","../img/tt/1283tt.jpg","",""
"2758.1849999997066","","","recognition","survey-text","205","853917","0.0-6.0-3.28","2950333","co37525","norming","","","{""guess"":""bizon""}","","../img/tt/1283tt.jpg","",""
"null","../img/gs/1283gs.jpg","null","reveal","image-keyboard-response","206","855922","0.0-6.0-4.28","2950333","co37525","norming","","","","","","",""
"null","../img/tt/1283tt.jpg","null","mooney2","image-keyboard-response","207","857933","0.0-6.0-5.28","2950333","co37525","norming","","","","","","",""
"2886.3449999998556","","","post_reveal_questions","survey-likert","208","860821","0.0-6.0-6.28","2950333","co37525","norming","","","{""aha"":0}","[0]","../img/tt/1283tt.jpg","",""
"null","<div style=""font-size:60px;""> </div>","null","fixation","html-keyboard-response","209","861028","0.0-6.0-0.29","2950333","co37525","norming","","","","","","",""
"null","../img/tt/032tt.jpg","null","mooney1","image-keyboard-response","210","864039","0.0-6.0-1.29","2950333","co37525","norming","","","","","","",""
"5539.499999999884","","","post_mooney1_questions","survey-likert","211","869581","0.0-6.0-2.29","2950333","co37525","norming","","","{""curiosity"":4,""confidence"":4}","[0,1]","../img/tt/032tt.jpg","",""
"1550.1850000000559","","","recognition","survey-text","212","871133","0.0-6.0-3.29","2950333","co37525","norming","","","{""guess"":""duck""}","","../img/tt/032tt.jpg","",""
"null","../img/gs/032gs.jpg","null","reveal","image-keyboard-response","213","873138","0.0-6.0-4.29","2950333","co37525","norming","","","","","","",""
"null","../img/tt/032tt.jpg","null","mooney2","image-keyboard-response","214","875146","0.0-6.0-5.29","2950333","co37525","norming","","","","","","",""
"4952.990000000689","","","post_reveal_questions","survey-likert","215","880101","0.0-6.0-6.29","2950333","co37525","norming","","","{""aha"":6}","[0]","../img/tt/032tt.jpg","",""
"null","<div style=""font-size:60px;""> </div>","null","fixation","html-keyboard-response","216","880312","0.0-6.0-0.30","2950333","co37525","norming","","","","","","",""
"null","../img/tt/497tt.jpg","null","mooney1","image-keyboard-response","217","883317","0.0-6.0-1.30","2950333","co37525","norming","","","","","","",""
"6341.844999999972","","","post_mooney1_questions","survey-likert","218","889661","0.0-6.0-2.30","2950333","co37525","norming","","","{""curiosity"":4,""confidence"":2}","[0,1]","../img/tt/497tt.jpg","",""
"2749.7899999998044","","","recognition","survey-text","219","892413","0.0-6.0-3.30","2950333","co37525","norming","","","{""guess"":""cano""}","","../img/tt/497tt.jpg","",""
"null","../img/gs/497gs.jpg","null","reveal","image-keyboard-response","220","894419","0.0-6.0-4.30","2950333","co37525","norming","","","","","","",""
"null","../img/tt/497tt.jpg","null","mooney2","image-keyboard-response","221","896423","0.0-6.0-5.30","2950333","co37525","norming","","","","","","",""
"2547.290000000503","","","post_reveal_questions","survey-likert","222","898972","0.0-6.0-6.30","2950333","co37525","norming","","","{""aha"":4}","[0]","../img/tt/497tt.jpg","",""
"null","<div style=""font-size:60px;""> </div>","null","fixation","html-keyboard-response","223","899182","0.0-6.0-0.31","2950333","co37525","norming","","","","","","",""
"null","../img/tt/007tt.jpg","null","mooney1","image-keyboard-response","224","902187","0.0-6.0-1.31","2950333","co37525","norming","","","","","","",""
"4750.759999999893","","","post_mooney1_questions","survey-likert","225","906941","0.0-6.0-2.31","2950333","co37525","norming","","","{""curiosity"":2,""confidence"":5}","[0,1]","../img/tt/007tt.jpg","",""
"2685.754999999539","","","recognition","survey-text","226","909628","0.0-6.0-3.31","2950333","co37525","norming","","","{""guess"":""walrus""}","","../img/tt/007tt.jpg","",""
"null","../img/gs/007gs.jpg","null","reveal","image-keyboard-response","227","911631","0.0-6.0-4.31","2950333","co37525","norming","","","","","","",""
"null","../img/tt/007tt.jpg","null","mooney2","image-keyboard-response","228","913633","0.0-6.0-5.31","2950333","co37525","norming","","","","","","",""
"2266.244999999879","","","post_reveal_questions","survey-likert","229","915900","0.0-6.0-6.31","2950333","co37525","norming","","","{""aha"":1}","[0]","../img/tt/007tt.jpg","",""
"null","<div style=""font-size:60px;""> </div>","null","fixation","html-keyboard-response","230","916111","0.0-6.0-0.32","2950333","co37525","norming","","","","","","",""
"null","../img/tt/273tt.jpg","null","mooney1","image-keyboard-response","231","919118","0.0-6.0-1.32","2950333","co37525","norming","","","","","","",""
"5925.25499999919","","","post_mooney1_questions","survey-likert","232","925044","0.0-6.0-2.32","2950333","co37525","norming","","","{""curiosity"":1,""confidence"":6}","[0,1]","../img/tt/273tt.jpg","",""
"3877.4499999999534","","","recognition","survey-text","233","928924","0.0-6.0-3.32","2950333","co37525","norming","","","{""guess"":""kid with braces""}","","../img/tt/273tt.jpg","",""
"null","../img/gs/273gs.jpg","null","reveal","image-keyboard-response","234","930927","0.0-6.0-4.32","2950333","co37525","norming","","","","","","",""
"null","../img/tt/273tt.jpg","null","mooney2","image-keyboard-response","235","932936","0.0-6.0-5.32","2950333","co37525","norming","","","","","","",""
"2067.719999999972","","","post_reveal_questions","survey-likert","236","935004","0.0-6.0-6.32","2950333","co37525","norming","","","{""aha"":2}","[0]","../img/tt/273tt.jpg","",""
"null","<div style=""font-size:60px;""> </div>","null","fixation","html-keyboard-response","237","935206","0.0-6.0-0.33","2950333","co37525","norming","","","","","","",""
"null","../img/tt/378tt.jpg","null","mooney1","image-keyboard-response","238","938210","0.0-6.0-1.33","2950333","co37525","norming","","","","","","",""
"3353.2500000001164","","","post_mooney1_questions","survey-likert","239","941564","0.0-6.0-2.33","2950333","co37525","norming","","","{""curiosity"":0,""confidence"":0}","[0,1]","../img/tt/378tt.jpg","",""
"3038.3950000004843","","","recognition","survey-text","240","944604","0.0-6.0-3.33","2950333","co37525","norming","","","{""guess"":""frog""}","","../img/tt/378tt.jpg","",""
"null","../img/gs/378gs.jpg","null","reveal","image-keyboard-response","241","946611","0.0-6.0-4.33","2950333","co37525","norming","","","","","","",""
"null","../img/tt/378tt.jpg","null","mooney2","image-keyboard-response","242","948618","0.0-6.0-5.33","2950333","co37525","norming","","","","","","",""
"1977.0349999999162","","","post_reveal_questions","survey-likert","243","950596","0.0-6.0-6.33","2950333","co37525","norming","","","{""aha"":0}","[0]","../img/tt/378tt.jpg","",""
"null","<div style=""font-size:60px;""> </div>","null","fixation","html-keyboard-response","244","950797","0.0-6.0-0.34","2950333","co37525","norming","","","","","","",""
"null","../img/tt/1243tt.jpg","null","mooney1","image-keyboard-response","245","953801","0.0-6.0-1.34","2950333","co37525","norming","","","","","","",""
"5945.86999999953","","","post_mooney1_questions","survey-likert","246","959741","0.0-6.0-2.34","2950333","co37525","norming","","","{""curiosity"":4,""confidence"":3}","[0,1]","../img/tt/1243tt.jpg","",""
"1558.3049999995856","","","recognition","survey-text","247","961301","0.0-6.0-3.34","2950333","co37525","norming","","","{""guess"":""tiger""}","","../img/tt/1243tt.jpg","",""
"null","../img/gs/1243gs.jpg","null","reveal","image-keyboard-response","248","963308","0.0-6.0-4.34","2950333","co37525","norming","","","","","","",""
"null","../img/tt/1243tt.jpg","null","mooney2","image-keyboard-response","249","965310","0.0-6.0-5.34","2950333","co37525","norming","","","","","","",""
"3140.9499999999534","","","post_reveal_questions","survey-likert","250","968453","0.0-6.0-6.34","2950333","co37525","norming","","","{""aha"":5}","[0]","../img/tt/1243tt.jpg","",""
"null","<div style=""font-size:60px;""> </div>","null","fixation","html-keyboard-response","251","968655","0.0-6.0-0.35","2950333","co37525","norming","","","","","","",""
"null","../img/tt/081tt.jpg","null","mooney1","image-keyboard-response","252","971661","0.0-6.0-1.35","2950333","co37525","norming","","","","","","",""
"5830.010000000591","","","post_mooney1_questions","survey-likert","253","977493","0.0-6.0-2.35","2950333","co37525","norming","","","{""curiosity"":4,""confidence"":1}","[0,1]","../img/tt/081tt.jpg","",""
"1118.059999999823","","","recognition","survey-text","254","978613","0.0-6.0-3.35","2950333","co37525","norming","","","{""guess"":""dog""}","","../img/tt/081tt.jpg","",""
"null","../img/gs/081gs.jpg","null","reveal","image-keyboard-response","255","980619","0.0-6.0-4.35","2950333","co37525","norming","","","","","","",""
"null","../img/tt/081tt.jpg","null","mooney2","image-keyboard-response","256","982627","0.0-6.0-5.35","2950333","co37525","norming","","","","","","",""
"3127.36500000034","","","post_reveal_questions","survey-likert","257","985757","0.0-6.0-6.35","2950333","co37525","norming","","","{""aha"":3}","[0]","../img/tt/081tt.jpg","",""
"null","<div style=""font-size:60px;""> </div>","null","fixation","html-keyboard-response","258","985959","0.0-6.0-0.36","2950333","co37525","norming","","","","","","",""
"null","../img/tt/1040tt.jpg","null","mooney1","image-keyboard-response","259","988964","0.0-6.0-1.36","2950333","co37525","norming","","","","","","",""
"6224.119999999879","","","post_mooney1_questions","survey-likert","260","995189","0.0-6.0-2.36","2950333","co37525","norming","","","{""curiosity"":4,""confidence"":2}","[0,1]","../img/tt/1040tt.jpg","",""
"2638.185000000638","","","recognition","survey-text","261","997829","0.0-6.0-3.36","2950333","co37525","norming","","","{""guess"":""krokodil""}","","../img/tt/1040tt.jpg","",""
"null","../img/gs/1040gs.jpg","null","reveal","image-keyboard-response","262","999831","0.0-6.0-4.36","2950333","co37525","norming","","","","","","",""
"null","../img/tt/1040tt.jpg","null","mooney2","image-keyboard-response","263","1001832","0.0-6.0-5.36","2950333","co37525","norming","","","","","","",""
"4284.445000000182","","","post_reveal_questions","survey-likert","264","1006117","0.0-6.0-6.36","2950333","co37525","norming","","","{""aha"":4}","[0]","../img/tt/1040tt.jpg","",""
"null","<div style=""font-size:60px;""> </div>","null","fixation","html-keyboard-response","265","1006320","0.0-6.0-0.37","2950333","co37525","norming","","","","","","",""
"null","../img/tt/1196tt.jpg","null","mooney1","image-keyboard-response","266","1009328","0.0-6.0-1.37","2950333","co37525","norming","","","","","","",""
"3498.9449999993667","","","post_mooney1_questions","survey-likert","267","1012829","0.0-6.0-2.37","2950333","co37525","norming","","","{""curiosity"":1,""confidence"":1}","[0,1]","../img/tt/1196tt.jpg","",""
"5958.1400000007125","","","recognition","survey-text","268","1018789","0.0-6.0-3.37","2950333","co37525","norming","","","{""guess"":""mountains""}","","../img/tt/1196tt.jpg","",""
"null","../img/gs/1196gs.jpg","null","reveal","image-keyboard-response","269","1020804","0.0-6.0-4.37","2950333","co37525","norming","","","","","","",""
"null","../img/tt/1196tt.jpg","null","mooney2","image-keyboard-response","270","1022810","0.0-6.0-5.37","2950333","co37525","norming","","","","","","",""
"1992.7249999999767","","","post_reveal_questions","survey-likert","271","1024805","0.0-6.0-6.37","2950333","co37525","norming","","","{""aha"":4}","[0]","../img/tt/1196tt.jpg","",""
"null","<div style=""font-size:60px;""> </div>","null","fixation","html-keyboard-response","272","1025008","0.0-6.0-0.38","2950333","co37525","norming","","","","","","",""
"null","../img/tt/1123tt.jpg","null","mooney1","image-keyboard-response","273","1028018","0.0-6.0-1.38","2950333","co37525","norming","","","","","","",""
"8369.520000000135","","","post_mooney1_questions","survey-likert","274","1036389","0.0-6.0-2.38","2950333","co37525","norming","","","{""curiosity"":4,""confidence"":4}","[0,1]","../img/tt/1123tt.jpg","",""
"2997.8849999997765","","","recognition","survey-text","275","1039389","0.0-6.0-3.38","2950333","co37525","norming","","","{""guess"":""voetbalspeler""}","","../img/tt/1123tt.jpg","",""
"null","../img/gs/1123gs.jpg","null","reveal","image-keyboard-response","276","1041399","0.0-6.0-4.38","2950333","co37525","norming","","","","","","",""
"null","../img/tt/1123tt.jpg","null","mooney2","image-keyboard-response","277","1043403","0.0-6.0-5.38","2950333","co37525","norming","","","","","","",""
"3912.5500000000466","","","post_reveal_questions","survey-likert","278","1047317","0.0-6.0-6.38","2950333","co37525","norming","","","{""aha"":0}","[0]","../img/tt/1123tt.jpg","",""
"null","<div style=""font-size:60px;""> </div>","null","fixation","html-keyboard-response","279","1047519","0.0-6.0-0.39","2950333","co37525","norming","","","","","","",""
"null","../img/tt/189tt.jpg","null","mooney1","image-keyboard-response","280","1050530","0.0-6.0-1.39","2950333","co37525","norming","","","","","","",""
"7193.204999999609","","","post_mooney1_questions","survey-likert","281","1057725","0.0-6.0-2.39","2950333","co37525","norming","","","{""curiosity"":3,""confidence"":4}","[0,1]","../img/tt/189tt.jpg","",""
"4334.150000000605","","","recognition","survey-text","282","1062061","0.0-6.0-3.39","2950333","co37525","norming","","","{""guess"":""persoon in hangmat""}","","../img/tt/189tt.jpg","",""
"null","../img/gs/189gs.jpg","null","reveal","image-keyboard-response","283","1064064","0.0-6.0-4.39","2950333","co37525","norming","","","","","","",""
"null","../img/tt/189tt.jpg","null","mooney2","image-keyboard-response","284","1066075","0.0-6.0-5.39","2950333","co37525","norming","","","","","","",""
"2792.420000000624","","","post_reveal_questions","survey-likert","285","1068869","0.0-6.0-6.39","2950333","co37525","norming","","","{""aha"":0}","[0]","../img/tt/189tt.jpg","",""
"null","<div style=""font-size:60px;""> </div>","null","fixation","html-keyboard-response","286","1069080","0.0-6.0-0.40","2950333","co37525","norming","","","","","","",""
"null","../img/tt/1175tt.jpg","null","mooney1","image-keyboard-response","287","1072084","0.0-6.0-1.40","2950333","co37525","norming","","","","","","",""
"3502.499999999767","","","post_mooney1_questions","survey-likert","288","1075589","0.0-6.0-2.40","2950333","co37525","norming","","","{""curiosity"":3,""confidence"":1}","[0,1]","../img/tt/1175tt.jpg","",""
"1654.455000000773","","","recognition","survey-text","289","1077245","0.0-6.0-3.40","2950333","co37525","norming","","","{""guess"":""boat""}","","../img/tt/1175tt.jpg","",""
"null","../img/gs/1175gs.jpg","null","reveal","image-keyboard-response","290","1079248","0.0-6.0-4.40","2950333","co37525","norming","","","","","","",""
"null","../img/tt/1175tt.jpg","null","mooney2","image-keyboard-response","291","1081253","0.0-6.0-5.40","2950333","co37525","norming","","","","","","",""
"2022.3500000000931","","","post_reveal_questions","survey-likert","292","1083277","0.0-6.0-6.40","2950333","co37525","norming","","","{""aha"":0}","[0]","../img/tt/1175tt.jpg","",""
"null","<div style=""font-size:60px;""> </div>","null","fixation","html-keyboard-response","293","1083481","0.0-6.0-0.41","2950333","co37525","norming","","","","","","",""
"null","../img/tt/1173tt.jpg","null","mooney1","image-keyboard-response","294","1086485","0.0-6.0-1.41","2950333","co37525","norming","","","","","","",""
"3349.7949999999255","","","post_mooney1_questions","survey-likert","295","1089838","0.0-6.0-2.41","2950333","co37525","norming","","","{""curiosity"":5,""confidence"":3}","[0,1]","../img/tt/1173tt.jpg","",""
"3870.1400000001304","","","recognition","survey-text","296","1093709","0.0-6.0-3.41","2950333","co37525","norming","","","{""guess"":""voetbalspelers""}","","../img/tt/1173tt.jpg","",""
"null","../img/gs/1173gs.jpg","null","reveal","image-keyboard-response","297","1095716","0.0-6.0-4.41","2950333","co37525","norming","","","","","","",""
"null","../img/tt/1173tt.jpg","null","mooney2","image-keyboard-response","298","1097716","0.0-6.0-5.41","2950333","co37525","norming","","","","","","",""
"2248.1200000003446","","","post_reveal_questions","survey-likert","299","1099965","0.0-6.0-6.41","2950333","co37525","norming","","","{""aha"":3}","[0]","../img/tt/1173tt.jpg","",""
"null","<div style=""font-size:60px;""> </div>","null","fixation","html-keyboard-response","300","1100171","0.0-6.0-0.42","2950333","co37525","norming","","","","","","",""
"null","../img/tt/1151tt.jpg","null","mooney1","image-keyboard-response","301","1103174","0.0-6.0-1.42","2950333","co37525","norming","","","","","","",""
"3620.899999999907","","","post_mooney1_questions","survey-likert","302","1106797","0.0-6.0-2.42","2950333","co37525","norming","","","{""curiosity"":6,""confidence"":0}","[0,1]","../img/tt/1151tt.jpg","",""
"3133.8899999998976","","","recognition","survey-text","303","1109933","0.0-6.0-3.42","2950333","co37525","norming","","","{""guess"":""koe""}","","../img/tt/1151tt.jpg","",""
"null","../img/gs/1151gs.jpg","null","reveal","image-keyboard-response","304","1111938","0.0-6.0-4.42","2950333","co37525","norming","","","","","","",""
"null","../img/tt/1151tt.jpg","null","mooney2","image-keyboard-response","305","1113940","0.0-6.0-5.42","2950333","co37525","norming","","","","","","",""
"1886.4899999997579","","","post_reveal_questions","survey-likert","306","1115829","0.0-6.0-6.42","2950333","co37525","norming","","","{""aha"":3}","[0]","../img/tt/1151tt.jpg","",""
"null","<div style=""font-size:60px;""> </div>","null","fixation","html-keyboard-response","307","1116038","0.0-6.0-0.43","2950333","co37525","norming","","","","","","",""
"null","../img/tt/184tt.jpg","null","mooney1","image-keyboard-response","308","1119049","0.0-6.0-1.43","2950333","co37525","norming","","","","","","",""
"3914.380000000121","","","post_mooney1_questions","survey-likert","309","1122966","0.0-6.0-2.43","2950333","co37525","norming","","","{""curiosity"":0,""confidence"":0}","[0,1]","../img/tt/184tt.jpg","",""
"2966.294999999227","","","recognition","survey-text","310","1125933","0.0-6.0-3.43","2950333","co37525","norming","","","{""guess"":""koe""}","","../img/tt/184tt.jpg","",""
"null","../img/gs/184gs.jpg","null","reveal","image-keyboard-response","311","1127942","0.0-6.0-4.43","2950333","co37525","norming","","","","","","",""
"null","../img/tt/184tt.jpg","null","mooney2","image-keyboard-response","312","1129950","0.0-6.0-5.43","2950333","co37525","norming","","","","","","",""
"1821.1900000004098","","","post_reveal_questions","survey-likert","313","1131773","0.0-6.0-6.43","2950333","co37525","norming","","","{""aha"":0}","[0]","../img/tt/184tt.jpg","",""
"null","<div style=""font-size:60px;""> </div>","null","fixation","html-keyboard-response","314","1131982","0.0-6.0-0.44","2950333","co37525","norming","","","","","","",""
"null","../img/tt/1127tt.jpg","null","mooney1","image-keyboard-response","315","1134988","0.0-6.0-1.44","2950333","co37525","norming","","","","","","",""
"6767.090000000317","","","post_mooney1_questions","survey-likert","316","1141758","0.0-6.0-2.44","2950333","co37525","norming","","","{""curiosity"":6,""confidence"":1}","[0,1]","../img/tt/1127tt.jpg","",""
"5566.410000000382","","","recognition","survey-text","317","1147326","0.0-6.0-3.44","2950333","co37525","norming","","","{""guess"":""yogales""}","","../img/tt/1127tt.jpg","",""
"null","../img/gs/1127gs.jpg","null","reveal","image-keyboard-response","318","1149330","0.0-6.0-4.44","2950333","co37525","norming","","","","","","",""
"null","../img/tt/1127tt.jpg","null","mooney2","image-keyboard-response","319","1151336","0.0-6.0-5.44","2950333","co37525","norming","","","","","","",""
"3563.905000000028","","","post_reveal_questions","survey-likert","320","1154902","0.0-6.0-6.44","2950333","co37525","norming","","","{""aha"":4}","[0]","../img/tt/1127tt.jpg","",""
"null","<div style=""font-size:60px;""> </div>","null","fixation","html-keyboard-response","321","1155103","0.0-6.0-0.45","2950333","co37525","norming","","","","","","",""
"null","../img/tt/418tt.jpg","null","mooney1","image-keyboard-response","322","1158110","0.0-6.0-1.45","2950333","co37525","norming","","","","","","",""
"3500.989999999525","","","post_mooney1_questions","survey-likert","323","1161614","0.0-6.0-2.45","2950333","co37525","norming","","","{""curiosity"":4,""confidence"":2}","[0,1]","../img/tt/418tt.jpg","",""
"2606.16500000027","","","recognition","survey-text","324","1164222","0.0-6.0-3.45","2950333","co37525","norming","","","{""guess"":""spruitjes""}","","../img/tt/418tt.jpg","",""
"null","../img/gs/418gs.jpg","null","reveal","image-keyboard-response","325","1166224","0.0-6.0-4.45","2950333","co37525","norming","","","","","","",""
"null","../img/tt/418tt.jpg","null","mooney2","image-keyboard-response","326","1168233","0.0-6.0-5.45","2950333","co37525","norming","","","","","","",""
"5450.084999999497","","","post_reveal_questions","survey-likert","327","1173685","0.0-6.0-6.45","2950333","co37525","norming","","","{""aha"":4}","[0]","../img/tt/418tt.jpg","",""
"null","<div style=""font-size:60px;""> </div>","null","fixation","html-keyboard-response","328","1173895","0.0-6.0-0.46","2950333","co37525","norming","","","","","","",""
"null","../img/tt/380tt.jpg","null","mooney1","image-keyboard-response","329","1176902","0.0-6.0-1.46","2950333","co37525","norming","","","","","","",""
"3981.6850000007544","","","post_mooney1_questions","survey-likert","330","1180886","0.0-6.0-2.46","2950333","co37525","norming","","","{""curiosity"":6,""confidence"":0}","[0,1]","../img/tt/380tt.jpg","",""
"7046.069999999367","","","recognition","survey-text","331","1187934","0.0-6.0-3.46","2950333","co37525","norming","","","{""guess"":""pompbak""}","","../img/tt/380tt.jpg","",""
"null","../img/gs/380gs.jpg","null","reveal","image-keyboard-response","332","1189939","0.0-6.0-4.46","2950333","co37525","norming","","","","","","",""
"null","../img/tt/380tt.jpg","null","mooney2","image-keyboard-response","333","1191942","0.0-6.0-5.46","2950333","co37525","norming","","","","","","",""
"1598.1249999995343","","","post_reveal_questions","survey-likert","334","1193541","0.0-6.0-6.46","2950333","co37525","norming","","","{""aha"":6}","[0]","../img/tt/380tt.jpg","",""
"null","<div style=""font-size:60px;""> </div>","null","fixation","html-keyboard-response","335","1193748","0.0-6.0-0.47","2950333","co37525","norming","","","","","","",""
"null","../img/tt/121tt.jpg","null","mooney1","image-keyboard-response","336","1196750","0.0-6.0-1.47","2950333","co37525","norming","","","","","","",""
"3709.465000000084","","","post_mooney1_questions","survey-likert","337","1200462","0.0-6.0-2.47","2950333","co37525","norming","","","{""curiosity"":3,""confidence"":6}","[0,1]","../img/tt/121tt.jpg","",""
"3053.380000000354","","","recognition","survey-text","338","1203513","0.0-6.0-3.47","2950333","co37525","norming","","","{""guess"":""kangooroo""}","","../img/tt/121tt.jpg","",""
"null","../img/gs/121gs.jpg","null","reveal","image-keyboard-response","339","1205514","0.0-6.0-4.47","2950333","co37525","norming","","","","","","",""
"null","../img/tt/121tt.jpg","null","mooney2","image-keyboard-response","340","1207516","0.0-6.0-5.47","2950333","co37525","norming","","","","","","",""
"1867.4600000004284","","","post_reveal_questions","survey-likert","341","1209386","0.0-6.0-6.47","2950333","co37525","norming","","","{""aha"":0}","[0]","../img/tt/121tt.jpg","",""
"null","<div style=""font-size:60px;""> </div>","null","fixation","html-keyboard-response","342","1209587","0.0-6.0-0.48","2950333","co37525","norming","","","","","","",""
"null","../img/tt/279tt.jpg","null","mooney1","image-keyboard-response","343","1212589","0.0-6.0-1.48","2950333","co37525","norming","","","","","","",""
"3634.2549999998882","","","post_mooney1_questions","survey-likert","344","1216226","0.0-6.0-2.48","2950333","co37525","norming","","","{""curiosity"":0,""confidence"":6}","[0,1]","../img/tt/279tt.jpg","",""
"2518.3249999999534","","","recognition","survey-text","345","1218746","0.0-6.0-3.48","2950333","co37525","norming","","","{""guess"":""koala""}","","../img/tt/279tt.jpg","",""
"null","../img/gs/279gs.jpg","null","reveal","image-keyboard-response","346","1220747","0.0-6.0-4.48","2950333","co37525","norming","","","","","","",""
"null","../img/tt/279tt.jpg","null","mooney2","image-keyboard-response","347","1222752","0.0-6.0-5.48","2950333","co37525","norming","","","","","","",""
"3007.5749999994878","","","post_reveal_questions","survey-likert","348","1225761","0.0-6.0-6.48","2950333","co37525","norming","","","{""aha"":0}","[0]","../img/tt/279tt.jpg","",""
"null","<div style=""font-size:60px;""> </div>","null","fixation","html-keyboard-response","349","1225963","0.0-6.0-0.49","2950333","co37525","norming","","","","","","",""
"null","../img/tt/1037tt.jpg","null","mooney1","image-keyboard-response","350","1228968","0.0-6.0-1.49","2950333","co37525","norming","","","","","","",""
"4927.60999999987","","","post_mooney1_questions","survey-likert","351","1233898","0.0-6.0-2.49","2950333","co37525","norming","","","{""curiosity"":5,""confidence"":3}","[0,1]","../img/tt/1037tt.jpg","",""
"6093.645000000019","","","recognition","survey-text","352","1239994","0.0-6.0-3.49","2950333","co37525","norming","","","{""guess"":""snake in tree""}","","../img/tt/1037tt.jpg","",""
"null","../img/gs/1037gs.jpg","null","reveal","image-keyboard-response","353","1242000","0.0-6.0-4.49","2950333","co37525","norming","","","","","","",""
"null","../img/tt/1037tt.jpg","null","mooney2","image-keyboard-response","354","1244002","0.0-6.0-5.49","2950333","co37525","norming","","","","","","",""
"2717.3249999997206","","","post_reveal_questions","survey-likert","355","1246722","0.0-6.0-6.49","2950333","co37525","norming","","","{""aha"":5}","[0]","../img/tt/1037tt.jpg","",""
"null","<div style=""font-size:60px;""> </div>","null","fixation","html-keyboard-response","356","1246923","0.0-6.0-0.50","2950333","co37525","norming","","","","","","",""
"null","../img/tt/1102tt.jpg","null","mooney1","image-keyboard-response","357","1249928","0.0-6.0-1.50","2950333","co37525","norming","","","","","","",""
"5560.320000000531","","","post_mooney1_questions","survey-likert","358","1255490","0.0-6.0-2.50","2950333","co37525","norming","","","{""curiosity"":4,""confidence"":2}","[0,1]","../img/tt/1102tt.jpg","",""
"2518.0349999992177","","","recognition","survey-text","359","1258010","0.0-6.0-3.50","2950333","co37525","norming","","","{""guess"":""beach""}","","../img/tt/1102tt.jpg","",""
"null","../img/gs/1102gs.jpg","null","reveal","image-keyboard-response","360","1260018","0.0-6.0-4.50","2950333","co37525","norming","","","","","","",""
"null","../img/tt/1102tt.jpg","null","mooney2","image-keyboard-response","361","1262024","0.0-6.0-5.50","2950333","co37525","norming","","","","","","",""
"3715.1550000007264","","","post_reveal_questions","survey-likert","362","1265742","0.0-6.0-6.50","2950333","co37525","norming","","","{""aha"":4}","[0]","../img/tt/1102tt.jpg","",""
"null","<div style=""font-size:60px;""> </div>","null","fixation","html-keyboard-response","363","1265952","0.0-6.0-0.51","2950333","co37525","norming","","","","","","",""
"null","../img/tt/1080tt.jpg","null","mooney1","image-keyboard-response","364","1268959","0.0-6.0-1.51","2950333","co37525","norming","","","","","","",""
"2700.6700000001583","","","post_mooney1_questions","survey-likert","365","1271662","0.0-6.0-2.51","2950333","co37525","norming","","","{""curiosity"":0,""confidence"":0}","[0,1]","../img/tt/1080tt.jpg","",""
"3502.3549999995157","","","recognition","survey-text","366","1275166","0.0-6.0-3.51","2950333","co37525","norming","","","{""guess"":""hangmat""}","","../img/tt/1080tt.jpg","",""
"null","../img/gs/1080gs.jpg","null","reveal","image-keyboard-response","367","1277168","0.0-6.0-4.51","2950333","co37525","norming","","","","","","",""
"null","../img/tt/1080tt.jpg","null","mooney2","image-keyboard-response","368","1279177","0.0-6.0-5.51","2950333","co37525","norming","","","","","","",""
"2122.7149999993853","","","post_reveal_questions","survey-likert","369","1281302","0.0-6.0-6.51","2950333","co37525","norming","","","{""aha"":5}","[0]","../img/tt/1080tt.jpg","",""
"null","<div style=""font-size:60px;""> </div>","null","fixation","html-keyboard-response","370","1281506","0.0-6.0-0.52","2950333","co37525","norming","","","","","","",""
"null","../img/tt/1199tt.jpg","null","mooney1","image-keyboard-response","371","1284515","0.0-6.0-1.52","2950333","co37525","norming","","","","","","",""
"4839.805000000633","","","post_mooney1_questions","survey-likert","372","1289358","0.0-6.0-2.52","2950333","co37525","norming","","","{""curiosity"":4,""confidence"":4}","[0,1]","../img/tt/1199tt.jpg","",""
"2461.8549999995157","","","recognition","survey-text","373","1291822","0.0-6.0-3.52","2950333","co37525","norming","","","{""guess"":""turnster""}","","../img/tt/1199tt.jpg","",""
"null","../img/gs/1199gs.jpg","null","reveal","image-keyboard-response","374","1293826","0.0-6.0-4.52","2950333","co37525","norming","","","","","","",""
"null","../img/tt/1199tt.jpg","null","mooney2","image-keyboard-response","375","1295831","0.0-6.0-5.52","2950333","co37525","norming","","","","","","",""
"2613.9499999999534","","","post_reveal_questions","survey-likert","376","1298446","0.0-6.0-6.52","2950333","co37525","norming","","","{""aha"":0}","[0]","../img/tt/1199tt.jpg","",""
"null","<div style=""font-size:60px;""> </div>","null","fixation","html-keyboard-response","377","1298647","0.0-6.0-0.53","2950333","co37525","norming","","","","","","",""
"null","../img/tt/1012tt.jpg","null","mooney1","image-keyboard-response","378","1301648","0.0-6.0-1.53","2950333","co37525","norming","","","","","","",""
"7339.89000000013","","","post_mooney1_questions","survey-likert","379","1308990","0.0-6.0-2.53","2950333","co37525","norming","","","{""curiosity"":4,""confidence"":3}","[0,1]","../img/tt/1012tt.jpg","",""
"2861.6649999995716","","","recognition","survey-text","380","1311854","0.0-6.0-3.53","2950333","co37525","norming","","","{""guess"":""neushoorn""}","","../img/tt/1012tt.jpg","",""
"null","../img/gs/1012gs.jpg","null","reveal","image-keyboard-response","381","1313862","0.0-6.0-4.53","2950333","co37525","norming","","","","","","",""
"null","../img/tt/1012tt.jpg","null","mooney2","image-keyboard-response","382","1315865","0.0-6.0-5.53","2950333","co37525","norming","","","","","","",""
"2515.5850000001956","","","post_reveal_questions","survey-likert","383","1318382","0.0-6.0-6.53","2950333","co37525","norming","","","{""aha"":4}","[0]","../img/tt/1012tt.jpg","",""
"null","<div style=""font-size:60px;""> </div>","null","fixation","html-keyboard-response","384","1318584","0.0-6.0-0.54","2950333","co37525","norming","","","","","","",""
"null","../img/tt/1096tt.jpg","null","mooney1","image-keyboard-response","385","1321586","0.0-6.0-1.54","2950333","co37525","norming","","","","","","",""
"4673.234999999404","","","post_mooney1_questions","survey-likert","386","1326254","0.0-6.0-2.54","2950333","co37525","norming","","","{""curiosity"":5,""confidence"":3}","[0,1]","../img/tt/1096tt.jpg","",""
"2678.0749999997206","","","recognition","survey-text","387","1328933","0.0-6.0-3.54","2950333","co37525","norming","","","{""guess"":""woonkamer""}","","../img/tt/1096tt.jpg","",""
"null","../img/gs/1096gs.jpg","null","reveal","image-keyboard-response","388","1330937","0.0-6.0-4.54","2950333","co37525","norming","","","","","","",""
"null","../img/tt/1096tt.jpg","null","mooney2","image-keyboard-response","389","1332947","0.0-6.0-5.54","2950333","co37525","norming","","","","","","",""
"2096.3350000001956","","","post_reveal_questions","survey-likert","390","1335045","0.0-6.0-6.54","2950333","co37525","norming","","","{""aha"":5}","[0]","../img/tt/1096tt.jpg","",""
"null","<div style=""font-size:60px;""> </div>","null","fixation","html-keyboard-response","391","1335248","0.0-6.0-0.55","2950333","co37525","norming","","","","","","",""
"null","../img/tt/1290tt.jpg","null","mooney1","image-keyboard-response","392","1338255","0.0-6.0-1.55","2950333","co37525","norming","","","","","","",""
"3668.464999999618","","","post_mooney1_questions","survey-likert","393","1341926","0.0-6.0-2.55","2950333","co37525","norming","","","{""curiosity"":4,""confidence"":2}","[0,1]","../img/tt/1290tt.jpg","",""
"2814.1649999998044","","","recognition","survey-text","394","1344742","0.0-6.0-3.55","2950333","co37525","norming","","","{""guess"":""luchtballon""}","","../img/tt/1290tt.jpg","",""
"null","../img/gs/1290gs.jpg","null","reveal","image-keyboard-response","395","1346746","0.0-6.0-4.55","2950333","co37525","norming","","","","","","",""
"null","../img/tt/1290tt.jpg","null","mooney2","image-keyboard-response","396","1348757","0.0-6.0-5.55","2950333","co37525","norming","","","","","","",""
"3397.8900000001304","","","post_reveal_questions","survey-likert","397","1352158","0.0-6.0-6.55","2950333","co37525","norming","","","{""aha"":4}","[0]","../img/tt/1290tt.jpg","",""
"null","<div style=""font-size:60px;""> </div>","null","fixation","html-keyboard-response","398","1352359","0.0-6.0-0.56","2950333","co37525","norming","","","","","","",""
"null","../img/tt/1146tt.jpg","null","mooney1","image-keyboard-response","399","1355365","0.0-6.0-1.56","2950333","co37525","norming","","","","","","",""
"5318.260000000009","","","post_mooney1_questions","survey-likert","400","1360686","0.0-6.0-2.56","2950333","co37525","norming","","","{""curiosity"":4,""confidence"":2}","[0,1]","../img/tt/1146tt.jpg","",""
"4598.219999999972","","","recognition","survey-text","401","1365286","0.0-6.0-3.56","2950333","co37525","norming","","","{""guess"":""boogschieter""}","","../img/tt/1146tt.jpg","",""
"null","../img/gs/1146gs.jpg","null","reveal","image-keyboard-response","402","1367291","0.0-6.0-4.56","2950333","co37525","norming","","","","","","",""
"null","../img/tt/1146tt.jpg","null","mooney2","image-keyboard-response","403","1369293","0.0-6.0-5.56","2950333","co37525","norming","","","","","","",""
"3183.2649999996647","","","post_reveal_questions","survey-likert","404","1372478","0.0-6.0-6.56","2950333","co37525","norming","","","{""aha"":1}","[0]","../img/tt/1146tt.jpg","",""
"null","<div style=""font-size:60px;""> </div>","null","fixation","html-keyboard-response","405","1372683","0.0-6.0-0.57","2950333","co37525","norming","","","","","","",""
"null","../img/tt/1159tt.jpg","null","mooney1","image-keyboard-response","406","1375687","0.0-6.0-1.57","2950333","co37525","norming","","","","","","",""
"5067.56500000041","","","post_mooney1_questions","survey-likert","407","1380758","0.0-6.0-2.57","2950333","co37525","norming","","","{""curiosity"":4,""confidence"":3}","[0,1]","../img/tt/1159tt.jpg","",""
"3069.9500000001863","","","recognition","survey-text","408","1383829","0.0-6.0-3.57","2950333","co37525","norming","","","{""guess"":""strand""}","","../img/tt/1159tt.jpg","",""
"null","../img/gs/1159gs.jpg","null","reveal","image-keyboard-response","409","1385841","0.0-6.0-4.57","2950333","co37525","norming","","","","","","",""
"null","../img/tt/1159tt.jpg","null","mooney2","image-keyboard-response","410","1387842","0.0-6.0-5.57","2950333","co37525","norming","","","","","","",""
"2684.9799999999814","","","post_reveal_questions","survey-likert","411","1390528","0.0-6.0-6.57","2950333","co37525","norming","","","{""aha"":4}","[0]","../img/tt/1159tt.jpg","",""
"null","<div style=""font-size:60px;""> </div>","null","fixation","html-keyboard-response","412","1390730","0.0-6.0-0.58","2950333","co37525","norming","","","","","","",""
"null","../img/tt/1202tt.jpg","null","mooney1","image-keyboard-response","413","1393733","0.0-6.0-1.58","2950333","co37525","norming","","","","","","",""
"3344.3649999999907","","","post_mooney1_questions","survey-likert","414","1397080","0.0-6.0-2.58","2950333","co37525","norming","","","{""curiosity"":0,""confidence"":1}","[0,1]","../img/tt/1202tt.jpg","",""
"4022.130000000354","","","recognition","survey-text","415","1401104","0.0-6.0-3.58","2950333","co37525","norming","","","{""guess"":""skatepark""}","","../img/tt/1202tt.jpg","",""
"null","../img/gs/1202gs.jpg","null","reveal","image-keyboard-response","416","1403110","0.0-6.0-4.58","2950333","co37525","norming","","","","","","",""
"null","../img/tt/1202tt.jpg","null","mooney2","image-keyboard-response","417","1405118","0.0-6.0-5.58","2950333","co37525","norming","","","","","","",""
"3382.9199999999255","","","post_reveal_questions","survey-likert","418","1408504","0.0-6.0-6.58","2950333","co37525","norming","","","{""aha"":3}","[0]","../img/tt/1202tt.jpg","",""
"null","<div style=""font-size:60px;""> </div>","null","fixation","html-keyboard-response","419","1408705","0.0-6.0-0.59","2950333","co37525","norming","","","","","","",""
"null","../img/tt/055tt.jpg","null","mooney1","image-keyboard-response","420","1411712","0.0-6.0-1.59","2950333","co37525","norming","","","","","","",""
"5317.320000000065","","","post_mooney1_questions","survey-likert","421","1417032","0.0-6.0-2.59","2950333","co37525","norming","","","{""curiosity"":6,""confidence"":0}","[0,1]","../img/tt/055tt.jpg","",""
"4198.084999999963","","","recognition","survey-text","422","1421232","0.0-6.0-3.59","2950333","co37525","norming","","","{""guess"":""vleermuis""}","","../img/tt/055tt.jpg","",""
"null","../img/gs/055gs.jpg","null","reveal","image-keyboard-response","423","1423233","0.0-6.0-4.59","2950333","co37525","norming","","","","","","",""
"null","../img/tt/055tt.jpg","null","mooney2","image-keyboard-response","424","1425240","0.0-6.0-5.59","2950333","co37525","norming","","","","","","",""
"1781.954999999376","","","post_reveal_questions","survey-likert","425","1427024","0.0-6.0-6.59","2950333","co37525","norming","","","{""aha"":4}","[0]","../img/tt/055tt.jpg","",""
"null","<div style=""font-size:60px;""> </div>","null","fixation","html-keyboard-response","426","1427226","0.0-6.0-0.60","2950333","co37525","norming","","","","","","",""
"null","../img/tt/517tt.jpg","null","mooney1","image-keyboard-response","427","1430234","0.0-6.0-1.60","2950333","co37525","norming","","","","","","",""
"4075.4250000000466","","","post_mooney1_questions","survey-likert","428","1434312","0.0-6.0-2.60","2950333","co37525","norming","","","{""curiosity"":4,""confidence"":2}","[0,1]","../img/tt/517tt.jpg","",""
"2278.2949999999255","","","recognition","survey-text","429","1436592","0.0-6.0-3.60","2950333","co37525","norming","","","{""guess"":""vleermuis""}","","../img/tt/517tt.jpg","",""
"null","../img/gs/517gs.jpg","null","reveal","image-keyboard-response","430","1438598","0.0-6.0-4.60","2950333","co37525","norming","","","","","","",""
"null","../img/tt/517tt.jpg","null","mooney2","image-keyboard-response","431","1440607","0.0-6.0-5.60","2950333","co37525","norming","","","","","","",""
"3254.149999999674","","","post_reveal_questions","survey-likert","432","1443864","0.0-6.0-6.60","2950333","co37525","norming","","","{""aha"":3}","[0]","../img/tt/517tt.jpg","",""
"null","<div style=""font-size:60px;""> </div>","null","fixation","html-keyboard-response","433","1444066","0.0-6.0-0.61","2950333","co37525","norming","","","","","","",""
"null","../img/tt/084tt.jpg","null","mooney1","image-keyboard-response","434","1447072","0.0-6.0-1.61","2950333","co37525","norming","","","","","","",""
"4261.870000000345","","","post_mooney1_questions","survey-likert","435","1451336","0.0-6.0-2.61","2950333","co37525","norming","","","{""curiosity"":4,""confidence"":0}","[0,1]","../img/tt/084tt.jpg","",""
"2054.320000000298","","","recognition","survey-text","436","1453392","0.0-6.0-3.61","2950333","co37525","norming","","","{""guess"":""flowers""}","","../img/tt/084tt.jpg","",""
"null","../img/gs/084gs.jpg","null","reveal","image-keyboard-response","437","1455401","0.0-6.0-4.61","2950333","co37525","norming","","","","","","",""
"null","../img/tt/084tt.jpg","null","mooney2","image-keyboard-response","438","1457410","0.0-6.0-5.61","2950333","co37525","norming","","","","","","",""
"2971.799999999348","","","post_reveal_questions","survey-likert","439","1460384","0.0-6.0-6.61","2950333","co37525","norming","","","{""aha"":4}","[0]","../img/tt/084tt.jpg","",""
"null","<div style=""font-size:60px;""> </div>","null","fixation","html-keyboard-response","440","1460586","0.0-6.0-0.62","2950333","co37525","norming","","","","","","",""
"null","../img/tt/1251tt.jpg","null","mooney1","image-keyboard-response","441","1463597","0.0-6.0-1.62","2950333","co37525","norming","","","","","","",""
"4681.83000000054","","","post_mooney1_questions","survey-likert","442","1468280","0.0-6.0-2.62","2950333","co37525","norming","","","{""curiosity"":5,""confidence"":0}","[0,1]","../img/tt/1251tt.jpg","",""
"1190.429999999702","","","recognition","survey-text","443","1469472","0.0-6.0-3.62","2950333","co37525","norming","","","{""guess"":""tent""}","","../img/tt/1251tt.jpg","",""
"null","../img/gs/1251gs.jpg","null","reveal","image-keyboard-response","444","1471481","0.0-6.0-4.62","2950333","co37525","norming","","","","","","",""
"null","../img/tt/1251tt.jpg","null","mooney2","image-keyboard-response","445","1473484","0.0-6.0-5.62","2950333","co37525","norming","","","","","","",""
"2330.364999999758","","","post_reveal_questions","survey-likert","446","1475816","0.0-6.0-6.62","2950333","co37525","norming","","","{""aha"":4}","[0]","../img/tt/1251tt.jpg","",""
"null","<div style=""font-size:60px;""> </div>","null","fixation","html-keyboard-response","447","1476022","0.0-6.0-0.63","2950333","co37525","norming","","","","","","",""
"null","../img/tt/1217tt.jpg","null","mooney1","image-keyboard-response","448","1479025","0.0-6.0-1.63","2950333","co37525","norming","","","","","","",""
"5164.899999999674","","","post_mooney1_questions","survey-likert","449","1484193","0.0-6.0-2.63","2950333","co37525","norming","","","{""curiosity"":6,""confidence"":1}","[0,1]","../img/tt/1217tt.jpg","",""
"1502.0650000006426","","","recognition","survey-text","450","1485696","0.0-6.0-3.63","2950333","co37525","norming","","","{""guess"":""tent""}","","../img/tt/1217tt.jpg","",""
"null","../img/gs/1217gs.jpg","null","reveal","image-keyboard-response","451","1487701","0.0-6.0-4.63","2950333","co37525","norming","","","","","","",""
"null","../img/tt/1217tt.jpg","null","mooney2","image-keyboard-response","452","1489712","0.0-6.0-5.63","2950333","co37525","norming","","","","","","",""
"2421.2249999998603","","","post_reveal_questions","survey-likert","453","1492136","0.0-6.0-6.63","2950333","co37525","norming","","","{""aha"":4}","[0]","../img/tt/1217tt.jpg","",""
"null","<div style=""font-size:60px;""> </div>","null","fixation","html-keyboard-response","454","1492345","0.0-6.0-0.64","2950333","co37525","norming","","","","","","",""
"null","../img/tt/135tt.jpg","null","mooney1","image-keyboard-response","455","1495349","0.0-6.0-1.64","2950333","co37525","norming","","","","","","",""
"4296.370000000112","","","post_mooney1_questions","survey-likert","456","1499649","0.0-6.0-2.64","2950333","co37525","norming","","","{""curiosity"":6,""confidence"":0}","[0,1]","../img/tt/135tt.jpg","",""
"2766.214999999618","","","recognition","survey-text","457","1502416","0.0-6.0-3.64","2950333","co37525","norming","","","{""guess"":""maan""}","","../img/tt/135tt.jpg","",""
"null","../img/gs/135gs.jpg","null","reveal","image-keyboard-response","458","1504420","0.0-6.0-4.64","2950333","co37525","norming","","","","","","",""
"null","../img/tt/135tt.jpg","null","mooney2","image-keyboard-response","459","1506425","0.0-6.0-5.64","2950333","co37525","norming","","","","","","",""
"2604.7649999998976","","","post_reveal_questions","survey-likert","460","1509033","0.0-6.0-6.64","2950333","co37525","norming","","","{""aha"":5}","[0]","../img/tt/135tt.jpg","",""
"null","<div style=""font-size:60px;""> </div>","null","fixation","html-keyboard-response","461","1509239","0.0-6.0-0.65","2950333","co37525","norming","","","","","","",""
"null","../img/tt/105tt.jpg","null","mooney1","image-keyboard-response","462","1512249","0.0-6.0-1.65","2950333","co37525","norming","","","","","","",""
"5349.114999999991","","","post_mooney1_questions","survey-likert","463","1517601","0.0-6.0-2.65","2950333","co37525","norming","","","{""curiosity"":5,""confidence"":2}","[0,1]","../img/tt/105tt.jpg","",""
"3517.8549999999814","","","recognition","survey-text","464","1521121","0.0-6.0-3.65","2950333","co37525","norming","","","{""guess"":""artwork""}","","../img/tt/105tt.jpg","",""
"null","../img/gs/105gs.jpg","null","reveal","image-keyboard-response","465","1523128","0.0-6.0-4.65","2950333","co37525","norming","","","","","","",""
"null","../img/tt/105tt.jpg","null","mooney2","image-keyboard-response","466","1525137","0.0-6.0-5.65","2950333","co37525","norming","","","","","","",""
"2477.5500000005122","","","post_reveal_questions","survey-likert","467","1527617","0.0-6.0-6.65","2950333","co37525","norming","","","{""aha"":4}","[0]","../img/tt/105tt.jpg","",""
"null","<div style=""font-size:60px;""> </div>","null","fixation","html-keyboard-response","468","1527818","0.0-6.0-0.66","2950333","co37525","norming","","","","","","",""
"null","../img/tt/094tt.jpg","null","mooney1","image-keyboard-response","469","1530824","0.0-6.0-1.66","2950333","co37525","norming","","","","","","",""
"3893.9799999999814","","","post_mooney1_questions","survey-likert","470","1534721","0.0-6.0-2.66","2950333","co37525","norming","","","{""curiosity"":5,""confidence"":2}","[0,1]","../img/tt/094tt.jpg","",""
"1101.595000000205","","","recognition","survey-text","471","1535825","0.0-6.0-3.66","2950333","co37525","norming","","","{""guess"":""cow""}","","../img/tt/094tt.jpg","",""
"null","../img/gs/094gs.jpg","null","reveal","image-keyboard-response","472","1537825","0.0-6.0-4.66","2950333","co37525","norming","","","","","","",""
"null","../img/tt/094tt.jpg","null","mooney2","image-keyboard-response","473","1539826","0.0-6.0-5.66","2950333","co37525","norming","","","","","","",""
"1973.7900000000373","","","post_reveal_questions","survey-likert","474","1541801","0.0-6.0-6.66","2950333","co37525","norming","","","{""aha"":5}","[0]","../img/tt/094tt.jpg","",""
"null","<div style=""font-size:60px;""> </div>","null","fixation","html-keyboard-response","475","1542005","0.0-6.0-0.67","2950333","co37525","norming","","","","","","",""
"null","../img/tt/405tt.jpg","null","mooney1","image-keyboard-response","476","1545010","0.0-6.0-1.67","2950333","co37525","norming","","","","","","",""
"3548.969999999972","","","post_mooney1_questions","survey-likert","477","1548561","0.0-6.0-2.67","2950333","co37525","norming","","","{""curiosity"":0,""confidence"":0}","[0,1]","../img/tt/405tt.jpg","",""
"1662.139999999432","","","recognition","survey-text","478","1550225","0.0-6.0-3.67","2950333","co37525","norming","","","{""guess"":""koe""}","","../img/tt/405tt.jpg","",""
"null","../img/gs/405gs.jpg","null","reveal","image-keyboard-response","479","1552231","0.0-6.0-4.67","2950333","co37525","norming","","","","","","",""
"null","../img/tt/405tt.jpg","null","mooney2","image-keyboard-response","480","1554235","0.0-6.0-5.67","2950333","co37525","norming","","","","","","",""
"1971.994999999879","","","post_reveal_questions","survey-likert","481","1556209","0.0-6.0-6.67","2950333","co37525","norming","","","{""aha"":0}","[0]","../img/tt/405tt.jpg","",""
"null","<div style=""font-size:60px;""> </div>","null","fixation","html-keyboard-response","482","1556410","0.0-6.0-0.68","2950333","co37525","norming","","","","","","",""
"null","../img/tt/123tt.jpg","null","mooney1","image-keyboard-response","483","1559420","0.0-6.0-1.68","2950333","co37525","norming","","","","","","",""
"4274.304999999935","","","post_mooney1_questions","survey-likert","484","1563697","0.0-6.0-2.68","2950333","co37525","norming","","","{""curiosity"":4,""confidence"":3}","[0,1]","../img/tt/123tt.jpg","",""
"2046.0649999994785","","","recognition","survey-text","485","1565745","0.0-6.0-3.68","2950333","co37525","norming","","","{""guess"":""boekentas""}","","../img/tt/123tt.jpg","",""
"null","../img/gs/123gs.jpg","null","reveal","image-keyboard-response","486","1567750","0.0-6.0-4.68","2950333","co37525","norming","","","","","","",""
"null","../img/tt/123tt.jpg","null","mooney2","image-keyboard-response","487","1569753","0.0-6.0-5.68","2950333","co37525","norming","","","","","","",""
"3782.890000000596","","","post_reveal_questions","survey-likert","488","1573538","0.0-6.0-6.68","2950333","co37525","norming","","","{""aha"":3}","[0]","../img/tt/123tt.jpg","",""
"null","<div style=""font-size:60px;""> </div>","null","fixation","html-keyboard-response","489","1573747","0.0-6.0-0.69","2950333","co37525","norming","","","","","","",""
"null","../img/tt/522tt.jpg","null","mooney1","image-keyboard-response","490","1576752","0.0-6.0-1.69","2950333","co37525","norming","","","","","","",""
"3375.1700000001583","","","post_mooney1_questions","survey-likert","491","1580130","0.0-6.0-2.69","2950333","co37525","norming","","","{""curiosity"":6,""confidence"":0}","[0,1]","../img/tt/522tt.jpg","",""
"6797.989999999991","","","recognition","survey-text","492","1586930","0.0-6.0-3.69","2950333","co37525","norming","","","{""guess"":"".""}","","../img/tt/522tt.jpg","",""
"null","../img/gs/522gs.jpg","null","reveal","image-keyboard-response","493","1588932","0.0-6.0-4.69","2950333","co37525","norming","","","","","","",""
"null","../img/tt/522tt.jpg","null","mooney2","image-keyboard-response","494","1590942","0.0-6.0-5.69","2950333","co37525","norming","","","","","","",""
"3809.3600000003353","","","post_reveal_questions","survey-likert","495","1594754","0.0-6.0-6.69","2950333","co37525","norming","","","{""aha"":4}","[0]","../img/tt/522tt.jpg","",""
"null","<div style=""font-size:60px;""> </div>","null","fixation","html-keyboard-response","496","1594959","0.0-6.0-0.70","2950333","co37525","norming","","","","","","",""
"null","../img/tt/1084tt.jpg","null","mooney1","image-keyboard-response","497","1597967","0.0-6.0-1.70","2950333","co37525","norming","","","","","","",""
"4608.925000000512","","","post_mooney1_questions","survey-likert","498","1602578","0.0-6.0-2.70","2950333","co37525","norming","","","{""curiosity"":5,""confidence"":0}","[0,1]","../img/tt/1084tt.jpg","",""
"2021.7650000003632","","","recognition","survey-text","499","1604602","0.0-6.0-3.70","2950333","co37525","norming","","","{""guess"":""""}","","../img/tt/1084tt.jpg","",""
"null","../img/gs/1084gs.jpg","null","reveal","image-keyboard-response","500","1606603","0.0-6.0-4.70","2950333","co37525","norming","","","","","","",""
"null","../img/tt/1084tt.jpg","null","mooney2","image-keyboard-response","501","1608609","0.0-6.0-5.70","2950333","co37525","norming","","","","","","",""
"4726.555000000168","","","post_reveal_questions","survey-likert","502","1613338","0.0-6.0-6.70","2950333","co37525","norming","","","{""aha"":3}","[0]","../img/tt/1084tt.jpg","",""
"null","<div style=""font-size:60px;""> </div>","null","fixation","html-keyboard-response","503","1613541","0.0-6.0-0.71","2950333","co37525","norming","","","","","","",""
"null","../img/tt/010tt.jpg","null","mooney1","image-keyboard-response","504","1616550","0.0-6.0-1.71","2950333","co37525","norming","","","","","","",""
"6201.3950000002515","","","post_mooney1_questions","survey-likert","505","1622754","0.0-6.0-2.71","2950333","co37525","norming","","","{""curiosity"":5,""confidence"":0}","[0,1]","../img/tt/010tt.jpg","",""
"7701.804999999702","","","recognition","survey-text","506","1630453","0.0-6.0-3.71","2950333","co37525","norming","","","{""guess"":""""}","","../img/tt/010tt.jpg","",""
"null","../img/gs/010gs.jpg","null","reveal","image-keyboard-response","507","1632463","0.0-6.0-4.71","2950333","co37525","norming","","","","","","",""
"null","../img/tt/010tt.jpg","null","mooney2","image-keyboard-response","508","1634465","0.0-6.0-5.71","2950333","co37525","norming","","","","","","",""
"2258.045000000624","","","post_reveal_questions","survey-likert","509","1636725","0.0-6.0-6.71","2950333","co37525","norming","","","{""aha"":0}","[0]","../img/tt/010tt.jpg","",""
"null","<div style=""font-size:60px;""> </div>","null","fixation","html-keyboard-response","510","1636926","0.0-6.0-0.72","2950333","co37525","norming","","","","","","",""
"null","../img/tt/1130tt.jpg","null","mooney1","image-keyboard-response","511","1639934","0.0-6.0-1.72","2950333","co37525","norming","","","","","","",""
"4037.6849999993574","","","post_mooney1_questions","survey-likert","512","1643973","0.0-6.0-2.72","2950333","co37525","norming","","","{""curiosity"":4,""confidence"":0}","[0,1]","../img/tt/1130tt.jpg","",""
"810.3350000001956","","","recognition","survey-text","513","1644785","0.0-6.0-3.72","2950333","co37525","norming","","","{""guess"":""""}","","../img/tt/1130tt.jpg","",""
"null","../img/gs/1130gs.jpg","null","reveal","image-keyboard-response","514","1646788","0.0-6.0-4.72","2950333","co37525","norming","","","","","","",""
"null","../img/tt/1130tt.jpg","null","mooney2","image-keyboard-response","515","1648795","0.0-6.0-5.72","2950333","co37525","norming","","","","","","",""
"2007.2849999996834","","","post_reveal_questions","survey-likert","516","1650805","0.0-6.0-6.72","2950333","co37525","norming","","","{""aha"":0}","[0]","../img/tt/1130tt.jpg","",""
"null","<div style=""font-size:60px;""> </div>","null","fixation","html-keyboard-response","517","1651007","0.0-6.0-0.73","2950333","co37525","norming","","","","","","",""
"null","../img/tt/096tt.jpg","null","mooney1","image-keyboard-response","518","1654017","0.0-6.0-1.73","2950333","co37525","norming","","","","","","",""
"3553.445000000531","","","post_mooney1_questions","survey-likert","519","1657573","0.0-6.0-2.73","2950333","co37525","norming","","","{""curiosity"":4,""confidence"":1}","[0,1]","../img/tt/096tt.jpg","",""
"2950.2750000001397","","","recognition","survey-text","520","1660525","0.0-6.0-3.73","2950333","co37525","norming","","","{""guess"":""trainstation""}","","../img/tt/096tt.jpg","",""
"null","../img/gs/096gs.jpg","null","reveal","image-keyboard-response","521","1662530","0.0-6.0-4.73","2950333","co37525","norming","","","","","","",""
"null","../img/tt/096tt.jpg","null","mooney2","image-keyboard-response","522","1664535","0.0-6.0-5.73","2950333","co37525","norming","","","","","","",""
"2291.8349999999627","","","post_reveal_questions","survey-likert","523","1666829","0.0-6.0-6.73","2950333","co37525","norming","","","{""aha"":3}","[0]","../img/tt/096tt.jpg","",""
"null","<div style=""font-size:60px;""> </div>","null","fixation","html-keyboard-response","524","1667032","0.0-6.0-0.74","2950333","co37525","norming","","","","","","",""
"null","../img/tt/1227tt.jpg","null","mooney1","image-keyboard-response","525","1670043","0.0-6.0-1.74","2950333","co37525","norming","","","","","","",""
"3255.41999999946","","","post_mooney1_questions","survey-likert","526","1673301","0.0-6.0-2.74","2950333","co37525","norming","","","{""curiosity"":3,""confidence"":0}","[0,1]","../img/tt/1227tt.jpg","",""
"982.0900000003166","","","recognition","survey-text","527","1674285","0.0-6.0-3.74","2950333","co37525","norming","","","{""guess"":""""}","","../img/tt/1227tt.jpg","",""
"null","../img/gs/1227gs.jpg","null","reveal","image-keyboard-response","528","1676293","0.0-6.0-4.74","2950333","co37525","norming","","","","","","",""
"null","../img/tt/1227tt.jpg","null","mooney2","image-keyboard-response","529","1678295","0.0-6.0-5.74","2950333","co37525","norming","","","","","","",""
"1475.4849999998696","","","post_reveal_questions","survey-likert","530","1679773","0.0-6.0-6.74","2950333","co37525","norming","","","{""aha"":0}","[0]","../img/tt/1227tt.jpg","",""
"null","<div style=""font-size:60px;""> </div>","null","fixation","html-keyboard-response","531","1679974","0.0-6.0-0.75","2950333","co37525","norming","","","","","","",""
"null","../img/tt/1142tt.jpg","null","mooney1","image-keyboard-response","532","1682980","0.0-6.0-1.75","2950333","co37525","norming","","","","","","",""
"4446.659999999683","","","post_mooney1_questions","survey-likert","533","1687429","0.0-6.0-2.75","2950333","co37525","norming","","","{""curiosity"":4,""confidence"":1}","[0,1]","../img/tt/1142tt.jpg","",""
"5014.030000000261","","","recognition","survey-text","534","1692451","0.0-6.0-3.75","2950333","co37525","norming","","","{""guess"":""verspringer ""}","","../img/tt/1142tt.jpg","",""
"null","../img/gs/1142gs.jpg","null","reveal","image-keyboard-response","535","1694461","0.0-6.0-4.75","2950333","co37525","norming","","","","","","",""
"null","../img/tt/1142tt.jpg","null","mooney2","image-keyboard-response","536","1696469","0.0-6.0-5.75","2950333","co37525","norming","","","","","","",""
"3940.244999999879","","","post_reveal_questions","survey-likert","537","1700411","0.0-6.0-6.75","2950333","co37525","norming","","","{""aha"":3}","[0]","../img/tt/1142tt.jpg","",""
"null","<div style=""font-size:60px;""> </div>","null","fixation","html-keyboard-response","538","1700613","0.0-6.0-0.76","2950333","co37525","norming","","","","","","",""
"null","../img/tt/584tt.jpg","null","mooney1","image-keyboard-response","539","1703621","0.0-6.0-1.76","2950333","co37525","norming","","","","","","",""
"4001.424999999348","","","post_mooney1_questions","survey-likert","540","1707627","0.0-6.0-2.76","2950333","co37525","norming","","","{""curiosity"":4,""confidence"":1}","[0,1]","../img/tt/584tt.jpg","",""
"2966.2650000001304","","","recognition","survey-text","541","1710595","0.0-6.0-3.76","2950333","co37525","norming","","","{""guess"":""armen""}","","../img/tt/584tt.jpg","",""
"null","../img/gs/584gs.jpg","null","reveal","image-keyboard-response","542","1712598","0.0-6.0-4.76","2950333","co37525","norming","","","","","","",""
"null","../img/tt/584tt.jpg","null","mooney2","image-keyboard-response","543","1714600","0.0-6.0-5.76","2950333","co37525","norming","","","","","","",""
"3240.3000000005122","","","post_reveal_questions","survey-likert","544","1717843","0.0-6.0-6.76","2950333","co37525","norming","","","{""aha"":2}","[0]","../img/tt/584tt.jpg","",""
"null","<div style=""font-size:60px;""> </div>","null","fixation","html-keyboard-response","545","1718048","0.0-6.0-0.77","2950333","co37525","norming","","","","","","",""
"null","../img/tt/1247tt.jpg","null","mooney1","image-keyboard-response","546","1721060","0.0-6.0-1.77","2950333","co37525","norming","","","","","","",""
"5052.784999999683","","","post_mooney1_questions","survey-likert","547","1726115","0.0-6.0-2.77","2950333","co37525","norming","","","{""curiosity"":0,""confidence"":0}","[0,1]","../img/tt/1247tt.jpg","",""
"2045.7949999999255","","","recognition","survey-text","548","1728163","0.0-6.0-3.77","2950333","co37525","norming","","","{""guess"":""""}","","../img/tt/1247tt.jpg","",""
"null","../img/gs/1247gs.jpg","null","reveal","image-keyboard-response","549","1730173","0.0-6.0-4.77","2950333","co37525","norming","","","","","","",""
"null","../img/tt/1247tt.jpg","null","mooney2","image-keyboard-response","550","1732180","0.0-6.0-5.77","2950333","co37525","norming","","","","","","",""
"1723.9100000006147","","","post_reveal_questions","survey-likert","551","1733907","0.0-6.0-6.77","2950333","co37525","norming","","","{""aha"":0}","[0]","../img/tt/1247tt.jpg","",""
