"rt","stimulus","key_press","test_part","trial_type","trial_index","time_elapsed","internal_node_id","totalTime","subject","experiment_name","button_pressed","success","responses","question_order","currentStim","old","correct"
"26681.15499999999","Welcome to the experiment. This is an online experiment so please don't close the tab/window until we say goodbye.  Press any key to begin.","32","instructions","html-keyboard-response","0","26910","0.0-0.0","3551485","co37660","norming","","","","","","",""
"147086.42999999996","<div style='word-wrap: break-word; width: 900px'><h3>Please consider this information carefully before deciding whether to participate in this research</h3><ul style='text-align: left; font-size: .8em;'><li><b>Purpose of the research</b>: To examine how people process images.</li><li><b>What you will do in this research</b>:  Stimuli (images) will be presented on the computer and you will be asked different questions about them.</li><li><b>Time required</b>: Participation will take between 45 and 60 minutes to complete.</li><li><b>Risks</b>:  There are no anticipated risks associated with participating in this study. The effects of participating should be comparable to those you would experience from viewing a computer monitor for 30 minutes and using a mouse or keyboard.</li><li><b>Benefits</b>:  This study provides no benefits to you individually except for the credit. The study provides important information about the nature of perception and learning.</li><li><b>Confidentiality</b>:  Your participation in this study will remain confidential. No personally identifiable information will be associated with your data. Your de-identified data may be shared with other researchers and used in future projects.</li><li><b>Participation and withdrawal</b>:  Your participation in this study is completely voluntary and you may refuse to participate or you may choose to withdraw at any time without penalty.</li><li><b>How to contact the researchers</b>: If you have questions or concerns about your participation or payment, or want to request a summary of research findings, please contact Sander Van de Cruys (KU Leuven), at sander.vandecruys@kuleuven.be.</li></ul><p>The nature and purpose of this research have been sufficiently explained and I agree to participate in this study.  I understand that I am free to withdraw at any time without incurring any penalty.</p><p>Please consent by clicking the button below to continue. Otherwise, please exit the study at this time.</p></div>","","instructions","html-button-response","1","174080","0.0-1.0","3551485","co37660","norming","0","","","","","",""
"","","","instructions","fullscreen","2","200736","0.0-2.0","3551485","co37660","norming","","true","","","","",""
"36782.24000000002","","","sona","survey-html-form","3","237528","0.0-3.0","3551485","co37660","norming","","","[{""name"":""sonaid"",""value"":""37660""},{""name"":""debrief"",""value"":""no""},{""name"":""datajoin"",""value"":""yes""}]","","","",""
"83869.07999999993","<div style='word-wrap: break-word; width: 900px'><h3>Instructions</h3><p>This experiment will have 3 parts. In the first part you will see a series of distorted images like the one below on the left. As you can see in the righthand image, the distorted images are derived from actual photographs. In what follows, you will <strong>briefly</strong> be presented with <strong>only</strong> the distorted image.</p> <div style='float: left; margin-right: 20px;'><img src='../img/018tt.jpg' height='250' width='250'></img></div><div style='float: right; margin-left: 20px;'><img src='../img/018gs.jpg' height='250' width='250'></img></div><p>Subsequently you will be asked a few questions about the image: One question on how <strong>curious</strong> you are about the solution and one on how <strong>confident</strong> you are that you know the solution.</p>Next, we ask you to make a guess on what is in the image. Note that it is OK to name just the <strong>basic level category</strong>. For example when you see a parrot in the image, 'parrot' will obviously be a correct answer but also correct is 'bird'. However, 'animal' will <strong>not</strong> be counted as a correct response. For the example above, 'rose' would be correct or 'flower', but not 'plant'. When soccer players are depicted, 'soccer', 'football', 'soccer players' will be correct, but not 'humans', 'outdoors', or 'sports'. You do not need to describe the image in full, just name the main object in it <strong>in one or two words</strong>. All images depict objects from one of the following broad level categories: animals, inanimate objects, plants, sports, vehicles, and food. Recognizing means knowing <strong>more</strong> than these broad labels for a given image. But we always encourage you to <strong>make a guess</strong> if you can. Note that you are allowed to use <strong>Dutch and English</strong> in your answers, whatever comes easiest for you.</p><p>Press any key to continue.</p></div>","32","instructions","html-keyboard-response","4","321402","0.0-4.0","3551485","co37660","norming","","","","","","",""
"248220.89999999997","<div style='word-wrap: break-word; width: 900px'><h3>Instructions</h3> <p>Next, the solution image will be revealed to you and you'll be asked to indicate how strong your <strong>aha-experience</strong> was after seeing the solution. This describes the positive feeling of the 'click' you sometimes experience, when the pieces of the 'puzzle' fall together and you suddenly have 'insight' in the image.</p><img src='aha.jpg' height='188' width='250'></img><p>Note that there are no right or wrong answers. We are interested in what <strong>you</strong> see in the image and how <strong>you</strong> feel about it.</p><p>Press any key to start the experiment.</p></div>","32","instructions","html-keyboard-response","5","569626","0.0-5.0","3551485","co37660","norming","","","","","","",""
"null","<div style=""font-size:60px;""> </div>","null","fixation","html-keyboard-response","6","569828","0.0-6.0-0.0","3551485","co37660","norming","","","","","","",""
"null","../img/tt/126tt.jpg","null","mooney1","image-keyboard-response","7","572834","0.0-6.0-1.0","3551485","co37660","norming","","","","","","",""
"12054.249999999884","","","post_mooney1_questions","survey-likert","8","584890","0.0-6.0-2.0","3551485","co37660","norming","","","{""curiosity"":3,""confidence"":6}","[0,1]","../img/tt/126tt.jpg","",""
"10781.009999999893","","","recognition","survey-text","9","595673","0.0-6.0-3.0","3551485","co37660","norming","","","{""guess"":""cow""}","","../img/tt/126tt.jpg","",""
"null","../img/gs/126gs.jpg","null","reveal","image-keyboard-response","10","597676","0.0-6.0-4.0","3551485","co37660","norming","","","","","","",""
"null","../img/tt/126tt.jpg","null","mooney2","image-keyboard-response","11","599681","0.0-6.0-5.0","3551485","co37660","norming","","","","","","",""
"5271.480000000098","","","post_reveal_questions","survey-likert","12","604953","0.0-6.0-6.0","3551485","co37660","norming","","","{""aha"":2}","[0]","../img/tt/126tt.jpg","",""
"null","<div style=""font-size:60px;""> </div>","null","fixation","html-keyboard-response","13","605162","0.0-6.0-0.1","3551485","co37660","norming","","","","","","",""
"null","../img/tt/456tt.jpg","null","mooney1","image-keyboard-response","14","608163","0.0-6.0-1.1","3551485","co37660","norming","","","","","","",""
"6693.729999999981","","","post_mooney1_questions","survey-likert","15","614857","0.0-6.0-2.1","3551485","co37660","norming","","","{""curiosity"":5,""confidence"":2}","[0,1]","../img/tt/456tt.jpg","",""
"3622.219999999972","","","recognition","survey-text","16","618481","0.0-6.0-3.1","3551485","co37660","norming","","","{""guess"":""foot""}","","../img/tt/456tt.jpg","",""
"null","../img/gs/456gs.jpg","null","reveal","image-keyboard-response","17","620483","0.0-6.0-4.1","3551485","co37660","norming","","","","","","",""
"null","../img/tt/456tt.jpg","null","mooney2","image-keyboard-response","18","622484","0.0-6.0-5.1","3551485","co37660","norming","","","","","","",""
"3708.170000000042","","","post_reveal_questions","survey-likert","19","626193","0.0-6.0-6.1","3551485","co37660","norming","","","{""aha"":5}","[0]","../img/tt/456tt.jpg","",""
"null","<div style=""font-size:60px;""> </div>","null","fixation","html-keyboard-response","20","626399","0.0-6.0-0.2","3551485","co37660","norming","","","","","","",""
"null","../img/tt/1118tt.jpg","null","mooney1","image-keyboard-response","21","629402","0.0-6.0-1.2","3551485","co37660","norming","","","","","","",""
"6317.790000000037","","","post_mooney1_questions","survey-likert","22","635727","0.0-6.0-2.2","3551485","co37660","norming","","","{""curiosity"":5,""confidence"":1}","[0,1]","../img/tt/1118tt.jpg","",""
"3806.0600000001723","","","recognition","survey-text","23","639535","0.0-6.0-3.2","3551485","co37660","norming","","","{""guess"":""car""}","","../img/tt/1118tt.jpg","",""
"null","../img/gs/1118gs.jpg","null","reveal","image-keyboard-response","24","641537","0.0-6.0-4.2","3551485","co37660","norming","","","","","","",""
"null","../img/tt/1118tt.jpg","null","mooney2","image-keyboard-response","25","643538","0.0-6.0-5.2","3551485","co37660","norming","","","","","","",""
"3212.1550000001444","","","post_reveal_questions","survey-likert","26","646751","0.0-6.0-6.2","3551485","co37660","norming","","","{""aha"":6}","[0]","../img/tt/1118tt.jpg","",""
"null","<div style=""font-size:60px;""> </div>","null","fixation","html-keyboard-response","27","646958","0.0-6.0-0.3","3551485","co37660","norming","","","","","","",""
"null","../img/tt/031tt.jpg","null","mooney1","image-keyboard-response","28","649963","0.0-6.0-1.3","3551485","co37660","norming","","","","","","",""
"5034.724999999977","","","post_mooney1_questions","survey-likert","29","654999","0.0-6.0-2.3","3551485","co37660","norming","","","{""curiosity"":5,""confidence"":1}","[0,1]","../img/tt/031tt.jpg","",""
"6365.944999999832","","","recognition","survey-text","30","661367","0.0-6.0-3.3","3551485","co37660","norming","","","{""guess"":""mountain""}","","../img/tt/031tt.jpg","",""
"null","../img/gs/031gs.jpg","null","reveal","image-keyboard-response","31","663371","0.0-6.0-4.3","3551485","co37660","norming","","","","","","",""
"null","../img/tt/031tt.jpg","null","mooney2","image-keyboard-response","32","665372","0.0-6.0-5.3","3551485","co37660","norming","","","","","","",""
"2665.6899999997113","","","post_reveal_questions","survey-likert","33","668039","0.0-6.0-6.3","3551485","co37660","norming","","","{""aha"":5}","[0]","../img/tt/031tt.jpg","",""
"null","<div style=""font-size:60px;""> </div>","null","fixation","html-keyboard-response","34","668248","0.0-6.0-0.4","3551485","co37660","norming","","","","","","",""
"null","../img/tt/1200tt.jpg","null","mooney1","image-keyboard-response","35","671258","0.0-6.0-1.4","3551485","co37660","norming","","","","","","",""
"4690.610000000102","","","post_mooney1_questions","survey-likert","36","675951","0.0-6.0-2.4","3551485","co37660","norming","","","{""curiosity"":5,""confidence"":2}","[0,1]","../img/tt/1200tt.jpg","",""
"3414.29999999993","","","recognition","survey-text","37","679367","0.0-6.0-3.4","3551485","co37660","norming","","","{""guess"":""boat""}","","../img/tt/1200tt.jpg","",""
"null","../img/gs/1200gs.jpg","null","reveal","image-keyboard-response","38","681371","0.0-6.0-4.4","3551485","co37660","norming","","","","","","",""
"null","../img/tt/1200tt.jpg","null","mooney2","image-keyboard-response","39","683375","0.0-6.0-5.4","3551485","co37660","norming","","","","","","",""
"3014.019999999786","","","post_reveal_questions","survey-likert","40","686391","0.0-6.0-6.4","3551485","co37660","norming","","","{""aha"":1}","[0]","../img/tt/1200tt.jpg","",""
"null","<div style=""font-size:60px;""> </div>","null","fixation","html-keyboard-response","41","686600","0.0-6.0-0.5","3551485","co37660","norming","","","","","","",""
"null","../img/tt/1012tt.jpg","null","mooney1","image-keyboard-response","42","689610","0.0-6.0-1.5","3551485","co37660","norming","","","","","","",""
"4786.264999999898","","","post_mooney1_questions","survey-likert","43","694396","0.0-6.0-2.5","3551485","co37660","norming","","","{""curiosity"":5,""confidence"":2}","[0,1]","../img/tt/1012tt.jpg","",""
"7694.444999999832","","","recognition","survey-text","44","702092","0.0-6.0-3.5","3551485","co37660","norming","","","{""guess"":""neushoorn""}","","../img/tt/1012tt.jpg","",""
"null","../img/gs/1012gs.jpg","null","reveal","image-keyboard-response","45","704094","0.0-6.0-4.5","3551485","co37660","norming","","","","","","",""
"null","../img/tt/1012tt.jpg","null","mooney2","image-keyboard-response","46","706105","0.0-6.0-5.5","3551485","co37660","norming","","","","","","",""
"3369.494999999879","","","post_reveal_questions","survey-likert","47","709476","0.0-6.0-6.5","3551485","co37660","norming","","","{""aha"":5}","[0]","../img/tt/1012tt.jpg","",""
"null","<div style=""font-size:60px;""> </div>","null","fixation","html-keyboard-response","48","709683","0.0-6.0-0.6","3551485","co37660","norming","","","","","","",""
"null","../img/tt/301tt.jpg","null","mooney1","image-keyboard-response","49","712685","0.0-6.0-1.6","3551485","co37660","norming","","","","","","",""
"6756.859999999986","","","post_mooney1_questions","survey-likert","50","719445","0.0-6.0-2.6","3551485","co37660","norming","","","{""curiosity"":5,""confidence"":0}","[0,1]","../img/tt/301tt.jpg","",""
"990.2999999999302","","","recognition","survey-text","51","720436","0.0-6.0-3.6","3551485","co37660","norming","","","{""guess"":""""}","","../img/tt/301tt.jpg","",""
"null","../img/gs/301gs.jpg","null","reveal","image-keyboard-response","52","722439","0.0-6.0-4.6","3551485","co37660","norming","","","","","","",""
"null","../img/tt/301tt.jpg","null","mooney2","image-keyboard-response","53","724440","0.0-6.0-5.6","3551485","co37660","norming","","","","","","",""
"3067.7299999999814","","","post_reveal_questions","survey-likert","54","727509","0.0-6.0-6.6","3551485","co37660","norming","","","{""aha"":6}","[0]","../img/tt/301tt.jpg","",""
"null","<div style=""font-size:60px;""> </div>","null","fixation","html-keyboard-response","55","727718","0.0-6.0-0.7","3551485","co37660","norming","","","","","","",""
"null","../img/tt/108tt.jpg","null","mooney1","image-keyboard-response","56","730726","0.0-6.0-1.7","3551485","co37660","norming","","","","","","",""
"7316.29000000027","","","post_mooney1_questions","survey-likert","57","738045","0.0-6.0-2.7","3551485","co37660","norming","","","{""curiosity"":5,""confidence"":3}","[0,1]","../img/tt/108tt.jpg","",""
"3917.905000000028","","","recognition","survey-text","58","741964","0.0-6.0-3.7","3551485","co37660","norming","","","{""guess"":""monkey""}","","../img/tt/108tt.jpg","",""
"null","../img/gs/108gs.jpg","null","reveal","image-keyboard-response","59","743965","0.0-6.0-4.7","3551485","co37660","norming","","","","","","",""
"null","../img/tt/108tt.jpg","null","mooney2","image-keyboard-response","60","745967","0.0-6.0-5.7","3551485","co37660","norming","","","","","","",""
"3939.1300000000047","","","post_reveal_questions","survey-likert","61","749909","0.0-6.0-6.7","3551485","co37660","norming","","","{""aha"":3}","[0]","../img/tt/108tt.jpg","",""
"null","<div style=""font-size:60px;""> </div>","null","fixation","html-keyboard-response","62","750116","0.0-6.0-0.8","3551485","co37660","norming","","","","","","",""
"null","../img/tt/590tt.jpg","null","mooney1","image-keyboard-response","63","753135","0.0-6.0-1.8","3551485","co37660","norming","","","","","","",""
"4614.769999999902","","","post_mooney1_questions","survey-likert","64","757752","0.0-6.0-2.8","3551485","co37660","norming","","","{""curiosity"":5,""confidence"":1}","[0,1]","../img/tt/590tt.jpg","",""
"3910.1300000000047","","","recognition","survey-text","65","761664","0.0-6.0-3.8","3551485","co37660","norming","","","{""guess"":""graan""}","","../img/tt/590tt.jpg","",""
"null","../img/gs/590gs.jpg","null","reveal","image-keyboard-response","66","763665","0.0-6.0-4.8","3551485","co37660","norming","","","","","","",""
"null","../img/tt/590tt.jpg","null","mooney2","image-keyboard-response","67","765673","0.0-6.0-5.8","3551485","co37660","norming","","","","","","",""
"3613.6249999998836","","","post_reveal_questions","survey-likert","68","769288","0.0-6.0-6.8","3551485","co37660","norming","","","{""aha"":6}","[0]","../img/tt/590tt.jpg","",""
"null","<div style=""font-size:60px;""> </div>","null","fixation","html-keyboard-response","69","769493","0.0-6.0-0.9","3551485","co37660","norming","","","","","","",""
"null","../img/tt/1072tt.jpg","null","mooney1","image-keyboard-response","70","772504","0.0-6.0-1.9","3551485","co37660","norming","","","","","","",""
"7343.134999999893","","","post_mooney1_questions","survey-likert","71","779849","0.0-6.0-2.9","3551485","co37660","norming","","","{""curiosity"":5,""confidence"":2}","[0,1]","../img/tt/1072tt.jpg","",""
"3644.3100000001723","","","recognition","survey-text","72","783496","0.0-6.0-3.9","3551485","co37660","norming","","","{""guess"":""farm""}","","../img/tt/1072tt.jpg","",""
"null","../img/gs/1072gs.jpg","null","reveal","image-keyboard-response","73","785501","0.0-6.0-4.9","3551485","co37660","norming","","","","","","",""
"null","../img/tt/1072tt.jpg","null","mooney2","image-keyboard-response","74","787503","0.0-6.0-5.9","3551485","co37660","norming","","","","","","",""
"3319.2900000001537","","","post_reveal_questions","survey-likert","75","790824","0.0-6.0-6.9","3551485","co37660","norming","","","{""aha"":6}","[0]","../img/tt/1072tt.jpg","",""
"null","<div style=""font-size:60px;""> </div>","null","fixation","html-keyboard-response","76","791031","0.0-6.0-0.10","3551485","co37660","norming","","","","","","",""
"null","../img/tt/1097tt.jpg","null","mooney1","image-keyboard-response","77","794036","0.0-6.0-1.10","3551485","co37660","norming","","","","","","",""
"6466.4550000000745","","","post_mooney1_questions","survey-likert","78","800505","0.0-6.0-2.10","3551485","co37660","norming","","","{""curiosity"":5,""confidence"":3}","[0,1]","../img/tt/1097tt.jpg","",""
"6518.020000000019","","","recognition","survey-text","79","807024","0.0-6.0-3.10","3551485","co37660","norming","","","{""guess"":""wandelaar""}","","../img/tt/1097tt.jpg","",""
"null","../img/gs/1097gs.jpg","null","reveal","image-keyboard-response","80","809026","0.0-6.0-4.10","3551485","co37660","norming","","","","","","",""
"null","../img/tt/1097tt.jpg","null","mooney2","image-keyboard-response","81","811030","0.0-6.0-5.10","3551485","co37660","norming","","","","","","",""
"3640.1750000000466","","","post_reveal_questions","survey-likert","82","814669","0.0-6.0-6.10","3551485","co37660","norming","","","{""aha"":6}","[0]","../img/tt/1097tt.jpg","",""
"null","<div style=""font-size:60px;""> </div>","null","fixation","html-keyboard-response","83","814877","0.0-6.0-0.11","3551485","co37660","norming","","","","","","",""
"null","../img/tt/1224tt.jpg","null","mooney1","image-keyboard-response","84","817881","0.0-6.0-1.11","3551485","co37660","norming","","","","","","",""
"5770.405000000028","","","post_mooney1_questions","survey-likert","85","823654","0.0-6.0-2.11","3551485","co37660","norming","","","{""curiosity"":5,""confidence"":2}","[0,1]","../img/tt/1224tt.jpg","",""
"7158.140000000014","","","recognition","survey-text","86","830813","0.0-6.0-3.11","3551485","co37660","norming","","","{""guess"":""playing child""}","","../img/tt/1224tt.jpg","",""
"null","../img/gs/1224gs.jpg","null","reveal","image-keyboard-response","87","832816","0.0-6.0-4.11","3551485","co37660","norming","","","","","","",""
"null","../img/tt/1224tt.jpg","null","mooney2","image-keyboard-response","88","834827","0.0-6.0-5.11","3551485","co37660","norming","","","","","","",""
"6048.665000000037","","","post_reveal_questions","survey-likert","89","840878","0.0-6.0-6.11","3551485","co37660","norming","","","{""aha"":4}","[0]","../img/tt/1224tt.jpg","",""
"null","<div style=""font-size:60px;""> </div>","null","fixation","html-keyboard-response","90","841085","0.0-6.0-0.12","3551485","co37660","norming","","","","","","",""
"null","../img/tt/1254tt.jpg","null","mooney1","image-keyboard-response","91","844088","0.0-6.0-1.12","3551485","co37660","norming","","","","","","",""
"7635.369999999995","","","post_mooney1_questions","survey-likert","92","851726","0.0-6.0-2.12","3551485","co37660","norming","","","{""curiosity"":5,""confidence"":1}","[0,1]","../img/tt/1254tt.jpg","",""
"4958.125000000116","","","recognition","survey-text","93","856685","0.0-6.0-3.12","3551485","co37660","norming","","","{""guess"":""party""}","","../img/tt/1254tt.jpg","",""
"null","../img/gs/1254gs.jpg","null","reveal","image-keyboard-response","94","858695","0.0-6.0-4.12","3551485","co37660","norming","","","","","","",""
"null","../img/tt/1254tt.jpg","null","mooney2","image-keyboard-response","95","860703","0.0-6.0-5.12","3551485","co37660","norming","","","","","","",""
"3796.600000000093","","","post_reveal_questions","survey-likert","96","864501","0.0-6.0-6.12","3551485","co37660","norming","","","{""aha"":5}","[0]","../img/tt/1254tt.jpg","",""
"null","<div style=""font-size:60px;""> </div>","null","fixation","html-keyboard-response","97","864708","0.0-6.0-0.13","3551485","co37660","norming","","","","","","",""
"null","../img/tt/084tt.jpg","null","mooney1","image-keyboard-response","98","867712","0.0-6.0-1.13","3551485","co37660","norming","","","","","","",""
"4802.539999999921","","","post_mooney1_questions","survey-likert","99","872518","0.0-6.0-2.13","3551485","co37660","norming","","","{""curiosity"":5,""confidence"":4}","[0,1]","../img/tt/084tt.jpg","",""
"2926.1549999999115","","","recognition","survey-text","100","875450","0.0-6.0-3.13","3551485","co37660","norming","","","{""guess"":""eend""}","","../img/tt/084tt.jpg","",""
"null","../img/gs/084gs.jpg","null","reveal","image-keyboard-response","101","877458","0.0-6.0-4.13","3551485","co37660","norming","","","","","","",""
"null","../img/tt/084tt.jpg","null","mooney2","image-keyboard-response","102","879460","0.0-6.0-5.13","3551485","co37660","norming","","","","","","",""
"6812.535000000033","","","post_reveal_questions","survey-likert","103","886274","0.0-6.0-6.13","3551485","co37660","norming","","","{""aha"":1}","[0]","../img/tt/084tt.jpg","",""
"null","<div style=""font-size:60px;""> </div>","null","fixation","html-keyboard-response","104","886480","0.0-6.0-0.14","3551485","co37660","norming","","","","","","",""
"null","../img/tt/1069tt.jpg","null","mooney1","image-keyboard-response","105","889482","0.0-6.0-1.14","3551485","co37660","norming","","","","","","",""
"5437.275000000023","","","post_mooney1_questions","survey-likert","106","894922","0.0-6.0-2.14","3551485","co37660","norming","","","{""curiosity"":5,""confidence"":0}","[0,1]","../img/tt/1069tt.jpg","",""
"917.4500000001863","","","recognition","survey-text","107","895842","0.0-6.0-3.14","3551485","co37660","norming","","","{""guess"":""""}","","../img/tt/1069tt.jpg","",""
"null","../img/gs/1069gs.jpg","null","reveal","image-keyboard-response","108","897850","0.0-6.0-4.14","3551485","co37660","norming","","","","","","",""
"null","../img/tt/1069tt.jpg","null","mooney2","image-keyboard-response","109","899852","0.0-6.0-5.14","3551485","co37660","norming","","","","","","",""
"2237.769999999902","","","post_reveal_questions","survey-likert","110","902090","0.0-6.0-6.14","3551485","co37660","norming","","","{""aha"":6}","[0]","../img/tt/1069tt.jpg","",""
"null","<div style=""font-size:60px;""> </div>","null","fixation","html-keyboard-response","111","902299","0.0-6.0-0.15","3551485","co37660","norming","","","","","","",""
"null","../img/tt/567tt.jpg","null","mooney1","image-keyboard-response","112","905303","0.0-6.0-1.15","3551485","co37660","norming","","","","","","",""
"4986.864999999874","","","post_mooney1_questions","survey-likert","113","910291","0.0-6.0-2.15","3551485","co37660","norming","","","{""curiosity"":5,""confidence"":1}","[0,1]","../img/tt/567tt.jpg","",""
"4542.185000000056","","","recognition","survey-text","114","914834","0.0-6.0-3.15","3551485","co37660","norming","","","{""guess"":""trompet""}","","../img/tt/567tt.jpg","",""
"null","../img/gs/567gs.jpg","null","reveal","image-keyboard-response","115","916836","0.0-6.0-4.15","3551485","co37660","norming","","","","","","",""
"null","../img/tt/567tt.jpg","null","mooney2","image-keyboard-response","116","918837","0.0-6.0-5.15","3551485","co37660","norming","","","","","","",""
"3378.780000000028","","","post_reveal_questions","survey-likert","117","922218","0.0-6.0-6.15","3551485","co37660","norming","","","{""aha"":4}","[0]","../img/tt/567tt.jpg","",""
"null","<div style=""font-size:60px;""> </div>","null","fixation","html-keyboard-response","118","922428","0.0-6.0-0.16","3551485","co37660","norming","","","","","","",""
"null","../img/tt/163tt.jpg","null","mooney1","image-keyboard-response","119","925433","0.0-6.0-1.16","3551485","co37660","norming","","","","","","",""
"5844.959999999846","","","post_mooney1_questions","survey-likert","120","931283","0.0-6.0-2.16","3551485","co37660","norming","","","{""curiosity"":5,""confidence"":1}","[0,1]","../img/tt/163tt.jpg","",""
"5342.119999999995","","","recognition","survey-text","121","936621","0.0-6.0-3.16","3551485","co37660","norming","","","{""guess"":""brocoli""}","","../img/tt/163tt.jpg","",""
"null","../img/gs/163gs.jpg","null","reveal","image-keyboard-response","122","938626","0.0-6.0-4.16","3551485","co37660","norming","","","","","","",""
"null","../img/tt/163tt.jpg","null","mooney2","image-keyboard-response","123","940627","0.0-6.0-5.16","3551485","co37660","norming","","","","","","",""
"3951.985000000219","","","post_reveal_questions","survey-likert","124","944582","0.0-6.0-6.16","3551485","co37660","norming","","","{""aha"":5}","[0]","../img/tt/163tt.jpg","",""
"null","<div style=""font-size:60px;""> </div>","null","fixation","html-keyboard-response","125","944786","0.0-6.0-0.17","3551485","co37660","norming","","","","","","",""
"null","../img/tt/412tt.jpg","null","mooney1","image-keyboard-response","126","947793","0.0-6.0-1.17","3551485","co37660","norming","","","","","","",""
"8946.09999999986","","","post_mooney1_questions","survey-likert","127","956742","0.0-6.0-2.17","3551485","co37660","norming","","","{""curiosity"":5,""confidence"":1}","[0,1]","../img/tt/412tt.jpg","",""
"4718.159999999916","","","recognition","survey-text","128","961461","0.0-6.0-3.17","3551485","co37660","norming","","","{""guess"":""bread""}","","../img/tt/412tt.jpg","",""
"null","../img/gs/412gs.jpg","null","reveal","image-keyboard-response","129","963466","0.0-6.0-4.17","3551485","co37660","norming","","","","","","",""
"null","../img/tt/412tt.jpg","null","mooney2","image-keyboard-response","130","965472","0.0-6.0-5.17","3551485","co37660","norming","","","","","","",""
"2227.5999999998603","","","post_reveal_questions","survey-likert","131","967702","0.0-6.0-6.17","3551485","co37660","norming","","","{""aha"":5}","[0]","../img/tt/412tt.jpg","",""
"null","<div style=""font-size:60px;""> </div>","null","fixation","html-keyboard-response","132","967909","0.0-6.0-0.18","3551485","co37660","norming","","","","","","",""
"null","../img/tt/1130tt.jpg","null","mooney1","image-keyboard-response","133","970917","0.0-6.0-1.18","3551485","co37660","norming","","","","","","",""
"4726.644999999902","","","post_mooney1_questions","survey-likert","134","975646","0.0-6.0-2.18","3551485","co37660","norming","","","{""curiosity"":5,""confidence"":2}","[0,1]","../img/tt/1130tt.jpg","",""
"4014.069999999949","","","recognition","survey-text","135","979661","0.0-6.0-3.18","3551485","co37660","norming","","","{""guess"":""lion""}","","../img/tt/1130tt.jpg","",""
"null","../img/gs/1130gs.jpg","null","reveal","image-keyboard-response","136","981669","0.0-6.0-4.18","3551485","co37660","norming","","","","","","",""
"null","../img/tt/1130tt.jpg","null","mooney2","image-keyboard-response","137","983671","0.0-6.0-5.18","3551485","co37660","norming","","","","","","",""
"3652.7299999999814","","","post_reveal_questions","survey-likert","138","987325","0.0-6.0-6.18","3551485","co37660","norming","","","{""aha"":5}","[0]","../img/tt/1130tt.jpg","",""
"null","<div style=""font-size:60px;""> </div>","null","fixation","html-keyboard-response","139","987527","0.0-6.0-0.19","3551485","co37660","norming","","","","","","",""
"null","../img/tt/507tt.jpg","null","mooney1","image-keyboard-response","140","990532","0.0-6.0-1.19","3551485","co37660","norming","","","","","","",""
"6751.405000000028","","","post_mooney1_questions","survey-likert","141","997287","0.0-6.0-2.19","3551485","co37660","norming","","","{""curiosity"":5,""confidence"":1}","[0,1]","../img/tt/507tt.jpg","",""
"2974.3299999998417","","","recognition","survey-text","142","1000263","0.0-6.0-3.19","3551485","co37660","norming","","","{""guess"":""owl""}","","../img/tt/507tt.jpg","",""
"null","../img/gs/507gs.jpg","null","reveal","image-keyboard-response","143","1002264","0.0-6.0-4.19","3551485","co37660","norming","","","","","","",""
"null","../img/tt/507tt.jpg","null","mooney2","image-keyboard-response","144","1004271","0.0-6.0-5.19","3551485","co37660","norming","","","","","","",""
"3253.2650000001304","","","post_reveal_questions","survey-likert","145","1007527","0.0-6.0-6.19","3551485","co37660","norming","","","{""aha"":5}","[0]","../img/tt/507tt.jpg","",""
"null","<div style=""font-size:60px;""> </div>","null","fixation","html-keyboard-response","146","1007734","0.0-6.0-0.20","3551485","co37660","norming","","","","","","",""
"null","../img/tt/1278tt.jpg","null","mooney1","image-keyboard-response","147","1010740","0.0-6.0-1.20","3551485","co37660","norming","","","","","","",""
"5000.420000000042","","","post_mooney1_questions","survey-likert","148","1015743","0.0-6.0-2.20","3551485","co37660","norming","","","{""curiosity"":5,""confidence"":1}","[0,1]","../img/tt/1278tt.jpg","",""
"3189.920000000042","","","recognition","survey-text","149","1018935","0.0-6.0-3.20","3551485","co37660","norming","","","{""guess"":""dog""}","","../img/tt/1278tt.jpg","",""
"null","../img/gs/1278gs.jpg","null","reveal","image-keyboard-response","150","1020942","0.0-6.0-4.20","3551485","co37660","norming","","","","","","",""
"null","../img/tt/1278tt.jpg","null","mooney2","image-keyboard-response","151","1022944","0.0-6.0-5.20","3551485","co37660","norming","","","","","","",""
"2564.1650000000373","","","post_reveal_questions","survey-likert","152","1025511","0.0-6.0-6.20","3551485","co37660","norming","","","{""aha"":5}","[0]","../img/tt/1278tt.jpg","",""
"null","<div style=""font-size:60px;""> </div>","null","fixation","html-keyboard-response","153","1025715","0.0-6.0-0.21","3551485","co37660","norming","","","","","","",""
"null","../img/tt/1148tt.jpg","null","mooney1","image-keyboard-response","154","1028724","0.0-6.0-1.21","3551485","co37660","norming","","","","","","",""
"5863.97500000021","","","post_mooney1_questions","survey-likert","155","1034591","0.0-6.0-2.21","3551485","co37660","norming","","","{""curiosity"":5,""confidence"":1}","[0,1]","../img/tt/1148tt.jpg","",""
"4470.165000000154","","","recognition","survey-text","156","1039063","0.0-6.0-3.21","3551485","co37660","norming","","","{""guess"":""human""}","","../img/tt/1148tt.jpg","",""
"null","../img/gs/1148gs.jpg","null","reveal","image-keyboard-response","157","1041070","0.0-6.0-4.21","3551485","co37660","norming","","","","","","",""
"null","../img/tt/1148tt.jpg","null","mooney2","image-keyboard-response","158","1043080","0.0-6.0-5.21","3551485","co37660","norming","","","","","","",""
"3149.055000000051","","","post_reveal_questions","survey-likert","159","1046231","0.0-6.0-6.21","3551485","co37660","norming","","","{""aha"":5}","[0]","../img/tt/1148tt.jpg","",""
"null","<div style=""font-size:60px;""> </div>","null","fixation","html-keyboard-response","160","1046435","0.0-6.0-0.22","3551485","co37660","norming","","","","","","",""
"null","../img/tt/584tt.jpg","null","mooney1","image-keyboard-response","161","1049439","0.0-6.0-1.22","3551485","co37660","norming","","","","","","",""
"6229.375","","","post_mooney1_questions","survey-likert","162","1055668","0.0-6.0-2.22","3551485","co37660","norming","","","{""curiosity"":1,""confidence"":5}","[0,1]","../img/tt/584tt.jpg","",""
"5542.125","","","recognition","survey-text","163","1061212","0.0-6.0-3.22","3551485","co37660","norming","","","{""guess"":""kniptangen""}","","../img/tt/584tt.jpg","",""
"null","../img/gs/584gs.jpg","null","reveal","image-keyboard-response","164","1063218","0.0-6.0-4.22","3551485","co37660","norming","","","","","","",""
"null","../img/tt/584tt.jpg","null","mooney2","image-keyboard-response","165","1065220","0.0-6.0-5.22","3551485","co37660","norming","","","","","","",""
"2125.909999999916","","","post_reveal_questions","survey-likert","166","1067348","0.0-6.0-6.22","3551485","co37660","norming","","","{""aha"":0}","[0]","../img/tt/584tt.jpg","",""
"null","<div style=""font-size:60px;""> </div>","null","fixation","html-keyboard-response","167","1067553","0.0-6.0-0.23","3551485","co37660","norming","","","","","","",""
"null","../img/tt/1186tt.jpg","null","mooney1","image-keyboard-response","168","1070557","0.0-6.0-1.23","3551485","co37660","norming","","","","","","",""
"4685.964999999851","","","post_mooney1_questions","survey-likert","169","1075244","0.0-6.0-2.23","3551485","co37660","norming","","","{""curiosity"":2,""confidence"":4}","[0,1]","../img/tt/1186tt.jpg","",""
"5525.949999999953","","","recognition","survey-text","170","1080772","0.0-6.0-3.23","3551485","co37660","norming","","","{""guess"":""militair""}","","../img/tt/1186tt.jpg","",""
"null","../img/gs/1186gs.jpg","null","reveal","image-keyboard-response","171","1082780","0.0-6.0-4.23","3551485","co37660","norming","","","","","","",""
"null","../img/tt/1186tt.jpg","null","mooney2","image-keyboard-response","172","1084783","0.0-6.0-5.23","3551485","co37660","norming","","","","","","",""
"2787.0100000000093","","","post_reveal_questions","survey-likert","173","1087572","0.0-6.0-6.23","3551485","co37660","norming","","","{""aha"":6}","[0]","../img/tt/1186tt.jpg","",""
"null","<div style=""font-size:60px;""> </div>","null","fixation","html-keyboard-response","174","1087778","0.0-6.0-0.24","3551485","co37660","norming","","","","","","",""
"null","../img/tt/1217tt.jpg","null","mooney1","image-keyboard-response","175","1090782","0.0-6.0-1.24","3551485","co37660","norming","","","","","","",""
"6667.364999999991","","","post_mooney1_questions","survey-likert","176","1097452","0.0-6.0-2.24","3551485","co37660","norming","","","{""curiosity"":5,""confidence"":1}","[0,1]","../img/tt/1217tt.jpg","",""
"9142.119999999879","","","recognition","survey-text","177","1106596","0.0-6.0-3.24","3551485","co37660","norming","","","{""guess"":""sandcastle""}","","../img/tt/1217tt.jpg","",""
"null","../img/gs/1217gs.jpg","null","reveal","image-keyboard-response","178","1108607","0.0-6.0-4.24","3551485","co37660","norming","","","","","","",""
"null","../img/tt/1217tt.jpg","null","mooney2","image-keyboard-response","179","1110616","0.0-6.0-5.24","3551485","co37660","norming","","","","","","",""
"4488.3650000002235","","","post_reveal_questions","survey-likert","180","1115111","0.0-6.0-6.24","3551485","co37660","norming","","","{""aha"":6}","[0]","../img/tt/1217tt.jpg","",""
"null","<div style=""font-size:60px;""> </div>","null","fixation","html-keyboard-response","181","1115318","0.0-6.0-0.25","3551485","co37660","norming","","","","","","",""
"null","../img/tt/1089tt.jpg","null","mooney1","image-keyboard-response","182","1118326","0.0-6.0-1.25","3551485","co37660","norming","","","","","","",""
"4397.754999999888","","","post_mooney1_questions","survey-likert","183","1122727","0.0-6.0-2.25","3551485","co37660","norming","","","{""curiosity"":5,""confidence"":1}","[0,1]","../img/tt/1089tt.jpg","",""
"4430.0449999999255","","","recognition","survey-text","184","1127159","0.0-6.0-3.25","3551485","co37660","norming","","","{""guess"":""kar""}","","../img/tt/1089tt.jpg","",""
"null","../img/gs/1089gs.jpg","null","reveal","image-keyboard-response","185","1129168","0.0-6.0-4.25","3551485","co37660","norming","","","","","","",""
"null","../img/tt/1089tt.jpg","null","mooney2","image-keyboard-response","186","1131177","0.0-6.0-5.25","3551485","co37660","norming","","","","","","",""
"2571.469999999972","","","post_reveal_questions","survey-likert","187","1133750","0.0-6.0-6.25","3551485","co37660","norming","","","{""aha"":6}","[0]","../img/tt/1089tt.jpg","",""
"null","<div style=""font-size:60px;""> </div>","null","fixation","html-keyboard-response","188","1133954","0.0-6.0-0.26","3551485","co37660","norming","","","","","","",""
"null","../img/tt/1205tt.jpg","null","mooney1","image-keyboard-response","189","1136962","0.0-6.0-1.26","3551485","co37660","norming","","","","","","",""
"6098.125","","","post_mooney1_questions","survey-likert","190","1143063","0.0-6.0-2.26","3551485","co37660","norming","","","{""curiosity"":5,""confidence"":0}","[0,1]","../img/tt/1205tt.jpg","",""
"949.9950000001118","","","recognition","survey-text","191","1144015","0.0-6.0-3.26","3551485","co37660","norming","","","{""guess"":""""}","","../img/tt/1205tt.jpg","",""
"null","../img/gs/1205gs.jpg","null","reveal","image-keyboard-response","192","1146023","0.0-6.0-4.26","3551485","co37660","norming","","","","","","",""
"null","../img/tt/1205tt.jpg","null","mooney2","image-keyboard-response","193","1148025","0.0-6.0-5.26","3551485","co37660","norming","","","","","","",""
"2747.0400000000373","","","post_reveal_questions","survey-likert","194","1150774","0.0-6.0-6.26","3551485","co37660","norming","","","{""aha"":6}","[0]","../img/tt/1205tt.jpg","",""
"null","<div style=""font-size:60px;""> </div>","null","fixation","html-keyboard-response","195","1150980","0.0-6.0-0.27","3551485","co37660","norming","","","","","","",""
"null","../img/tt/1143tt.jpg","null","mooney1","image-keyboard-response","196","1153991","0.0-6.0-1.27","3551485","co37660","norming","","","","","","",""
"9547.969999999972","","","post_mooney1_questions","survey-likert","197","1163542","0.0-6.0-2.27","3551485","co37660","norming","","","{""curiosity"":5,""confidence"":1}","[0,1]","../img/tt/1143tt.jpg","",""
"4901.924999999814","","","recognition","survey-text","198","1168446","0.0-6.0-3.27","3551485","co37660","norming","","","{""guess"":""treinspoor""}","","../img/tt/1143tt.jpg","",""
"null","../img/gs/1143gs.jpg","null","reveal","image-keyboard-response","199","1170453","0.0-6.0-4.27","3551485","co37660","norming","","","","","","",""
"null","../img/tt/1143tt.jpg","null","mooney2","image-keyboard-response","200","1172454","0.0-6.0-5.27","3551485","co37660","norming","","","","","","",""
"5991.165000000037","","","post_reveal_questions","survey-likert","201","1178445","0.0-6.0-6.27","3551485","co37660","norming","","","{""aha"":5}","[0]","../img/tt/1143tt.jpg","",""
"null","<div style=""font-size:60px;""> </div>","null","fixation","html-keyboard-response","202","1178652","0.0-6.0-0.28","3551485","co37660","norming","","","","","","",""
"null","../img/tt/1127tt.jpg","null","mooney1","image-keyboard-response","203","1181664","0.0-6.0-1.28","3551485","co37660","norming","","","","","","",""
"5339.1349999997765","","","post_mooney1_questions","survey-likert","204","1187005","0.0-6.0-2.28","3551485","co37660","norming","","","{""curiosity"":5,""confidence"":1}","[0,1]","../img/tt/1127tt.jpg","",""
"3342.094999999972","","","recognition","survey-text","205","1190349","0.0-6.0-3.28","3551485","co37660","norming","","","{""guess"":""karate""}","","../img/tt/1127tt.jpg","",""
"null","../img/gs/1127gs.jpg","null","reveal","image-keyboard-response","206","1192351","0.0-6.0-4.28","3551485","co37660","norming","","","","","","",""
"null","../img/tt/1127tt.jpg","null","mooney2","image-keyboard-response","207","1194353","0.0-6.0-5.28","3551485","co37660","norming","","","","","","",""
"3033.5500000002794","","","post_reveal_questions","survey-likert","208","1197389","0.0-6.0-6.28","3551485","co37660","norming","","","{""aha"":4}","[0]","../img/tt/1127tt.jpg","",""
"null","<div style=""font-size:60px;""> </div>","null","fixation","html-keyboard-response","209","1197596","0.0-6.0-0.29","3551485","co37660","norming","","","","","","",""
"null","../img/tt/357tt.jpg","null","mooney1","image-keyboard-response","210","1200601","0.0-6.0-1.29","3551485","co37660","norming","","","","","","",""
"7201.235000000102","","","post_mooney1_questions","survey-likert","211","1207805","0.0-6.0-2.29","3551485","co37660","norming","","","{""curiosity"":2,""confidence"":4}","[0,1]","../img/tt/357tt.jpg","",""
"4366.189999999944","","","recognition","survey-text","212","1212173","0.0-6.0-3.29","3551485","co37660","norming","","","{""guess"":""egel""}","","../img/tt/357tt.jpg","",""
"null","../img/gs/357gs.jpg","null","reveal","image-keyboard-response","213","1214176","0.0-6.0-4.29","3551485","co37660","norming","","","","","","",""
"null","../img/tt/357tt.jpg","null","mooney2","image-keyboard-response","214","1216177","0.0-6.0-5.29","3551485","co37660","norming","","","","","","",""
"2521.774999999907","","","post_reveal_questions","survey-likert","215","1218701","0.0-6.0-6.29","3551485","co37660","norming","","","{""aha"":0}","[0]","../img/tt/357tt.jpg","",""
"null","<div style=""font-size:60px;""> </div>","null","fixation","html-keyboard-response","216","1218907","0.0-6.0-0.30","3551485","co37660","norming","","","","","","",""
"null","../img/tt/184tt.jpg","null","mooney1","image-keyboard-response","217","1221911","0.0-6.0-1.30","3551485","co37660","norming","","","","","","",""
"5411.600000000326","","","post_mooney1_questions","survey-likert","218","1227325","0.0-6.0-2.30","3551485","co37660","norming","","","{""curiosity"":5,""confidence"":2}","[0,1]","../img/tt/184tt.jpg","",""
"2614.149999999907","","","recognition","survey-text","219","1229941","0.0-6.0-3.30","3551485","co37660","norming","","","{""guess"":""bird""}","","../img/tt/184tt.jpg","",""
"null","../img/gs/184gs.jpg","null","reveal","image-keyboard-response","220","1231949","0.0-6.0-4.30","3551485","co37660","norming","","","","","","",""
"null","../img/tt/184tt.jpg","null","mooney2","image-keyboard-response","221","1233952","0.0-6.0-5.30","3551485","co37660","norming","","","","","","",""
"4235.48499999987","","","post_reveal_questions","survey-likert","222","1238186","0.0-6.0-6.30","3551485","co37660","norming","","","{""aha"":5}","[0]","../img/tt/184tt.jpg","",""
"null","<div style=""font-size:60px;""> </div>","null","fixation","html-keyboard-response","223","1238391","0.0-6.0-0.31","3551485","co37660","norming","","","","","","",""
"null","../img/tt/1151tt.jpg","null","mooney1","image-keyboard-response","224","1241395","0.0-6.0-1.31","3551485","co37660","norming","","","","","","",""
"6427.77500000014","","","post_mooney1_questions","survey-likert","225","1247826","0.0-6.0-2.31","3551485","co37660","norming","","","{""curiosity"":5,""confidence"":1}","[0,1]","../img/tt/1151tt.jpg","",""
"6390.395000000019","","","recognition","survey-text","226","1254218","0.0-6.0-3.31","3551485","co37660","norming","","","{""guess"":""glass bottle""}","","../img/tt/1151tt.jpg","",""
"null","../img/gs/1151gs.jpg","null","reveal","image-keyboard-response","227","1256226","0.0-6.0-4.31","3551485","co37660","norming","","","","","","",""
"null","../img/tt/1151tt.jpg","null","mooney2","image-keyboard-response","228","1258229","0.0-6.0-5.31","3551485","co37660","norming","","","","","","",""
"2610.5699999998324","","","post_reveal_questions","survey-likert","229","1260842","0.0-6.0-6.31","3551485","co37660","norming","","","{""aha"":5}","[0]","../img/tt/1151tt.jpg","",""
"null","<div style=""font-size:60px;""> </div>","null","fixation","html-keyboard-response","230","1261050","0.0-6.0-0.32","3551485","co37660","norming","","","","","","",""
"null","../img/tt/112tt.jpg","null","mooney1","image-keyboard-response","231","1264063","0.0-6.0-1.32","3551485","co37660","norming","","","","","","",""
"6054.805000000168","","","post_mooney1_questions","survey-likert","232","1270122","0.0-6.0-2.32","3551485","co37660","norming","","","{""curiosity"":5,""confidence"":1}","[0,1]","../img/tt/112tt.jpg","",""
"6126.094999999972","","","recognition","survey-text","233","1276250","0.0-6.0-3.32","3551485","co37660","norming","","","{""guess"":""glass bottle""}","","../img/tt/112tt.jpg","",""
"null","../img/gs/112gs.jpg","null","reveal","image-keyboard-response","234","1278255","0.0-6.0-4.32","3551485","co37660","norming","","","","","","",""
"null","../img/tt/112tt.jpg","null","mooney2","image-keyboard-response","235","1280257","0.0-6.0-5.32","3551485","co37660","norming","","","","","","",""
"3262.010000000242","","","post_reveal_questions","survey-likert","236","1283522","0.0-6.0-6.32","3551485","co37660","norming","","","{""aha"":5}","[0]","../img/tt/112tt.jpg","",""
"null","<div style=""font-size:60px;""> </div>","null","fixation","html-keyboard-response","237","1283724","0.0-6.0-0.33","3551485","co37660","norming","","","","","","",""
"null","../img/tt/194tt.jpg","null","mooney1","image-keyboard-response","238","1286732","0.0-6.0-1.33","3551485","co37660","norming","","","","","","",""
"5858.850000000093","","","post_mooney1_questions","survey-likert","239","1292594","0.0-6.0-2.33","3551485","co37660","norming","","","{""curiosity"":4,""confidence"":1}","[0,1]","../img/tt/194tt.jpg","",""
"4030.2450000001118","","","recognition","survey-text","240","1296631","0.0-6.0-3.33","3551485","co37660","norming","","","{""guess"":""women""}","","../img/tt/194tt.jpg","",""
"null","../img/gs/194gs.jpg","null","reveal","image-keyboard-response","241","1298634","0.0-6.0-4.33","3551485","co37660","norming","","","","","","",""
"null","../img/tt/194tt.jpg","null","mooney2","image-keyboard-response","242","1300636","0.0-6.0-5.33","3551485","co37660","norming","","","","","","",""
"3416.3000000002794","","","post_reveal_questions","survey-likert","243","1304055","0.0-6.0-6.33","3551485","co37660","norming","","","{""aha"":3}","[0]","../img/tt/194tt.jpg","",""
"null","<div style=""font-size:60px;""> </div>","null","fixation","html-keyboard-response","244","1304258","0.0-6.0-0.34","3551485","co37660","norming","","","","","","",""
"null","../img/tt/580tt.jpg","null","mooney1","image-keyboard-response","245","1307266","0.0-6.0-1.34","3551485","co37660","norming","","","","","","",""
"5850.465000000084","","","post_mooney1_questions","survey-likert","246","1313119","0.0-6.0-2.34","3551485","co37660","norming","","","{""curiosity"":5,""confidence"":1}","[0,1]","../img/tt/580tt.jpg","",""
"8550.185000000056","","","recognition","survey-text","247","1321671","0.0-6.0-3.34","3551485","co37660","norming","","","{""guess"":""african mask""}","","../img/tt/580tt.jpg","",""
"null","../img/gs/580gs.jpg","null","reveal","image-keyboard-response","248","1323678","0.0-6.0-4.34","3551485","co37660","norming","","","","","","",""
"null","../img/tt/580tt.jpg","null","mooney2","image-keyboard-response","249","1325684","0.0-6.0-5.34","3551485","co37660","norming","","","","","","",""
"2855.7299999999814","","","post_reveal_questions","survey-likert","250","1328543","0.0-6.0-6.34","3551485","co37660","norming","","","{""aha"":5}","[0]","../img/tt/580tt.jpg","",""
"null","<div style=""font-size:60px;""> </div>","null","fixation","html-keyboard-response","251","1328747","0.0-6.0-0.35","3551485","co37660","norming","","","","","","",""
"null","../img/tt/1226tt.jpg","null","mooney1","image-keyboard-response","252","1331755","0.0-6.0-1.35","3551485","co37660","norming","","","","","","",""
"6017.304999999702","","","post_mooney1_questions","survey-likert","253","1337775","0.0-6.0-2.35","3551485","co37660","norming","","","{""curiosity"":2,""confidence"":4}","[0,1]","../img/tt/1226tt.jpg","",""
"4573.915000000037","","","recognition","survey-text","254","1342351","0.0-6.0-3.35","3551485","co37660","norming","","","{""guess"":""chickens""}","","../img/tt/1226tt.jpg","",""
"null","../img/gs/1226gs.jpg","null","reveal","image-keyboard-response","255","1344354","0.0-6.0-4.35","3551485","co37660","norming","","","","","","",""
"null","../img/tt/1226tt.jpg","null","mooney2","image-keyboard-response","256","1346358","0.0-6.0-5.35","3551485","co37660","norming","","","","","","",""
"6190.674999999814","","","post_reveal_questions","survey-likert","257","1352551","0.0-6.0-6.35","3551485","co37660","norming","","","{""aha"":0}","[0]","../img/tt/1226tt.jpg","",""
"null","<div style=""font-size:60px;""> </div>","null","fixation","html-keyboard-response","258","1352754","0.0-6.0-0.36","3551485","co37660","norming","","","","","","",""
"null","../img/tt/559tt.jpg","null","mooney1","image-keyboard-response","259","1355760","0.0-6.0-1.36","3551485","co37660","norming","","","","","","",""
"7253.590000000084","","","post_mooney1_questions","survey-likert","260","1363012","0.0-6.0-2.36","3551485","co37660","norming","","","{""curiosity"":5,""confidence"":0}","[0,1]","../img/tt/559tt.jpg","",""
"1165.8600000001024","","","recognition","survey-text","261","1364180","0.0-6.0-3.36","3551485","co37660","norming","","","{""guess"":""""}","","../img/tt/559tt.jpg","",""
"null","../img/gs/559gs.jpg","null","reveal","image-keyboard-response","262","1366187","0.0-6.0-4.36","3551485","co37660","norming","","","","","","",""
"null","../img/tt/559tt.jpg","null","mooney2","image-keyboard-response","263","1368190","0.0-6.0-5.36","3551485","co37660","norming","","","","","","",""
"4291.945000000065","","","post_reveal_questions","survey-likert","264","1372484","0.0-6.0-6.36","3551485","co37660","norming","","","{""aha"":5}","[0]","../img/tt/559tt.jpg","",""
"null","<div style=""font-size:60px;""> </div>","null","fixation","html-keyboard-response","265","1372687","0.0-6.0-0.37","3551485","co37660","norming","","","","","","",""
"null","../img/tt/055tt.jpg","null","mooney1","image-keyboard-response","266","1375692","0.0-6.0-1.37","3551485","co37660","norming","","","","","","",""
"5189.589999999851","","","post_mooney1_questions","survey-likert","267","1380884","0.0-6.0-2.37","3551485","co37660","norming","","","{""curiosity"":5,""confidence"":1}","[0,1]","../img/tt/055tt.jpg","",""
"3949.9249999998137","","","recognition","survey-text","268","1384836","0.0-6.0-3.37","3551485","co37660","norming","","","{""guess"":""pot verf""}","","../img/tt/055tt.jpg","",""
"null","../img/gs/055gs.jpg","null","reveal","image-keyboard-response","269","1386841","0.0-6.0-4.37","3551485","co37660","norming","","","","","","",""
"null","../img/tt/055tt.jpg","null","mooney2","image-keyboard-response","270","1388844","0.0-6.0-5.37","3551485","co37660","norming","","","","","","",""
"2581.679999999935","","","post_reveal_questions","survey-likert","271","1391428","0.0-6.0-6.37","3551485","co37660","norming","","","{""aha"":5}","[0]","../img/tt/055tt.jpg","",""
"null","<div style=""font-size:60px;""> </div>","null","fixation","html-keyboard-response","272","1391633","0.0-6.0-0.38","3551485","co37660","norming","","","","","","",""
"null","../img/tt/1128tt.jpg","null","mooney1","image-keyboard-response","273","1394638","0.0-6.0-1.38","3551485","co37660","norming","","","","","","",""
"7667.195000000065","","","post_mooney1_questions","survey-likert","274","1402308","0.0-6.0-2.38","3551485","co37660","norming","","","{""curiosity"":5,""confidence"":0}","[0,1]","../img/tt/1128tt.jpg","",""
"1213.880000000121","","","recognition","survey-text","275","1403524","0.0-6.0-3.38","3551485","co37660","norming","","","{""guess"":""""}","","../img/tt/1128tt.jpg","",""
"null","../img/gs/1128gs.jpg","null","reveal","image-keyboard-response","276","1405533","0.0-6.0-4.38","3551485","co37660","norming","","","","","","",""
"null","../img/tt/1128tt.jpg","null","mooney2","image-keyboard-response","277","1407535","0.0-6.0-5.38","3551485","co37660","norming","","","","","","",""
"3097.2399999999907","","","post_reveal_questions","survey-likert","278","1410636","0.0-6.0-6.38","3551485","co37660","norming","","","{""aha"":5}","[0]","../img/tt/1128tt.jpg","",""
"null","<div style=""font-size:60px;""> </div>","null","fixation","html-keyboard-response","279","1410842","0.0-6.0-0.39","3551485","co37660","norming","","","","","","",""
"null","../img/tt/418tt.jpg","null","mooney1","image-keyboard-response","280","1413851","0.0-6.0-1.39","3551485","co37660","norming","","","","","","",""
"5006.834999999963","","","post_mooney1_questions","survey-likert","281","1418867","0.0-6.0-2.39","3551485","co37660","norming","","","{""curiosity"":6,""confidence"":0}","[0,1]","../img/tt/418tt.jpg","",""
"846.0050000001211","","","recognition","survey-text","282","1419715","0.0-6.0-3.39","3551485","co37660","norming","","","{""guess"":""""}","","../img/tt/418tt.jpg","",""
"null","../img/gs/418gs.jpg","null","reveal","image-keyboard-response","283","1421716","0.0-6.0-4.39","3551485","co37660","norming","","","","","","",""
"null","../img/tt/418tt.jpg","null","mooney2","image-keyboard-response","284","1423725","0.0-6.0-5.39","3551485","co37660","norming","","","","","","",""
"5331.5800000000745","","","post_reveal_questions","survey-likert","285","1429059","0.0-6.0-6.39","3551485","co37660","norming","","","{""aha"":4}","[0]","../img/tt/418tt.jpg","",""
"null","<div style=""font-size:60px;""> </div>","null","fixation","html-keyboard-response","286","1429266","0.0-6.0-0.40","3551485","co37660","norming","","","","","","",""
"null","../img/tt/1242tt.jpg","null","mooney1","image-keyboard-response","287","1432272","0.0-6.0-1.40","3551485","co37660","norming","","","","","","",""
"8303.159999999916","","","post_mooney1_questions","survey-likert","288","1440579","0.0-6.0-2.40","3551485","co37660","norming","","","{""curiosity"":5,""confidence"":1}","[0,1]","../img/tt/1242tt.jpg","",""
"4757.864999999991","","","recognition","survey-text","289","1445338","0.0-6.0-3.40","3551485","co37660","norming","","","{""guess"":""slang""}","","../img/tt/1242tt.jpg","",""
"null","../img/gs/1242gs.jpg","null","reveal","image-keyboard-response","290","1447343","0.0-6.0-4.40","3551485","co37660","norming","","","","","","",""
"null","../img/tt/1242tt.jpg","null","mooney2","image-keyboard-response","291","1449351","0.0-6.0-5.40","3551485","co37660","norming","","","","","","",""
"3929.314999999944","","","post_reveal_questions","survey-likert","292","1453283","0.0-6.0-6.40","3551485","co37660","norming","","","{""aha"":5}","[0]","../img/tt/1242tt.jpg","",""
"null","<div style=""font-size:60px;""> </div>","null","fixation","html-keyboard-response","293","1453489","0.0-6.0-0.41","3551485","co37660","norming","","","","","","",""
"null","../img/tt/049tt.jpg","null","mooney1","image-keyboard-response","294","1456491","0.0-6.0-1.41","3551485","co37660","norming","","","","","","",""
"3798.364999999758","","","post_mooney1_questions","survey-likert","295","1460291","0.0-6.0-2.41","3551485","co37660","norming","","","{""curiosity"":5,""confidence"":1}","[0,1]","../img/tt/049tt.jpg","",""
"5758.265000000596","","","recognition","survey-text","296","1466051","0.0-6.0-3.41","3551485","co37660","norming","","","{""guess"":""everzwijn""}","","../img/tt/049tt.jpg","",""
"null","../img/gs/049gs.jpg","null","reveal","image-keyboard-response","297","1468052","0.0-6.0-4.41","3551485","co37660","norming","","","","","","",""
"null","../img/tt/049tt.jpg","null","mooney2","image-keyboard-response","298","1470062","0.0-6.0-5.41","3551485","co37660","norming","","","","","","",""
"2537.6500000001397","","","post_reveal_questions","survey-likert","299","1472603","0.0-6.0-6.41","3551485","co37660","norming","","","{""aha"":4}","[0]","../img/tt/049tt.jpg","",""
"null","<div style=""font-size:60px;""> </div>","null","fixation","html-keyboard-response","300","1472808","0.0-6.0-0.42","3551485","co37660","norming","","","","","","",""
"null","../img/tt/085tt.jpg","null","mooney1","image-keyboard-response","301","1475812","0.0-6.0-1.42","3551485","co37660","norming","","","","","","",""
"5492.189999999944","","","post_mooney1_questions","survey-likert","302","1481304","0.0-6.0-2.42","3551485","co37660","norming","","","{""curiosity"":5,""confidence"":1}","[0,1]","../img/tt/085tt.jpg","",""
"4934.005000000121","","","recognition","survey-text","303","1486239","0.0-6.0-3.42","3551485","co37660","norming","","","{""guess"":""butterfly""}","","../img/tt/085tt.jpg","",""
"null","../img/gs/085gs.jpg","null","reveal","image-keyboard-response","304","1488242","0.0-6.0-4.42","3551485","co37660","norming","","","","","","",""
"null","../img/tt/085tt.jpg","null","mooney2","image-keyboard-response","305","1490244","0.0-6.0-5.42","3551485","co37660","norming","","","","","","",""
"3103.20999999973","","","post_reveal_questions","survey-likert","306","1493352","0.0-6.0-6.42","3551485","co37660","norming","","","{""aha"":5}","[0]","../img/tt/085tt.jpg","",""
"null","<div style=""font-size:60px;""> </div>","null","fixation","html-keyboard-response","307","1493557","0.0-6.0-0.43","3551485","co37660","norming","","","","","","",""
"null","../img/tt/1078tt.jpg","null","mooney1","image-keyboard-response","308","1496560","0.0-6.0-1.43","3551485","co37660","norming","","","","","","",""
"7188.31500000041","","","post_mooney1_questions","survey-likert","309","1503752","0.0-6.0-2.43","3551485","co37660","norming","","","{""curiosity"":5,""confidence"":1}","[0,1]","../img/tt/1078tt.jpg","",""
"5981.98499999987","","","recognition","survey-text","310","1509735","0.0-6.0-3.43","3551485","co37660","norming","","","{""guess"":""dancing""}","","../img/tt/1078tt.jpg","",""
"null","../img/gs/1078gs.jpg","null","reveal","image-keyboard-response","311","1511744","0.0-6.0-4.43","3551485","co37660","norming","","","","","","",""
"null","../img/tt/1078tt.jpg","null","mooney2","image-keyboard-response","312","1513747","0.0-6.0-5.43","3551485","co37660","norming","","","","","","",""
"3801.6099999998696","","","post_reveal_questions","survey-likert","313","1517551","0.0-6.0-6.43","3551485","co37660","norming","","","{""aha"":5}","[0]","../img/tt/1078tt.jpg","",""
"null","<div style=""font-size:60px;""> </div>","null","fixation","html-keyboard-response","314","1517758","0.0-6.0-0.44","3551485","co37660","norming","","","","","","",""
"null","../img/tt/056tt.jpg","null","mooney1","image-keyboard-response","315","1520769","0.0-6.0-1.44","3551485","co37660","norming","","","","","","",""
"4163.350000000093","","","post_mooney1_questions","survey-likert","316","1524936","0.0-6.0-2.44","3551485","co37660","norming","","","{""curiosity"":5,""confidence"":1}","[0,1]","../img/tt/056tt.jpg","",""
"3173.9550000003073","","","recognition","survey-text","317","1528111","0.0-6.0-3.44","3551485","co37660","norming","","","{""guess"":""hug""}","","../img/tt/056tt.jpg","",""
"null","../img/gs/056gs.jpg","null","reveal","image-keyboard-response","318","1530118","0.0-6.0-4.44","3551485","co37660","norming","","","","","","",""
"null","../img/tt/056tt.jpg","null","mooney2","image-keyboard-response","319","1532122","0.0-6.0-5.44","3551485","co37660","norming","","","","","","",""
"4306.619999999646","","","post_reveal_questions","survey-likert","320","1536431","0.0-6.0-6.44","3551485","co37660","norming","","","{""aha"":5}","[0]","../img/tt/056tt.jpg","",""
"null","<div style=""font-size:60px;""> </div>","null","fixation","html-keyboard-response","321","1536641","0.0-6.0-0.45","3551485","co37660","norming","","","","","","",""
"null","../img/tt/1283tt.jpg","null","mooney1","image-keyboard-response","322","1539657","0.0-6.0-1.45","3551485","co37660","norming","","","","","","",""
"6393.679999999702","","","post_mooney1_questions","survey-likert","323","1546053","0.0-6.0-2.45","3551485","co37660","norming","","","{""curiosity"":5,""confidence"":0}","[0,1]","../img/tt/1283tt.jpg","",""
"1454.2000000001863","","","recognition","survey-text","324","1547509","0.0-6.0-3.45","3551485","co37660","norming","","","{""guess"":""""}","","../img/tt/1283tt.jpg","",""
"null","../img/gs/1283gs.jpg","null","reveal","image-keyboard-response","325","1549518","0.0-6.0-4.45","3551485","co37660","norming","","","","","","",""
"null","../img/tt/1283tt.jpg","null","mooney2","image-keyboard-response","326","1551527","0.0-6.0-5.45","3551485","co37660","norming","","","","","","",""
"3946.989999999758","","","post_reveal_questions","survey-likert","327","1555477","0.0-6.0-6.45","3551485","co37660","norming","","","{""aha"":4}","[0]","../img/tt/1283tt.jpg","",""
"null","<div style=""font-size:60px;""> </div>","null","fixation","html-keyboard-response","328","1555683","0.0-6.0-0.46","3551485","co37660","norming","","","","","","",""
"null","../img/tt/1161tt.jpg","null","mooney1","image-keyboard-response","329","1558692","0.0-6.0-1.46","3551485","co37660","norming","","","","","","",""
"4765.969999999972","","","post_mooney1_questions","survey-likert","330","1563461","0.0-6.0-2.46","3551485","co37660","norming","","","{""curiosity"":5,""confidence"":2}","[0,1]","../img/tt/1161tt.jpg","",""
"5814.119999999879","","","recognition","survey-text","331","1569277","0.0-6.0-3.46","3551485","co37660","norming","","","{""guess"":""running man""}","","../img/tt/1161tt.jpg","",""
"null","../img/gs/1161gs.jpg","null","reveal","image-keyboard-response","332","1571282","0.0-6.0-4.46","3551485","co37660","norming","","","","","","",""
"null","../img/tt/1161tt.jpg","null","mooney2","image-keyboard-response","333","1573284","0.0-6.0-5.46","3551485","co37660","norming","","","","","","",""
"3102.565000000177","","","post_reveal_questions","survey-likert","334","1576389","0.0-6.0-6.46","3551485","co37660","norming","","","{""aha"":6}","[0]","../img/tt/1161tt.jpg","",""
"null","<div style=""font-size:60px;""> </div>","null","fixation","html-keyboard-response","335","1576597","0.0-6.0-0.47","3551485","co37660","norming","","","","","","",""
"null","../img/tt/1053tt.jpg","null","mooney1","image-keyboard-response","336","1579602","0.0-6.0-1.47","3551485","co37660","norming","","","","","","",""
"7016.01500000013","","","post_mooney1_questions","survey-likert","337","1586621","0.0-6.0-2.47","3551485","co37660","norming","","","{""curiosity"":5,""confidence"":1}","[0,1]","../img/tt/1053tt.jpg","",""
"3605.5750000001863","","","recognition","survey-text","338","1590229","0.0-6.0-3.47","3551485","co37660","norming","","","{""guess"":""zebra""}","","../img/tt/1053tt.jpg","",""
"null","../img/gs/1053gs.jpg","null","reveal","image-keyboard-response","339","1592238","0.0-6.0-4.47","3551485","co37660","norming","","","","","","",""
"null","../img/tt/1053tt.jpg","null","mooney2","image-keyboard-response","340","1594240","0.0-6.0-5.47","3551485","co37660","norming","","","","","","",""
"3690.644999999553","","","post_reveal_questions","survey-likert","341","1597933","0.0-6.0-6.47","3551485","co37660","norming","","","{""aha"":5}","[0]","../img/tt/1053tt.jpg","",""
"null","<div style=""font-size:60px;""> </div>","null","fixation","html-keyboard-response","342","1598141","0.0-6.0-0.48","3551485","co37660","norming","","","","","","",""
"null","../img/tt/1125tt.jpg","null","mooney1","image-keyboard-response","343","1601156","0.0-6.0-1.48","3551485","co37660","norming","","","","","","",""
"7443.755000000121","","","post_mooney1_questions","survey-likert","344","1608601","0.0-6.0-2.48","3551485","co37660","norming","","","{""curiosity"":5,""confidence"":1}","[0,1]","../img/tt/1125tt.jpg","",""
"3398.054999999702","","","recognition","survey-text","345","1612001","0.0-6.0-3.48","3551485","co37660","norming","","","{""guess"":""pool""}","","../img/tt/1125tt.jpg","",""
"null","../img/gs/1125gs.jpg","null","reveal","image-keyboard-response","346","1614003","0.0-6.0-4.48","3551485","co37660","norming","","","","","","",""
"null","../img/tt/1125tt.jpg","null","mooney2","image-keyboard-response","347","1616006","0.0-6.0-5.48","3551485","co37660","norming","","","","","","",""
"4024.784999999916","","","post_reveal_questions","survey-likert","348","1620033","0.0-6.0-6.48","3551485","co37660","norming","","","{""aha"":4}","[0]","../img/tt/1125tt.jpg","",""
"null","<div style=""font-size:60px;""> </div>","null","fixation","html-keyboard-response","349","1620240","0.0-6.0-0.49","3551485","co37660","norming","","","","","","",""
"null","../img/tt/032tt.jpg","null","mooney1","image-keyboard-response","350","1623245","0.0-6.0-1.49","3551485","co37660","norming","","","","","","",""
"8672.98999999999","","","post_mooney1_questions","survey-likert","351","1631921","0.0-6.0-2.49","3551485","co37660","norming","","","{""curiosity"":4,""confidence"":2}","[0,1]","../img/tt/032tt.jpg","",""
"2861.965000000084","","","recognition","survey-text","352","1634785","0.0-6.0-3.49","3551485","co37660","norming","","","{""guess"":""koala""}","","../img/tt/032tt.jpg","",""
"null","../img/gs/032gs.jpg","null","reveal","image-keyboard-response","353","1636787","0.0-6.0-4.49","3551485","co37660","norming","","","","","","",""
"null","../img/tt/032tt.jpg","null","mooney2","image-keyboard-response","354","1638794","0.0-6.0-5.49","3551485","co37660","norming","","","","","","",""
"5020.230000000214","","","post_reveal_questions","survey-likert","355","1643817","0.0-6.0-6.49","3551485","co37660","norming","","","{""aha"":4}","[0]","../img/tt/032tt.jpg","",""
"null","<div style=""font-size:60px;""> </div>","null","fixation","html-keyboard-response","356","1644022","0.0-6.0-0.50","3551485","co37660","norming","","","","","","",""
"null","../img/tt/1211tt.jpg","null","mooney1","image-keyboard-response","357","1647028","0.0-6.0-1.50","3551485","co37660","norming","","","","","","",""
"6572.33499999973","","","post_mooney1_questions","survey-likert","358","1653601","0.0-6.0-2.50","3551485","co37660","norming","","","{""curiosity"":4,""confidence"":1}","[0,1]","../img/tt/1211tt.jpg","",""
"3046.060000000056","","","recognition","survey-text","359","1656649","0.0-6.0-3.50","3551485","co37660","norming","","","{""guess"":""boat""}","","../img/tt/1211tt.jpg","",""
"null","../img/gs/1211gs.jpg","null","reveal","image-keyboard-response","360","1658651","0.0-6.0-4.50","3551485","co37660","norming","","","","","","",""
"null","../img/tt/1211tt.jpg","null","mooney2","image-keyboard-response","361","1660653","0.0-6.0-5.50","3551485","co37660","norming","","","","","","",""
"2297.9799999997485","","","post_reveal_questions","survey-likert","362","1662952","0.0-6.0-6.50","3551485","co37660","norming","","","{""aha"":4}","[0]","../img/tt/1211tt.jpg","",""
"null","<div style=""font-size:60px;""> </div>","null","fixation","html-keyboard-response","363","1663156","0.0-6.0-0.51","3551485","co37660","norming","","","","","","",""
"null","../img/tt/1043tt.jpg","null","mooney1","image-keyboard-response","364","1666163","0.0-6.0-1.51","3551485","co37660","norming","","","","","","",""
"5305.460000000196","","","post_mooney1_questions","survey-likert","365","1671472","0.0-6.0-2.51","3551485","co37660","norming","","","{""curiosity"":5,""confidence"":0}","[0,1]","../img/tt/1043tt.jpg","",""
"821.9949999996461","","","recognition","survey-text","366","1672296","0.0-6.0-3.51","3551485","co37660","norming","","","{""guess"":""""}","","../img/tt/1043tt.jpg","",""
"null","../img/gs/1043gs.jpg","null","reveal","image-keyboard-response","367","1674298","0.0-6.0-4.51","3551485","co37660","norming","","","","","","",""
"null","../img/tt/1043tt.jpg","null","mooney2","image-keyboard-response","368","1676301","0.0-6.0-5.51","3551485","co37660","norming","","","","","","",""
"2873.649999999907","","","post_reveal_questions","survey-likert","369","1679176","0.0-6.0-6.51","3551485","co37660","norming","","","{""aha"":5}","[0]","../img/tt/1043tt.jpg","",""
"null","<div style=""font-size:60px;""> </div>","null","fixation","html-keyboard-response","370","1679379","0.0-6.0-0.52","3551485","co37660","norming","","","","","","",""
"null","../img/tt/1066tt.jpg","null","mooney1","image-keyboard-response","371","1682384","0.0-6.0-1.52","3551485","co37660","norming","","","","","","",""
"5932.880000000354","","","post_mooney1_questions","survey-likert","372","1688320","0.0-6.0-2.52","3551485","co37660","norming","","","{""curiosity"":1,""confidence"":4}","[0,1]","../img/tt/1066tt.jpg","",""
"9054.000000000233","","","recognition","survey-text","373","1697376","0.0-6.0-3.52","3551485","co37660","norming","","","{""guess"":""bus""}","","../img/tt/1066tt.jpg","",""
"null","../img/gs/1066gs.jpg","null","reveal","image-keyboard-response","374","1699378","0.0-6.0-4.52","3551485","co37660","norming","","","","","","",""
"null","../img/tt/1066tt.jpg","null","mooney2","image-keyboard-response","375","1701380","0.0-6.0-5.52","3551485","co37660","norming","","","","","","",""
"4673.570000000531","","","post_reveal_questions","survey-likert","376","1706056","0.0-6.0-6.52","3551485","co37660","norming","","","{""aha"":0}","[0]","../img/tt/1066tt.jpg","",""
"null","<div style=""font-size:60px;""> </div>","null","fixation","html-keyboard-response","377","1706264","0.0-6.0-0.53","3551485","co37660","norming","","","","","","",""
"null","../img/tt/036tt.jpg","null","mooney1","image-keyboard-response","378","1709271","0.0-6.0-1.53","3551485","co37660","norming","","","","","","",""
"5845.465000000317","","","post_mooney1_questions","survey-likert","379","1715120","0.0-6.0-2.53","3551485","co37660","norming","","","{""curiosity"":4,""confidence"":2}","[0,1]","../img/tt/036tt.jpg","",""
"4165.984999999637","","","recognition","survey-text","380","1719288","0.0-6.0-3.53","3551485","co37660","norming","","","{""guess"":""seaweed""}","","../img/tt/036tt.jpg","",""
"null","../img/gs/036gs.jpg","null","reveal","image-keyboard-response","381","1721296","0.0-6.0-4.53","3551485","co37660","norming","","","","","","",""
"null","../img/tt/036tt.jpg","null","mooney2","image-keyboard-response","382","1723306","0.0-6.0-5.53","3551485","co37660","norming","","","","","","",""
"2379.5850000001956","","","post_reveal_questions","survey-likert","383","1725688","0.0-6.0-6.53","3551485","co37660","norming","","","{""aha"":4}","[0]","../img/tt/036tt.jpg","",""
"null","<div style=""font-size:60px;""> </div>","null","fixation","html-keyboard-response","384","1725892","0.0-6.0-0.54","3551485","co37660","norming","","","","","","",""
"null","../img/tt/1061tt.jpg","null","mooney1","image-keyboard-response","385","1728900","0.0-6.0-1.54","3551485","co37660","norming","","","","","","",""
"14153.659999999916","","","post_mooney1_questions","survey-likert","386","1743057","0.0-6.0-2.54","3551485","co37660","norming","","","{""curiosity"":5,""confidence"":1}","[0,1]","../img/tt/1061tt.jpg","",""
"3965.999999999767","","","recognition","survey-text","387","1747024","0.0-6.0-3.54","3551485","co37660","norming","","","{""guess"":""surfing""}","","../img/tt/1061tt.jpg","",""
"null","../img/gs/1061gs.jpg","null","reveal","image-keyboard-response","388","1749032","0.0-6.0-4.54","3551485","co37660","norming","","","","","","",""
"null","../img/tt/1061tt.jpg","null","mooney2","image-keyboard-response","389","1751041","0.0-6.0-5.54","3551485","co37660","norming","","","","","","",""
"2997.3700000001118","","","post_reveal_questions","survey-likert","390","1754040","0.0-6.0-6.54","3551485","co37660","norming","","","{""aha"":5}","[0]","../img/tt/1061tt.jpg","",""
"null","<div style=""font-size:60px;""> </div>","null","fixation","html-keyboard-response","391","1754243","0.0-6.0-0.55","3551485","co37660","norming","","","","","","",""
"null","../img/tt/078tt.jpg","null","mooney1","image-keyboard-response","392","1757247","0.0-6.0-1.55","3551485","co37660","norming","","","","","","",""
"5813.195000000065","","","post_mooney1_questions","survey-likert","393","1763065","0.0-6.0-2.55","3551485","co37660","norming","","","{""curiosity"":4,""confidence"":2}","[0,1]","../img/tt/078tt.jpg","",""
"5293.549999999814","","","recognition","survey-text","394","1768360","0.0-6.0-3.55","3551485","co37660","norming","","","{""guess"":""geit""}","","../img/tt/078tt.jpg","",""
"null","../img/gs/078gs.jpg","null","reveal","image-keyboard-response","395","1770366","0.0-6.0-4.55","3551485","co37660","norming","","","","","","",""
"null","../img/tt/078tt.jpg","null","mooney2","image-keyboard-response","396","1772369","0.0-6.0-5.55","3551485","co37660","norming","","","","","","",""
"4789.435000000056","","","post_reveal_questions","survey-likert","397","1777160","0.0-6.0-6.55","3551485","co37660","norming","","","{""aha"":5}","[0]","../img/tt/078tt.jpg","",""
"null","<div style=""font-size:60px;""> </div>","null","fixation","html-keyboard-response","398","1777365","0.0-6.0-0.56","3551485","co37660","norming","","","","","","",""
"null","../img/tt/405tt.jpg","null","mooney1","image-keyboard-response","399","1780376","0.0-6.0-1.56","3551485","co37660","norming","","","","","","",""
"6188.760000000009","","","post_mooney1_questions","survey-likert","400","1786564","0.0-6.0-2.56","3551485","co37660","norming","","","{""curiosity"":5,""confidence"":1}","[0,1]","../img/tt/405tt.jpg","",""
"5846","","","recognition","survey-text","401","1792411","0.0-6.0-3.56","3551485","co37660","norming","","","{""guess"":""moestuin""}","","../img/tt/405tt.jpg","",""
"null","../img/gs/405gs.jpg","null","reveal","image-keyboard-response","402","1794413","0.0-6.0-4.56","3551485","co37660","norming","","","","","","",""
"null","../img/tt/405tt.jpg","null","mooney2","image-keyboard-response","403","1796415","0.0-6.0-5.56","3551485","co37660","norming","","","","","","",""
"2905.3700000001118","","","post_reveal_questions","survey-likert","404","1799323","0.0-6.0-6.56","3551485","co37660","norming","","","{""aha"":5}","[0]","../img/tt/405tt.jpg","",""
"null","<div style=""font-size:60px;""> </div>","null","fixation","html-keyboard-response","405","1799534","0.0-6.0-0.57","3551485","co37660","norming","","","","","","",""
"null","../img/tt/1102tt.jpg","null","mooney1","image-keyboard-response","406","1802541","0.0-6.0-1.57","3551485","co37660","norming","","","","","","",""
"5565.680000000168","","","post_mooney1_questions","survey-likert","407","1808108","0.0-6.0-2.57","3551485","co37660","norming","","","{""curiosity"":5,""confidence"":1}","[0,1]","../img/tt/1102tt.jpg","",""
"5382.054999999935","","","recognition","survey-text","408","1813491","0.0-6.0-3.57","3551485","co37660","norming","","","{""guess"":""hangmat""}","","../img/tt/1102tt.jpg","",""
"null","../img/gs/1102gs.jpg","null","reveal","image-keyboard-response","409","1815493","0.0-6.0-4.57","3551485","co37660","norming","","","","","","",""
"null","../img/tt/1102tt.jpg","null","mooney2","image-keyboard-response","410","1817499","0.0-6.0-5.57","3551485","co37660","norming","","","","","","",""
"5246.120000000345","","","post_reveal_questions","survey-likert","411","1822747","0.0-6.0-6.57","3551485","co37660","norming","","","{""aha"":5}","[0]","../img/tt/1102tt.jpg","",""
"null","<div style=""font-size:60px;""> </div>","null","fixation","html-keyboard-response","412","1822955","0.0-6.0-0.58","3551485","co37660","norming","","","","","","",""
"null","../img/tt/300tt.jpg","null","mooney1","image-keyboard-response","413","1825965","0.0-6.0-1.58","3551485","co37660","norming","","","","","","",""
"6579.100000000093","","","post_mooney1_questions","survey-likert","414","1832547","0.0-6.0-2.58","3551485","co37660","norming","","","{""curiosity"":3,""confidence"":3}","[0,1]","../img/tt/300tt.jpg","",""
"4790.2150000005495","","","recognition","survey-text","415","1837339","0.0-6.0-3.58","3551485","co37660","norming","","","{""guess"":""monkey""}","","../img/tt/300tt.jpg","",""
"null","../img/gs/300gs.jpg","null","reveal","image-keyboard-response","416","1839346","0.0-6.0-4.58","3551485","co37660","norming","","","","","","",""
"null","../img/tt/300tt.jpg","null","mooney2","image-keyboard-response","417","1841348","0.0-6.0-5.58","3551485","co37660","norming","","","","","","",""
"3500.5499999998137","","","post_reveal_questions","survey-likert","418","1844851","0.0-6.0-6.58","3551485","co37660","norming","","","{""aha"":5}","[0]","../img/tt/300tt.jpg","",""
"null","<div style=""font-size:60px;""> </div>","null","fixation","html-keyboard-response","419","1845059","0.0-6.0-0.59","3551485","co37660","norming","","","","","","",""
"null","../img/tt/1101tt.jpg","null","mooney1","image-keyboard-response","420","1848071","0.0-6.0-1.59","3551485","co37660","norming","","","","","","",""
"5354.034999999916","","","post_mooney1_questions","survey-likert","421","1853429","0.0-6.0-2.59","3551485","co37660","norming","","","{""curiosity"":5,""confidence"":1}","[0,1]","../img/tt/1101tt.jpg","",""
"6301.930000000168","","","recognition","survey-text","422","1859733","0.0-6.0-3.59","3551485","co37660","norming","","","{""guess"":""horse riding""}","","../img/tt/1101tt.jpg","",""
"null","../img/gs/1101gs.jpg","null","reveal","image-keyboard-response","423","1861739","0.0-6.0-4.59","3551485","co37660","norming","","","","","","",""
"null","../img/tt/1101tt.jpg","null","mooney2","image-keyboard-response","424","1863750","0.0-6.0-5.59","3551485","co37660","norming","","","","","","",""
"2307.6649999998044","","","post_reveal_questions","survey-likert","425","1866061","0.0-6.0-6.59","3551485","co37660","norming","","","{""aha"":4}","[0]","../img/tt/1101tt.jpg","",""
"null","<div style=""font-size:60px;""> </div>","null","fixation","html-keyboard-response","426","1866264","0.0-6.0-0.60","3551485","co37660","norming","","","","","","",""
"null","../img/tt/063tt.jpg","null","mooney1","image-keyboard-response","427","1869268","0.0-6.0-1.60","3551485","co37660","norming","","","","","","",""
"4381.27500000014","","","post_mooney1_questions","survey-likert","428","1873653","0.0-6.0-2.60","3551485","co37660","norming","","","{""curiosity"":5,""confidence"":1}","[0,1]","../img/tt/063tt.jpg","",""
"4886.2750000003725","","","recognition","survey-text","429","1878541","0.0-6.0-3.60","3551485","co37660","norming","","","{""guess"":""portomonee""}","","../img/tt/063tt.jpg","",""
"null","../img/gs/063gs.jpg","null","reveal","image-keyboard-response","430","1880542","0.0-6.0-4.60","3551485","co37660","norming","","","","","","",""
"null","../img/tt/063tt.jpg","null","mooney2","image-keyboard-response","431","1882545","0.0-6.0-5.60","3551485","co37660","norming","","","","","","",""
"3354.5450000001583","","","post_reveal_questions","survey-likert","432","1885901","0.0-6.0-6.60","3551485","co37660","norming","","","{""aha"":5}","[0]","../img/tt/063tt.jpg","",""
"null","<div style=""font-size:60px;""> </div>","null","fixation","html-keyboard-response","433","1886108","0.0-6.0-0.61","3551485","co37660","norming","","","","","","",""
"null","../img/tt/1171tt.jpg","null","mooney1","image-keyboard-response","434","1889114","0.0-6.0-1.61","3551485","co37660","norming","","","","","","",""
"4264.119999999646","","","post_mooney1_questions","survey-likert","435","1893381","0.0-6.0-2.61","3551485","co37660","norming","","","{""curiosity"":5,""confidence"":0}","[0,1]","../img/tt/1171tt.jpg","",""
"750.0450000001583","","","recognition","survey-text","436","1894133","0.0-6.0-3.61","3551485","co37660","norming","","","{""guess"":""""}","","../img/tt/1171tt.jpg","",""
"null","../img/gs/1171gs.jpg","null","reveal","image-keyboard-response","437","1896141","0.0-6.0-4.61","3551485","co37660","norming","","","","","","",""
"null","../img/tt/1171tt.jpg","null","mooney2","image-keyboard-response","438","1898146","0.0-6.0-5.61","3551485","co37660","norming","","","","","","",""
"2880.3250000001863","","","post_reveal_questions","survey-likert","439","1901029","0.0-6.0-6.61","3551485","co37660","norming","","","{""aha"":4}","[0]","../img/tt/1171tt.jpg","",""
"null","<div style=""font-size:60px;""> </div>","null","fixation","html-keyboard-response","440","1901233","0.0-6.0-0.62","3551485","co37660","norming","","","","","","",""
"null","../img/tt/1048tt.jpg","null","mooney1","image-keyboard-response","441","1904244","0.0-6.0-1.62","3551485","co37660","norming","","","","","","",""
"5693.60999999987","","","post_mooney1_questions","survey-likert","442","1909935","0.0-6.0-2.62","3551485","co37660","norming","","","{""curiosity"":5,""confidence"":0}","[0,1]","../img/tt/1048tt.jpg","",""
"894.0800000000745","","","recognition","survey-text","443","1910831","0.0-6.0-3.62","3551485","co37660","norming","","","{""guess"":""""}","","../img/tt/1048tt.jpg","",""
"null","../img/gs/1048gs.jpg","null","reveal","image-keyboard-response","444","1912838","0.0-6.0-4.62","3551485","co37660","norming","","","","","","",""
"null","../img/tt/1048tt.jpg","null","mooney2","image-keyboard-response","445","1914849","0.0-6.0-5.62","3551485","co37660","norming","","","","","","",""
"2699.3499999998603","","","post_reveal_questions","survey-likert","446","1917551","0.0-6.0-6.62","3551485","co37660","norming","","","{""aha"":6}","[0]","../img/tt/1048tt.jpg","",""
"null","<div style=""font-size:60px;""> </div>","null","fixation","html-keyboard-response","447","1917760","0.0-6.0-0.63","3551485","co37660","norming","","","","","","",""
"null","../img/tt/273tt.jpg","null","mooney1","image-keyboard-response","448","1920766","0.0-6.0-1.63","3551485","co37660","norming","","","","","","",""
"4733.5800000000745","","","post_mooney1_questions","survey-likert","449","1925503","0.0-6.0-2.63","3551485","co37660","norming","","","{""curiosity"":5,""confidence"":1}","[0,1]","../img/tt/273tt.jpg","",""
"4021.9699999997392","","","recognition","survey-text","450","1929527","0.0-6.0-3.63","3551485","co37660","norming","","","{""guess"":""mouth""}","","../img/tt/273tt.jpg","",""
"null","../img/gs/273gs.jpg","null","reveal","image-keyboard-response","451","1931532","0.0-6.0-4.63","3551485","co37660","norming","","","","","","",""
"null","../img/tt/273tt.jpg","null","mooney2","image-keyboard-response","452","1933535","0.0-6.0-5.63","3551485","co37660","norming","","","","","","",""
"2013.4250000000466","","","post_reveal_questions","survey-likert","453","1935551","0.0-6.0-6.63","3551485","co37660","norming","","","{""aha"":5}","[0]","../img/tt/273tt.jpg","",""
"null","<div style=""font-size:60px;""> </div>","null","fixation","html-keyboard-response","454","1935760","0.0-6.0-0.64","3551485","co37660","norming","","","","","","",""
"null","../img/tt/1228tt.jpg","null","mooney1","image-keyboard-response","455","1938769","0.0-6.0-1.64","3551485","co37660","norming","","","","","","",""
"6234.590000000084","","","post_mooney1_questions","survey-likert","456","1945007","0.0-6.0-2.64","3551485","co37660","norming","","","{""curiosity"":5,""confidence"":1}","[0,1]","../img/tt/1228tt.jpg","",""
"4197.355000000214","","","recognition","survey-text","457","1949206","0.0-6.0-3.64","3551485","co37660","norming","","","{""guess"":""tumbling""}","","../img/tt/1228tt.jpg","",""
"null","../img/gs/1228gs.jpg","null","reveal","image-keyboard-response","458","1951214","0.0-6.0-4.64","3551485","co37660","norming","","","","","","",""
"null","../img/tt/1228tt.jpg","null","mooney2","image-keyboard-response","459","1953216","0.0-6.0-5.64","3551485","co37660","norming","","","","","","",""
"3188.0149999996647","","","post_reveal_questions","survey-likert","460","1956407","0.0-6.0-6.64","3551485","co37660","norming","","","{""aha"":4}","[0]","../img/tt/1228tt.jpg","",""
"null","<div style=""font-size:60px;""> </div>","null","fixation","html-keyboard-response","461","1956609","0.0-6.0-0.65","3551485","co37660","norming","","","","","","",""
"null","../img/tt/598tt.jpg","null","mooney1","image-keyboard-response","462","1959612","0.0-6.0-1.65","3551485","co37660","norming","","","","","","",""
"5927.200000000186","","","post_mooney1_questions","survey-likert","463","1965543","0.0-6.0-2.65","3551485","co37660","norming","","","{""curiosity"":5,""confidence"":1}","[0,1]","../img/tt/598tt.jpg","",""
"9781.860000000102","","","recognition","survey-text","464","1975333","0.0-6.0-3.65","3551485","co37660","norming","","","{""guess"":""leeuwen welpje""}","","../img/tt/598tt.jpg","",""
"null","../img/gs/598gs.jpg","null","reveal","image-keyboard-response","465","1977340","0.0-6.0-4.65","3551485","co37660","norming","","","","","","",""
"null","../img/tt/598tt.jpg","null","mooney2","image-keyboard-response","466","1979342","0.0-6.0-5.65","3551485","co37660","norming","","","","","","",""
"3116.4900000002235","","","post_reveal_questions","survey-likert","467","1982461","0.0-6.0-6.65","3551485","co37660","norming","","","{""aha"":4}","[0]","../img/tt/598tt.jpg","",""
"null","<div style=""font-size:60px;""> </div>","null","fixation","html-keyboard-response","468","1982668","0.0-6.0-0.66","3551485","co37660","norming","","","","","","",""
"null","../img/tt/1070tt.jpg","null","mooney1","image-keyboard-response","469","1985678","0.0-6.0-1.66","3551485","co37660","norming","","","","","","",""
"5484.164999999804","","","post_mooney1_questions","survey-likert","470","1991166","0.0-6.0-2.66","3551485","co37660","norming","","","{""curiosity"":5,""confidence"":1}","[0,1]","../img/tt/1070tt.jpg","",""
"3301.9150000000373","","","recognition","survey-text","471","1994469","0.0-6.0-3.66","3551485","co37660","norming","","","{""guess"":""slang""}","","../img/tt/1070tt.jpg","",""
"null","../img/gs/1070gs.jpg","null","reveal","image-keyboard-response","472","1996477","0.0-6.0-4.66","3551485","co37660","norming","","","","","","",""
"null","../img/tt/1070tt.jpg","null","mooney2","image-keyboard-response","473","1998481","0.0-6.0-5.66","3551485","co37660","norming","","","","","","",""
"3147.1349999995437","","","post_reveal_questions","survey-likert","474","2001629","0.0-6.0-6.66","3551485","co37660","norming","","","{""aha"":4}","[0]","../img/tt/1070tt.jpg","",""
"null","<div style=""font-size:60px;""> </div>","null","fixation","html-keyboard-response","475","2001836","0.0-6.0-0.67","3551485","co37660","norming","","","","","","",""
"null","../img/tt/1255tt.jpg","null","mooney1","image-keyboard-response","476","2004839","0.0-6.0-1.67","3551485","co37660","norming","","","","","","",""
"6365.739999999758","","","post_mooney1_questions","survey-likert","477","2011206","0.0-6.0-2.67","3551485","co37660","norming","","","{""curiosity"":5,""confidence"":0}","[0,1]","../img/tt/1255tt.jpg","",""
"1326.160000000149","","","recognition","survey-text","478","2012534","0.0-6.0-3.67","3551485","co37660","norming","","","{""guess"":""""}","","../img/tt/1255tt.jpg","",""
"null","../img/gs/1255gs.jpg","null","reveal","image-keyboard-response","479","2014542","0.0-6.0-4.67","3551485","co37660","norming","","","","","","",""
"null","../img/tt/1255tt.jpg","null","mooney2","image-keyboard-response","480","2016550","0.0-6.0-5.67","3551485","co37660","norming","","","","","","",""
"2254.5800000000745","","","post_reveal_questions","survey-likert","481","2018806","0.0-6.0-6.67","3551485","co37660","norming","","","{""aha"":1}","[0]","../img/tt/1255tt.jpg","",""
"null","<div style=""font-size:60px;""> </div>","null","fixation","html-keyboard-response","482","2019014","0.0-6.0-0.68","3551485","co37660","norming","","","","","","",""
"null","../img/tt/440tt.jpg","null","mooney1","image-keyboard-response","483","2022017","0.0-6.0-1.68","3551485","co37660","norming","","","","","","",""
"8723.590000000084","","","post_mooney1_questions","survey-likert","484","2030737","0.0-6.0-2.68","3551485","co37660","norming","","","{""curiosity"":4,""confidence"":0}","[0,1]","../img/tt/440tt.jpg","",""
"958.0200000000186","","","recognition","survey-text","485","2031697","0.0-6.0-3.68","3551485","co37660","norming","","","{""guess"":""""}","","../img/tt/440tt.jpg","",""
"null","../img/gs/440gs.jpg","null","reveal","image-keyboard-response","486","2033703","0.0-6.0-4.68","3551485","co37660","norming","","","","","","",""
"null","../img/tt/440tt.jpg","null","mooney2","image-keyboard-response","487","2035707","0.0-6.0-5.68","3551485","co37660","norming","","","","","","",""
"2746.9449999998324","","","post_reveal_questions","survey-likert","488","2038457","0.0-6.0-6.68","3551485","co37660","norming","","","{""aha"":5}","[0]","../img/tt/440tt.jpg","",""
"null","<div style=""font-size:60px;""> </div>","null","fixation","html-keyboard-response","489","2038661","0.0-6.0-0.69","3551485","co37660","norming","","","","","","",""
"null","../img/tt/315tt.jpg","null","mooney1","image-keyboard-response","490","2041671","0.0-6.0-1.69","3551485","co37660","norming","","","","","","",""
"7078.679999999935","","","post_mooney1_questions","survey-likert","491","2048753","0.0-6.0-2.69","3551485","co37660","norming","","","{""curiosity"":3,""confidence"":3}","[0,1]","../img/tt/315tt.jpg","",""
"3829.845000000205","","","recognition","survey-text","492","2052585","0.0-6.0-3.69","3551485","co37660","norming","","","{""guess"":""bird""}","","../img/tt/315tt.jpg","",""
"null","../img/gs/315gs.jpg","null","reveal","image-keyboard-response","493","2054592","0.0-6.0-4.69","3551485","co37660","norming","","","","","","",""
"null","../img/tt/315tt.jpg","null","mooney2","image-keyboard-response","494","2056598","0.0-6.0-5.69","3551485","co37660","norming","","","","","","",""
"3394.0100000000093","","","post_reveal_questions","survey-likert","495","2059993","0.0-6.0-6.69","3551485","co37660","norming","","","{""aha"":4}","[0]","../img/tt/315tt.jpg","",""
"null","<div style=""font-size:60px;""> </div>","null","fixation","html-keyboard-response","496","2060200","0.0-6.0-0.70","3551485","co37660","norming","","","","","","",""
"null","../img/tt/1173tt.jpg","null","mooney1","image-keyboard-response","497","2063205","0.0-6.0-1.70","3551485","co37660","norming","","","","","","",""
"6008.670000000158","","","post_mooney1_questions","survey-likert","498","2069217","0.0-6.0-2.70","3551485","co37660","norming","","","{""curiosity"":5,""confidence"":1}","[0,1]","../img/tt/1173tt.jpg","",""
"3229.945000000065","","","recognition","survey-text","499","2072449","0.0-6.0-3.70","3551485","co37660","norming","","","{""guess"":""soccer""}","","../img/tt/1173tt.jpg","",""
"null","../img/gs/1173gs.jpg","null","reveal","image-keyboard-response","500","2074456","0.0-6.0-4.70","3551485","co37660","norming","","","","","","",""
"null","../img/tt/1173tt.jpg","null","mooney2","image-keyboard-response","501","2076459","0.0-6.0-5.70","3551485","co37660","norming","","","","","","",""
"5067.554999999702","","","post_reveal_questions","survey-likert","502","2081529","0.0-6.0-6.70","3551485","co37660","norming","","","{""aha"":3}","[0]","../img/tt/1173tt.jpg","",""
"null","<div style=""font-size:60px;""> </div>","null","fixation","html-keyboard-response","503","2081736","0.0-6.0-0.71","3551485","co37660","norming","","","","","","",""
"null","../img/tt/481tt.jpg","null","mooney1","image-keyboard-response","504","2084745","0.0-6.0-1.71","3551485","co37660","norming","","","","","","",""
"4204.420000000158","","","post_mooney1_questions","survey-likert","505","2088953","0.0-6.0-2.71","3551485","co37660","norming","","","{""curiosity"":5,""confidence"":1}","[0,1]","../img/tt/481tt.jpg","",""
"2918.0749999997206","","","recognition","survey-text","506","2091869","0.0-6.0-3.71","3551485","co37660","norming","","","{""guess"":""cat""}","","../img/tt/481tt.jpg","",""
"null","../img/gs/481gs.jpg","null","reveal","image-keyboard-response","507","2093871","0.0-6.0-4.71","3551485","co37660","norming","","","","","","",""
"null","../img/tt/481tt.jpg","null","mooney2","image-keyboard-response","508","2095876","0.0-6.0-5.71","3551485","co37660","norming","","","","","","",""
"2662.720000000205","","","post_reveal_questions","survey-likert","509","2098542","0.0-6.0-6.71","3551485","co37660","norming","","","{""aha"":6}","[0]","../img/tt/481tt.jpg","",""
"null","<div style=""font-size:60px;""> </div>","null","fixation","html-keyboard-response","510","2098750","0.0-6.0-0.72","3551485","co37660","norming","","","","","","",""
"null","../img/tt/1055tt.jpg","null","mooney1","image-keyboard-response","511","2101753","0.0-6.0-1.72","3551485","co37660","norming","","","","","","",""
"6537.550000000279","","","post_mooney1_questions","survey-likert","512","2108294","0.0-6.0-2.72","3551485","co37660","norming","","","{""curiosity"":4,""confidence"":1}","[0,1]","../img/tt/1055tt.jpg","",""
"3830.0099999997765","","","recognition","survey-text","513","2112126","0.0-6.0-3.72","3551485","co37660","norming","","","{""guess"":""water""}","","../img/tt/1055tt.jpg","",""
"null","../img/gs/1055gs.jpg","null","reveal","image-keyboard-response","514","2114134","0.0-6.0-4.72","3551485","co37660","norming","","","","","","",""
"null","../img/tt/1055tt.jpg","null","mooney2","image-keyboard-response","515","2116137","0.0-6.0-5.72","3551485","co37660","norming","","","","","","",""
"2897.005000000354","","","post_reveal_questions","survey-likert","516","2119038","0.0-6.0-6.72","3551485","co37660","norming","","","{""aha"":4}","[0]","../img/tt/1055tt.jpg","",""
"null","<div style=""font-size:60px;""> </div>","null","fixation","html-keyboard-response","517","2119243","0.0-6.0-0.73","3551485","co37660","norming","","","","","","",""
"null","../img/tt/1175tt.jpg","null","mooney1","image-keyboard-response","518","2122252","0.0-6.0-1.73","3551485","co37660","norming","","","","","","",""
"4966.064999999944","","","post_mooney1_questions","survey-likert","519","2127222","0.0-6.0-2.73","3551485","co37660","norming","","","{""curiosity"":5,""confidence"":0}","[0,1]","../img/tt/1175tt.jpg","",""
"1222.0400000009686","","","recognition","survey-text","520","2128445","0.0-6.0-3.73","3551485","co37660","norming","","","{""guess"":""""}","","../img/tt/1175tt.jpg","",""
"null","../img/gs/1175gs.jpg","null","reveal","image-keyboard-response","521","2130450","0.0-6.0-4.73","3551485","co37660","norming","","","","","","",""
"null","../img/tt/1175tt.jpg","null","mooney2","image-keyboard-response","522","2132453","0.0-6.0-5.73","3551485","co37660","norming","","","","","","",""
"2965.760000000242","","","post_reveal_questions","survey-likert","523","2135422","0.0-6.0-6.73","3551485","co37660","norming","","","{""aha"":1}","[0]","../img/tt/1175tt.jpg","",""
"null","<div style=""font-size:60px;""> </div>","null","fixation","html-keyboard-response","524","2135625","0.0-6.0-0.74","3551485","co37660","norming","","","","","","",""
"null","../img/tt/1279tt.jpg","null","mooney1","image-keyboard-response","525","2138636","0.0-6.0-1.74","3551485","co37660","norming","","","","","","",""
"6838.510000000708","","","post_mooney1_questions","survey-likert","526","2145478","0.0-6.0-2.74","3551485","co37660","norming","","","{""curiosity"":4,""confidence"":0}","[0,1]","../img/tt/1279tt.jpg","",""
"886.2200000002049","","","recognition","survey-text","527","2146366","0.0-6.0-3.74","3551485","co37660","norming","","","{""guess"":""""}","","../img/tt/1279tt.jpg","",""
"null","../img/gs/1279gs.jpg","null","reveal","image-keyboard-response","528","2148370","0.0-6.0-4.74","3551485","co37660","norming","","","","","","",""
"null","../img/tt/1279tt.jpg","null","mooney2","image-keyboard-response","529","2150380","0.0-6.0-5.74","3551485","co37660","norming","","","","","","",""
"3511.1800000001676","","","post_reveal_questions","survey-likert","530","2153894","0.0-6.0-6.74","3551485","co37660","norming","","","{""aha"":3}","[0]","../img/tt/1279tt.jpg","",""
"null","<div style=""font-size:60px;""> </div>","null","fixation","html-keyboard-response","531","2154104","0.0-6.0-0.75","3551485","co37660","norming","","","","","","",""
"null","../img/tt/1086tt.jpg","null","mooney1","image-keyboard-response","532","2157109","0.0-6.0-1.75","3551485","co37660","norming","","","","","","",""
"6047.239999999758","","","post_mooney1_questions","survey-likert","533","2163158","0.0-6.0-2.75","3551485","co37660","norming","","","{""curiosity"":2,""confidence"":4}","[0,1]","../img/tt/1086tt.jpg","",""
"4702.260000000242","","","recognition","survey-text","534","2167862","0.0-6.0-3.75","3551485","co37660","norming","","","{""guess"":""wolf""}","","../img/tt/1086tt.jpg","",""
"null","../img/gs/1086gs.jpg","null","reveal","image-keyboard-response","535","2169867","0.0-6.0-4.75","3551485","co37660","norming","","","","","","",""
"null","../img/tt/1086tt.jpg","null","mooney2","image-keyboard-response","536","2171870","0.0-6.0-5.75","3551485","co37660","norming","","","","","","",""
"2253.595000000205","","","post_reveal_questions","survey-likert","537","2174126","0.0-6.0-6.75","3551485","co37660","norming","","","{""aha"":4}","[0]","../img/tt/1086tt.jpg","",""
"null","<div style=""font-size:60px;""> </div>","null","fixation","html-keyboard-response","538","2174327","0.0-6.0-0.76","3551485","co37660","norming","","","","","","",""
"null","../img/tt/1126tt.jpg","null","mooney1","image-keyboard-response","539","2177336","0.0-6.0-1.76","3551485","co37660","norming","","","","","","",""
"8386.179999999702","","","post_mooney1_questions","survey-likert","540","2185726","0.0-6.0-2.76","3551485","co37660","norming","","","{""curiosity"":4,""confidence"":2}","[0,1]","../img/tt/1126tt.jpg","",""
"8789.619999999646","","","recognition","survey-text","541","2194517","0.0-6.0-3.76","3551485","co37660","norming","","","{""guess"":""sun bathing""}","","../img/tt/1126tt.jpg","",""
"null","../img/gs/1126gs.jpg","null","reveal","image-keyboard-response","542","2196524","0.0-6.0-4.76","3551485","co37660","norming","","","","","","",""
"null","../img/tt/1126tt.jpg","null","mooney2","image-keyboard-response","543","2198527","0.0-6.0-5.76","3551485","co37660","norming","","","","","","",""
"4189.185000000056","","","post_reveal_questions","survey-likert","544","2202718","0.0-6.0-6.76","3551485","co37660","norming","","","{""aha"":4}","[0]","../img/tt/1126tt.jpg","",""
"null","<div style=""font-size:60px;""> </div>","null","fixation","html-keyboard-response","545","2202929","0.0-6.0-0.77","3551485","co37660","norming","","","","","","",""
"null","../img/tt/013tt.jpg","null","mooney1","image-keyboard-response","546","2205941","0.0-6.0-1.77","3551485","co37660","norming","","","","","","",""
"5381.835000000428","","","post_mooney1_questions","survey-likert","547","2211326","0.0-6.0-2.77","3551485","co37660","norming","","","{""curiosity"":4,""confidence"":0}","[0,1]","../img/tt/013tt.jpg","",""
"742.0500000002794","","","recognition","survey-text","548","2212070","0.0-6.0-3.77","3551485","co37660","norming","","","{""guess"":""""}","","../img/tt/013tt.jpg","",""
"null","../img/gs/013gs.jpg","null","reveal","image-keyboard-response","549","2214072","0.0-6.0-4.77","3551485","co37660","norming","","","","","","",""
"null","../img/tt/013tt.jpg","null","mooney2","image-keyboard-response","550","2216077","0.0-6.0-5.77","3551485","co37660","norming","","","","","","",""
"5582.23499999987","","","post_reveal_questions","survey-likert","551","2221662","0.0-6.0-6.77","3551485","co37660","norming","","","{""aha"":5}","[0]","../img/tt/013tt.jpg","",""
