"rt","stimulus","key_press","test_part","trial_type","trial_index","time_elapsed","internal_node_id","totalTime","subject","experiment_name","button_pressed","success","responses","question_order","currentStim","old","correct"
"7966.889999999694","Welcome to the experiment. This is an online experiment so please don't close the tab/window until we say goodbye.  Press any key to begin.","32","instructions","html-keyboard-response","0","8018","0.0-0.0","2757944","co37993","norming","","","","","","",""
"43405.784999999014","<div style='word-wrap: break-word; width: 900px'><h3>Please consider this information carefully before deciding whether to participate in this research</h3><ul style='text-align: left; font-size: .8em;'><li><b>Purpose of the research</b>: To examine how people process images.</li><li><b>What you will do in this research</b>:  Stimuli (images) will be presented on the computer and you will be asked different questions about them.</li><li><b>Time required</b>: Participation will take between 45 and 60 minutes to complete.</li><li><b>Risks</b>:  There are no anticipated risks associated with participating in this study. The effects of participating should be comparable to those you would experience from viewing a computer monitor for 30 minutes and using a mouse or keyboard.</li><li><b>Benefits</b>:  This study provides no benefits to you individually except for the credit. The study provides important information about the nature of perception and learning.</li><li><b>Confidentiality</b>:  Your participation in this study will remain confidential. No personally identifiable information will be associated with your data. Your de-identified data may be shared with other researchers and used in future projects.</li><li><b>Participation and withdrawal</b>:  Your participation in this study is completely voluntary and you may refuse to participate or you may choose to withdraw at any time without penalty.</li><li><b>How to contact the researchers</b>: If you have questions or concerns about your participation or payment, or want to request a summary of research findings, please contact Sander Van de Cruys (KU Leuven), at sander.vandecruys@kuleuven.be.</li></ul><p>The nature and purpose of this research have been sufficiently explained and I agree to participate in this study.  I understand that I am free to withdraw at any time without incurring any penalty.</p><p>Please consent by clicking the button below to continue. Otherwise, please exit the study at this time.</p></div>","","instructions","html-button-response","1","51432","0.0-1.0","2757944","co37993","norming","0","","","","","",""
"","","","instructions","fullscreen","2","56063","0.0-2.0","2757944","co37993","norming","","true","","","","",""
"34598.42999999819","","","sona","survey-html-form","3","90664","0.0-3.0","2757944","co37993","norming","","","[{""name"":""sonaid"",""value"":""37993""},{""name"":""debrief"",""value"":""yes""},{""name"":""datajoin"",""value"":""yes""}]","","","",""
"78411.86999999991","<div style='word-wrap: break-word; width: 900px'><h3>Instructions</h3><p>This experiment will have 3 parts. In the first part you will see a series of distorted images like the one below on the left. As you can see in the righthand image, the distorted images are derived from actual photographs. In what follows, you will <strong>briefly</strong> be presented with <strong>only</strong> the distorted image.</p> <div style='float: left; margin-right: 20px;'><img src='../img/018tt.jpg' height='250' width='250'></img></div><div style='float: right; margin-left: 20px;'><img src='../img/018gs.jpg' height='250' width='250'></img></div><p>Subsequently you will be asked a few questions about the image: One question on how <strong>curious</strong> you are about the solution and one on how <strong>confident</strong> you are that you know the solution.</p>Next, we ask you to make a guess on what is in the image. Note that it is OK to name just the <strong>basic level category</strong>. For example when you see a parrot in the image, 'parrot' will obviously be a correct answer but also correct is 'bird'. However, 'animal' will <strong>not</strong> be counted as a correct response. For the example above, 'rose' would be correct or 'flower', but not 'plant'. When soccer players are depicted, 'soccer', 'football', 'soccer players' will be correct, but not 'humans', 'outdoors', or 'sports'. You do not need to describe the image in full, just name the main object in it <strong>in one or two words</strong>. All images depict objects from one of the following broad level categories: animals, inanimate objects, plants, sports, vehicles, and food. Recognizing means knowing <strong>more</strong> than these broad labels for a given image. But we always encourage you to <strong>make a guess</strong> if you can. Note that you are allowed to use <strong>Dutch and English</strong> in your answers, whatever comes easiest for you.</p><p>Press any key to continue.</p></div>","32","instructions","html-keyboard-response","4","169080","0.0-4.0","2757944","co37993","norming","","","","","","",""
"23486.935000000813","<div style='word-wrap: break-word; width: 900px'><h3>Instructions</h3> <p>Next, the solution image will be revealed to you and you'll be asked to indicate how strong your <strong>aha-experience</strong> was after seeing the solution. This describes the positive feeling of the 'click' you sometimes experience, when the pieces of the 'puzzle' fall together and you suddenly have 'insight' in the image.</p><img src='aha.jpg' height='188' width='250'></img><p>Note that there are no right or wrong answers. We are interested in what <strong>you</strong> see in the image and how <strong>you</strong> feel about it.</p><p>Press any key to start the experiment.</p></div>","32","instructions","html-keyboard-response","5","192568","0.0-5.0","2757944","co37993","norming","","","","","","",""
"null","<div style=""font-size:60px;""> </div>","null","fixation","html-keyboard-response","6","192778","0.0-6.0-0.0","2757944","co37993","norming","","","","","","",""
"null","../img/tt/1191tt.jpg","null","mooney1","image-keyboard-response","7","195784","0.0-6.0-1.0","2757944","co37993","norming","","","","","","",""
"10658.559999999852","","","post_mooney1_questions","survey-likert","8","206447","0.0-6.0-2.0","2757944","co37993","norming","","","{""curiosity"":5,""confidence"":1}","[0,1]","../img/tt/1191tt.jpg","",""
"6741.565000000264","","","recognition","survey-text","9","213190","0.0-6.0-3.0","2757944","co37993","norming","","","{""guess"":""paard""}","","../img/tt/1191tt.jpg","",""
"null","../img/gs/1191gs.jpg","null","reveal","image-keyboard-response","10","215198","0.0-6.0-4.0","2757944","co37993","norming","","","","","","",""
"null","../img/tt/1191tt.jpg","null","mooney2","image-keyboard-response","11","217200","0.0-6.0-5.0","2757944","co37993","norming","","","","","","",""
"3604.3900000004214","","","post_reveal_questions","survey-likert","12","220806","0.0-6.0-6.0","2757944","co37993","norming","","","{""aha"":6}","[0]","../img/tt/1191tt.jpg","",""
"null","<div style=""font-size:60px;""> </div>","null","fixation","html-keyboard-response","13","221015","0.0-6.0-0.1","2757944","co37993","norming","","","","","","",""
"null","../img/tt/507tt.jpg","null","mooney1","image-keyboard-response","14","224019","0.0-6.0-1.1","2757944","co37993","norming","","","","","","",""
"7577.014999998937","","","post_mooney1_questions","survey-likert","15","231593","0.0-6.0-2.1","2757944","co37993","norming","","","{""curiosity"":5,""confidence"":2}","[0,1]","../img/tt/507tt.jpg","",""
"10893.925000000309","","","recognition","survey-text","16","242489","0.0-6.0-3.1","2757944","co37993","norming","","","{""guess"":""standbeeld""}","","../img/tt/507tt.jpg","",""
"null","../img/gs/507gs.jpg","null","reveal","image-keyboard-response","17","244497","0.0-6.0-4.1","2757944","co37993","norming","","","","","","",""
"null","../img/tt/507tt.jpg","null","mooney2","image-keyboard-response","18","246505","0.0-6.0-5.1","2757944","co37993","norming","","","","","","",""
"2935.3599999994913","","","post_reveal_questions","survey-likert","19","249441","0.0-6.0-6.1","2757944","co37993","norming","","","{""aha"":6}","[0]","../img/tt/507tt.jpg","",""
"null","<div style=""font-size:60px;""> </div>","null","fixation","html-keyboard-response","20","249642","0.0-6.0-0.2","2757944","co37993","norming","","","","","","",""
"null","../img/tt/064tt.jpg","null","mooney1","image-keyboard-response","21","252648","0.0-6.0-1.2","2757944","co37993","norming","","","","","","",""
"5758.929999999964","","","post_mooney1_questions","survey-likert","22","258409","0.0-6.0-2.2","2757944","co37993","norming","","","{""curiosity"":3,""confidence"":5}","[0,1]","../img/tt/064tt.jpg","",""
"6702.1850000019185","","","recognition","survey-text","23","265113","0.0-6.0-3.2","2757944","co37993","norming","","","{""guess"":""schildpad""}","","../img/tt/064tt.jpg","",""
"null","../img/gs/064gs.jpg","null","reveal","image-keyboard-response","24","267122","0.0-6.0-4.2","2757944","co37993","norming","","","","","","",""
"null","../img/tt/064tt.jpg","null","mooney2","image-keyboard-response","25","269130","0.0-6.0-5.2","2757944","co37993","norming","","","","","","",""
"4172.975000001257","","","post_reveal_questions","survey-likert","26","273305","0.0-6.0-6.2","2757944","co37993","norming","","","{""aha"":2}","[0]","../img/tt/064tt.jpg","",""
"null","<div style=""font-size:60px;""> </div>","null","fixation","html-keyboard-response","27","273507","0.0-6.0-0.3","2757944","co37993","norming","","","","","","",""
"null","../img/tt/082tt.jpg","null","mooney1","image-keyboard-response","28","276516","0.0-6.0-1.3","2757944","co37993","norming","","","","","","",""
"9099.874999999884","","","post_mooney1_questions","survey-likert","29","285617","0.0-6.0-2.3","2757944","co37993","norming","","","{""curiosity"":1,""confidence"":6}","[0,1]","../img/tt/082tt.jpg","",""
"17557.769999999437","","","recognition","survey-text","30","303176","0.0-6.0-3.3","2757944","co37993","norming","","","{""guess"":""vogel""}","","../img/tt/082tt.jpg","",""
"null","../img/gs/082gs.jpg","null","reveal","image-keyboard-response","31","305182","0.0-6.0-4.3","2757944","co37993","norming","","","","","","",""
"null","../img/tt/082tt.jpg","null","mooney2","image-keyboard-response","32","307187","0.0-6.0-5.3","2757944","co37993","norming","","","","","","",""
"3075.4849999975995","","","post_reveal_questions","survey-likert","33","310264","0.0-6.0-6.3","2757944","co37993","norming","","","{""aha"":6}","[0]","../img/tt/082tt.jpg","",""
"null","<div style=""font-size:60px;""> </div>","null","fixation","html-keyboard-response","34","310467","0.0-6.0-0.4","2757944","co37993","norming","","","","","","",""
"null","../img/tt/1027tt.jpg","null","mooney1","image-keyboard-response","35","313471","0.0-6.0-1.4","2757944","co37993","norming","","","","","","",""
"5687.094999997469","","","post_mooney1_questions","survey-likert","36","319160","0.0-6.0-2.4","2757944","co37993","norming","","","{""curiosity"":6,""confidence"":1}","[0,1]","../img/tt/1027tt.jpg","",""
"2438.0400000009104","","","recognition","survey-text","37","321600","0.0-6.0-3.4","2757944","co37993","norming","","","{""guess"":""koe""}","","../img/tt/1027tt.jpg","",""
"null","../img/gs/1027gs.jpg","null","reveal","image-keyboard-response","38","323610","0.0-6.0-4.4","2757944","co37993","norming","","","","","","",""
"null","../img/tt/1027tt.jpg","null","mooney2","image-keyboard-response","39","325621","0.0-6.0-5.4","2757944","co37993","norming","","","","","","",""
"1440.520000000135","","","post_reveal_questions","survey-likert","40","327064","0.0-6.0-6.4","2757944","co37993","norming","","","{""aha"":6}","[0]","../img/tt/1027tt.jpg","",""
"null","<div style=""font-size:60px;""> </div>","null","fixation","html-keyboard-response","41","327266","0.0-6.0-0.5","2757944","co37993","norming","","","","","","",""
"null","../img/tt/412tt.jpg","null","mooney1","image-keyboard-response","42","330275","0.0-6.0-1.5","2757944","co37993","norming","","","","","","",""
"6442.344999999506","","","post_mooney1_questions","survey-likert","43","336720","0.0-6.0-2.5","2757944","co37993","norming","","","{""curiosity"":6,""confidence"":0}","[0,1]","../img/tt/412tt.jpg","",""
"12710.254999998142","","","recognition","survey-text","44","349432","0.0-6.0-3.5","2757944","co37993","norming","","","{""guess"":""shampoo flesje""}","","../img/tt/412tt.jpg","",""
"null","../img/gs/412gs.jpg","null","reveal","image-keyboard-response","45","351447","0.0-6.0-4.5","2757944","co37993","norming","","","","","","",""
"null","../img/tt/412tt.jpg","null","mooney2","image-keyboard-response","46","353454","0.0-6.0-5.5","2757944","co37993","norming","","","","","","",""
"1816.0500000013271","","","post_reveal_questions","survey-likert","47","355273","0.0-6.0-6.5","2757944","co37993","norming","","","{""aha"":6}","[0]","../img/tt/412tt.jpg","",""
"null","<div style=""font-size:60px;""> </div>","null","fixation","html-keyboard-response","48","355483","0.0-6.0-0.6","2757944","co37993","norming","","","","","","",""
"null","../img/tt/1228tt.jpg","null","mooney1","image-keyboard-response","49","358488","0.0-6.0-1.6","2757944","co37993","norming","","","","","","",""
"6415.639999999257","","","post_mooney1_questions","survey-likert","50","364905","0.0-6.0-2.6","2757944","co37993","norming","","","{""curiosity"":6,""confidence"":0}","[0,1]","../img/tt/1228tt.jpg","",""
"2878.1100000014994","","","recognition","survey-text","51","367784","0.0-6.0-3.6","2757944","co37993","norming","","","{""guess"":""vogel""}","","../img/tt/1228tt.jpg","",""
"null","../img/gs/1228gs.jpg","null","reveal","image-keyboard-response","52","369787","0.0-6.0-4.6","2757944","co37993","norming","","","","","","",""
"null","../img/tt/1228tt.jpg","null","mooney2","image-keyboard-response","53","371797","0.0-6.0-5.6","2757944","co37993","norming","","","","","","",""
"4953.395000000426","","","post_reveal_questions","survey-likert","54","376752","0.0-6.0-6.6","2757944","co37993","norming","","","{""aha"":1}","[0]","../img/tt/1228tt.jpg","",""
"null","<div style=""font-size:60px;""> </div>","null","fixation","html-keyboard-response","55","376954","0.0-6.0-0.7","2757944","co37993","norming","","","","","","",""
"null","../img/tt/436tt.jpg","null","mooney1","image-keyboard-response","56","379962","0.0-6.0-1.7","2757944","co37993","norming","","","","","","",""
"5452.325000001991","","","post_mooney1_questions","survey-likert","57","385417","0.0-6.0-2.7","2757944","co37993","norming","","","{""curiosity"":1,""confidence"":5}","[0,1]","../img/tt/436tt.jpg","",""
"5478.115000001679","","","recognition","survey-text","58","390896","0.0-6.0-3.7","2757944","co37993","norming","","","{""guess"":""leguaan""}","","../img/tt/436tt.jpg","",""
"null","../img/gs/436gs.jpg","null","reveal","image-keyboard-response","59","392903","0.0-6.0-4.7","2757944","co37993","norming","","","","","","",""
"null","../img/tt/436tt.jpg","null","mooney2","image-keyboard-response","60","394911","0.0-6.0-5.7","2757944","co37993","norming","","","","","","",""
"2662.895000001299","","","post_reveal_questions","survey-likert","61","397576","0.0-6.0-6.7","2757944","co37993","norming","","","{""aha"":0}","[0]","../img/tt/436tt.jpg","",""
"null","<div style=""font-size:60px;""> </div>","null","fixation","html-keyboard-response","62","397778","0.0-6.0-0.8","2757944","co37993","norming","","","","","","",""
"null","../img/tt/1226tt.jpg","null","mooney1","image-keyboard-response","63","400790","0.0-6.0-1.8","2757944","co37993","norming","","","","","","",""
"5120.530000000144","","","post_mooney1_questions","survey-likert","64","405913","0.0-6.0-2.8","2757944","co37993","norming","","","{""curiosity"":6,""confidence"":1}","[0,1]","../img/tt/1226tt.jpg","",""
"3222.139999998035","","","recognition","survey-text","65","409136","0.0-6.0-3.8","2757944","co37993","norming","","","{""guess"":""zwaan""}","","../img/tt/1226tt.jpg","",""
"null","../img/gs/1226gs.jpg","null","reveal","image-keyboard-response","66","411143","0.0-6.0-4.8","2757944","co37993","norming","","","","","","",""
"null","../img/tt/1226tt.jpg","null","mooney2","image-keyboard-response","67","413145","0.0-6.0-5.8","2757944","co37993","norming","","","","","","",""
"2285.6350000001257","","","post_reveal_questions","survey-likert","68","415433","0.0-6.0-6.8","2757944","co37993","norming","","","{""aha"":6}","[0]","../img/tt/1226tt.jpg","",""
"null","<div style=""font-size:60px;""> </div>","null","fixation","html-keyboard-response","69","415641","0.0-6.0-0.9","2757944","co37993","norming","","","","","","",""
"null","../img/tt/084tt.jpg","null","mooney1","image-keyboard-response","70","418644","0.0-6.0-1.9","2757944","co37993","norming","","","","","","",""
"4042.1000000023632","","","post_mooney1_questions","survey-likert","71","422689","0.0-6.0-2.9","2757944","co37993","norming","","","{""curiosity"":0,""confidence"":6}","[0,1]","../img/tt/084tt.jpg","",""
"2182.0650000008754","","","recognition","survey-text","72","424873","0.0-6.0-3.9","2757944","co37993","norming","","","{""guess"":""eend""}","","../img/tt/084tt.jpg","",""
"null","../img/gs/084gs.jpg","null","reveal","image-keyboard-response","73","426876","0.0-6.0-4.9","2757944","co37993","norming","","","","","","",""
"null","../img/tt/084tt.jpg","null","mooney2","image-keyboard-response","74","428887","0.0-6.0-5.9","2757944","co37993","norming","","","","","","",""
"2159.560000000056","","","post_reveal_questions","survey-likert","75","431049","0.0-6.0-6.9","2757944","co37993","norming","","","{""aha"":0}","[0]","../img/tt/084tt.jpg","",""
"null","<div style=""font-size:60px;""> </div>","null","fixation","html-keyboard-response","76","431250","0.0-6.0-0.10","2757944","co37993","norming","","","","","","",""
"null","../img/tt/046tt.jpg","null","mooney1","image-keyboard-response","77","434254","0.0-6.0-1.10","2757944","co37993","norming","","","","","","",""
"4375.339999998687","","","post_mooney1_questions","survey-likert","78","438633","0.0-6.0-2.10","2757944","co37993","norming","","","{""curiosity"":4,""confidence"":2}","[0,1]","../img/tt/046tt.jpg","",""
"2518.195000000531","","","recognition","survey-text","79","441153","0.0-6.0-3.10","2757944","co37993","norming","","","{""guess"":""hond""}","","../img/tt/046tt.jpg","",""
"null","../img/gs/046gs.jpg","null","reveal","image-keyboard-response","80","443161","0.0-6.0-4.10","2757944","co37993","norming","","","","","","",""
"null","../img/tt/046tt.jpg","null","mooney2","image-keyboard-response","81","445171","0.0-6.0-5.10","2757944","co37993","norming","","","","","","",""
"1587.9249999998137","","","post_reveal_questions","survey-likert","82","446761","0.0-6.0-6.10","2757944","co37993","norming","","","{""aha"":4}","[0]","../img/tt/046tt.jpg","",""
"null","<div style=""font-size:60px;""> </div>","null","fixation","html-keyboard-response","83","446963","0.0-6.0-0.11","2757944","co37993","norming","","","","","","",""
"null","../img/tt/598tt.jpg","null","mooney1","image-keyboard-response","84","449967","0.0-6.0-1.11","2757944","co37993","norming","","","","","","",""
"4711.4999999976135","","","post_mooney1_questions","survey-likert","85","454681","0.0-6.0-2.11","2757944","co37993","norming","","","{""curiosity"":6,""confidence"":0}","[0,1]","../img/tt/598tt.jpg","",""
"3294.0550000020885","","","recognition","survey-text","86","457977","0.0-6.0-3.11","2757944","co37993","norming","","","{""guess"":""kat""}","","../img/tt/598tt.jpg","",""
"null","../img/gs/598gs.jpg","null","reveal","image-keyboard-response","87","459986","0.0-6.0-4.11","2757944","co37993","norming","","","","","","",""
"null","../img/tt/598tt.jpg","null","mooney2","image-keyboard-response","88","461997","0.0-6.0-5.11","2757944","co37993","norming","","","","","","",""
"1609.0499999991152","","","post_reveal_questions","survey-likert","89","463609","0.0-6.0-6.11","2757944","co37993","norming","","","{""aha"":6}","[0]","../img/tt/598tt.jpg","",""
"null","<div style=""font-size:60px;""> </div>","null","fixation","html-keyboard-response","90","463812","0.0-6.0-0.12","2757944","co37993","norming","","","","","","",""
"null","../img/tt/1290tt.jpg","null","mooney1","image-keyboard-response","91","466819","0.0-6.0-1.12","2757944","co37993","norming","","","","","","",""
"3722.5749999997206","","","post_mooney1_questions","survey-likert","92","470545","0.0-6.0-2.12","2757944","co37993","norming","","","{""curiosity"":6,""confidence"":0}","[0,1]","../img/tt/1290tt.jpg","",""
"5766.335000000254","","","recognition","survey-text","93","476313","0.0-6.0-3.12","2757944","co37993","norming","","","{""guess"":""granaat""}","","../img/tt/1290tt.jpg","",""
"null","../img/gs/1290gs.jpg","null","reveal","image-keyboard-response","94","478315","0.0-6.0-4.12","2757944","co37993","norming","","","","","","",""
"null","../img/tt/1290tt.jpg","null","mooney2","image-keyboard-response","95","480325","0.0-6.0-5.12","2757944","co37993","norming","","","","","","",""
"2297.3000000019674","","","post_reveal_questions","survey-likert","96","482625","0.0-6.0-6.12","2757944","co37993","norming","","","{""aha"":6}","[0]","../img/tt/1290tt.jpg","",""
"null","<div style=""font-size:60px;""> </div>","null","fixation","html-keyboard-response","97","482830","0.0-6.0-0.13","2757944","co37993","norming","","","","","","",""
"null","../img/tt/1224tt.jpg","null","mooney1","image-keyboard-response","98","485842","0.0-6.0-1.13","2757944","co37993","norming","","","","","","",""
"5085.650000000955","","","post_mooney1_questions","survey-likert","99","490929","0.0-6.0-2.13","2757944","co37993","norming","","","{""curiosity"":5,""confidence"":1}","[0,1]","../img/tt/1224tt.jpg","",""
"5862.1149999999325","","","recognition","survey-text","100","496793","0.0-6.0-3.13","2757944","co37993","norming","","","{""guess"":""oude vrouw""}","","../img/tt/1224tt.jpg","",""
"null","../img/gs/1224gs.jpg","null","reveal","image-keyboard-response","101","498802","0.0-6.0-4.13","2757944","co37993","norming","","","","","","",""
"null","../img/tt/1224tt.jpg","null","mooney2","image-keyboard-response","102","500812","0.0-6.0-5.13","2757944","co37993","norming","","","","","","",""
"2026.559999998426","","","post_reveal_questions","survey-likert","103","502841","0.0-6.0-6.13","2757944","co37993","norming","","","{""aha"":6}","[0]","../img/tt/1224tt.jpg","",""
"null","<div style=""font-size:60px;""> </div>","null","fixation","html-keyboard-response","104","503044","0.0-6.0-0.14","2757944","co37993","norming","","","","","","",""
"null","../img/tt/329tt.jpg","null","mooney1","image-keyboard-response","105","506054","0.0-6.0-1.14","2757944","co37993","norming","","","","","","",""
"2968.1449999988545","","","post_mooney1_questions","survey-likert","106","509025","0.0-6.0-2.14","2757944","co37993","norming","","","{""curiosity"":6,""confidence"":0}","[0,1]","../img/tt/329tt.jpg","",""
"2806.2250000002678","","","recognition","survey-text","107","511833","0.0-6.0-3.14","2757944","co37993","norming","","","{""guess"":""stoel""}","","../img/tt/329tt.jpg","",""
"null","../img/gs/329gs.jpg","null","reveal","image-keyboard-response","108","513839","0.0-6.0-4.14","2757944","co37993","norming","","","","","","",""
"null","../img/tt/329tt.jpg","null","mooney2","image-keyboard-response","109","515843","0.0-6.0-5.14","2757944","co37993","norming","","","","","","",""
"1699.8400000011316","","","post_reveal_questions","survey-likert","110","517545","0.0-6.0-6.14","2757944","co37993","norming","","","{""aha"":6}","[0]","../img/tt/329tt.jpg","",""
"null","<div style=""font-size:60px;""> </div>","null","fixation","html-keyboard-response","111","517746","0.0-6.0-0.15","2757944","co37993","norming","","","","","","",""
"null","../img/tt/189tt.jpg","null","mooney1","image-keyboard-response","112","520753","0.0-6.0-1.15","2757944","co37993","norming","","","","","","",""
"4709.409999999509","","","post_mooney1_questions","survey-likert","113","525465","0.0-6.0-2.15","2757944","co37993","norming","","","{""curiosity"":6,""confidence"":0}","[0,1]","../img/tt/189tt.jpg","",""
"3110.029999999795","","","recognition","survey-text","114","528577","0.0-6.0-3.15","2757944","co37993","norming","","","{""guess"":""surfer""}","","../img/tt/189tt.jpg","",""
"null","../img/gs/189gs.jpg","null","reveal","image-keyboard-response","115","530586","0.0-6.0-4.15","2757944","co37993","norming","","","","","","",""
"null","../img/tt/189tt.jpg","null","mooney2","image-keyboard-response","116","532596","0.0-6.0-5.15","2757944","co37993","norming","","","","","","",""
"2026.0650000018068","","","post_reveal_questions","survey-likert","117","534617","0.0-6.0-6.15","2757944","co37993","norming","","","{""aha"":6}","[0]","../img/tt/189tt.jpg","",""
"null","<div style=""font-size:60px;""> </div>","null","fixation","html-keyboard-response","118","534823","0.0-6.0-0.16","2757944","co37993","norming","","","","","","",""
"null","../img/tt/1254tt.jpg","null","mooney1","image-keyboard-response","119","537834","0.0-6.0-1.16","2757944","co37993","norming","","","","","","",""
"4395.590000000084","","","post_mooney1_questions","survey-likert","120","542234","0.0-6.0-2.16","2757944","co37993","norming","","","{""curiosity"":3,""confidence"":5}","[0,1]","../img/tt/1254tt.jpg","",""
"3230.15000000305","","","recognition","survey-text","121","545465","0.0-6.0-3.16","2757944","co37993","norming","","","{""guess"":""konijn""}","","../img/tt/1254tt.jpg","",""
"null","../img/gs/1254gs.jpg","null","reveal","image-keyboard-response","122","547470","0.0-6.0-4.16","2757944","co37993","norming","","","","","","",""
"null","../img/tt/1254tt.jpg","null","mooney2","image-keyboard-response","123","549474","0.0-6.0-5.16","2757944","co37993","norming","","","","","","",""
"3261.3450000026496","","","post_reveal_questions","survey-likert","124","552738","0.0-6.0-6.16","2757944","co37993","norming","","","{""aha"":1}","[0]","../img/tt/1254tt.jpg","",""
"null","<div style=""font-size:60px;""> </div>","null","fixation","html-keyboard-response","125","552940","0.0-6.0-0.17","2757944","co37993","norming","","","","","","",""
"null","../img/tt/1044tt.jpg","null","mooney1","image-keyboard-response","126","555949","0.0-6.0-1.17","2757944","co37993","norming","","","","","","",""
"8609.899999999441","","","post_mooney1_questions","survey-likert","127","564562","0.0-6.0-2.17","2757944","co37993","norming","","","{""curiosity"":6,""confidence"":0}","[0,1]","../img/tt/1044tt.jpg","",""
"15454.235000001034","","","recognition","survey-text","128","580017","0.0-6.0-3.17","2757944","co37993","norming","","","{""guess"":""omgekeerde wasmand""}","","../img/tt/1044tt.jpg","",""
"null","../img/gs/1044gs.jpg","null","reveal","image-keyboard-response","129","582028","0.0-6.0-4.17","2757944","co37993","norming","","","","","","",""
"null","../img/tt/1044tt.jpg","null","mooney2","image-keyboard-response","130","584037","0.0-6.0-5.17","2757944","co37993","norming","","","","","","",""
"2314.585000000079","","","post_reveal_questions","survey-likert","131","586354","0.0-6.0-6.17","2757944","co37993","norming","","","{""aha"":6}","[0]","../img/tt/1044tt.jpg","",""
"null","<div style=""font-size:60px;""> </div>","null","fixation","html-keyboard-response","132","586555","0.0-6.0-0.18","2757944","co37993","norming","","","","","","",""
"null","../img/tt/1053tt.jpg","null","mooney1","image-keyboard-response","133","589561","0.0-6.0-1.18","2757944","co37993","norming","","","","","","",""
"3222.09500000102","","","post_mooney1_questions","survey-likert","134","592786","0.0-6.0-2.18","2757944","co37993","norming","","","{""curiosity"":1,""confidence"":5}","[0,1]","../img/tt/1053tt.jpg","",""
"3389.940000000992","","","recognition","survey-text","135","596182","0.0-6.0-3.18","2757944","co37993","norming","","","{""guess"":""koeien""}","","../img/tt/1053tt.jpg","",""
"null","../img/gs/1053gs.jpg","null","reveal","image-keyboard-response","136","598189","0.0-6.0-4.18","2757944","co37993","norming","","","","","","",""
"null","../img/tt/1053tt.jpg","null","mooney2","image-keyboard-response","137","600195","0.0-6.0-5.18","2757944","co37993","norming","","","","","","",""
"2936.7849999980535","","","post_reveal_questions","survey-likert","138","603134","0.0-6.0-6.18","2757944","co37993","norming","","","{""aha"":2}","[0]","../img/tt/1053tt.jpg","",""
"null","<div style=""font-size:60px;""> </div>","null","fixation","html-keyboard-response","139","603345","0.0-6.0-0.19","2757944","co37993","norming","","","","","","",""
"null","../img/tt/442tt.jpg","null","mooney1","image-keyboard-response","140","606350","0.0-6.0-1.19","2757944","co37993","norming","","","","","","",""
"4749.644999999902","","","post_mooney1_questions","survey-likert","141","611102","0.0-6.0-2.19","2757944","co37993","norming","","","{""curiosity"":6,""confidence"":0}","[0,1]","../img/tt/442tt.jpg","",""
"8278.044999999227","","","recognition","survey-text","142","619382","0.0-6.0-3.19","2757944","co37993","norming","","","{""guess"":""slang""}","","../img/tt/442tt.jpg","",""
"null","../img/gs/442gs.jpg","null","reveal","image-keyboard-response","143","621390","0.0-6.0-4.19","2757944","co37993","norming","","","","","","",""
"null","../img/tt/442tt.jpg","null","mooney2","image-keyboard-response","144","623401","0.0-6.0-5.19","2757944","co37993","norming","","","","","","",""
"2058.9099999996834","","","post_reveal_questions","survey-likert","145","625462","0.0-6.0-6.19","2757944","co37993","norming","","","{""aha"":5}","[0]","../img/tt/442tt.jpg","",""
"null","<div style=""font-size:60px;""> </div>","null","fixation","html-keyboard-response","146","625663","0.0-6.0-0.20","2757944","co37993","norming","","","","","","",""
"null","../img/tt/477tt.jpg","null","mooney1","image-keyboard-response","147","628668","0.0-6.0-1.20","2757944","co37993","norming","","","","","","",""
"3615.5700000018114","","","post_mooney1_questions","survey-likert","148","632286","0.0-6.0-2.20","2757944","co37993","norming","","","{""curiosity"":6,""confidence"":0}","[0,1]","../img/tt/477tt.jpg","",""
"4213.934999999823","","","recognition","survey-text","149","636502","0.0-6.0-3.20","2757944","co37993","norming","","","{""guess"":""vissen""}","","../img/tt/477tt.jpg","",""
"null","../img/gs/477gs.jpg","null","reveal","image-keyboard-response","150","638505","0.0-6.0-4.20","2757944","co37993","norming","","","","","","",""
"null","../img/tt/477tt.jpg","null","mooney2","image-keyboard-response","151","640506","0.0-6.0-5.20","2757944","co37993","norming","","","","","","",""
"1458.9799999993993","","","post_reveal_questions","survey-likert","152","641966","0.0-6.0-6.20","2757944","co37993","norming","","","{""aha"":6}","[0]","../img/tt/477tt.jpg","",""
"null","<div style=""font-size:60px;""> </div>","null","fixation","html-keyboard-response","153","642172","0.0-6.0-0.21","2757944","co37993","norming","","","","","","",""
"null","../img/tt/1116tt.jpg","null","mooney1","image-keyboard-response","154","645175","0.0-6.0-1.21","2757944","co37993","norming","","","","","","",""
"3988.199999999837","","","post_mooney1_questions","survey-likert","155","649166","0.0-6.0-2.21","2757944","co37993","norming","","","{""curiosity"":6,""confidence"":0}","[0,1]","../img/tt/1116tt.jpg","",""
"2781.9349999991246","","","recognition","survey-text","156","651950","0.0-6.0-3.21","2757944","co37993","norming","","","{""guess"":""boten""}","","../img/tt/1116tt.jpg","",""
"null","../img/gs/1116gs.jpg","null","reveal","image-keyboard-response","157","653953","0.0-6.0-4.21","2757944","co37993","norming","","","","","","",""
"null","../img/tt/1116tt.jpg","null","mooney2","image-keyboard-response","158","655962","0.0-6.0-5.21","2757944","co37993","norming","","","","","","",""
"3093.3550000009127","","","post_reveal_questions","survey-likert","159","659057","0.0-6.0-6.21","2757944","co37993","norming","","","{""aha"":6}","[0]","../img/tt/1116tt.jpg","",""
"null","<div style=""font-size:60px;""> </div>","null","fixation","html-keyboard-response","160","659259","0.0-6.0-0.22","2757944","co37993","norming","","","","","","",""
"null","../img/tt/1200tt.jpg","null","mooney1","image-keyboard-response","161","662266","0.0-6.0-1.22","2757944","co37993","norming","","","","","","",""
"4316.050000001327","","","post_mooney1_questions","survey-likert","162","666585","0.0-6.0-2.22","2757944","co37993","norming","","","{""curiosity"":6,""confidence"":0}","[0,1]","../img/tt/1200tt.jpg","",""
"5462.254999998491","","","recognition","survey-text","163","672049","0.0-6.0-3.22","2757944","co37993","norming","","","{""guess"":""bankstel""}","","../img/tt/1200tt.jpg","",""
"null","../img/gs/1200gs.jpg","null","reveal","image-keyboard-response","164","674058","0.0-6.0-4.22","2757944","co37993","norming","","","","","","",""
"null","../img/tt/1200tt.jpg","null","mooney2","image-keyboard-response","165","676061","0.0-6.0-5.22","2757944","co37993","norming","","","","","","",""
"1242.5000000002328","","","post_reveal_questions","survey-likert","166","677305","0.0-6.0-6.22","2757944","co37993","norming","","","{""aha"":6}","[0]","../img/tt/1200tt.jpg","",""
"null","<div style=""font-size:60px;""> </div>","null","fixation","html-keyboard-response","167","677510","0.0-6.0-0.23","2757944","co37993","norming","","","","","","",""
"null","../img/tt/1270tt.jpg","null","mooney1","image-keyboard-response","168","680519","0.0-6.0-1.23","2757944","co37993","norming","","","","","","",""
"3465.4300000001676","","","post_mooney1_questions","survey-likert","169","683985","0.0-6.0-2.23","2757944","co37993","norming","","","{""curiosity"":6,""confidence"":1}","[0,1]","../img/tt/1270tt.jpg","",""
"5206.049999997136","","","recognition","survey-text","170","689193","0.0-6.0-3.23","2757944","co37993","norming","","","{""guess"":""chameleon""}","","../img/tt/1270tt.jpg","",""
"null","../img/gs/1270gs.jpg","null","reveal","image-keyboard-response","171","691198","0.0-6.0-4.23","2757944","co37993","norming","","","","","","",""
"null","../img/tt/1270tt.jpg","null","mooney2","image-keyboard-response","172","693207","0.0-6.0-5.23","2757944","co37993","norming","","","","","","",""
"1935.3999999985099","","","post_reveal_questions","survey-likert","173","695145","0.0-6.0-6.23","2757944","co37993","norming","","","{""aha"":6}","[0]","../img/tt/1270tt.jpg","",""
"null","<div style=""font-size:60px;""> </div>","null","fixation","html-keyboard-response","174","695350","0.0-6.0-0.24","2757944","co37993","norming","","","","","","",""
"null","../img/tt/1217tt.jpg","null","mooney1","image-keyboard-response","175","698356","0.0-6.0-1.24","2757944","co37993","norming","","","","","","",""
"2817.9849999978906","","","post_mooney1_questions","survey-likert","176","701177","0.0-6.0-2.24","2757944","co37993","norming","","","{""curiosity"":6,""confidence"":1}","[0,1]","../img/tt/1217tt.jpg","",""
"4734.259999997448","","","recognition","survey-text","177","705913","0.0-6.0-3.24","2757944","co37993","norming","","","{""guess"":""paarden""}","","../img/tt/1217tt.jpg","",""
"null","../img/gs/1217gs.jpg","null","reveal","image-keyboard-response","178","707921","0.0-6.0-4.24","2757944","co37993","norming","","","","","","",""
"null","../img/tt/1217tt.jpg","null","mooney2","image-keyboard-response","179","709926","0.0-6.0-5.24","2757944","co37993","norming","","","","","","",""
"1494.6200000013923","","","post_reveal_questions","survey-likert","180","711425","0.0-6.0-6.24","2757944","co37993","norming","","","{""aha"":6}","[0]","../img/tt/1217tt.jpg","",""
"null","<div style=""font-size:60px;""> </div>","null","fixation","html-keyboard-response","181","711628","0.0-6.0-0.25","2757944","co37993","norming","","","","","","",""
"null","../img/tt/1048tt.jpg","null","mooney1","image-keyboard-response","182","714639","0.0-6.0-1.25","2757944","co37993","norming","","","","","","",""
"5431.945000000298","","","post_mooney1_questions","survey-likert","183","720066","0.0-6.0-2.25","2757944","co37993","norming","","","{""curiosity"":6,""confidence"":0}","[0,1]","../img/tt/1048tt.jpg","",""
"8494.030000001658","","","recognition","survey-text","184","728562","0.0-6.0-3.25","2757944","co37993","norming","","","{""guess"":""giraf""}","","../img/tt/1048tt.jpg","",""
"null","../img/gs/1048gs.jpg","null","reveal","image-keyboard-response","185","730565","0.0-6.0-4.25","2757944","co37993","norming","","","","","","",""
"null","../img/tt/1048tt.jpg","null","mooney2","image-keyboard-response","186","732571","0.0-6.0-5.25","2757944","co37993","norming","","","","","","",""
"1614.1800000004005","","","post_reveal_questions","survey-likert","187","734186","0.0-6.0-6.25","2757944","co37993","norming","","","{""aha"":6}","[0]","../img/tt/1048tt.jpg","",""
"null","<div style=""font-size:60px;""> </div>","null","fixation","html-keyboard-response","188","734389","0.0-6.0-0.26","2757944","co37993","norming","","","","","","",""
"null","../img/tt/1255tt.jpg","null","mooney1","image-keyboard-response","189","737396","0.0-6.0-1.26","2757944","co37993","norming","","","","","","",""
"2570.6600000011967","","","post_mooney1_questions","survey-likert","190","739970","0.0-6.0-2.26","2757944","co37993","norming","","","{""curiosity"":6,""confidence"":1}","[0,1]","../img/tt/1255tt.jpg","",""
"2734.390000001411","","","recognition","survey-text","191","742706","0.0-6.0-3.26","2757944","co37993","norming","","","{""guess"":""konijn""}","","../img/tt/1255tt.jpg","",""
"null","../img/gs/1255gs.jpg","null","reveal","image-keyboard-response","192","744711","0.0-6.0-4.26","2757944","co37993","norming","","","","","","",""
"null","../img/tt/1255tt.jpg","null","mooney2","image-keyboard-response","193","746716","0.0-6.0-5.26","2757944","co37993","norming","","","","","","",""
"1803.4799999987008","","","post_reveal_questions","survey-likert","194","748522","0.0-6.0-6.26","2757944","co37993","norming","","","{""aha"":5}","[0]","../img/tt/1255tt.jpg","",""
"null","<div style=""font-size:60px;""> </div>","null","fixation","html-keyboard-response","195","748723","0.0-6.0-0.27","2757944","co37993","norming","","","","","","",""
"null","../img/tt/135tt.jpg","null","mooney1","image-keyboard-response","196","751728","0.0-6.0-1.27","2757944","co37993","norming","","","","","","",""
"5071.495000000112","","","post_mooney1_questions","survey-likert","197","756802","0.0-6.0-2.27","2757944","co37993","norming","","","{""curiosity"":1,""confidence"":6}","[0,1]","../img/tt/135tt.jpg","",""
"5478.100000000326","","","recognition","survey-text","198","762282","0.0-6.0-3.27","2757944","co37993","norming","","","{""guess"":""wc""}","","../img/tt/135tt.jpg","",""
"null","../img/gs/135gs.jpg","null","reveal","image-keyboard-response","199","764292","0.0-6.0-4.27","2757944","co37993","norming","","","","","","",""
"null","../img/tt/135tt.jpg","null","mooney2","image-keyboard-response","200","766302","0.0-6.0-5.27","2757944","co37993","norming","","","","","","",""
"4209.17499999993","","","post_reveal_questions","survey-likert","201","770514","0.0-6.0-6.27","2757944","co37993","norming","","","{""aha"":0}","[0]","../img/tt/135tt.jpg","",""
"null","<div style=""font-size:60px;""> </div>","null","fixation","html-keyboard-response","202","770715","0.0-6.0-0.28","2757944","co37993","norming","","","","","","",""
"null","../img/tt/1070tt.jpg","null","mooney1","image-keyboard-response","203","773718","0.0-6.0-1.28","2757944","co37993","norming","","","","","","",""
"4409.335000000312","","","post_mooney1_questions","survey-likert","204","778137","0.0-6.0-2.28","2757944","co37993","norming","","","{""curiosity"":6,""confidence"":0}","[0,1]","../img/tt/1070tt.jpg","",""
"16037.960000001476","","","recognition","survey-text","205","794177","0.0-6.0-3.28","2757944","co37993","norming","","","{""guess"":""broodje friekandel""}","","../img/tt/1070tt.jpg","",""
"null","../img/gs/1070gs.jpg","null","reveal","image-keyboard-response","206","796185","0.0-6.0-4.28","2757944","co37993","norming","","","","","","",""
"null","../img/tt/1070tt.jpg","null","mooney2","image-keyboard-response","207","798195","0.0-6.0-5.28","2757944","co37993","norming","","","","","","",""
"1979.8250000021653","","","post_reveal_questions","survey-likert","208","800177","0.0-6.0-6.28","2757944","co37993","norming","","","{""aha"":6}","[0]","../img/tt/1070tt.jpg","",""
"null","<div style=""font-size:60px;""> </div>","null","fixation","html-keyboard-response","209","800386","0.0-6.0-0.29","2757944","co37993","norming","","","","","","",""
"null","../img/tt/440tt.jpg","null","mooney1","image-keyboard-response","210","803391","0.0-6.0-1.29","2757944","co37993","norming","","","","","","",""
"4463.794999999693","","","post_mooney1_questions","survey-likert","211","807857","0.0-6.0-2.29","2757944","co37993","norming","","","{""curiosity"":6,""confidence"":1}","[0,1]","../img/tt/440tt.jpg","",""
"3342.254999999539","","","recognition","survey-text","212","811201","0.0-6.0-3.29","2757944","co37993","norming","","","{""guess"":""paard""}","","../img/tt/440tt.jpg","",""
"null","../img/gs/440gs.jpg","null","reveal","image-keyboard-response","213","813203","0.0-6.0-4.29","2757944","co37993","norming","","","","","","",""
"null","../img/tt/440tt.jpg","null","mooney2","image-keyboard-response","214","815210","0.0-6.0-5.29","2757944","co37993","norming","","","","","","",""
"1613.2949999991106","","","post_reveal_questions","survey-likert","215","816825","0.0-6.0-6.29","2757944","co37993","norming","","","{""aha"":6}","[0]","../img/tt/440tt.jpg","",""
"null","<div style=""font-size:60px;""> </div>","null","fixation","html-keyboard-response","216","817027","0.0-6.0-0.30","2757944","co37993","norming","","","","","","",""
"null","../img/tt/1199tt.jpg","null","mooney1","image-keyboard-response","217","820032","0.0-6.0-1.30","2757944","co37993","norming","","","","","","",""
"4038.18500000122","","","post_mooney1_questions","survey-likert","218","824073","0.0-6.0-2.30","2757944","co37993","norming","","","{""curiosity"":6,""confidence"":2}","[0,1]","../img/tt/1199tt.jpg","",""
"4389.894999996643","","","recognition","survey-text","219","828465","0.0-6.0-3.30","2757944","co37993","norming","","","{""guess"":""vrouw""}","","../img/tt/1199tt.jpg","",""
"null","../img/gs/1199gs.jpg","null","reveal","image-keyboard-response","220","830468","0.0-6.0-4.30","2757944","co37993","norming","","","","","","",""
"null","../img/tt/1199tt.jpg","null","mooney2","image-keyboard-response","221","832476","0.0-6.0-5.30","2757944","co37993","norming","","","","","","",""
"2588.100000000908","","","post_reveal_questions","survey-likert","222","835065","0.0-6.0-6.30","2757944","co37993","norming","","","{""aha"":6}","[0]","../img/tt/1199tt.jpg","",""
"null","<div style=""font-size:60px;""> </div>","null","fixation","html-keyboard-response","223","835269","0.0-6.0-0.31","2757944","co37993","norming","","","","","","",""
"null","../img/tt/019tt.jpg","null","mooney1","image-keyboard-response","224","838279","0.0-6.0-1.31","2757944","co37993","norming","","","","","","",""
"3023.170000000391","","","post_mooney1_questions","survey-likert","225","841305","0.0-6.0-2.31","2757944","co37993","norming","","","{""curiosity"":6,""confidence"":1}","[0,1]","../img/tt/019tt.jpg","",""
"3694.214999999618","","","recognition","survey-text","226","845001","0.0-6.0-3.31","2757944","co37993","norming","","","{""guess"":""vliegtuig""}","","../img/tt/019tt.jpg","",""
"null","../img/gs/019gs.jpg","null","reveal","image-keyboard-response","227","847003","0.0-6.0-4.31","2757944","co37993","norming","","","","","","",""
"null","../img/tt/019tt.jpg","null","mooney2","image-keyboard-response","228","849005","0.0-6.0-5.31","2757944","co37993","norming","","","","","","",""
"1194.3399999981048","","","post_reveal_questions","survey-likert","229","850201","0.0-6.0-6.31","2757944","co37993","norming","","","{""aha"":6}","[0]","../img/tt/019tt.jpg","",""
"null","<div style=""font-size:60px;""> </div>","null","fixation","html-keyboard-response","230","850407","0.0-6.0-0.32","2757944","co37993","norming","","","","","","",""
"null","../img/tt/121tt.jpg","null","mooney1","image-keyboard-response","231","853415","0.0-6.0-1.32","2757944","co37993","norming","","","","","","",""
"4982.550000000629","","","post_mooney1_questions","survey-likert","232","858401","0.0-6.0-2.32","2757944","co37993","norming","","","{""curiosity"":6,""confidence"":2}","[0,1]","../img/tt/121tt.jpg","",""
"4789.720000000671","","","recognition","survey-text","233","863193","0.0-6.0-3.32","2757944","co37993","norming","","","{""guess"":""nijlpaard""}","","../img/tt/121tt.jpg","",""
"null","../img/gs/121gs.jpg","null","reveal","image-keyboard-response","234","865203","0.0-6.0-4.32","2757944","co37993","norming","","","","","","",""
"null","../img/tt/121tt.jpg","null","mooney2","image-keyboard-response","235","867208","0.0-6.0-5.32","2757944","co37993","norming","","","","","","",""
"1566.5200000002515","","","post_reveal_questions","survey-likert","236","868777","0.0-6.0-6.32","2757944","co37993","norming","","","{""aha"":6}","[0]","../img/tt/121tt.jpg","",""
"null","<div style=""font-size:60px;""> </div>","null","fixation","html-keyboard-response","237","868982","0.0-6.0-0.33","2757944","co37993","norming","","","","","","",""
"null","../img/tt/1175tt.jpg","null","mooney1","image-keyboard-response","238","871988","0.0-6.0-1.33","2757944","co37993","norming","","","","","","",""
"3971.0199999972247","","","post_mooney1_questions","survey-likert","239","875961","0.0-6.0-2.33","2757944","co37993","norming","","","{""curiosity"":6,""confidence"":0}","[0,1]","../img/tt/1175tt.jpg","",""
"26038.019999999902","","","recognition","survey-text","240","901995","0.0-6.0-3.33","2757944","co37993","norming","","","{""guess"":""basketbal""}","","../img/tt/1175tt.jpg","",""
"null","../img/gs/1175gs.jpg","null","reveal","image-keyboard-response","241","904003","0.0-6.0-4.33","2757944","co37993","norming","","","","","","",""
"null","../img/tt/1175tt.jpg","null","mooney2","image-keyboard-response","242","906003","0.0-6.0-5.33","2757944","co37993","norming","","","","","","",""
"1166.8499999977648","","","post_reveal_questions","survey-likert","243","907171","0.0-6.0-6.33","2757944","co37993","norming","","","{""aha"":6}","[0]","../img/tt/1175tt.jpg","",""
"null","<div style=""font-size:60px;""> </div>","null","fixation","html-keyboard-response","244","907378","0.0-6.0-0.34","2757944","co37993","norming","","","","","","",""
"null","../img/tt/1234tt.jpg","null","mooney1","image-keyboard-response","245","910382","0.0-6.0-1.34","2757944","co37993","norming","","","","","","",""
"3971.8549999997485","","","post_mooney1_questions","survey-likert","246","914355","0.0-6.0-2.34","2757944","co37993","norming","","","{""curiosity"":6,""confidence"":0}","[0,1]","../img/tt/1234tt.jpg","",""
"7030.160000002012","","","recognition","survey-text","247","921387","0.0-6.0-3.34","2757944","co37993","norming","","","{""guess"":""speerwerpen""}","","../img/tt/1234tt.jpg","",""
"null","../img/gs/1234gs.jpg","null","reveal","image-keyboard-response","248","923396","0.0-6.0-4.34","2757944","co37993","norming","","","","","","",""
"null","../img/tt/1234tt.jpg","null","mooney2","image-keyboard-response","249","925402","0.0-6.0-5.34","2757944","co37993","norming","","","","","","",""
"2200.690000001574","","","post_reveal_questions","survey-likert","250","927603","0.0-6.0-6.34","2757944","co37993","norming","","","{""aha"":6}","[0]","../img/tt/1234tt.jpg","",""
"null","<div style=""font-size:60px;""> </div>","null","fixation","html-keyboard-response","251","927807","0.0-6.0-0.35","2757944","co37993","norming","","","","","","",""
"null","../img/tt/126tt.jpg","null","mooney1","image-keyboard-response","252","930809","0.0-6.0-1.35","2757944","co37993","norming","","","","","","",""
"3753.4999999989523","","","post_mooney1_questions","survey-likert","253","934564","0.0-6.0-2.35","2757944","co37993","norming","","","{""curiosity"":0,""confidence"":6}","[0,1]","../img/tt/126tt.jpg","",""
"2134.0849999978673","","","recognition","survey-text","254","936699","0.0-6.0-3.35","2757944","co37993","norming","","","{""guess"":""koe""}","","../img/tt/126tt.jpg","",""
"null","../img/gs/126gs.jpg","null","reveal","image-keyboard-response","255","938708","0.0-6.0-4.35","2757944","co37993","norming","","","","","","",""
"null","../img/tt/126tt.jpg","null","mooney2","image-keyboard-response","256","940718","0.0-6.0-5.35","2757944","co37993","norming","","","","","","",""
"2123.214999999618","","","post_reveal_questions","survey-likert","257","942844","0.0-6.0-6.35","2757944","co37993","norming","","","{""aha"":0}","[0]","../img/tt/126tt.jpg","",""
"null","<div style=""font-size:60px;""> </div>","null","fixation","html-keyboard-response","258","943045","0.0-6.0-0.36","2757944","co37993","norming","","","","","","",""
"null","../img/tt/1250tt.jpg","null","mooney1","image-keyboard-response","259","946050","0.0-6.0-1.36","2757944","co37993","norming","","","","","","",""
"4606.954999999376","","","post_mooney1_questions","survey-likert","260","950660","0.0-6.0-2.36","2757944","co37993","norming","","","{""curiosity"":6,""confidence"":1}","[0,1]","../img/tt/1250tt.jpg","",""
"5734.2200000020675","","","recognition","survey-text","261","956396","0.0-6.0-3.36","2757944","co37993","norming","","","{""guess"":""luiaard""}","","../img/tt/1250tt.jpg","",""
"null","../img/gs/1250gs.jpg","null","reveal","image-keyboard-response","262","958402","0.0-6.0-4.36","2757944","co37993","norming","","","","","","",""
"null","../img/tt/1250tt.jpg","null","mooney2","image-keyboard-response","263","960417","0.0-6.0-5.36","2757944","co37993","norming","","","","","","",""
"3526.304999999469","","","post_reveal_questions","survey-likert","264","963946","0.0-6.0-6.36","2757944","co37993","norming","","","{""aha"":6}","[0]","../img/tt/1250tt.jpg","",""
"null","<div style=""font-size:60px;""> </div>","null","fixation","html-keyboard-response","265","964148","0.0-6.0-0.37","2757944","co37993","norming","","","","","","",""
"null","../img/tt/123tt.jpg","null","mooney1","image-keyboard-response","266","967153","0.0-6.0-1.37","2757944","co37993","norming","","","","","","",""
"6294.3650000016205","","","post_mooney1_questions","survey-likert","267","973450","0.0-6.0-2.37","2757944","co37993","norming","","","{""curiosity"":6,""confidence"":0}","[0,1]","../img/tt/123tt.jpg","",""
"3902.0950000012526","","","recognition","survey-text","268","977353","0.0-6.0-3.37","2757944","co37993","norming","","","{""guess"":""aktetas""}","","../img/tt/123tt.jpg","",""
"null","../img/gs/123gs.jpg","null","reveal","image-keyboard-response","269","979355","0.0-6.0-4.37","2757944","co37993","norming","","","","","","",""
"null","../img/tt/123tt.jpg","null","mooney2","image-keyboard-response","270","981357","0.0-6.0-5.37","2757944","co37993","norming","","","","","","",""
"1042.2150000013644","","","post_reveal_questions","survey-likert","271","982401","0.0-6.0-6.37","2757944","co37993","norming","","","{""aha"":6}","[0]","../img/tt/123tt.jpg","",""
"null","<div style=""font-size:60px;""> </div>","null","fixation","html-keyboard-response","272","982603","0.0-6.0-0.38","2757944","co37993","norming","","","","","","",""
"null","../img/tt/1186tt.jpg","null","mooney1","image-keyboard-response","273","985606","0.0-6.0-1.38","2757944","co37993","norming","","","","","","",""
"5936.634999998263","","","post_mooney1_questions","survey-likert","274","991546","0.0-6.0-2.38","2757944","co37993","norming","","","{""curiosity"":6,""confidence"":0}","[0,1]","../img/tt/1186tt.jpg","",""
"4509.989999998594","","","recognition","survey-text","275","996057","0.0-6.0-3.38","2757944","co37993","norming","","","{""guess"":""voetbal""}","","../img/tt/1186tt.jpg","",""
"null","../img/gs/1186gs.jpg","null","reveal","image-keyboard-response","276","998059","0.0-6.0-4.38","2757944","co37993","norming","","","","","","",""
"null","../img/tt/1186tt.jpg","null","mooney2","image-keyboard-response","277","1000069","0.0-6.0-5.38","2757944","co37993","norming","","","","","","",""
"1657.794999999227","","","post_reveal_questions","survey-likert","278","1001729","0.0-6.0-6.38","2757944","co37993","norming","","","{""aha"":6}","[0]","../img/tt/1186tt.jpg","",""
"null","<div style=""font-size:60px;""> </div>","null","fixation","html-keyboard-response","279","1001935","0.0-6.0-0.39","2757944","co37993","norming","","","","","","",""
"null","../img/tt/094tt.jpg","null","mooney1","image-keyboard-response","280","1004944","0.0-6.0-1.39","2757944","co37993","norming","","","","","","",""
"3206.18999999715","","","post_mooney1_questions","survey-likert","281","1008154","0.0-6.0-2.39","2757944","co37993","norming","","","{""curiosity"":6,""confidence"":1}","[0,1]","../img/tt/094tt.jpg","",""
"2093.9049999979325","","","recognition","survey-text","282","1010249","0.0-6.0-3.39","2757944","co37993","norming","","","{""guess"":""koe""}","","../img/tt/094tt.jpg","",""
"null","../img/gs/094gs.jpg","null","reveal","image-keyboard-response","283","1012258","0.0-6.0-4.39","2757944","co37993","norming","","","","","","",""
"null","../img/tt/094tt.jpg","null","mooney2","image-keyboard-response","284","1014268","0.0-6.0-5.39","2757944","co37993","norming","","","","","","",""
"1331.3749999979045","","","post_reveal_questions","survey-likert","285","1015601","0.0-6.0-6.39","2757944","co37993","norming","","","{""aha"":6}","[0]","../img/tt/094tt.jpg","",""
"null","<div style=""font-size:60px;""> </div>","null","fixation","html-keyboard-response","286","1015804","0.0-6.0-0.40","2757944","co37993","norming","","","","","","",""
"null","../img/tt/406tt.jpg","null","mooney1","image-keyboard-response","287","1018815","0.0-6.0-1.40","2757944","co37993","norming","","","","","","",""
"3007.890000000829","","","post_mooney1_questions","survey-likert","288","1021826","0.0-6.0-2.40","2757944","co37993","norming","","","{""curiosity"":6,""confidence"":0}","[0,1]","../img/tt/406tt.jpg","",""
"4749.9150000003865","","","recognition","survey-text","289","1026577","0.0-6.0-3.40","2757944","co37993","norming","","","{""guess"":""vleermuis""}","","../img/tt/406tt.jpg","",""
"null","../img/gs/406gs.jpg","null","reveal","image-keyboard-response","290","1028586","0.0-6.0-4.40","2757944","co37993","norming","","","","","","",""
"null","../img/tt/406tt.jpg","null","mooney2","image-keyboard-response","291","1030587","0.0-6.0-5.40","2757944","co37993","norming","","","","","","",""
"2444.934999999474","","","post_reveal_questions","survey-likert","292","1033034","0.0-6.0-6.40","2757944","co37993","norming","","","{""aha"":6}","[0]","../img/tt/406tt.jpg","",""
"null","<div style=""font-size:60px;""> </div>","null","fixation","html-keyboard-response","293","1033238","0.0-6.0-0.41","2757944","co37993","norming","","","","","","",""
"null","../img/tt/032tt.jpg","null","mooney1","image-keyboard-response","294","1036246","0.0-6.0-1.41","2757944","co37993","norming","","","","","","",""
"2592.6049999980023","","","post_mooney1_questions","survey-likert","295","1038842","0.0-6.0-2.41","2757944","co37993","norming","","","{""curiosity"":6,""confidence"":1}","[0,1]","../img/tt/032tt.jpg","",""
"2837.980000000214","","","recognition","survey-text","296","1041681","0.0-6.0-3.41","2757944","co37993","norming","","","{""guess"":""slang""}","","../img/tt/032tt.jpg","",""
"null","../img/gs/032gs.jpg","null","reveal","image-keyboard-response","297","1043683","0.0-6.0-4.41","2757944","co37993","norming","","","","","","",""
"null","../img/tt/032tt.jpg","null","mooney2","image-keyboard-response","298","1045689","0.0-6.0-5.41","2757944","co37993","norming","","","","","","",""
"1173.9300000008661","","","post_reveal_questions","survey-likert","299","1046866","0.0-6.0-6.41","2757944","co37993","norming","","","{""aha"":6}","[0]","../img/tt/032tt.jpg","",""
"null","<div style=""font-size:60px;""> </div>","null","fixation","html-keyboard-response","300","1047068","0.0-6.0-0.42","2757944","co37993","norming","","","","","","",""
"null","../img/tt/307tt.jpg","null","mooney1","image-keyboard-response","301","1050075","0.0-6.0-1.42","2757944","co37993","norming","","","","","","",""
"2756.550000001909","","","post_mooney1_questions","survey-likert","302","1052834","0.0-6.0-2.42","2757944","co37993","norming","","","{""curiosity"":6,""confidence"":2}","[0,1]","../img/tt/307tt.jpg","",""
"4950.260000001406","","","recognition","survey-text","303","1057786","0.0-6.0-3.42","2757944","co37993","norming","","","{""guess"":""schildpad""}","","../img/tt/307tt.jpg","",""
"null","../img/gs/307gs.jpg","null","reveal","image-keyboard-response","304","1059796","0.0-6.0-4.42","2757944","co37993","norming","","","","","","",""
"null","../img/tt/307tt.jpg","null","mooney2","image-keyboard-response","305","1061803","0.0-6.0-5.42","2757944","co37993","norming","","","","","","",""
"1034.8049999992363","","","post_reveal_questions","survey-likert","306","1062842","0.0-6.0-6.42","2757944","co37993","norming","","","{""aha"":4}","[0]","../img/tt/307tt.jpg","",""
"null","<div style=""font-size:60px;""> </div>","null","fixation","html-keyboard-response","307","1063051","0.0-6.0-0.43","2757944","co37993","norming","","","","","","",""
"null","../img/tt/1307tt.jpg","null","mooney1","image-keyboard-response","308","1066062","0.0-6.0-1.43","2757944","co37993","norming","","","","","","",""
"3264.8849999969825","","","post_mooney1_questions","survey-likert","309","1069330","0.0-6.0-2.43","2757944","co37993","norming","","","{""curiosity"":6,""confidence"":2}","[0,1]","../img/tt/1307tt.jpg","",""
"2974.044999998994","","","recognition","survey-text","310","1072305","0.0-6.0-3.43","2757944","co37993","norming","","","{""guess"":""pauw""}","","../img/tt/1307tt.jpg","",""
"null","../img/gs/1307gs.jpg","null","reveal","image-keyboard-response","311","1074307","0.0-6.0-4.43","2757944","co37993","norming","","","","","","",""
"null","../img/tt/1307tt.jpg","null","mooney2","image-keyboard-response","312","1076315","0.0-6.0-5.43","2757944","co37993","norming","","","","","","",""
"1227.7549999998882","","","post_reveal_questions","survey-likert","313","1077546","0.0-6.0-6.43","2757944","co37993","norming","","","{""aha"":6}","[0]","../img/tt/1307tt.jpg","",""
"null","<div style=""font-size:60px;""> </div>","null","fixation","html-keyboard-response","314","1077756","0.0-6.0-0.44","2757944","co37993","norming","","","","","","",""
"null","../img/tt/481tt.jpg","null","mooney1","image-keyboard-response","315","1080759","0.0-6.0-1.44","2757944","co37993","norming","","","","","","",""
"3047.5149999982677","","","post_mooney1_questions","survey-likert","316","1083807","0.0-6.0-2.44","2757944","co37993","norming","","","{""curiosity"":0,""confidence"":6}","[0,1]","../img/tt/481tt.jpg","",""
"4142.195000000298","","","recognition","survey-text","317","1087951","0.0-6.0-3.44","2757944","co37993","norming","","","{""guess"":""hond""}","","../img/tt/481tt.jpg","",""
"null","../img/gs/481gs.jpg","null","reveal","image-keyboard-response","318","1089953","0.0-6.0-4.44","2757944","co37993","norming","","","","","","",""
"null","../img/tt/481tt.jpg","null","mooney2","image-keyboard-response","319","1091965","0.0-6.0-5.44","2757944","co37993","norming","","","","","","",""
"2774.3349999981","","","post_reveal_questions","survey-likert","320","1094742","0.0-6.0-6.44","2757944","co37993","norming","","","{""aha"":5}","[0]","../img/tt/481tt.jpg","",""
"null","<div style=""font-size:60px;""> </div>","null","fixation","html-keyboard-response","321","1094944","0.0-6.0-0.45","2757944","co37993","norming","","","","","","",""
"null","../img/tt/559tt.jpg","null","mooney1","image-keyboard-response","322","1097956","0.0-6.0-1.45","2757944","co37993","norming","","","","","","",""
"4080.0400000007357","","","post_mooney1_questions","survey-likert","323","1102039","0.0-6.0-2.45","2757944","co37993","norming","","","{""curiosity"":6,""confidence"":3}","[0,1]","../img/tt/559tt.jpg","",""
"4270.020000000019","","","recognition","survey-text","324","1106311","0.0-6.0-3.45","2757944","co37993","norming","","","{""guess"":""naaimachine""}","","../img/tt/559tt.jpg","",""
"null","../img/gs/559gs.jpg","null","reveal","image-keyboard-response","325","1108316","0.0-6.0-4.45","2757944","co37993","norming","","","","","","",""
"null","../img/tt/559tt.jpg","null","mooney2","image-keyboard-response","326","1110319","0.0-6.0-5.45","2757944","co37993","norming","","","","","","",""
"1469.2999999970198","","","post_reveal_questions","survey-likert","327","1111791","0.0-6.0-6.45","2757944","co37993","norming","","","{""aha"":5}","[0]","../img/tt/559tt.jpg","",""
"null","<div style=""font-size:60px;""> </div>","null","fixation","html-keyboard-response","328","1111992","0.0-6.0-0.46","2757944","co37993","norming","","","","","","",""
"null","../img/tt/044tt.jpg","null","mooney1","image-keyboard-response","329","1114993","0.0-6.0-1.46","2757944","co37993","norming","","","","","","",""
"5218.039999999804","","","post_mooney1_questions","survey-likert","330","1120215","0.0-6.0-2.46","2757944","co37993","norming","","","{""curiosity"":4,""confidence"":4}","[0,1]","../img/tt/044tt.jpg","",""
"4853.689999999944","","","recognition","survey-text","331","1125070","0.0-6.0-3.46","2757944","co37993","norming","","","{""guess"":""computer""}","","../img/tt/044tt.jpg","",""
"null","../img/gs/044gs.jpg","null","reveal","image-keyboard-response","332","1127080","0.0-6.0-4.46","2757944","co37993","norming","","","","","","",""
"null","../img/tt/044tt.jpg","null","mooney2","image-keyboard-response","333","1129089","0.0-6.0-5.46","2757944","co37993","norming","","","","","","",""
"1690.4949999987148","","","post_reveal_questions","survey-likert","334","1130782","0.0-6.0-6.46","2757944","co37993","norming","","","{""aha"":6}","[0]","../img/tt/044tt.jpg","",""
"null","<div style=""font-size:60px;""> </div>","null","fixation","html-keyboard-response","335","1130984","0.0-6.0-0.47","2757944","co37993","norming","","","","","","",""
"null","../img/tt/007tt.jpg","null","mooney1","image-keyboard-response","336","1133987","0.0-6.0-1.47","2757944","co37993","norming","","","","","","",""
"3552.180000002263","","","post_mooney1_questions","survey-likert","337","1137543","0.0-6.0-2.47","2757944","co37993","norming","","","{""curiosity"":6,""confidence"":2}","[0,1]","../img/tt/007tt.jpg","",""
"3965.9400000018068","","","recognition","survey-text","338","1141511","0.0-6.0-3.47","2757944","co37993","norming","","","{""guess"":""walrus""}","","../img/tt/007tt.jpg","",""
"null","../img/gs/007gs.jpg","null","reveal","image-keyboard-response","339","1143516","0.0-6.0-4.47","2757944","co37993","norming","","","","","","",""
"null","../img/tt/007tt.jpg","null","mooney2","image-keyboard-response","340","1145524","0.0-6.0-5.47","2757944","co37993","norming","","","","","","",""
"1658.8400000000838","","","post_reveal_questions","survey-likert","341","1147186","0.0-6.0-6.47","2757944","co37993","norming","","","{""aha"":6}","[0]","../img/tt/007tt.jpg","",""
"null","<div style=""font-size:60px;""> </div>","null","fixation","html-keyboard-response","342","1147390","0.0-6.0-0.48","2757944","co37993","norming","","","","","","",""
"null","../img/tt/1171tt.jpg","null","mooney1","image-keyboard-response","343","1150395","0.0-6.0-1.48","2757944","co37993","norming","","","","","","",""
"3187.1050000009127","","","post_mooney1_questions","survey-likert","344","1153586","0.0-6.0-2.48","2757944","co37993","norming","","","{""curiosity"":6,""confidence"":0}","[0,1]","../img/tt/1171tt.jpg","",""
"2686.3849999972153","","","recognition","survey-text","345","1156274","0.0-6.0-3.48","2757944","co37993","norming","","","{""guess"":""panda""}","","../img/tt/1171tt.jpg","",""
"null","../img/gs/1171gs.jpg","null","reveal","image-keyboard-response","346","1158281","0.0-6.0-4.48","2757944","co37993","norming","","","","","","",""
"null","../img/tt/1171tt.jpg","null","mooney2","image-keyboard-response","347","1160289","0.0-6.0-5.48","2757944","co37993","norming","","","","","","",""
"1493.4799999971874","","","post_reveal_questions","survey-likert","348","1161786","0.0-6.0-6.48","2757944","co37993","norming","","","{""aha"":6}","[0]","../img/tt/1171tt.jpg","",""
"null","<div style=""font-size:60px;""> </div>","null","fixation","html-keyboard-response","349","1161996","0.0-6.0-0.49","2757944","co37993","norming","","","","","","",""
"null","../img/tt/1251tt.jpg","null","mooney1","image-keyboard-response","350","1165007","0.0-6.0-1.49","2757944","co37993","norming","","","","","","",""
"3976.050000000978","","","post_mooney1_questions","survey-likert","351","1168986","0.0-6.0-2.49","2757944","co37993","norming","","","{""curiosity"":6,""confidence"":0}","[0,1]","../img/tt/1251tt.jpg","",""
"2470.110000002198","","","recognition","survey-text","352","1171457","0.0-6.0-3.49","2757944","co37993","norming","","","{""guess"":""geit""}","","../img/tt/1251tt.jpg","",""
"null","../img/gs/1251gs.jpg","null","reveal","image-keyboard-response","353","1173459","0.0-6.0-4.49","2757944","co37993","norming","","","","","","",""
"null","../img/tt/1251tt.jpg","null","mooney2","image-keyboard-response","354","1175467","0.0-6.0-5.49","2757944","co37993","norming","","","","","","",""
"1676.4250000014435","","","post_reveal_questions","survey-likert","355","1177146","0.0-6.0-6.49","2757944","co37993","norming","","","{""aha"":6}","[0]","../img/tt/1251tt.jpg","",""
"null","<div style=""font-size:60px;""> </div>","null","fixation","html-keyboard-response","356","1177352","0.0-6.0-0.50","2757944","co37993","norming","","","","","","",""
"null","../img/tt/1087tt.jpg","null","mooney1","image-keyboard-response","357","1180358","0.0-6.0-1.50","2757944","co37993","norming","","","","","","",""
"4584.445000000531","","","post_mooney1_questions","survey-likert","358","1184946","0.0-6.0-2.50","2757944","co37993","norming","","","{""curiosity"":6,""confidence"":0}","[0,1]","../img/tt/1087tt.jpg","",""
"4573.89499999769","","","recognition","survey-text","359","1189521","0.0-6.0-3.50","2757944","co37993","norming","","","{""guess"":""schapen""}","","../img/tt/1087tt.jpg","",""
"null","../img/gs/1087gs.jpg","null","reveal","image-keyboard-response","360","1191530","0.0-6.0-4.50","2757944","co37993","norming","","","","","","",""
"null","../img/tt/1087tt.jpg","null","mooney2","image-keyboard-response","361","1193540","0.0-6.0-5.50","2757944","co37993","norming","","","","","","",""
"1202.489999999525","","","post_reveal_questions","survey-likert","362","1194745","0.0-6.0-6.50","2757944","co37993","norming","","","{""aha"":6}","[0]","../img/tt/1087tt.jpg","",""
"null","<div style=""font-size:60px;""> </div>","null","fixation","html-keyboard-response","363","1194947","0.0-6.0-0.51","2757944","co37993","norming","","","","","","",""
"null","../img/tt/194tt.jpg","null","mooney1","image-keyboard-response","364","1197952","0.0-6.0-1.51","2757944","co37993","norming","","","","","","",""
"6206.515000001527","","","post_mooney1_questions","survey-likert","365","1204154","0.0-6.0-2.51","2757944","co37993","norming","","","{""curiosity"":3,""confidence"":5}","[0,1]","../img/tt/194tt.jpg","",""
"4565.835000001127","","","recognition","survey-text","366","1208722","0.0-6.0-3.51","2757944","co37993","norming","","","{""guess"":""harp""}","","../img/tt/194tt.jpg","",""
"null","../img/gs/194gs.jpg","null","reveal","image-keyboard-response","367","1210727","0.0-6.0-4.51","2757944","co37993","norming","","","","","","",""
"null","../img/tt/194tt.jpg","null","mooney2","image-keyboard-response","368","1212733","0.0-6.0-5.51","2757944","co37993","norming","","","","","","",""
"3474.569999998668","","","post_reveal_questions","survey-likert","369","1216210","0.0-6.0-6.51","2757944","co37993","norming","","","{""aha"":3}","[0]","../img/tt/194tt.jpg","",""
"null","<div style=""font-size:60px;""> </div>","null","fixation","html-keyboard-response","370","1216419","0.0-6.0-0.52","2757944","co37993","norming","","","","","","",""
"null","../img/tt/296tt.jpg","null","mooney1","image-keyboard-response","371","1219425","0.0-6.0-1.52","2757944","co37993","norming","","","","","","",""
"3917.734999999171","","","post_mooney1_questions","survey-likert","372","1223346","0.0-6.0-2.52","2757944","co37993","norming","","","{""curiosity"":6,""confidence"":1}","[0,1]","../img/tt/296tt.jpg","",""
"4462.5100000011735","","","recognition","survey-text","373","1227810","0.0-6.0-3.52","2757944","co37993","norming","","","{""guess"":""kinderwagen""}","","../img/tt/296tt.jpg","",""
"null","../img/gs/296gs.jpg","null","reveal","image-keyboard-response","374","1229813","0.0-6.0-4.52","2757944","co37993","norming","","","","","","",""
"null","../img/tt/296tt.jpg","null","mooney2","image-keyboard-response","375","1231816","0.0-6.0-5.52","2757944","co37993","norming","","","","","","",""
"1543.9149999981746","","","post_reveal_questions","survey-likert","376","1233362","0.0-6.0-6.52","2757944","co37993","norming","","","{""aha"":6}","[0]","../img/tt/296tt.jpg","",""
"null","<div style=""font-size:60px;""> </div>","null","fixation","html-keyboard-response","377","1233564","0.0-6.0-0.53","2757944","co37993","norming","","","","","","",""
"null","../img/tt/1069tt.jpg","null","mooney1","image-keyboard-response","378","1236570","0.0-6.0-1.53","2757944","co37993","norming","","","","","","",""
"4326.614999998361","","","post_mooney1_questions","survey-likert","379","1240898","0.0-6.0-2.53","2757944","co37993","norming","","","{""curiosity"":1,""confidence"":5}","[0,1]","../img/tt/1069tt.jpg","",""
"2933.9499999985565","","","recognition","survey-text","380","1243834","0.0-6.0-3.53","2757944","co37993","norming","","","{""guess"":""ram""}","","../img/tt/1069tt.jpg","",""
"null","../img/gs/1069gs.jpg","null","reveal","image-keyboard-response","381","1245842","0.0-6.0-4.53","2757944","co37993","norming","","","","","","",""
"null","../img/tt/1069tt.jpg","null","mooney2","image-keyboard-response","382","1247853","0.0-6.0-5.53","2757944","co37993","norming","","","","","","",""
"2890.8699999991804","","","post_reveal_questions","survey-likert","383","1250746","0.0-6.0-6.53","2757944","co37993","norming","","","{""aha"":1}","[0]","../img/tt/1069tt.jpg","",""
"null","<div style=""font-size:60px;""> </div>","null","fixation","html-keyboard-response","384","1250955","0.0-6.0-0.54","2757944","co37993","norming","","","","","","",""
"null","../img/tt/301tt.jpg","null","mooney1","image-keyboard-response","385","1253961","0.0-6.0-1.54","2757944","co37993","norming","","","","","","",""
"3750.570000000065","","","post_mooney1_questions","survey-likert","386","1257714","0.0-6.0-2.54","2757944","co37993","norming","","","{""curiosity"":6,""confidence"":0}","[0,1]","../img/tt/301tt.jpg","",""
"12189.955000001704","","","recognition","survey-text","387","1269905","0.0-6.0-3.54","2757944","co37993","norming","","","{""guess"":""zangeres""}","","../img/tt/301tt.jpg","",""
"null","../img/gs/301gs.jpg","null","reveal","image-keyboard-response","388","1271911","0.0-6.0-4.54","2757944","co37993","norming","","","","","","",""
"null","../img/tt/301tt.jpg","null","mooney2","image-keyboard-response","389","1273913","0.0-6.0-5.54","2757944","co37993","norming","","","","","","",""
"1877.519999998156","","","post_reveal_questions","survey-likert","390","1275793","0.0-6.0-6.54","2757944","co37993","norming","","","{""aha"":6}","[0]","../img/tt/301tt.jpg","",""
"null","<div style=""font-size:60px;""> </div>","null","fixation","html-keyboard-response","391","1275994","0.0-6.0-0.55","2757944","co37993","norming","","","","","","",""
"null","../img/tt/515tt.jpg","null","mooney1","image-keyboard-response","392","1279004","0.0-6.0-1.55","2757944","co37993","norming","","","","","","",""
"2705.7549999991897","","","post_mooney1_questions","survey-likert","393","1281713","0.0-6.0-2.55","2757944","co37993","norming","","","{""curiosity"":6,""confidence"":0}","[0,1]","../img/tt/515tt.jpg","",""
"3021.9949999991804","","","recognition","survey-text","394","1284737","0.0-6.0-3.55","2757944","co37993","norming","","","{""guess"":""vogel""}","","../img/tt/515tt.jpg","",""
"null","../img/gs/515gs.jpg","null","reveal","image-keyboard-response","395","1286738","0.0-6.0-4.55","2757944","co37993","norming","","","","","","",""
"null","../img/tt/515tt.jpg","null","mooney2","image-keyboard-response","396","1288749","0.0-6.0-5.55","2757944","co37993","norming","","","","","","",""
"2345.8200000021607","","","post_reveal_questions","survey-likert","397","1291097","0.0-6.0-6.55","2757944","co37993","norming","","","{""aha"":6}","[0]","../img/tt/515tt.jpg","",""
"null","<div style=""font-size:60px;""> </div>","null","fixation","html-keyboard-response","398","1291302","0.0-6.0-0.56","2757944","co37993","norming","","","","","","",""
"null","../img/tt/1227tt.jpg","null","mooney1","image-keyboard-response","399","1294310","0.0-6.0-1.56","2757944","co37993","norming","","","","","","",""
"4143.4350000019185","","","post_mooney1_questions","survey-likert","400","1298457","0.0-6.0-2.56","2757944","co37993","norming","","","{""curiosity"":6,""confidence"":0}","[0,1]","../img/tt/1227tt.jpg","",""
"3894.1549999981653","","","recognition","survey-text","401","1302353","0.0-6.0-3.56","2757944","co37993","norming","","","{""guess"":""gitaar""}","","../img/tt/1227tt.jpg","",""
"null","../img/gs/1227gs.jpg","null","reveal","image-keyboard-response","402","1304359","0.0-6.0-4.56","2757944","co37993","norming","","","","","","",""
"null","../img/tt/1227tt.jpg","null","mooney2","image-keyboard-response","403","1306361","0.0-6.0-5.56","2757944","co37993","norming","","","","","","",""
"1581.5250000015367","","","post_reveal_questions","survey-likert","404","1307945","0.0-6.0-6.56","2757944","co37993","norming","","","{""aha"":6}","[0]","../img/tt/1227tt.jpg","",""
"null","<div style=""font-size:60px;""> </div>","null","fixation","html-keyboard-response","405","1308153","0.0-6.0-0.57","2757944","co37993","norming","","","","","","",""
"null","../img/tt/549tt.jpg","null","mooney1","image-keyboard-response","406","1311158","0.0-6.0-1.57","2757944","co37993","norming","","","","","","",""
"3632.230000003008","","","post_mooney1_questions","survey-likert","407","1314793","0.0-6.0-2.57","2757944","co37993","norming","","","{""curiosity"":6,""confidence"":0}","[0,1]","../img/tt/549tt.jpg","",""
"3645.884999997914","","","recognition","survey-text","408","1318441","0.0-6.0-3.57","2757944","co37993","norming","","","{""guess"":""zwemmer""}","","../img/tt/549tt.jpg","",""
"null","../img/gs/549gs.jpg","null","reveal","image-keyboard-response","409","1320444","0.0-6.0-4.57","2757944","co37993","norming","","","","","","",""
"null","../img/tt/549tt.jpg","null","mooney2","image-keyboard-response","410","1322451","0.0-6.0-5.57","2757944","co37993","norming","","","","","","",""
"1373.33000000217","","","post_reveal_questions","survey-likert","411","1323825","0.0-6.0-6.57","2757944","co37993","norming","","","{""aha"":6}","[0]","../img/tt/549tt.jpg","",""
"null","<div style=""font-size:60px;""> </div>","null","fixation","html-keyboard-response","412","1324033","0.0-6.0-0.58","2757944","co37993","norming","","","","","","",""
"null","../img/tt/435tt.jpg","null","mooney1","image-keyboard-response","413","1327051","0.0-6.0-1.58","2757944","co37993","norming","","","","","","",""
"4395.575000002049","","","post_mooney1_questions","survey-likert","414","1331450","0.0-6.0-2.58","2757944","co37993","norming","","","{""curiosity"":6,""confidence"":1}","[0,1]","../img/tt/435tt.jpg","",""
"22437.855000000214","","","recognition","survey-text","415","1353890","0.0-6.0-3.58","2757944","co37993","norming","","","{""guess"":""flipperkast""}","","../img/tt/435tt.jpg","",""
"null","../img/gs/435gs.jpg","null","reveal","image-keyboard-response","416","1355893","0.0-6.0-4.58","2757944","co37993","norming","","","","","","",""
"null","../img/tt/435tt.jpg","null","mooney2","image-keyboard-response","417","1357900","0.0-6.0-5.58","2757944","co37993","norming","","","","","","",""
"1819.3099999988917","","","post_reveal_questions","survey-likert","418","1359722","0.0-6.0-6.58","2757944","co37993","norming","","","{""aha"":6}","[0]","../img/tt/435tt.jpg","",""
"null","<div style=""font-size:60px;""> </div>","null","fixation","html-keyboard-response","419","1359925","0.0-6.0-0.59","2757944","co37993","norming","","","","","","",""
"null","../img/tt/306tt.jpg","null","mooney1","image-keyboard-response","420","1362931","0.0-6.0-1.59","2757944","co37993","norming","","","","","","",""
"3203.5399999986403","","","post_mooney1_questions","survey-likert","421","1366138","0.0-6.0-2.59","2757944","co37993","norming","","","{""curiosity"":6,""confidence"":0}","[0,1]","../img/tt/306tt.jpg","",""
"3165.975000000093","","","recognition","survey-text","422","1369306","0.0-6.0-3.59","2757944","co37993","norming","","","{""guess"":""krab""}","","../img/tt/306tt.jpg","",""
"null","../img/gs/306gs.jpg","null","reveal","image-keyboard-response","423","1371317","0.0-6.0-4.59","2757944","co37993","norming","","","","","","",""
"null","../img/tt/306tt.jpg","null","mooney2","image-keyboard-response","424","1373319","0.0-6.0-5.59","2757944","co37993","norming","","","","","","",""
"1799.165000000503","","","post_reveal_questions","survey-likert","425","1375122","0.0-6.0-6.59","2757944","co37993","norming","","","{""aha"":6}","[0]","../img/tt/306tt.jpg","",""
"null","<div style=""font-size:60px;""> </div>","null","fixation","html-keyboard-response","426","1375326","0.0-6.0-0.60","2757944","co37993","norming","","","","","","",""
"null","../img/tt/1151tt.jpg","null","mooney1","image-keyboard-response","427","1378330","0.0-6.0-1.60","2757944","co37993","norming","","","","","","",""
"2861.574999999022","","","post_mooney1_questions","survey-likert","428","1381194","0.0-6.0-2.60","2757944","co37993","norming","","","{""curiosity"":6,""confidence"":0}","[0,1]","../img/tt/1151tt.jpg","",""
"2918.170000000857","","","recognition","survey-text","429","1384114","0.0-6.0-3.60","2757944","co37993","norming","","","{""guess"":""schoen""}","","../img/tt/1151tt.jpg","",""
"null","../img/gs/1151gs.jpg","null","reveal","image-keyboard-response","430","1386121","0.0-6.0-4.60","2757944","co37993","norming","","","","","","",""
"null","../img/tt/1151tt.jpg","null","mooney2","image-keyboard-response","431","1388124","0.0-6.0-5.60","2757944","co37993","norming","","","","","","",""
"1635.5350000013132","","","post_reveal_questions","survey-likert","432","1389762","0.0-6.0-6.60","2757944","co37993","norming","","","{""aha"":6}","[0]","../img/tt/1151tt.jpg","",""
"null","<div style=""font-size:60px;""> </div>","null","fixation","html-keyboard-response","433","1389971","0.0-6.0-0.61","2757944","co37993","norming","","","","","","",""
"null","../img/tt/552tt.jpg","null","mooney1","image-keyboard-response","434","1392976","0.0-6.0-1.61","2757944","co37993","norming","","","","","","",""
"3119.300000002142","","","post_mooney1_questions","survey-likert","435","1396098","0.0-6.0-2.61","2757944","co37993","norming","","","{""curiosity"":6,""confidence"":1}","[0,1]","../img/tt/552tt.jpg","",""
"3614.7649999985006","","","recognition","survey-text","436","1399714","0.0-6.0-3.61","2757944","co37993","norming","","","{""guess"":""stinkdier""}","","../img/tt/552tt.jpg","",""
"null","../img/gs/552gs.jpg","null","reveal","image-keyboard-response","437","1401725","0.0-6.0-4.61","2757944","co37993","norming","","","","","","",""
"null","../img/tt/552tt.jpg","null","mooney2","image-keyboard-response","438","1403732","0.0-6.0-5.61","2757944","co37993","norming","","","","","","",""
"2539.3600000024308","","","post_reveal_questions","survey-likert","439","1406274","0.0-6.0-6.61","2757944","co37993","norming","","","{""aha"":5}","[0]","../img/tt/552tt.jpg","",""
"null","<div style=""font-size:60px;""> </div>","null","fixation","html-keyboard-response","440","1406476","0.0-6.0-0.62","2757944","co37993","norming","","","","","","",""
"null","../img/tt/118tt.jpg","null","mooney1","image-keyboard-response","441","1409487","0.0-6.0-1.62","2757944","co37993","norming","","","","","","",""
"3776.284999999916","","","post_mooney1_questions","survey-likert","442","1413266","0.0-6.0-2.62","2757944","co37993","norming","","","{""curiosity"":6,""confidence"":1}","[0,1]","../img/tt/118tt.jpg","",""
"3213.7399999990594","","","recognition","survey-text","443","1416482","0.0-6.0-3.62","2757944","co37993","norming","","","{""guess"":""piano""}","","../img/tt/118tt.jpg","",""
"null","../img/gs/118gs.jpg","null","reveal","image-keyboard-response","444","1418484","0.0-6.0-4.62","2757944","co37993","norming","","","","","","",""
"null","../img/tt/118tt.jpg","null","mooney2","image-keyboard-response","445","1420487","0.0-6.0-5.62","2757944","co37993","norming","","","","","","",""
"1698.1100000010338","","","post_reveal_questions","survey-likert","446","1422186","0.0-6.0-6.62","2757944","co37993","norming","","","{""aha"":6}","[0]","../img/tt/118tt.jpg","",""
"null","<div style=""font-size:60px;""> </div>","null","fixation","html-keyboard-response","447","1422392","0.0-6.0-0.63","2757944","co37993","norming","","","","","","",""
"null","../img/tt/584tt.jpg","null","mooney1","image-keyboard-response","448","1425406","0.0-6.0-1.63","2757944","co37993","norming","","","","","","",""
"7128.9749999996275","","","post_mooney1_questions","survey-likert","449","1432538","0.0-6.0-2.63","2757944","co37993","norming","","","{""curiosity"":2,""confidence"":5}","[0,1]","../img/tt/584tt.jpg","",""
"10774.099999998929","","","recognition","survey-text","450","1443314","0.0-6.0-3.63","2757944","co37993","norming","","","{""guess"":""gereedschap""}","","../img/tt/584tt.jpg","",""
"null","../img/gs/584gs.jpg","null","reveal","image-keyboard-response","451","1445315","0.0-6.0-4.63","2757944","co37993","norming","","","","","","",""
"null","../img/tt/584tt.jpg","null","mooney2","image-keyboard-response","452","1447326","0.0-6.0-5.63","2757944","co37993","norming","","","","","","",""
"1417.1650000025984","","","post_reveal_questions","survey-likert","453","1448736","0.0-6.0-6.63","2757944","co37993","norming","","","{""aha"":0}","[0]","../img/tt/584tt.jpg","",""
"null","<div style=""font-size:60px;""> </div>","null","fixation","html-keyboard-response","454","1448942","0.0-6.0-0.64","2757944","co37993","norming","","","","","","",""
"null","../img/tt/140tt.jpg","null","mooney1","image-keyboard-response","455","1451944","0.0-6.0-1.64","2757944","co37993","norming","","","","","","",""
"4413.669999998063","","","post_mooney1_questions","survey-likert","456","1456362","0.0-6.0-2.64","2757944","co37993","norming","","","{""curiosity"":2,""confidence"":5}","[0,1]","../img/tt/140tt.jpg","",""
"2517.6399999982677","","","recognition","survey-text","457","1458881","0.0-6.0-3.64","2757944","co37993","norming","","","{""guess"":""vorken""}","","../img/tt/140tt.jpg","",""
"null","../img/gs/140gs.jpg","null","reveal","image-keyboard-response","458","1460885","0.0-6.0-4.64","2757944","co37993","norming","","","","","","",""
"null","../img/tt/140tt.jpg","null","mooney2","image-keyboard-response","459","1462896","0.0-6.0-5.64","2757944","co37993","norming","","","","","","",""
"1846.3449999981094","","","post_reveal_questions","survey-likert","460","1464745","0.0-6.0-6.64","2757944","co37993","norming","","","{""aha"":0}","[0]","../img/tt/140tt.jpg","",""
"null","<div style=""font-size:60px;""> </div>","null","fixation","html-keyboard-response","461","1464950","0.0-6.0-0.65","2757944","co37993","norming","","","","","","",""
"null","../img/tt/1181tt.jpg","null","mooney1","image-keyboard-response","462","1467956","0.0-6.0-1.65","2757944","co37993","norming","","","","","","",""
"4625.674999999348","","","post_mooney1_questions","survey-likert","463","1472585","0.0-6.0-2.65","2757944","co37993","norming","","","{""curiosity"":5,""confidence"":1}","[0,1]","../img/tt/1181tt.jpg","",""
"2677.8899999989662","","","recognition","survey-text","464","1475265","0.0-6.0-3.65","2757944","co37993","norming","","","{""guess"":""golfer""}","","../img/tt/1181tt.jpg","",""
"null","../img/gs/1181gs.jpg","null","reveal","image-keyboard-response","465","1477268","0.0-6.0-4.65","2757944","co37993","norming","","","","","","",""
"null","../img/tt/1181tt.jpg","null","mooney2","image-keyboard-response","466","1479277","0.0-6.0-5.65","2757944","co37993","norming","","","","","","",""
"1984.8050000001676","","","post_reveal_questions","survey-likert","467","1481265","0.0-6.0-6.65","2757944","co37993","norming","","","{""aha"":6}","[0]","../img/tt/1181tt.jpg","",""
"null","<div style=""font-size:60px;""> </div>","null","fixation","html-keyboard-response","468","1481476","0.0-6.0-0.66","2757944","co37993","norming","","","","","","",""
"null","../img/tt/1123tt.jpg","null","mooney1","image-keyboard-response","469","1484485","0.0-6.0-1.66","2757944","co37993","norming","","","","","","",""
"4419.299999997718","","","post_mooney1_questions","survey-likert","470","1488905","0.0-6.0-2.66","2757944","co37993","norming","","","{""curiosity"":6,""confidence"":2}","[0,1]","../img/tt/1123tt.jpg","",""
"3926.054999999702","","","recognition","survey-text","471","1492833","0.0-6.0-3.66","2757944","co37993","norming","","","{""guess"":""basketballer""}","","../img/tt/1123tt.jpg","",""
"null","../img/gs/1123gs.jpg","null","reveal","image-keyboard-response","472","1494841","0.0-6.0-4.66","2757944","co37993","norming","","","","","","",""
"null","../img/tt/1123tt.jpg","null","mooney2","image-keyboard-response","473","1496843","0.0-6.0-5.66","2757944","co37993","norming","","","","","","",""
"1827.5649999994785","","","post_reveal_questions","survey-likert","474","1498673","0.0-6.0-6.66","2757944","co37993","norming","","","{""aha"":6}","[0]","../img/tt/1123tt.jpg","",""
"null","<div style=""font-size:60px;""> </div>","null","fixation","html-keyboard-response","475","1498883","0.0-6.0-0.67","2757944","co37993","norming","","","","","","",""
"null","../img/tt/319tt.jpg","null","mooney1","image-keyboard-response","476","1501886","0.0-6.0-1.67","2757944","co37993","norming","","","","","","",""
"3783.644999999553","","","post_mooney1_questions","survey-likert","477","1505673","0.0-6.0-2.67","2757944","co37993","norming","","","{""curiosity"":4,""confidence"":4}","[0,1]","../img/tt/319tt.jpg","",""
"4741.869999998016","","","recognition","survey-text","478","1510424","0.0-6.0-3.67","2757944","co37993","norming","","","{""guess"":""ezels""}","","../img/tt/319tt.jpg","",""
"null","../img/gs/319gs.jpg","null","reveal","image-keyboard-response","479","1512432","0.0-6.0-4.67","2757944","co37993","norming","","","","","","",""
"null","../img/tt/319tt.jpg","null","mooney2","image-keyboard-response","480","1514443","0.0-6.0-5.67","2757944","co37993","norming","","","","","","",""
"2010.6149999992922","","","post_reveal_questions","survey-likert","481","1516457","0.0-6.0-6.67","2757944","co37993","norming","","","{""aha"":4}","[0]","../img/tt/319tt.jpg","",""
"null","<div style=""font-size:60px;""> </div>","null","fixation","html-keyboard-response","482","1516663","0.0-6.0-0.68","2757944","co37993","norming","","","","","","",""
"null","../img/tt/111tt.jpg","null","mooney1","image-keyboard-response","483","1519674","0.0-6.0-1.68","2757944","co37993","norming","","","","","","",""
"4483.534999999218","","","post_mooney1_questions","survey-likert","484","1524161","0.0-6.0-2.68","2757944","co37993","norming","","","{""curiosity"":6,""confidence"":0}","[0,1]","../img/tt/111tt.jpg","",""
"3813.750000001164","","","recognition","survey-text","485","1527976","0.0-6.0-3.68","2757944","co37993","norming","","","{""guess"":""zeep""}","","../img/tt/111tt.jpg","",""
"null","../img/gs/111gs.jpg","null","reveal","image-keyboard-response","486","1529983","0.0-6.0-4.68","2757944","co37993","norming","","","","","","",""
"null","../img/tt/111tt.jpg","null","mooney2","image-keyboard-response","487","1531995","0.0-6.0-5.68","2757944","co37993","norming","","","","","","",""
"1747.0600000014529","","","post_reveal_questions","survey-likert","488","1533745","0.0-6.0-6.68","2757944","co37993","norming","","","{""aha"":6}","[0]","../img/tt/111tt.jpg","",""
"null","<div style=""font-size:60px;""> </div>","null","fixation","html-keyboard-response","489","1533946","0.0-6.0-0.69","2757944","co37993","norming","","","","","","",""
"null","../img/tt/1241tt.jpg","null","mooney1","image-keyboard-response","490","1536957","0.0-6.0-1.69","2757944","co37993","norming","","","","","","",""
"7058.160000000615","","","post_mooney1_questions","survey-likert","491","1544017","0.0-6.0-2.69","2757944","co37993","norming","","","{""curiosity"":6,""confidence"":4}","[0,1]","../img/tt/1241tt.jpg","",""
"3269.9350000002887","","","recognition","survey-text","492","1547288","0.0-6.0-3.69","2757944","co37993","norming","","","{""guess"":""poemas""}","","../img/tt/1241tt.jpg","",""
"null","../img/gs/1241gs.jpg","null","reveal","image-keyboard-response","493","1549295","0.0-6.0-4.69","2757944","co37993","norming","","","","","","",""
"null","../img/tt/1241tt.jpg","null","mooney2","image-keyboard-response","494","1551303","0.0-6.0-5.69","2757944","co37993","norming","","","","","","",""
"1718.730000000447","","","post_reveal_questions","survey-likert","495","1553025","0.0-6.0-6.69","2757944","co37993","norming","","","{""aha"":6}","[0]","../img/tt/1241tt.jpg","",""
"null","<div style=""font-size:60px;""> </div>","null","fixation","html-keyboard-response","496","1553226","0.0-6.0-0.70","2757944","co37993","norming","","","","","","",""
"null","../img/tt/1004tt.jpg","null","mooney1","image-keyboard-response","497","1556238","0.0-6.0-1.70","2757944","co37993","norming","","","","","","",""
"3527.3200000009965","","","post_mooney1_questions","survey-likert","498","1559769","0.0-6.0-2.70","2757944","co37993","norming","","","{""curiosity"":0,""confidence"":6}","[0,1]","../img/tt/1004tt.jpg","",""
"4509.895000003045","","","recognition","survey-text","499","1564281","0.0-6.0-3.70","2757944","co37993","norming","","","{""guess"":""olifant""}","","../img/tt/1004tt.jpg","",""
"null","../img/gs/1004gs.jpg","null","reveal","image-keyboard-response","500","1566290","0.0-6.0-4.70","2757944","co37993","norming","","","","","","",""
"null","../img/tt/1004tt.jpg","null","mooney2","image-keyboard-response","501","1568294","0.0-6.0-5.70","2757944","co37993","norming","","","","","","",""
"4975.645000002347","","","post_reveal_questions","survey-likert","502","1573268","0.0-6.0-6.70","2757944","co37993","norming","","","{""aha"":4}","[0]","../img/tt/1004tt.jpg","",""
"null","<div style=""font-size:60px;""> </div>","null","fixation","html-keyboard-response","503","1573473","0.0-6.0-0.71","2757944","co37993","norming","","","","","","",""
"null","../img/tt/1126tt.jpg","null","mooney1","image-keyboard-response","504","1576476","0.0-6.0-1.71","2757944","co37993","norming","","","","","","",""
"3741.9549999975134","","","post_mooney1_questions","survey-likert","505","1580220","0.0-6.0-2.71","2757944","co37993","norming","","","{""curiosity"":6,""confidence"":4}","[0,1]","../img/tt/1126tt.jpg","",""
"2606.1650000012014","","","recognition","survey-text","506","1582828","0.0-6.0-3.71","2757944","co37993","norming","","","{""guess"":""kikker""}","","../img/tt/1126tt.jpg","",""
"null","../img/gs/1126gs.jpg","null","reveal","image-keyboard-response","507","1584830","0.0-6.0-4.71","2757944","co37993","norming","","","","","","",""
"null","../img/tt/1126tt.jpg","null","mooney2","image-keyboard-response","508","1586840","0.0-6.0-5.71","2757944","co37993","norming","","","","","","",""
"1409.5100000014063","","","post_reveal_questions","survey-likert","509","1588252","0.0-6.0-6.71","2757944","co37993","norming","","","{""aha"":6}","[0]","../img/tt/1126tt.jpg","",""
"null","<div style=""font-size:60px;""> </div>","null","fixation","html-keyboard-response","510","1588455","0.0-6.0-0.72","2757944","co37993","norming","","","","","","",""
"null","../img/tt/1242tt.jpg","null","mooney1","image-keyboard-response","511","1591463","0.0-6.0-1.72","2757944","co37993","norming","","","","","","",""
"3043.0500000002794","","","post_mooney1_questions","survey-likert","512","1594508","0.0-6.0-2.72","2757944","co37993","norming","","","{""curiosity"":6,""confidence"":2}","[0,1]","../img/tt/1242tt.jpg","",""
"3134.2699999986216","","","recognition","survey-text","513","1597644","0.0-6.0-3.72","2757944","co37993","norming","","","{""guess"":""wolf""}","","../img/tt/1242tt.jpg","",""
"null","../img/gs/1242gs.jpg","null","reveal","image-keyboard-response","514","1599649","0.0-6.0-4.72","2757944","co37993","norming","","","","","","",""
"null","../img/tt/1242tt.jpg","null","mooney2","image-keyboard-response","515","1601662","0.0-6.0-5.72","2757944","co37993","norming","","","","","","",""
"2092.0000000004657","","","post_reveal_questions","survey-likert","516","1603756","0.0-6.0-6.72","2757944","co37993","norming","","","{""aha"":5}","[0]","../img/tt/1242tt.jpg","",""
"null","<div style=""font-size:60px;""> </div>","null","fixation","html-keyboard-response","517","1603959","0.0-6.0-0.73","2757944","co37993","norming","","","","","","",""
"null","../img/tt/1091tt.jpg","null","mooney1","image-keyboard-response","518","1606962","0.0-6.0-1.73","2757944","co37993","norming","","","","","","",""
"2375.555000002263","","","post_mooney1_questions","survey-likert","519","1609341","0.0-6.0-2.73","2757944","co37993","norming","","","{""curiosity"":6,""confidence"":3}","[0,1]","../img/tt/1091tt.jpg","",""
"3669.9949999963865","","","recognition","survey-text","520","1613012","0.0-6.0-3.73","2757944","co37993","norming","","","{""guess"":""gorilla""}","","../img/tt/1091tt.jpg","",""
"null","../img/gs/1091gs.jpg","null","reveal","image-keyboard-response","521","1615015","0.0-6.0-4.73","2757944","co37993","norming","","","","","","",""
"null","../img/tt/1091tt.jpg","null","mooney2","image-keyboard-response","522","1617019","0.0-6.0-5.73","2757944","co37993","norming","","","","","","",""
"1503.5600000009872","","","post_reveal_questions","survey-likert","523","1618524","0.0-6.0-6.73","2757944","co37993","norming","","","{""aha"":6}","[0]","../img/tt/1091tt.jpg","",""
"null","<div style=""font-size:60px;""> </div>","null","fixation","html-keyboard-response","524","1618733","0.0-6.0-0.74","2757944","co37993","norming","","","","","","",""
"null","../img/tt/1353tt.jpg","null","mooney1","image-keyboard-response","525","1621737","0.0-6.0-1.74","2757944","co37993","norming","","","","","","",""
"3464.164999997709","","","post_mooney1_questions","survey-likert","526","1625204","0.0-6.0-2.74","2757944","co37993","norming","","","{""curiosity"":6,""confidence"":0}","[0,1]","../img/tt/1353tt.jpg","",""
"2638.1949999995995","","","recognition","survey-text","527","1627844","0.0-6.0-3.74","2757944","co37993","norming","","","{""guess"":""krab""}","","../img/tt/1353tt.jpg","",""
"null","../img/gs/1353gs.jpg","null","reveal","image-keyboard-response","528","1629858","0.0-6.0-4.74","2757944","co37993","norming","","","","","","",""
"null","../img/tt/1353tt.jpg","null","mooney2","image-keyboard-response","529","1631864","0.0-6.0-5.74","2757944","co37993","norming","","","","","","",""
"3095.39999999851","","","post_reveal_questions","survey-likert","530","1634962","0.0-6.0-6.74","2757944","co37993","norming","","","{""aha"":6}","[0]","../img/tt/1353tt.jpg","",""
"null","<div style=""font-size:60px;""> </div>","null","fixation","html-keyboard-response","531","1635164","0.0-6.0-0.75","2757944","co37993","norming","","","","","","",""
"null","../img/tt/1078tt.jpg","null","mooney1","image-keyboard-response","532","1638167","0.0-6.0-1.75","2757944","co37993","norming","","","","","","",""
"3015.9700000004377","","","post_mooney1_questions","survey-likert","533","1641186","0.0-6.0-2.75","2757944","co37993","norming","","","{""curiosity"":6,""confidence"":0}","[0,1]","../img/tt/1078tt.jpg","",""
"3070.339999998221","","","recognition","survey-text","534","1644258","0.0-6.0-3.75","2757944","co37993","norming","","","{""guess"":""zwemmer""}","","../img/tt/1078tt.jpg","",""
"null","../img/gs/1078gs.jpg","null","reveal","image-keyboard-response","535","1646267","0.0-6.0-4.75","2757944","co37993","norming","","","","","","",""
"null","../img/tt/1078tt.jpg","null","mooney2","image-keyboard-response","536","1648271","0.0-6.0-5.75","2757944","co37993","norming","","","","","","",""
"2440.354999998817","","","post_reveal_questions","survey-likert","537","1650714","0.0-6.0-6.75","2757944","co37993","norming","","","{""aha"":6}","[0]","../img/tt/1078tt.jpg","",""
"null","<div style=""font-size:60px;""> </div>","null","fixation","html-keyboard-response","538","1650916","0.0-6.0-0.76","2757944","co37993","norming","","","","","","",""
"null","../img/tt/1040tt.jpg","null","mooney1","image-keyboard-response","539","1653928","0.0-6.0-1.76","2757944","co37993","norming","","","","","","",""
"5263.119999999646","","","post_mooney1_questions","survey-likert","540","1659195","0.0-6.0-2.76","2757944","co37993","norming","","","{""curiosity"":6,""confidence"":0}","[0,1]","../img/tt/1040tt.jpg","",""
"2725.614999999525","","","recognition","survey-text","541","1661922","0.0-6.0-3.76","2757944","co37993","norming","","","{""guess"":""naald""}","","../img/tt/1040tt.jpg","",""
"null","../img/gs/1040gs.jpg","null","reveal","image-keyboard-response","542","1663932","0.0-6.0-4.76","2757944","co37993","norming","","","","","","",""
"null","../img/tt/1040tt.jpg","null","mooney2","image-keyboard-response","543","1665943","0.0-6.0-5.76","2757944","co37993","norming","","","","","","",""
"2352.1099999998696","","","post_reveal_questions","survey-likert","544","1668298","0.0-6.0-6.76","2757944","co37993","norming","","","{""aha"":6}","[0]","../img/tt/1040tt.jpg","",""
"null","<div style=""font-size:60px;""> </div>","null","fixation","html-keyboard-response","545","1668503","0.0-6.0-0.77","2757944","co37993","norming","","","","","","",""
"null","../img/tt/270tt.jpg","null","mooney1","image-keyboard-response","546","1671514","0.0-6.0-1.77","2757944","co37993","norming","","","","","","",""
"3597.139999998035","","","post_mooney1_questions","survey-likert","547","1675115","0.0-6.0-2.77","2757944","co37993","norming","","","{""curiosity"":6,""confidence"":0}","[0,1]","../img/tt/270tt.jpg","",""
"5621.709999999497","","","recognition","survey-text","548","1680738","0.0-6.0-3.77","2757944","co37993","norming","","","{""guess"":""cowboy hoed""}","","../img/tt/270tt.jpg","",""
"null","../img/gs/270gs.jpg","null","reveal","image-keyboard-response","549","1682740","0.0-6.0-4.77","2757944","co37993","norming","","","","","","",""
"null","../img/tt/270tt.jpg","null","mooney2","image-keyboard-response","550","1684745","0.0-6.0-5.77","2757944","co37993","norming","","","","","","",""
"1158.424999997951","","","post_reveal_questions","survey-likert","551","1685906","0.0-6.0-6.77","2757944","co37993","norming","","","{""aha"":6}","[0]","../img/tt/270tt.jpg","",""
