"rt","stimulus","key_press","test_part","trial_type","trial_index","time_elapsed","internal_node_id","totalTime","subject","experiment_name","button_pressed","success","responses","question_order","currentStim","old","correct"
"4375.310000000013","Welcome to the experiment. This is an online experiment so please don't close the tab/window until we say goodbye.  Press any key to begin.","32","instructions","html-keyboard-response","0","4389","0.0-0.0","2986996","co37618","norming","","","","","","",""
"18069.790000000008","<div style='word-wrap: break-word; width: 900px'><h3>Please consider this information carefully before deciding whether to participate in this research</h3><ul style='text-align: left; font-size: .8em;'><li><b>Purpose of the research</b>: To examine how people process images.</li><li><b>What you will do in this research</b>:  Stimuli (images) will be presented on the computer and you will be asked different questions about them.</li><li><b>Time required</b>: Participation will take between 45 and 60 minutes to complete.</li><li><b>Risks</b>:  There are no anticipated risks associated with participating in this study. The effects of participating should be comparable to those you would experience from viewing a computer monitor for 30 minutes and using a mouse or keyboard.</li><li><b>Benefits</b>:  This study provides no benefits to you individually except for the credit. The study provides important information about the nature of perception and learning.</li><li><b>Confidentiality</b>:  Your participation in this study will remain confidential. No personally identifiable information will be associated with your data. Your de-identified data may be shared with other researchers and used in future projects.</li><li><b>Participation and withdrawal</b>:  Your participation in this study is completely voluntary and you may refuse to participate or you may choose to withdraw at any time without penalty.</li><li><b>How to contact the researchers</b>: If you have questions or concerns about your participation or payment, or want to request a summary of research findings, please contact Sander Van de Cruys (KU Leuven), at sander.vandecruys@kuleuven.be.</li></ul><p>The nature and purpose of this research have been sufficiently explained and I agree to participate in this study.  I understand that I am free to withdraw at any time without incurring any penalty.</p><p>Please consent by clicking the button below to continue. Otherwise, please exit the study at this time.</p></div>","","instructions","html-button-response","1","22461","0.0-1.0","2986996","co37618","norming","0","","","","","",""
"","","","instructions","fullscreen","2","27780","0.0-2.0","2986996","co37618","norming","","true","","","","",""
"24855.35500000003","","","sona","survey-html-form","3","52641","0.0-3.0","2986996","co37618","norming","","","[{""name"":""sonaid"",""value"":""37618""},{""name"":""debrief"",""value"":""yes""},{""name"":""datajoin"",""value"":""yes""}]","","","",""
"73138.45500000002","<div style='word-wrap: break-word; width: 900px'><h3>Instructions</h3><p>This experiment will have 3 parts. In the first part you will see a series of distorted images like the one below on the left. As you can see in the righthand image, the distorted images are derived from actual photographs. In what follows, you will <strong>briefly</strong> be presented with <strong>only</strong> the distorted image.</p> <div style='float: left; margin-right: 20px;'><img src='../img/018tt.jpg' height='250' width='250'></img></div><div style='float: right; margin-left: 20px;'><img src='../img/018gs.jpg' height='250' width='250'></img></div><p>Subsequently you will be asked a few questions about the image: One question on how <strong>curious</strong> you are about the solution and one on how <strong>confident</strong> you are that you know the solution.</p>Next, we ask you to make a guess on what is in the image. Note that it is OK to name just the <strong>basic level category</strong>. For example when you see a parrot in the image, 'parrot' will obviously be a correct answer but also correct is 'bird'. However, 'animal' will <strong>not</strong> be counted as a correct response. For the example above, 'rose' would be correct or 'flower', but not 'plant'. When soccer players are depicted, 'soccer', 'football', 'soccer players' will be correct, but not 'humans', 'outdoors', or 'sports'. You do not need to describe the image in full, just name the main object in it <strong>in one or two words</strong>. All images depict objects from one of the following broad level categories: animals, inanimate objects, plants, sports, vehicles, and food. Recognizing means knowing <strong>more</strong> than these broad labels for a given image. But we always encourage you to <strong>make a guess</strong> if you can. Note that you are allowed to use <strong>Dutch and English</strong> in your answers, whatever comes easiest for you.</p><p>Press any key to continue.</p></div>","32","instructions","html-keyboard-response","4","125774","0.0-4.0","2986996","co37618","norming","","","","","","",""
"20319.12999999996","<div style='word-wrap: break-word; width: 900px'><h3>Instructions</h3> <p>Next, the solution image will be revealed to you and you'll be asked to indicate how strong your <strong>aha-experience</strong> was after seeing the solution. This describes the positive feeling of the 'click' you sometimes experience, when the pieces of the 'puzzle' fall together and you suddenly have 'insight' in the image.</p><img src='aha.jpg' height='188' width='250'></img><p>Note that there are no right or wrong answers. We are interested in what <strong>you</strong> see in the image and how <strong>you</strong> feel about it.</p><p>Press any key to start the experiment.</p></div>","32","instructions","html-keyboard-response","5","146094","0.0-5.0","2986996","co37618","norming","","","","","","",""
"null","<div style=""font-size:60px;""> </div>","null","fixation","html-keyboard-response","6","146302","0.0-6.0-0.0","2986996","co37618","norming","","","","","","",""
"null","../img/tt/380tt.jpg","null","mooney1","image-keyboard-response","7","149304","0.0-6.0-1.0","2986996","co37618","norming","","","","","","",""
"16333.274999999965","","","post_mooney1_questions","survey-likert","8","165639","0.0-6.0-2.0","2986996","co37618","norming","","","{""curiosity"":5,""confidence"":0}","[0,1]","../img/tt/380tt.jpg","",""
"5797.3249999999825","","","recognition","survey-text","9","171438","0.0-6.0-3.0","2986996","co37618","norming","","","{""guess"":""bird""}","","../img/tt/380tt.jpg","",""
"null","../img/gs/380gs.jpg","null","reveal","image-keyboard-response","10","173443","0.0-6.0-4.0","2986996","co37618","norming","","","","","","",""
"null","../img/tt/380tt.jpg","null","mooney2","image-keyboard-response","11","175451","0.0-6.0-5.0","2986996","co37618","norming","","","","","","",""
"7464.879999999976","","","post_reveal_questions","survey-likert","12","182918","0.0-6.0-6.0","2986996","co37618","norming","","","{""aha"":0}","[0]","../img/tt/380tt.jpg","",""
"null","<div style=""font-size:60px;""> </div>","null","fixation","html-keyboard-response","13","183122","0.0-6.0-0.1","2986996","co37618","norming","","","","","","",""
"null","../img/tt/1086tt.jpg","null","mooney1","image-keyboard-response","14","186137","0.0-6.0-1.1","2986996","co37618","norming","","","","","","",""
"8353.744999999879","","","post_mooney1_questions","survey-likert","15","194493","0.0-6.0-2.1","2986996","co37618","norming","","","{""curiosity"":3,""confidence"":4}","[0,1]","../img/tt/1086tt.jpg","",""
"10309.924999999785","","","recognition","survey-text","16","204805","0.0-6.0-3.1","2986996","co37618","norming","","","{""guess"":""people""}","","../img/tt/1086tt.jpg","",""
"null","../img/gs/1086gs.jpg","null","reveal","image-keyboard-response","17","206806","0.0-6.0-4.1","2986996","co37618","norming","","","","","","",""
"null","../img/tt/1086tt.jpg","null","mooney2","image-keyboard-response","18","208810","0.0-6.0-5.1","2986996","co37618","norming","","","","","","",""
"5234.304999999935","","","post_reveal_questions","survey-likert","19","214045","0.0-6.0-6.1","2986996","co37618","norming","","","{""aha"":5}","[0]","../img/tt/1086tt.jpg","",""
"null","<div style=""font-size:60px;""> </div>","null","fixation","html-keyboard-response","20","214246","0.0-6.0-0.2","2986996","co37618","norming","","","","","","",""
"null","../img/tt/270tt.jpg","null","mooney1","image-keyboard-response","21","217255","0.0-6.0-1.2","2986996","co37618","norming","","","","","","",""
"7131.469999999797","","","post_mooney1_questions","survey-likert","22","224389","0.0-6.0-2.2","2986996","co37618","norming","","","{""curiosity"":2,""confidence"":4}","[0,1]","../img/tt/270tt.jpg","",""
"2286.1900000000314","","","recognition","survey-text","23","226677","0.0-6.0-3.2","2986996","co37618","norming","","","{""guess"":""trees""}","","../img/tt/270tt.jpg","",""
"null","../img/gs/270gs.jpg","null","reveal","image-keyboard-response","24","228678","0.0-6.0-4.2","2986996","co37618","norming","","","","","","",""
"null","../img/tt/270tt.jpg","null","mooney2","image-keyboard-response","25","230689","0.0-6.0-5.2","2986996","co37618","norming","","","","","","",""
"2793.6449999999895","","","post_reveal_questions","survey-likert","26","233485","0.0-6.0-6.2","2986996","co37618","norming","","","{""aha"":5}","[0]","../img/tt/270tt.jpg","",""
"null","<div style=""font-size:60px;""> </div>","null","fixation","html-keyboard-response","27","233687","0.0-6.0-0.3","2986996","co37618","norming","","","","","","",""
"null","../img/tt/1279tt.jpg","null","mooney1","image-keyboard-response","28","236691","0.0-6.0-1.3","2986996","co37618","norming","","","","","","",""
"5967.214999999909","","","post_mooney1_questions","survey-likert","29","242661","0.0-6.0-2.3","2986996","co37618","norming","","","{""curiosity"":4,""confidence"":2}","[0,1]","../img/tt/1279tt.jpg","",""
"9501.799999999988","","","recognition","survey-text","30","252157","0.0-6.0-3.3","2986996","co37618","norming","","","{""guess"":""mountain""}","","../img/tt/1279tt.jpg","",""
"null","../img/gs/1279gs.jpg","null","reveal","image-keyboard-response","31","254164","0.0-6.0-4.3","2986996","co37618","norming","","","","","","",""
"null","../img/tt/1279tt.jpg","null","mooney2","image-keyboard-response","32","256174","0.0-6.0-5.3","2986996","co37618","norming","","","","","","",""
"2077.4000000001397","","","post_reveal_questions","survey-likert","33","258254","0.0-6.0-6.3","2986996","co37618","norming","","","{""aha"":2}","[0]","../img/tt/1279tt.jpg","",""
"null","<div style=""font-size:60px;""> </div>","null","fixation","html-keyboard-response","34","258456","0.0-6.0-0.4","2986996","co37618","norming","","","","","","",""
"null","../img/tt/357tt.jpg","null","mooney1","image-keyboard-response","35","261466","0.0-6.0-1.4","2986996","co37618","norming","","","","","","",""
"5897.1149999999325","","","post_mooney1_questions","survey-likert","36","267366","0.0-6.0-2.4","2986996","co37618","norming","","","{""curiosity"":3,""confidence"":2}","[0,1]","../img/tt/357tt.jpg","",""
"2262.1500000000233","","","recognition","survey-text","37","269630","0.0-6.0-3.4","2986996","co37618","norming","","","{""guess"":""fish""}","","../img/tt/357tt.jpg","",""
"null","../img/gs/357gs.jpg","null","reveal","image-keyboard-response","38","271634","0.0-6.0-4.4","2986996","co37618","norming","","","","","","",""
"null","../img/tt/357tt.jpg","null","mooney2","image-keyboard-response","39","273645","0.0-6.0-5.4","2986996","co37618","norming","","","","","","",""
"2767.50499999983","","","post_reveal_questions","survey-likert","40","276414","0.0-6.0-6.4","2986996","co37618","norming","","","{""aha"":1}","[0]","../img/tt/357tt.jpg","",""
"null","<div style=""font-size:60px;""> </div>","null","fixation","html-keyboard-response","41","276615","0.0-6.0-0.5","2986996","co37618","norming","","","","","","",""
"null","../img/tt/1226tt.jpg","null","mooney1","image-keyboard-response","42","279620","0.0-6.0-1.5","2986996","co37618","norming","","","","","","",""
"6383.054999999993","","","post_mooney1_questions","survey-likert","43","286006","0.0-6.0-2.5","2986996","co37618","norming","","","{""curiosity"":1,""confidence"":5}","[0,1]","../img/tt/1226tt.jpg","",""
"6950.109999999986","","","recognition","survey-text","44","292958","0.0-6.0-3.5","2986996","co37618","norming","","","{""guess"":""chicken""}","","../img/tt/1226tt.jpg","",""
"null","../img/gs/1226gs.jpg","null","reveal","image-keyboard-response","45","294964","0.0-6.0-4.5","2986996","co37618","norming","","","","","","",""
"null","../img/tt/1226tt.jpg","null","mooney2","image-keyboard-response","46","296966","0.0-6.0-5.5","2986996","co37618","norming","","","","","","",""
"3061.384999999951","","","post_reveal_questions","survey-likert","47","300030","0.0-6.0-6.5","2986996","co37618","norming","","","{""aha"":0}","[0]","../img/tt/1226tt.jpg","",""
"null","<div style=""font-size:60px;""> </div>","null","fixation","html-keyboard-response","48","300231","0.0-6.0-0.6","2986996","co37618","norming","","","","","","",""
"null","../img/tt/1262tt.jpg","null","mooney1","image-keyboard-response","49","303234","0.0-6.0-1.6","2986996","co37618","norming","","","","","","",""
"9584.45000000007","","","post_mooney1_questions","survey-likert","50","312821","0.0-6.0-2.6","2986996","co37618","norming","","","{""curiosity"":4,""confidence"":4}","[0,1]","../img/tt/1262tt.jpg","",""
"6566.289999999979","","","recognition","survey-text","51","319389","0.0-6.0-3.6","2986996","co37618","norming","","","{""guess"":""peacock""}","","../img/tt/1262tt.jpg","",""
"null","../img/gs/1262gs.jpg","null","reveal","image-keyboard-response","52","321391","0.0-6.0-4.6","2986996","co37618","norming","","","","","","",""
"null","../img/tt/1262tt.jpg","null","mooney2","image-keyboard-response","53","323395","0.0-6.0-5.6","2986996","co37618","norming","","","","","","",""
"3279.8450000000303","","","post_reveal_questions","survey-likert","54","326677","0.0-6.0-6.6","2986996","co37618","norming","","","{""aha"":4}","[0]","../img/tt/1262tt.jpg","",""
"null","<div style=""font-size:60px;""> </div>","null","fixation","html-keyboard-response","55","326879","0.0-6.0-0.7","2986996","co37618","norming","","","","","","",""
"null","../img/tt/1006tt.jpg","null","mooney1","image-keyboard-response","56","329889","0.0-6.0-1.7","2986996","co37618","norming","","","","","","",""
"8865.634999999893","","","post_mooney1_questions","survey-likert","57","338757","0.0-6.0-2.7","2986996","co37618","norming","","","{""curiosity"":6,""confidence"":2}","[0,1]","../img/tt/1006tt.jpg","",""
"2790.085000000079","","","recognition","survey-text","58","341549","0.0-6.0-3.7","2986996","co37618","norming","","","{""guess"":""cow""}","","../img/tt/1006tt.jpg","",""
"null","../img/gs/1006gs.jpg","null","reveal","image-keyboard-response","59","343550","0.0-6.0-4.7","2986996","co37618","norming","","","","","","",""
"null","../img/tt/1006tt.jpg","null","mooney2","image-keyboard-response","60","345551","0.0-6.0-5.7","2986996","co37618","norming","","","","","","",""
"1651.5250000000233","","","post_reveal_questions","survey-likert","61","347205","0.0-6.0-6.7","2986996","co37618","norming","","","{""aha"":5}","[0]","../img/tt/1006tt.jpg","",""
"null","<div style=""font-size:60px;""> </div>","null","fixation","html-keyboard-response","62","347406","0.0-6.0-0.8","2986996","co37618","norming","","","","","","",""
"null","../img/tt/1154tt.jpg","null","mooney1","image-keyboard-response","63","350416","0.0-6.0-1.8","2986996","co37618","norming","","","","","","",""
"9378.909999999916","","","post_mooney1_questions","survey-likert","64","359797","0.0-6.0-2.8","2986996","co37618","norming","","","{""curiosity"":5,""confidence"":1}","[0,1]","../img/tt/1154tt.jpg","",""
"8510.13999999984","","","recognition","survey-text","65","368309","0.0-6.0-3.8","2986996","co37618","norming","","","{""guess"":""""}","","../img/tt/1154tt.jpg","",""
"null","../img/gs/1154gs.jpg","null","reveal","image-keyboard-response","66","370313","0.0-6.0-4.8","2986996","co37618","norming","","","","","","",""
"null","../img/tt/1154tt.jpg","null","mooney2","image-keyboard-response","67","372326","0.0-6.0-5.8","2986996","co37618","norming","","","","","","",""
"2173.8800000000047","","","post_reveal_questions","survey-likert","68","374501","0.0-6.0-6.8","2986996","co37618","norming","","","{""aha"":6}","[0]","../img/tt/1154tt.jpg","",""
"null","<div style=""font-size:60px;""> </div>","null","fixation","html-keyboard-response","69","374703","0.0-6.0-0.9","2986996","co37618","norming","","","","","","",""
"null","../img/tt/273tt.jpg","null","mooney1","image-keyboard-response","70","377705","0.0-6.0-1.9","2986996","co37618","norming","","","","","","",""
"6715.430000000226","","","post_mooney1_questions","survey-likert","71","384421","0.0-6.0-2.9","2986996","co37618","norming","","","{""curiosity"":1,""confidence"":6}","[0,1]","../img/tt/273tt.jpg","",""
"7805.965000000026","","","recognition","survey-text","72","392229","0.0-6.0-3.9","2986996","co37618","norming","","","{""guess"":""braces""}","","../img/tt/273tt.jpg","",""
"null","../img/gs/273gs.jpg","null","reveal","image-keyboard-response","73","394234","0.0-6.0-4.9","2986996","co37618","norming","","","","","","",""
"null","../img/tt/273tt.jpg","null","mooney2","image-keyboard-response","74","396239","0.0-6.0-5.9","2986996","co37618","norming","","","","","","",""
"3780.9400000001187","","","post_reveal_questions","survey-likert","75","400021","0.0-6.0-6.9","2986996","co37618","norming","","","{""aha"":0}","[0]","../img/tt/273tt.jpg","",""
"null","<div style=""font-size:60px;""> </div>","null","fixation","html-keyboard-response","76","400222","0.0-6.0-0.10","2986996","co37618","norming","","","","","","",""
"null","../img/tt/559tt.jpg","null","mooney1","image-keyboard-response","77","403229","0.0-6.0-1.10","2986996","co37618","norming","","","","","","",""
"6167.545000000042","","","post_mooney1_questions","survey-likert","78","409397","0.0-6.0-2.10","2986996","co37618","norming","","","{""curiosity"":2,""confidence"":4}","[0,1]","../img/tt/559tt.jpg","",""
"8684.640000000189","","","recognition","survey-text","79","418085","0.0-6.0-3.10","2986996","co37618","norming","","","{""guess"":""carseat""}","","../img/tt/559tt.jpg","",""
"null","../img/gs/559gs.jpg","null","reveal","image-keyboard-response","80","420087","0.0-6.0-4.10","2986996","co37618","norming","","","","","","",""
"null","../img/tt/559tt.jpg","null","mooney2","image-keyboard-response","81","422097","0.0-6.0-5.10","2986996","co37618","norming","","","","","","",""
"2755.3649999999907","","","post_reveal_questions","survey-likert","82","424853","0.0-6.0-6.10","2986996","co37618","norming","","","{""aha"":5}","[0]","../img/tt/559tt.jpg","",""
"null","<div style=""font-size:60px;""> </div>","null","fixation","html-keyboard-response","83","425055","0.0-6.0-0.11","2986996","co37618","norming","","","","","","",""
"null","../img/tt/358tt.jpg","null","mooney1","image-keyboard-response","84","428063","0.0-6.0-1.11","2986996","co37618","norming","","","","","","",""
"15589.51999999996","","","post_mooney1_questions","survey-likert","85","443130","0.0-6.0-2.11","2986996","co37618","norming","","","{""curiosity"":5,""confidence"":2}","[0,1]","../img/tt/358tt.jpg","",""
"5709.374999999942","","","recognition","survey-text","86","448842","0.0-6.0-3.11","2986996","co37618","norming","","","{""guess"":""monkey""}","","../img/tt/358tt.jpg","",""
"null","../img/gs/358gs.jpg","null","reveal","image-keyboard-response","87","450843","0.0-6.0-4.11","2986996","co37618","norming","","","","","","",""
"null","../img/tt/358tt.jpg","null","mooney2","image-keyboard-response","88","452845","0.0-6.0-5.11","2986996","co37618","norming","","","","","","",""
"2211.5599999999977","","","post_reveal_questions","survey-likert","89","455058","0.0-6.0-6.11","2986996","co37618","norming","","","{""aha"":5}","[0]","../img/tt/358tt.jpg","",""
"null","<div style=""font-size:60px;""> </div>","null","fixation","html-keyboard-response","90","455261","0.0-6.0-0.12","2986996","co37618","norming","","","","","","",""
"null","../img/tt/1173tt.jpg","null","mooney1","image-keyboard-response","91","458262","0.0-6.0-1.12","2986996","co37618","norming","","","","","","",""
"4387.429999999993","","","post_mooney1_questions","survey-likert","92","462651","0.0-6.0-2.12","2986996","co37618","norming","","","{""curiosity"":0,""confidence"":6}","[0,1]","../img/tt/1173tt.jpg","",""
"5101.7099999999045","","","recognition","survey-text","93","467754","0.0-6.0-3.12","2986996","co37618","norming","","","{""guess"":""sports""}","","../img/tt/1173tt.jpg","",""
"null","../img/gs/1173gs.jpg","null","reveal","image-keyboard-response","94","469760","0.0-6.0-4.12","2986996","co37618","norming","","","","","","",""
"null","../img/tt/1173tt.jpg","null","mooney2","image-keyboard-response","95","471765","0.0-6.0-5.12","2986996","co37618","norming","","","","","","",""
"1642.9949999999371","","","post_reveal_questions","survey-likert","96","473410","0.0-6.0-6.12","2986996","co37618","norming","","","{""aha"":1}","[0]","../img/tt/1173tt.jpg","",""
"null","<div style=""font-size:60px;""> </div>","null","fixation","html-keyboard-response","97","473612","0.0-6.0-0.13","2986996","co37618","norming","","","","","","",""
"null","../img/tt/1241tt.jpg","null","mooney1","image-keyboard-response","98","476616","0.0-6.0-1.13","2986996","co37618","norming","","","","","","",""
"8346.199999999953","","","post_mooney1_questions","survey-likert","99","484963","0.0-6.0-2.13","2986996","co37618","norming","","","{""curiosity"":1,""confidence"":5}","[0,1]","../img/tt/1241tt.jpg","",""
"2790.195000000007","","","recognition","survey-text","100","487755","0.0-6.0-3.13","2986996","co37618","norming","","","{""guess"":""rhino""}","","../img/tt/1241tt.jpg","",""
"null","../img/gs/1241gs.jpg","null","reveal","image-keyboard-response","101","489756","0.0-6.0-4.13","2986996","co37618","norming","","","","","","",""
"null","../img/tt/1241tt.jpg","null","mooney2","image-keyboard-response","102","491767","0.0-6.0-5.13","2986996","co37618","norming","","","","","","",""
"4353.355000000214","","","post_reveal_questions","survey-likert","103","496123","0.0-6.0-6.13","2986996","co37618","norming","","","{""aha"":2}","[0]","../img/tt/1241tt.jpg","",""
"null","<div style=""font-size:60px;""> </div>","null","fixation","html-keyboard-response","104","496325","0.0-6.0-0.14","2986996","co37618","norming","","","","","","",""
"null","../img/tt/1247tt.jpg","null","mooney1","image-keyboard-response","105","499332","0.0-6.0-1.14","2986996","co37618","norming","","","","","","",""
"13459.640000000014","","","post_mooney1_questions","survey-likert","106","512068","0.0-6.0-2.14","2986996","co37618","norming","","","{""curiosity"":5,""confidence"":2}","[0,1]","../img/tt/1247tt.jpg","",""
"12046.445000000123","","","recognition","survey-text","107","524116","0.0-6.0-3.14","2986996","co37618","norming","","","{""guess"":""""}","","../img/tt/1247tt.jpg","",""
"null","../img/gs/1247gs.jpg","null","reveal","image-keyboard-response","108","526125","0.0-6.0-4.14","2986996","co37618","norming","","","","","","",""
"null","../img/tt/1247tt.jpg","null","mooney2","image-keyboard-response","109","528127","0.0-6.0-5.14","2986996","co37618","norming","","","","","","",""
"2066.085000000079","","","post_reveal_questions","survey-likert","110","530196","0.0-6.0-6.14","2986996","co37618","norming","","","{""aha"":1}","[0]","../img/tt/1247tt.jpg","",""
"null","<div style=""font-size:60px;""> </div>","null","fixation","html-keyboard-response","111","530398","0.0-6.0-0.15","2986996","co37618","norming","","","","","","",""
"null","../img/tt/507tt.jpg","null","mooney1","image-keyboard-response","112","533402","0.0-6.0-1.15","2986996","co37618","norming","","","","","","",""
"6959.974999999977","","","post_mooney1_questions","survey-likert","113","540364","0.0-6.0-2.15","2986996","co37618","norming","","","{""curiosity"":4,""confidence"":4}","[0,1]","../img/tt/507tt.jpg","",""
"6630.335000000079","","","recognition","survey-text","114","546996","0.0-6.0-3.15","2986996","co37618","norming","","","{""guess"":""theatre""}","","../img/tt/507tt.jpg","",""
"null","../img/gs/507gs.jpg","null","reveal","image-keyboard-response","115","548999","0.0-6.0-4.15","2986996","co37618","norming","","","","","","",""
"null","../img/tt/507tt.jpg","null","mooney2","image-keyboard-response","116","551009","0.0-6.0-5.15","2986996","co37618","norming","","","","","","",""
"3192.280000000028","","","post_reveal_questions","survey-likert","117","554204","0.0-6.0-6.15","2986996","co37618","norming","","","{""aha"":5}","[0]","../img/tt/507tt.jpg","",""
"null","<div style=""font-size:60px;""> </div>","null","fixation","html-keyboard-response","118","554406","0.0-6.0-0.16","2986996","co37618","norming","","","","","","",""
"null","../img/tt/013tt.jpg","null","mooney1","image-keyboard-response","119","557417","0.0-6.0-1.16","2986996","co37618","norming","","","","","","",""
"4936.584999999846","","","post_mooney1_questions","survey-likert","120","562356","0.0-6.0-2.16","2986996","co37618","norming","","","{""curiosity"":1,""confidence"":5}","[0,1]","../img/tt/013tt.jpg","",""
"9742.079999999958","","","recognition","survey-text","121","571467","0.0-6.0-3.16","2986996","co37618","norming","","","{""guess"":""camel""}","","../img/tt/013tt.jpg","",""
"null","../img/gs/013gs.jpg","null","reveal","image-keyboard-response","122","573473","0.0-6.0-4.16","2986996","co37618","norming","","","","","","",""
"null","../img/tt/013tt.jpg","null","mooney2","image-keyboard-response","123","575484","0.0-6.0-5.16","2986996","co37618","norming","","","","","","",""
"4165.084999999846","","","post_reveal_questions","survey-likert","124","579652","0.0-6.0-6.16","2986996","co37618","norming","","","{""aha"":0}","[0]","../img/tt/013tt.jpg","",""
"null","<div style=""font-size:60px;""> </div>","null","fixation","html-keyboard-response","125","579853","0.0-6.0-0.17","2986996","co37618","norming","","","","","","",""
"null","../img/tt/1078tt.jpg","null","mooney1","image-keyboard-response","126","582857","0.0-6.0-1.17","2986996","co37618","norming","","","","","","",""
"6440.000000000116","","","post_mooney1_questions","survey-likert","127","589300","0.0-6.0-2.17","2986996","co37618","norming","","","{""curiosity"":1,""confidence"":5}","[0,1]","../img/tt/1078tt.jpg","",""
"8070.094999999972","","","recognition","survey-text","128","597372","0.0-6.0-3.17","2986996","co37618","norming","","","{""guess"":""restaurant""}","","../img/tt/1078tt.jpg","",""
"null","../img/gs/1078gs.jpg","null","reveal","image-keyboard-response","129","599380","0.0-6.0-4.17","2986996","co37618","norming","","","","","","",""
"null","../img/tt/1078tt.jpg","null","mooney2","image-keyboard-response","130","601383","0.0-6.0-5.17","2986996","co37618","norming","","","","","","",""
"5803.67499999993","","","post_reveal_questions","survey-likert","131","607188","0.0-6.0-6.17","2986996","co37618","norming","","","{""aha"":4}","[0]","../img/tt/1078tt.jpg","",""
"null","<div style=""font-size:60px;""> </div>","null","fixation","html-keyboard-response","132","607389","0.0-6.0-0.18","2986996","co37618","norming","","","","","","",""
"null","../img/tt/1046tt.jpg","null","mooney1","image-keyboard-response","133","610401","0.0-6.0-1.18","2986996","co37618","norming","","","","","","",""
"8944.14000000013","","","post_mooney1_questions","survey-likert","134","619348","0.0-6.0-2.18","2986996","co37618","norming","","","{""curiosity"":4,""confidence"":4}","[0,1]","../img/tt/1046tt.jpg","",""
"2438.1650000000373","","","recognition","survey-text","135","621788","0.0-6.0-3.18","2986996","co37618","norming","","","{""guess"":""food""}","","../img/tt/1046tt.jpg","",""
"null","../img/gs/1046gs.jpg","null","reveal","image-keyboard-response","136","623789","0.0-6.0-4.18","2986996","co37618","norming","","","","","","",""
"null","../img/tt/1046tt.jpg","null","mooney2","image-keyboard-response","137","625792","0.0-6.0-5.18","2986996","co37618","norming","","","","","","",""
"2368.9399999998277","","","post_reveal_questions","survey-likert","138","628164","0.0-6.0-6.18","2986996","co37618","norming","","","{""aha"":4}","[0]","../img/tt/1046tt.jpg","",""
"null","<div style=""font-size:60px;""> </div>","null","fixation","html-keyboard-response","139","628365","0.0-6.0-0.19","2986996","co37618","norming","","","","","","",""
"null","../img/tt/052tt.jpg","null","mooney1","image-keyboard-response","140","631372","0.0-6.0-1.19","2986996","co37618","norming","","","","","","",""
"7902.754999999888","","","post_mooney1_questions","survey-likert","141","638606","0.0-6.0-2.19","2986996","co37618","norming","","","{""curiosity"":2,""confidence"":5}","[0,1]","../img/tt/052tt.jpg","",""
"4126.125","","","recognition","survey-text","142","642734","0.0-6.0-3.19","2986996","co37618","norming","","","{""guess"":""drum""}","","../img/tt/052tt.jpg","",""
"null","../img/gs/052gs.jpg","null","reveal","image-keyboard-response","143","644735","0.0-6.0-4.19","2986996","co37618","norming","","","","","","",""
"null","../img/tt/052tt.jpg","null","mooney2","image-keyboard-response","144","646737","0.0-6.0-5.19","2986996","co37618","norming","","","","","","",""
"3202.425000000163","","","post_reveal_questions","survey-likert","145","649942","0.0-6.0-6.19","2986996","co37618","norming","","","{""aha"":4}","[0]","../img/tt/052tt.jpg","",""
"null","<div style=""font-size:60px;""> </div>","null","fixation","html-keyboard-response","146","650143","0.0-6.0-0.20","2986996","co37618","norming","","","","","","",""
"null","../img/tt/081tt.jpg","null","mooney1","image-keyboard-response","147","653148","0.0-6.0-1.20","2986996","co37618","norming","","","","","","",""
"5631.540000000154","","","post_mooney1_questions","survey-likert","148","658782","0.0-6.0-2.20","2986996","co37618","norming","","","{""curiosity"":4,""confidence"":4}","[0,1]","../img/tt/081tt.jpg","",""
"3150.1999999999534","","","recognition","survey-text","149","661934","0.0-6.0-3.20","2986996","co37618","norming","","","{""guess"":""frog""}","","../img/tt/081tt.jpg","",""
"null","../img/gs/081gs.jpg","null","reveal","image-keyboard-response","150","663939","0.0-6.0-4.20","2986996","co37618","norming","","","","","","",""
"null","../img/tt/081tt.jpg","null","mooney2","image-keyboard-response","151","665941","0.0-6.0-5.20","2986996","co37618","norming","","","","","","",""
"1512.544999999809","","","post_reveal_questions","survey-likert","152","667454","0.0-6.0-6.20","2986996","co37618","norming","","","{""aha"":0}","[0]","../img/tt/081tt.jpg","",""
"null","<div style=""font-size:60px;""> </div>","null","fixation","html-keyboard-response","153","667655","0.0-6.0-0.21","2986996","co37618","norming","","","","","","",""
"null","../img/tt/1048tt.jpg","null","mooney1","image-keyboard-response","154","670664","0.0-6.0-1.21","2986996","co37618","norming","","","","","","",""
"8835.390000000014","","","post_mooney1_questions","survey-likert","155","679502","0.0-6.0-2.21","2986996","co37618","norming","","","{""curiosity"":4,""confidence"":2}","[0,1]","../img/tt/1048tt.jpg","",""
"3422.2099999999627","","","recognition","survey-text","156","682926","0.0-6.0-3.21","2986996","co37618","norming","","","{""guess"":""forest""}","","../img/tt/1048tt.jpg","",""
"null","../img/gs/1048gs.jpg","null","reveal","image-keyboard-response","157","684928","0.0-6.0-4.21","2986996","co37618","norming","","","","","","",""
"null","../img/tt/1048tt.jpg","null","mooney2","image-keyboard-response","158","686937","0.0-6.0-5.21","2986996","co37618","norming","","","","","","",""
"5058.295000000042","","","post_reveal_questions","survey-likert","159","691998","0.0-6.0-6.21","2986996","co37618","norming","","","{""aha"":2}","[0]","../img/tt/1048tt.jpg","",""
"null","<div style=""font-size:60px;""> </div>","null","fixation","html-keyboard-response","160","692199","0.0-6.0-0.22","2986996","co37618","norming","","","","","","",""
"null","../img/tt/080tt.jpg","null","mooney1","image-keyboard-response","161","694635","0.0-6.0-1.22","2986996","co37618","norming","","","","","","",""
"6063.674999999814","","","post_mooney1_questions","survey-likert","162","700701","0.0-6.0-2.22","2986996","co37618","norming","","","{""curiosity"":2,""confidence"":4}","[0,1]","../img/tt/080tt.jpg","",""
"5430.104999999981","","","recognition","survey-text","163","706133","0.0-6.0-3.22","2986996","co37618","norming","","","{""guess"":""mushroom""}","","../img/tt/080tt.jpg","",""
"null","../img/gs/080gs.jpg","null","reveal","image-keyboard-response","164","708141","0.0-6.0-4.22","2986996","co37618","norming","","","","","","",""
"null","../img/tt/080tt.jpg","null","mooney2","image-keyboard-response","165","710151","0.0-6.0-5.22","2986996","co37618","norming","","","","","","",""
"3291.159999999916","","","post_reveal_questions","survey-likert","166","713445","0.0-6.0-6.22","2986996","co37618","norming","","","{""aha"":3}","[0]","../img/tt/080tt.jpg","",""
"null","<div style=""font-size:60px;""> </div>","null","fixation","html-keyboard-response","167","713647","0.0-6.0-0.23","2986996","co37618","norming","","","","","","",""
"null","../img/tt/301tt.jpg","null","mooney1","image-keyboard-response","168","716650","0.0-6.0-1.23","2986996","co37618","norming","","","","","","",""
"9296.565000000177","","","post_mooney1_questions","survey-likert","169","725949","0.0-6.0-2.23","2986996","co37618","norming","","","{""curiosity"":4,""confidence"":2}","[0,1]","../img/tt/301tt.jpg","",""
"3510.170000000042","","","recognition","survey-text","170","729461","0.0-6.0-3.23","2986996","co37618","norming","","","{""guess"":""train""}","","../img/tt/301tt.jpg","",""
"null","../img/gs/301gs.jpg","null","reveal","image-keyboard-response","171","731463","0.0-6.0-4.23","2986996","co37618","norming","","","","","","",""
"null","../img/tt/301tt.jpg","null","mooney2","image-keyboard-response","172","733464","0.0-6.0-5.23","2986996","co37618","norming","","","","","","",""
"2258.829999999958","","","post_reveal_questions","survey-likert","173","735725","0.0-6.0-6.23","2986996","co37618","norming","","","{""aha"":4}","[0]","../img/tt/301tt.jpg","",""
"null","<div style=""font-size:60px;""> </div>","null","fixation","html-keyboard-response","174","735926","0.0-6.0-0.24","2986996","co37618","norming","","","","","","",""
"null","../img/tt/598tt.jpg","null","mooney1","image-keyboard-response","175","738937","0.0-6.0-1.24","2986996","co37618","norming","","","","","","",""
"18817.470000000205","","","post_mooney1_questions","survey-likert","176","757753","0.0-6.0-2.24","2986996","co37618","norming","","","{""curiosity"":3,""confidence"":2}","[0,1]","../img/tt/598tt.jpg","",""
"5894.139999999898","","","recognition","survey-text","177","763649","0.0-6.0-3.24","2986996","co37618","norming","","","{""guess"":""frog""}","","../img/tt/598tt.jpg","",""
"null","../img/gs/598gs.jpg","null","reveal","image-keyboard-response","178","765656","0.0-6.0-4.24","2986996","co37618","norming","","","","","","",""
"null","../img/tt/598tt.jpg","null","mooney2","image-keyboard-response","179","767659","0.0-6.0-5.24","2986996","co37618","norming","","","","","","",""
"1955.1350000001257","","","post_reveal_questions","survey-likert","180","769617","0.0-6.0-6.24","2986996","co37618","norming","","","{""aha"":5}","[0]","../img/tt/598tt.jpg","",""
"null","<div style=""font-size:60px;""> </div>","null","fixation","html-keyboard-response","181","769818","0.0-6.0-0.25","2986996","co37618","norming","","","","","","",""
"null","../img/tt/1307tt.jpg","null","mooney1","image-keyboard-response","182","772830","0.0-6.0-1.25","2986996","co37618","norming","","","","","","",""
"4191.920000000275","","","post_mooney1_questions","survey-likert","183","777025","0.0-6.0-2.25","2986996","co37618","norming","","","{""curiosity"":2,""confidence"":5}","[0,1]","../img/tt/1307tt.jpg","",""
"9230.145000000019","","","recognition","survey-text","184","786257","0.0-6.0-3.25","2986996","co37618","norming","","","{""guess"":""airballoon""}","","../img/tt/1307tt.jpg","",""
"null","../img/gs/1307gs.jpg","null","reveal","image-keyboard-response","185","788261","0.0-6.0-4.25","2986996","co37618","norming","","","","","","",""
"null","../img/tt/1307tt.jpg","null","mooney2","image-keyboard-response","186","790271","0.0-6.0-5.25","2986996","co37618","norming","","","","","","",""
"2462.750000000233","","","post_reveal_questions","survey-likert","187","792737","0.0-6.0-6.25","2986996","co37618","norming","","","{""aha"":1}","[0]","../img/tt/1307tt.jpg","",""
"null","<div style=""font-size:60px;""> </div>","null","fixation","html-keyboard-response","188","792938","0.0-6.0-0.26","2986996","co37618","norming","","","","","","",""
"null","../img/tt/1175tt.jpg","null","mooney1","image-keyboard-response","189","795948","0.0-6.0-1.26","2986996","co37618","norming","","","","","","",""
"17779.584999999963","","","post_mooney1_questions","survey-likert","190","813729","0.0-6.0-2.26","2986996","co37618","norming","","","{""curiosity"":4,""confidence"":1}","[0,1]","../img/tt/1175tt.jpg","",""
"1198.5850000000792","","","recognition","survey-text","191","814929","0.0-6.0-3.26","2986996","co37618","norming","","","{""guess"":""""}","","../img/tt/1175tt.jpg","",""
"null","../img/gs/1175gs.jpg","null","reveal","image-keyboard-response","192","816935","0.0-6.0-4.26","2986996","co37618","norming","","","","","","",""
"null","../img/tt/1175tt.jpg","null","mooney2","image-keyboard-response","193","818943","0.0-6.0-5.26","2986996","co37618","norming","","","","","","",""
"2787.219999999972","","","post_reveal_questions","survey-likert","194","821733","0.0-6.0-6.26","2986996","co37618","norming","","","{""aha"":6}","[0]","../img/tt/1175tt.jpg","",""
"null","<div style=""font-size:60px;""> </div>","null","fixation","html-keyboard-response","195","821934","0.0-6.0-0.27","2986996","co37618","norming","","","","","","",""
"null","../img/tt/063tt.jpg","null","mooney1","image-keyboard-response","196","824940","0.0-6.0-1.27","2986996","co37618","norming","","","","","","",""
"4237.920000000042","","","post_mooney1_questions","survey-likert","197","829181","0.0-6.0-2.27","2986996","co37618","norming","","","{""curiosity"":0,""confidence"":6}","[0,1]","../img/tt/063tt.jpg","",""
"5606.285000000149","","","recognition","survey-text","198","834789","0.0-6.0-3.27","2986996","co37618","norming","","","{""guess"":""typewriter""}","","../img/tt/063tt.jpg","",""
"null","../img/gs/063gs.jpg","null","reveal","image-keyboard-response","199","836790","0.0-6.0-4.27","2986996","co37618","norming","","","","","","",""
"null","../img/tt/063tt.jpg","null","mooney2","image-keyboard-response","200","838799","0.0-6.0-5.27","2986996","co37618","norming","","","","","","",""
"2444.119999999879","","","post_reveal_questions","survey-likert","201","841245","0.0-6.0-6.27","2986996","co37618","norming","","","{""aha"":5}","[0]","../img/tt/063tt.jpg","",""
"null","<div style=""font-size:60px;""> </div>","null","fixation","html-keyboard-response","202","841446","0.0-6.0-0.28","2986996","co37618","norming","","","","","","",""
"null","../img/tt/1186tt.jpg","null","mooney1","image-keyboard-response","203","844458","0.0-6.0-1.28","2986996","co37618","norming","","","","","","",""
"7040.695000000182","","","post_mooney1_questions","survey-likert","204","851501","0.0-6.0-2.28","2986996","co37618","norming","","","{""curiosity"":4,""confidence"":4}","[0,1]","../img/tt/1186tt.jpg","",""
"3013.9349999999395","","","recognition","survey-text","205","854517","0.0-6.0-3.28","2986996","co37618","norming","","","{""guess"":""hiking""}","","../img/tt/1186tt.jpg","",""
"null","../img/gs/1186gs.jpg","null","reveal","image-keyboard-response","206","856520","0.0-6.0-4.28","2986996","co37618","norming","","","","","","",""
"null","../img/tt/1186tt.jpg","null","mooney2","image-keyboard-response","207","858522","0.0-6.0-5.28","2986996","co37618","norming","","","","","","",""
"2880.2850000000326","","","post_reveal_questions","survey-likert","208","861405","0.0-6.0-6.28","2986996","co37618","norming","","","{""aha"":4}","[0]","../img/tt/1186tt.jpg","",""
"null","<div style=""font-size:60px;""> </div>","null","fixation","html-keyboard-response","209","861606","0.0-6.0-0.29","2986996","co37618","norming","","","","","","",""
"null","../img/tt/440tt.jpg","null","mooney1","image-keyboard-response","210","864616","0.0-6.0-1.29","2986996","co37618","norming","","","","","","",""
"8930.229999999981","","","post_mooney1_questions","survey-likert","211","873549","0.0-6.0-2.29","2986996","co37618","norming","","","{""curiosity"":4,""confidence"":4}","[0,1]","../img/tt/440tt.jpg","",""
"1846.0649999999441","","","recognition","survey-text","212","875397","0.0-6.0-3.29","2986996","co37618","norming","","","{""guess"":""frog""}","","../img/tt/440tt.jpg","",""
"null","../img/gs/440gs.jpg","null","reveal","image-keyboard-response","213","877408","0.0-6.0-4.29","2986996","co37618","norming","","","","","","",""
"null","../img/tt/440tt.jpg","null","mooney2","image-keyboard-response","214","879411","0.0-6.0-5.29","2986996","co37618","norming","","","","","","",""
"1559.9000000000233","","","post_reveal_questions","survey-likert","215","880973","0.0-6.0-6.29","2986996","co37618","norming","","","{""aha"":5}","[0]","../img/tt/440tt.jpg","",""
"null","<div style=""font-size:60px;""> </div>","null","fixation","html-keyboard-response","216","881175","0.0-6.0-0.30","2986996","co37618","norming","","","","","","",""
"null","../img/tt/1130tt.jpg","null","mooney1","image-keyboard-response","217","884185","0.0-6.0-1.30","2986996","co37618","norming","","","","","","",""
"3848.664999999921","","","post_mooney1_questions","survey-likert","218","888037","0.0-6.0-2.30","2986996","co37618","norming","","","{""curiosity"":1,""confidence"":5}","[0,1]","../img/tt/1130tt.jpg","",""
"2702.3600000001024","","","recognition","survey-text","219","890741","0.0-6.0-3.30","2986996","co37618","norming","","","{""guess"":""hockey""}","","../img/tt/1130tt.jpg","",""
"null","../img/gs/1130gs.jpg","null","reveal","image-keyboard-response","220","892749","0.0-6.0-4.30","2986996","co37618","norming","","","","","","",""
"null","../img/tt/1130tt.jpg","null","mooney2","image-keyboard-response","221","894760","0.0-6.0-5.30","2986996","co37618","norming","","","","","","",""
"4850.864999999874","","","post_reveal_questions","survey-likert","222","899613","0.0-6.0-6.30","2986996","co37618","norming","","","{""aha"":5}","[0]","../img/tt/1130tt.jpg","",""
"null","<div style=""font-size:60px;""> </div>","null","fixation","html-keyboard-response","223","899815","0.0-6.0-0.31","2986996","co37618","norming","","","","","","",""
"null","../img/tt/1190tt.jpg","null","mooney1","image-keyboard-response","224","902822","0.0-6.0-1.31","2986996","co37618","norming","","","","","","",""
"5244.579999999842","","","post_mooney1_questions","survey-likert","225","908069","0.0-6.0-2.31","2986996","co37618","norming","","","{""curiosity"":5,""confidence"":1}","[0,1]","../img/tt/1190tt.jpg","",""
"3437.984999999986","","","recognition","survey-text","226","911509","0.0-6.0-3.31","2986996","co37618","norming","","","{""guess"":""panda""}","","../img/tt/1190tt.jpg","",""
"null","../img/gs/1190gs.jpg","null","reveal","image-keyboard-response","227","913520","0.0-6.0-4.31","2986996","co37618","norming","","","","","","",""
"null","../img/tt/1190tt.jpg","null","mooney2","image-keyboard-response","228","915522","0.0-6.0-5.31","2986996","co37618","norming","","","","","","",""
"10089.175000000047","","","post_reveal_questions","survey-likert","229","925613","0.0-6.0-6.31","2986996","co37618","norming","","","{""aha"":4}","[0]","../img/tt/1190tt.jpg","",""
"null","<div style=""font-size:60px;""> </div>","null","fixation","html-keyboard-response","230","925814","0.0-6.0-0.32","2986996","co37618","norming","","","","","","",""
"null","../img/tt/053tt.jpg","null","mooney1","image-keyboard-response","231","928817","0.0-6.0-1.32","2986996","co37618","norming","","","","","","",""
"4257.620000000112","","","post_mooney1_questions","survey-likert","232","933078","0.0-6.0-2.32","2986996","co37618","norming","","","{""curiosity"":5,""confidence"":1}","[0,1]","../img/tt/053tt.jpg","",""
"2861.3099999999395","","","recognition","survey-text","233","935941","0.0-6.0-3.32","2986996","co37618","norming","","","{""guess"":""cow""}","","../img/tt/053tt.jpg","",""
"null","../img/gs/053gs.jpg","null","reveal","image-keyboard-response","234","937948","0.0-6.0-4.32","2986996","co37618","norming","","","","","","",""
"null","../img/tt/053tt.jpg","null","mooney2","image-keyboard-response","235","939952","0.0-6.0-5.32","2986996","co37618","norming","","","","","","",""
"3450.600000000093","","","post_reveal_questions","survey-likert","236","943405","0.0-6.0-6.32","2986996","co37618","norming","","","{""aha"":4}","[0]","../img/tt/053tt.jpg","",""
"null","<div style=""font-size:60px;""> </div>","null","fixation","html-keyboard-response","237","943606","0.0-6.0-0.33","2986996","co37618","norming","","","","","","",""
"null","../img/tt/1096tt.jpg","null","mooney1","image-keyboard-response","238","946619","0.0-6.0-1.33","2986996","co37618","norming","","","","","","",""
"5655.7599999997765","","","post_mooney1_questions","survey-likert","239","952277","0.0-6.0-2.33","2986996","co37618","norming","","","{""curiosity"":1,""confidence"":5}","[0,1]","../img/tt/1096tt.jpg","",""
"3758.109999999986","","","recognition","survey-text","240","956037","0.0-6.0-3.33","2986996","co37618","norming","","","{""guess"":""ranch""}","","../img/tt/1096tt.jpg","",""
"null","../img/gs/1096gs.jpg","null","reveal","image-keyboard-response","241","958042","0.0-6.0-4.33","2986996","co37618","norming","","","","","","",""
"null","../img/tt/1096tt.jpg","null","mooney2","image-keyboard-response","242","960045","0.0-6.0-5.33","2986996","co37618","norming","","","","","","",""
"8486.179999999818","","","post_reveal_questions","survey-likert","243","968533","0.0-6.0-6.33","2986996","co37618","norming","","","{""aha"":3}","[0]","../img/tt/1096tt.jpg","",""
"null","<div style=""font-size:60px;""> </div>","null","fixation","html-keyboard-response","244","968734","0.0-6.0-0.34","2986996","co37618","norming","","","","","","",""
"null","../img/tt/049tt.jpg","null","mooney1","image-keyboard-response","245","971745","0.0-6.0-1.34","2986996","co37618","norming","","","","","","",""
"7882.689999999944","","","post_mooney1_questions","survey-likert","246","979629","0.0-6.0-2.34","2986996","co37618","norming","","","{""curiosity"":2,""confidence"":5}","[0,1]","../img/tt/049tt.jpg","",""
"8022.349999999977","","","recognition","survey-text","247","987653","0.0-6.0-3.34","2986996","co37618","norming","","","{""guess"":""alligator""}","","../img/tt/049tt.jpg","",""
"null","../img/gs/049gs.jpg","null","reveal","image-keyboard-response","248","989654","0.0-6.0-4.34","2986996","co37618","norming","","","","","","",""
"null","../img/tt/049tt.jpg","null","mooney2","image-keyboard-response","249","991661","0.0-6.0-5.34","2986996","co37618","norming","","","","","","",""
"2517.704999999958","","","post_reveal_questions","survey-likert","250","994181","0.0-6.0-6.34","2986996","co37618","norming","","","{""aha"":3}","[0]","../img/tt/049tt.jpg","",""
"null","<div style=""font-size:60px;""> </div>","null","fixation","html-keyboard-response","251","994382","0.0-6.0-0.35","2986996","co37618","norming","","","","","","",""
"null","../img/tt/010tt.jpg","null","mooney1","image-keyboard-response","252","997384","0.0-6.0-1.35","2986996","co37618","norming","","","","","","",""
"17210.199999999953","","","post_mooney1_questions","survey-likert","253","1014597","0.0-6.0-2.35","2986996","co37618","norming","","","{""curiosity"":4,""confidence"":4}","[0,1]","../img/tt/010tt.jpg","",""
"3245.9449999998324","","","recognition","survey-text","254","1017845","0.0-6.0-3.35","2986996","co37618","norming","","","{""guess"":""possum""}","","../img/tt/010tt.jpg","",""
"null","../img/gs/010gs.jpg","null","reveal","image-keyboard-response","255","1019847","0.0-6.0-4.35","2986996","co37618","norming","","","","","","",""
"null","../img/tt/010tt.jpg","null","mooney2","image-keyboard-response","256","1021852","0.0-6.0-5.35","2986996","co37618","norming","","","","","","",""
"2502.3000000000466","","","post_reveal_questions","survey-likert","257","1024357","0.0-6.0-6.35","2986996","co37618","norming","","","{""aha"":2}","[0]","../img/tt/010tt.jpg","",""
"null","<div style=""font-size:60px;""> </div>","null","fixation","html-keyboard-response","258","1024558","0.0-6.0-0.36","2986996","co37618","norming","","","","","","",""
"null","../img/tt/1066tt.jpg","null","mooney1","image-keyboard-response","259","1027565","0.0-6.0-1.36","2986996","co37618","norming","","","","","","",""
"5588.490000000107","","","post_mooney1_questions","survey-likert","260","1033157","0.0-6.0-2.36","2986996","co37618","norming","","","{""curiosity"":2,""confidence"":5}","[0,1]","../img/tt/1066tt.jpg","",""
"1950.0800000000745","","","recognition","survey-text","261","1035109","0.0-6.0-3.36","2986996","co37618","norming","","","{""guess"":""bus""}","","../img/tt/1066tt.jpg","",""
"null","../img/gs/1066gs.jpg","null","reveal","image-keyboard-response","262","1037111","0.0-6.0-4.36","2986996","co37618","norming","","","","","","",""
"null","../img/tt/1066tt.jpg","null","mooney2","image-keyboard-response","263","1039121","0.0-6.0-5.36","2986996","co37618","norming","","","","","","",""
"2289.320000000298","","","post_reveal_questions","survey-likert","264","1041413","0.0-6.0-6.36","2986996","co37618","norming","","","{""aha"":1}","[0]","../img/tt/1066tt.jpg","",""
"null","<div style=""font-size:60px;""> </div>","null","fixation","html-keyboard-response","265","1041614","0.0-6.0-0.37","2986996","co37618","norming","","","","","","",""
"null","../img/tt/084tt.jpg","null","mooney1","image-keyboard-response","266","1044620","0.0-6.0-1.37","2986996","co37618","norming","","","","","","",""
"4743.769999999553","","","post_mooney1_questions","survey-likert","267","1049365","0.0-6.0-2.37","2986996","co37618","norming","","","{""curiosity"":0,""confidence"":6}","[0,1]","../img/tt/084tt.jpg","",""
"3278.230000000214","","","recognition","survey-text","268","1052645","0.0-6.0-3.37","2986996","co37618","norming","","","{""guess"":""duck""}","","../img/tt/084tt.jpg","",""
"null","../img/gs/084gs.jpg","null","reveal","image-keyboard-response","269","1054647","0.0-6.0-4.37","2986996","co37618","norming","","","","","","",""
"null","../img/tt/084tt.jpg","null","mooney2","image-keyboard-response","270","1056649","0.0-6.0-5.37","2986996","co37618","norming","","","","","","",""
"2225.3700000001118","","","post_reveal_questions","survey-likert","271","1058877","0.0-6.0-6.37","2986996","co37618","norming","","","{""aha"":0}","[0]","../img/tt/084tt.jpg","",""
"null","<div style=""font-size:60px;""> </div>","null","fixation","html-keyboard-response","272","1059078","0.0-6.0-0.38","2986996","co37618","norming","","","","","","",""
"null","../img/tt/442tt.jpg","null","mooney1","image-keyboard-response","273","1062083","0.0-6.0-1.38","2986996","co37618","norming","","","","","","",""
"4390.139999999898","","","post_mooney1_questions","survey-likert","274","1066471","0.0-6.0-2.38","2986996","co37618","norming","","","{""curiosity"":4,""confidence"":2}","[0,1]","../img/tt/442tt.jpg","",""
"5638.715000000084","","","recognition","survey-text","275","1072111","0.0-6.0-3.38","2986996","co37618","norming","","","{""guess"":""strawberry""}","","../img/tt/442tt.jpg","",""
"null","../img/gs/442gs.jpg","null","reveal","image-keyboard-response","276","1074114","0.0-6.0-4.38","2986996","co37618","norming","","","","","","",""
"null","../img/tt/442tt.jpg","null","mooney2","image-keyboard-response","277","1076116","0.0-6.0-5.38","2986996","co37618","norming","","","","","","",""
"1703.8799999994226","","","post_reveal_questions","survey-likert","278","1077823","0.0-6.0-6.38","2986996","co37618","norming","","","{""aha"":3}","[0]","../img/tt/442tt.jpg","",""
"null","<div style=""font-size:60px;""> </div>","null","fixation","html-keyboard-response","279","1078025","0.0-6.0-0.39","2986996","co37618","norming","","","","","","",""
"null","../img/tt/126tt.jpg","null","mooney1","image-keyboard-response","280","1081034","0.0-6.0-1.39","2986996","co37618","norming","","","","","","",""
"3610.2150000003166","","","post_mooney1_questions","survey-likert","281","1084647","0.0-6.0-2.39","2986996","co37618","norming","","","{""curiosity"":5,""confidence"":2}","[0,1]","../img/tt/126tt.jpg","",""
"2694.3900000001304","","","recognition","survey-text","282","1087343","0.0-6.0-3.39","2986996","co37618","norming","","","{""guess"":""train""}","","../img/tt/126tt.jpg","",""
"null","../img/gs/126gs.jpg","null","reveal","image-keyboard-response","283","1089345","0.0-6.0-4.39","2986996","co37618","norming","","","","","","",""
"null","../img/tt/126tt.jpg","null","mooney2","image-keyboard-response","284","1091348","0.0-6.0-5.39","2986996","co37618","norming","","","","","","",""
"2120.5","","","post_reveal_questions","survey-likert","285","1093471","0.0-6.0-6.39","2986996","co37618","norming","","","{""aha"":5}","[0]","../img/tt/126tt.jpg","",""
"null","<div style=""font-size:60px;""> </div>","null","fixation","html-keyboard-response","286","1093672","0.0-6.0-0.40","2986996","co37618","norming","","","","","","",""
"null","../img/tt/1199tt.jpg","null","mooney1","image-keyboard-response","287","1096677","0.0-6.0-1.40","2986996","co37618","norming","","","","","","",""
"17271.21499999985","","","post_mooney1_questions","survey-likert","288","1113951","0.0-6.0-2.40","2986996","co37618","norming","","","{""curiosity"":4,""confidence"":2}","[0,1]","../img/tt/1199tt.jpg","",""
"7405.98499999987","","","recognition","survey-text","289","1121359","0.0-6.0-3.40","2986996","co37618","norming","","","{""guess"":""horse""}","","../img/tt/1199tt.jpg","",""
"null","../img/gs/1199gs.jpg","null","reveal","image-keyboard-response","290","1123366","0.0-6.0-4.40","2986996","co37618","norming","","","","","","",""
"null","../img/tt/1199tt.jpg","null","mooney2","image-keyboard-response","291","1125375","0.0-6.0-5.40","2986996","co37618","norming","","","","","","",""
"3509.5149999996647","","","post_reveal_questions","survey-likert","292","1128885","0.0-6.0-6.40","2986996","co37618","norming","","","{""aha"":3}","[0]","../img/tt/1199tt.jpg","",""
"null","<div style=""font-size:60px;""> </div>","null","fixation","html-keyboard-response","293","1129087","0.0-6.0-0.41","2986996","co37618","norming","","","","","","",""
"null","../img/tt/481tt.jpg","null","mooney1","image-keyboard-response","294","1132100","0.0-6.0-1.41","2986996","co37618","norming","","","","","","",""
"4302.795000000158","","","post_mooney1_questions","survey-likert","295","1136406","0.0-6.0-2.41","2986996","co37618","norming","","","{""curiosity"":5,""confidence"":2}","[0,1]","../img/tt/481tt.jpg","",""
"2917.5399999998044","","","recognition","survey-text","296","1139325","0.0-6.0-3.41","2986996","co37618","norming","","","{""guess"":""bear""}","","../img/tt/481tt.jpg","",""
"null","../img/gs/481gs.jpg","null","reveal","image-keyboard-response","297","1141327","0.0-6.0-4.41","2986996","co37618","norming","","","","","","",""
"null","../img/tt/481tt.jpg","null","mooney2","image-keyboard-response","298","1143334","0.0-6.0-5.41","2986996","co37618","norming","","","","","","",""
"1644.695000000298","","","post_reveal_questions","survey-likert","299","1144981","0.0-6.0-6.41","2986996","co37618","norming","","","{""aha"":6}","[0]","../img/tt/481tt.jpg","",""
"null","<div style=""font-size:60px;""> </div>","null","fixation","html-keyboard-response","300","1145183","0.0-6.0-0.42","2986996","co37618","norming","","","","","","",""
"null","../img/tt/318tt.jpg","null","mooney1","image-keyboard-response","301","1148194","0.0-6.0-1.42","2986996","co37618","norming","","","","","","",""
"6800.4550000000745","","","post_mooney1_questions","survey-likert","302","1154998","0.0-6.0-2.42","2986996","co37618","norming","","","{""curiosity"":4,""confidence"":1}","[0,1]","../img/tt/318tt.jpg","",""
"3270.065000000177","","","recognition","survey-text","303","1158269","0.0-6.0-3.42","2986996","co37618","norming","","","{""guess"":""car""}","","../img/tt/318tt.jpg","",""
"null","../img/gs/318gs.jpg","null","reveal","image-keyboard-response","304","1160272","0.0-6.0-4.42","2986996","co37618","norming","","","","","","",""
"null","../img/tt/318tt.jpg","null","mooney2","image-keyboard-response","305","1162281","0.0-6.0-5.42","2986996","co37618","norming","","","","","","",""
"1991.130000000354","","","post_reveal_questions","survey-likert","306","1164277","0.0-6.0-6.42","2986996","co37618","norming","","","{""aha"":4}","[0]","../img/tt/318tt.jpg","",""
"null","<div style=""font-size:60px;""> </div>","null","fixation","html-keyboard-response","307","1164479","0.0-6.0-0.43","2986996","co37618","norming","","","","","","",""
"null","../img/tt/1362tt.jpg","null","mooney1","image-keyboard-response","308","1167482","0.0-6.0-1.43","2986996","co37618","norming","","","","","","",""
"9080.535000000149","","","post_mooney1_questions","survey-likert","309","1176565","0.0-6.0-2.43","2986996","co37618","norming","","","{""curiosity"":1,""confidence"":6}","[0,1]","../img/tt/1362tt.jpg","",""
"3686.125000000233","","","recognition","survey-text","310","1180253","0.0-6.0-3.43","2986996","co37618","norming","","","{""guess"":""cups""}","","../img/tt/1362tt.jpg","",""
"null","../img/gs/1362gs.jpg","null","reveal","image-keyboard-response","311","1182257","0.0-6.0-4.43","2986996","co37618","norming","","","","","","",""
"null","../img/tt/1362tt.jpg","null","mooney2","image-keyboard-response","312","1184261","0.0-6.0-5.43","2986996","co37618","norming","","","","","","",""
"1854.1249999997672","","","post_reveal_questions","survey-likert","313","1186117","0.0-6.0-6.43","2986996","co37618","norming","","","{""aha"":2}","[0]","../img/tt/1362tt.jpg","",""
"null","<div style=""font-size:60px;""> </div>","null","fixation","html-keyboard-response","314","1186319","0.0-6.0-0.44","2986996","co37618","norming","","","","","","",""
"null","../img/tt/1236tt.jpg","null","mooney1","image-keyboard-response","315","1189331","0.0-6.0-1.44","2986996","co37618","norming","","","","","","",""
"9330.304999999935","","","post_mooney1_questions","survey-likert","316","1198665","0.0-6.0-2.44","2986996","co37618","norming","","","{""curiosity"":2,""confidence"":5}","[0,1]","../img/tt/1236tt.jpg","",""
"3125.7600000000093","","","recognition","survey-text","317","1201792","0.0-6.0-3.44","2986996","co37618","norming","","","{""guess"":""chicken""}","","../img/tt/1236tt.jpg","",""
"null","../img/gs/1236gs.jpg","null","reveal","image-keyboard-response","318","1203793","0.0-6.0-4.44","2986996","co37618","norming","","","","","","",""
"null","../img/tt/1236tt.jpg","null","mooney2","image-keyboard-response","319","1205797","0.0-6.0-5.44","2986996","co37618","norming","","","","","","",""
"3761.660000000149","","","post_reveal_questions","survey-likert","320","1209560","0.0-6.0-6.44","2986996","co37618","norming","","","{""aha"":5}","[0]","../img/tt/1236tt.jpg","",""
"null","<div style=""font-size:60px;""> </div>","null","fixation","html-keyboard-response","321","1209762","0.0-6.0-0.45","2986996","co37618","norming","","","","","","",""
"null","../img/tt/456tt.jpg","null","mooney1","image-keyboard-response","322","1212766","0.0-6.0-1.45","2986996","co37618","norming","","","","","","",""
"5550.920000000158","","","post_mooney1_questions","survey-likert","323","1218320","0.0-6.0-2.45","2986996","co37618","norming","","","{""curiosity"":4,""confidence"":5}","[0,1]","../img/tt/456tt.jpg","",""
"1885.9200000001583","","","recognition","survey-text","324","1220208","0.0-6.0-3.45","2986996","co37618","norming","","","{""guess"":""dog""}","","../img/tt/456tt.jpg","",""
"null","../img/gs/456gs.jpg","null","reveal","image-keyboard-response","325","1222209","0.0-6.0-4.45","2986996","co37618","norming","","","","","","",""
"null","../img/tt/456tt.jpg","null","mooney2","image-keyboard-response","326","1224213","0.0-6.0-5.45","2986996","co37618","norming","","","","","","",""
"2073.1049999999814","","","post_reveal_questions","survey-likert","327","1226288","0.0-6.0-6.45","2986996","co37618","norming","","","{""aha"":2}","[0]","../img/tt/456tt.jpg","",""
"null","<div style=""font-size:60px;""> </div>","null","fixation","html-keyboard-response","328","1226490","0.0-6.0-0.46","2986996","co37618","norming","","","","","","",""
"null","../img/tt/060tt.jpg","null","mooney1","image-keyboard-response","329","1229494","0.0-6.0-1.46","2986996","co37618","norming","","","","","","",""
"6070.939999999944","","","post_mooney1_questions","survey-likert","330","1235569","0.0-6.0-2.46","2986996","co37618","norming","","","{""curiosity"":3,""confidence"":4}","[0,1]","../img/tt/060tt.jpg","",""
"2893.9599999999627","","","recognition","survey-text","331","1238464","0.0-6.0-3.46","2986996","co37618","norming","","","{""guess"":""snake""}","","../img/tt/060tt.jpg","",""
"null","../img/gs/060gs.jpg","null","reveal","image-keyboard-response","332","1240472","0.0-6.0-4.46","2986996","co37618","norming","","","","","","",""
"null","../img/tt/060tt.jpg","null","mooney2","image-keyboard-response","333","1242474","0.0-6.0-5.46","2986996","co37618","norming","","","","","","",""
"1819.5300000002608","","","post_reveal_questions","survey-likert","334","1244296","0.0-6.0-6.46","2986996","co37618","norming","","","{""aha"":5}","[0]","../img/tt/060tt.jpg","",""
"null","<div style=""font-size:60px;""> </div>","null","fixation","html-keyboard-response","335","1244498","0.0-6.0-0.47","2986996","co37618","norming","","","","","","",""
"null","../img/tt/020tt.jpg","null","mooney1","image-keyboard-response","336","1247505","0.0-6.0-1.47","2986996","co37618","norming","","","","","","",""
"13059.605000000447","","","post_mooney1_questions","survey-likert","337","1260563","0.0-6.0-2.47","2986996","co37618","norming","","","{""curiosity"":5,""confidence"":3}","[0,1]","../img/tt/020tt.jpg","",""
"3141.214999999618","","","recognition","survey-text","338","1263706","0.0-6.0-3.47","2986996","co37618","norming","","","{""guess"":""Jesus""}","","../img/tt/020tt.jpg","",""
"null","../img/gs/020gs.jpg","null","reveal","image-keyboard-response","339","1265710","0.0-6.0-4.47","2986996","co37618","norming","","","","","","",""
"null","../img/tt/020tt.jpg","null","mooney2","image-keyboard-response","340","1267711","0.0-6.0-5.47","2986996","co37618","norming","","","","","","",""
"3865.8850000000093","","","post_reveal_questions","survey-likert","341","1271578","0.0-6.0-6.47","2986996","co37618","norming","","","{""aha"":5}","[0]","../img/tt/020tt.jpg","",""
"null","<div style=""font-size:60px;""> </div>","null","fixation","html-keyboard-response","342","1271780","0.0-6.0-0.48","2986996","co37618","norming","","","","","","",""
"null","../img/tt/076tt.jpg","null","mooney1","image-keyboard-response","343","1274784","0.0-6.0-1.48","2986996","co37618","norming","","","","","","",""
"3638.9449999998324","","","post_mooney1_questions","survey-likert","344","1278427","0.0-6.0-2.48","2986996","co37618","norming","","","{""curiosity"":0,""confidence"":6}","[0,1]","../img/tt/076tt.jpg","",""
"3005.9300000004005","","","recognition","survey-text","345","1281435","0.0-6.0-3.48","2986996","co37618","norming","","","{""guess"":""skates""}","","../img/tt/076tt.jpg","",""
"null","../img/gs/076gs.jpg","null","reveal","image-keyboard-response","346","1283437","0.0-6.0-4.48","2986996","co37618","norming","","","","","","",""
"null","../img/tt/076tt.jpg","null","mooney2","image-keyboard-response","347","1285448","0.0-6.0-5.48","2986996","co37618","norming","","","","","","",""
"2391.989999999525","","","post_reveal_questions","survey-likert","348","1287842","0.0-6.0-6.48","2986996","co37618","norming","","","{""aha"":0}","[0]","../img/tt/076tt.jpg","",""
"null","<div style=""font-size:60px;""> </div>","null","fixation","html-keyboard-response","349","1288043","0.0-6.0-0.49","2986996","co37618","norming","","","","","","",""
"null","../img/tt/1353tt.jpg","null","mooney1","image-keyboard-response","350","1291049","0.0-6.0-1.49","2986996","co37618","norming","","","","","","",""
"4726.4199999999255","","","post_mooney1_questions","survey-likert","351","1295779","0.0-6.0-2.49","2986996","co37618","norming","","","{""curiosity"":1,""confidence"":6}","[0,1]","../img/tt/1353tt.jpg","",""
"3638.230000000214","","","recognition","survey-text","352","1299418","0.0-6.0-3.49","2986996","co37618","norming","","","{""guess"":""bell pepper""}","","../img/tt/1353tt.jpg","",""
"null","../img/gs/1353gs.jpg","null","reveal","image-keyboard-response","353","1301420","0.0-6.0-4.49","2986996","co37618","norming","","","","","","",""
"null","../img/tt/1353tt.jpg","null","mooney2","image-keyboard-response","354","1303422","0.0-6.0-5.49","2986996","co37618","norming","","","","","","",""
"3401.4950000001118","","","post_reveal_questions","survey-likert","355","1306826","0.0-6.0-6.49","2986996","co37618","norming","","","{""aha"":0}","[0]","../img/tt/1353tt.jpg","",""
"null","<div style=""font-size:60px;""> </div>","null","fixation","html-keyboard-response","356","1307028","0.0-6.0-0.50","2986996","co37618","norming","","","","","","",""
"null","../img/tt/1128tt.jpg","null","mooney1","image-keyboard-response","357","1310031","0.0-6.0-1.50","2986996","co37618","norming","","","","","","",""
"6038.735000000102","","","post_mooney1_questions","survey-likert","358","1316067","0.0-6.0-2.50","2986996","co37618","norming","","","{""curiosity"":4,""confidence"":4}","[0,1]","../img/tt/1128tt.jpg","",""
"3661.8600000001024","","","recognition","survey-text","359","1319730","0.0-6.0-3.50","2986996","co37618","norming","","","{""guess"":""chair""}","","../img/tt/1128tt.jpg","",""
"null","../img/gs/1128gs.jpg","null","reveal","image-keyboard-response","360","1321734","0.0-6.0-4.50","2986996","co37618","norming","","","","","","",""
"null","../img/tt/1128tt.jpg","null","mooney2","image-keyboard-response","361","1323739","0.0-6.0-5.50","2986996","co37618","norming","","","","","","",""
"5094.685000000056","","","post_reveal_questions","survey-likert","362","1328834","0.0-6.0-6.50","2986996","co37618","norming","","","{""aha"":3}","[0]","../img/tt/1128tt.jpg","",""
"null","<div style=""font-size:60px;""> </div>","null","fixation","html-keyboard-response","363","1329036","0.0-6.0-0.51","2986996","co37618","norming","","","","","","",""
"null","../img/tt/1251tt.jpg","null","mooney1","image-keyboard-response","364","1332044","0.0-6.0-1.51","2986996","co37618","norming","","","","","","",""
"3643.0499999998137","","","post_mooney1_questions","survey-likert","365","1335691","0.0-6.0-2.51","2986996","co37618","norming","","","{""curiosity"":4,""confidence"":4}","[0,1]","../img/tt/1251tt.jpg","",""
"2822.405000000028","","","recognition","survey-text","366","1338515","0.0-6.0-3.51","2986996","co37618","norming","","","{""guess"":""bear""}","","../img/tt/1251tt.jpg","",""
"null","../img/gs/1251gs.jpg","null","reveal","image-keyboard-response","367","1340524","0.0-6.0-4.51","2986996","co37618","norming","","","","","","",""
"null","../img/tt/1251tt.jpg","null","mooney2","image-keyboard-response","368","1342526","0.0-6.0-5.51","2986996","co37618","norming","","","","","","",""
"1569.6650000000373","","","post_reveal_questions","survey-likert","369","1344099","0.0-6.0-6.51","2986996","co37618","norming","","","{""aha"":1}","[0]","../img/tt/1251tt.jpg","",""
"null","<div style=""font-size:60px;""> </div>","null","fixation","html-keyboard-response","370","1344300","0.0-6.0-0.52","2986996","co37618","norming","","","","","","",""
"null","../img/tt/112tt.jpg","null","mooney1","image-keyboard-response","371","1347303","0.0-6.0-1.52","2986996","co37618","norming","","","","","","",""
"4304.975000000093","","","post_mooney1_questions","survey-likert","372","1351611","0.0-6.0-2.52","2986996","co37618","norming","","","{""curiosity"":0,""confidence"":6}","[0,1]","../img/tt/112tt.jpg","",""
"4422.125","","","recognition","survey-text","373","1356035","0.0-6.0-3.52","2986996","co37618","norming","","","{""guess"":""whistle""}","","../img/tt/112tt.jpg","",""
"null","../img/gs/112gs.jpg","null","reveal","image-keyboard-response","374","1358045","0.0-6.0-4.52","2986996","co37618","norming","","","","","","",""
"null","../img/tt/112tt.jpg","null","mooney2","image-keyboard-response","375","1360048","0.0-6.0-5.52","2986996","co37618","norming","","","","","","",""
"1513.8950000002515","","","post_reveal_questions","survey-likert","376","1361563","0.0-6.0-6.52","2986996","co37618","norming","","","{""aha"":0}","[0]","../img/tt/112tt.jpg","",""
"null","<div style=""font-size:60px;""> </div>","null","fixation","html-keyboard-response","377","1361765","0.0-6.0-0.53","2986996","co37618","norming","","","","","","",""
"null","../img/tt/1043tt.jpg","null","mooney1","image-keyboard-response","378","1364769","0.0-6.0-1.53","2986996","co37618","norming","","","","","","",""
"4326.444999999832","","","post_mooney1_questions","survey-likert","379","1369099","0.0-6.0-2.53","2986996","co37618","norming","","","{""curiosity"":1,""confidence"":6}","[0,1]","../img/tt/1043tt.jpg","",""
"2645.9000000001397","","","recognition","survey-text","380","1371747","0.0-6.0-3.53","2986996","co37618","norming","","","{""guess"":""hotdog""}","","../img/tt/1043tt.jpg","",""
"null","../img/gs/1043gs.jpg","null","reveal","image-keyboard-response","381","1373749","0.0-6.0-4.53","2986996","co37618","norming","","","","","","",""
"null","../img/tt/1043tt.jpg","null","mooney2","image-keyboard-response","382","1375748","0.0-6.0-5.53","2986996","co37618","norming","","","","","","",""
"1483.8850000000093","","","post_reveal_questions","survey-likert","383","1377233","0.0-6.0-6.53","2986996","co37618","norming","","","{""aha"":0}","[0]","../img/tt/1043tt.jpg","",""
"null","<div style=""font-size:60px;""> </div>","null","fixation","html-keyboard-response","384","1377435","0.0-6.0-0.54","2986996","co37618","norming","","","","","","",""
"null","../img/tt/1055tt.jpg","null","mooney1","image-keyboard-response","385","1380442","0.0-6.0-1.54","2986996","co37618","norming","","","","","","",""
"7523.204999999842","","","post_mooney1_questions","survey-likert","386","1387969","0.0-6.0-2.54","2986996","co37618","norming","","","{""curiosity"":4,""confidence"":2}","[0,1]","../img/tt/1055tt.jpg","",""
"3070.1100000003353","","","recognition","survey-text","387","1391041","0.0-6.0-3.54","2986996","co37618","norming","","","{""guess"":""water""}","","../img/tt/1055tt.jpg","",""
"null","../img/gs/1055gs.jpg","null","reveal","image-keyboard-response","388","1393042","0.0-6.0-4.54","2986996","co37618","norming","","","","","","",""
"null","../img/tt/1055tt.jpg","null","mooney2","image-keyboard-response","389","1395050","0.0-6.0-5.54","2986996","co37618","norming","","","","","","",""
"4148.22499999986","","","post_reveal_questions","survey-likert","390","1399201","0.0-6.0-6.54","2986996","co37618","norming","","","{""aha"":2}","[0]","../img/tt/1055tt.jpg","",""
"null","<div style=""font-size:60px;""> </div>","null","fixation","html-keyboard-response","391","1399403","0.0-6.0-0.55","2986996","co37618","norming","","","","","","",""
"null","../img/tt/1024tt.jpg","null","mooney1","image-keyboard-response","392","1402408","0.0-6.0-1.55","2986996","co37618","norming","","","","","","",""
"4028.2099999999627","","","post_mooney1_questions","survey-likert","393","1406441","0.0-6.0-2.55","2986996","co37618","norming","","","{""curiosity"":4,""confidence"":2}","[0,1]","../img/tt/1024tt.jpg","",""
"2294.159999999916","","","recognition","survey-text","394","1408737","0.0-6.0-3.55","2986996","co37618","norming","","","{""guess"":""sports""}","","../img/tt/1024tt.jpg","",""
"null","../img/gs/1024gs.jpg","null","reveal","image-keyboard-response","395","1410740","0.0-6.0-4.55","2986996","co37618","norming","","","","","","",""
"null","../img/tt/1024tt.jpg","null","mooney2","image-keyboard-response","396","1412742","0.0-6.0-5.55","2986996","co37618","norming","","","","","","",""
"2671.8649999999907","","","post_reveal_questions","survey-likert","397","1415417","0.0-6.0-6.55","2986996","co37618","norming","","","{""aha"":2}","[0]","../img/tt/1024tt.jpg","",""
"null","<div style=""font-size:60px;""> </div>","null","fixation","html-keyboard-response","398","1415618","0.0-6.0-0.56","2986996","co37618","norming","","","","","","",""
"null","../img/tt/1040tt.jpg","null","mooney1","image-keyboard-response","399","1418622","0.0-6.0-1.56","2986996","co37618","norming","","","","","","",""
"9521.635000000242","","","post_mooney1_questions","survey-likert","400","1428145","0.0-6.0-2.56","2986996","co37618","norming","","","{""curiosity"":4,""confidence"":2}","[0,1]","../img/tt/1040tt.jpg","",""
"5454.154999999795","","","recognition","survey-text","401","1433601","0.0-6.0-3.56","2986996","co37618","norming","","","{""guess"":""""}","","../img/tt/1040tt.jpg","",""
"null","../img/gs/1040gs.jpg","null","reveal","image-keyboard-response","402","1435612","0.0-6.0-4.56","2986996","co37618","norming","","","","","","",""
"null","../img/tt/1040tt.jpg","null","mooney2","image-keyboard-response","403","1437615","0.0-6.0-5.56","2986996","co37618","norming","","","","","","",""
"2162.9799999999814","","","post_reveal_questions","survey-likert","404","1439780","0.0-6.0-6.56","2986996","co37618","norming","","","{""aha"":5}","[0]","../img/tt/1040tt.jpg","",""
"null","<div style=""font-size:60px;""> </div>","null","fixation","html-keyboard-response","405","1439982","0.0-6.0-0.57","2986996","co37618","norming","","","","","","",""
"null","../img/tt/222tt.jpg","null","mooney1","image-keyboard-response","406","1442988","0.0-6.0-1.57","2986996","co37618","norming","","","","","","",""
"5484.39000000013","","","post_mooney1_questions","survey-likert","407","1448476","0.0-6.0-2.57","2986996","co37618","norming","","","{""curiosity"":5,""confidence"":0}","[0,1]","../img/tt/222tt.jpg","",""
"1086.2050000000745","","","recognition","survey-text","408","1449564","0.0-6.0-3.57","2986996","co37618","norming","","","{""guess"":""""}","","../img/tt/222tt.jpg","",""
"null","../img/gs/222gs.jpg","null","reveal","image-keyboard-response","409","1451573","0.0-6.0-4.57","2986996","co37618","norming","","","","","","",""
"null","../img/tt/222tt.jpg","null","mooney2","image-keyboard-response","410","1453577","0.0-6.0-5.57","2986996","co37618","norming","","","","","","",""
"1624.815000000177","","","post_reveal_questions","survey-likert","411","1455204","0.0-6.0-6.57","2986996","co37618","norming","","","{""aha"":6}","[0]","../img/tt/222tt.jpg","",""
"null","<div style=""font-size:60px;""> </div>","null","fixation","html-keyboard-response","412","1455406","0.0-6.0-0.58","2986996","co37618","norming","","","","","","",""
"null","../img/tt/111tt.jpg","null","mooney1","image-keyboard-response","413","1458411","0.0-6.0-1.58","2986996","co37618","norming","","","","","","",""
"3446.160000000149","","","post_mooney1_questions","survey-likert","414","1461861","0.0-6.0-2.58","2986996","co37618","norming","","","{""curiosity"":0,""confidence"":6}","[0,1]","../img/tt/111tt.jpg","",""
"2966.1299999996554","","","recognition","survey-text","415","1464828","0.0-6.0-3.58","2986996","co37618","norming","","","{""guess"":""telephone""}","","../img/tt/111tt.jpg","",""
"null","../img/gs/111gs.jpg","null","reveal","image-keyboard-response","416","1466830","0.0-6.0-4.58","2986996","co37618","norming","","","","","","",""
"null","../img/tt/111tt.jpg","null","mooney2","image-keyboard-response","417","1468839","0.0-6.0-5.58","2986996","co37618","norming","","","","","","",""
"6620.445000000065","","","post_reveal_questions","survey-likert","418","1475460","0.0-6.0-6.58","2986996","co37618","norming","","","{""aha"":3}","[0]","../img/tt/111tt.jpg","",""
"null","<div style=""font-size:60px;""> </div>","null","fixation","html-keyboard-response","419","1475662","0.0-6.0-0.59","2986996","co37618","norming","","","","","","",""
"null","../img/tt/1107tt.jpg","null","mooney1","image-keyboard-response","420","1478665","0.0-6.0-1.59","2986996","co37618","norming","","","","","","",""
"4240.255000000121","","","post_mooney1_questions","survey-likert","421","1482909","0.0-6.0-2.59","2986996","co37618","norming","","","{""curiosity"":5,""confidence"":0}","[0,1]","../img/tt/1107tt.jpg","",""
"1822.1100000001024","","","recognition","survey-text","422","1484732","0.0-6.0-3.59","2986996","co37618","norming","","","{""guess"":""dog""}","","../img/tt/1107tt.jpg","",""
"null","../img/gs/1107gs.jpg","null","reveal","image-keyboard-response","423","1486743","0.0-6.0-4.59","2986996","co37618","norming","","","","","","",""
"null","../img/tt/1107tt.jpg","null","mooney2","image-keyboard-response","424","1488745","0.0-6.0-5.59","2986996","co37618","norming","","","","","","",""
"2993.380000000354","","","post_reveal_questions","survey-likert","425","1491741","0.0-6.0-6.59","2986996","co37618","norming","","","{""aha"":5}","[0]","../img/tt/1107tt.jpg","",""
"null","<div style=""font-size:60px;""> </div>","null","fixation","html-keyboard-response","426","1491942","0.0-6.0-0.60","2986996","co37618","norming","","","","","","",""
"null","../img/tt/1044tt.jpg","null","mooney1","image-keyboard-response","427","1494946","0.0-6.0-1.60","2986996","co37618","norming","","","","","","",""
"3047.070000000065","","","post_mooney1_questions","survey-likert","428","1497996","0.0-6.0-2.60","2986996","co37618","norming","","","{""curiosity"":0,""confidence"":6}","[0,1]","../img/tt/1044tt.jpg","",""
"4526.200000000186","","","recognition","survey-text","429","1502524","0.0-6.0-3.60","2986996","co37618","norming","","","{""guess"":""giraffe""}","","../img/tt/1044tt.jpg","",""
"null","../img/gs/1044gs.jpg","null","reveal","image-keyboard-response","430","1504534","0.0-6.0-4.60","2986996","co37618","norming","","","","","","",""
"null","../img/tt/1044tt.jpg","null","mooney2","image-keyboard-response","431","1506537","0.0-6.0-5.60","2986996","co37618","norming","","","","","","",""
"2832","","","post_reveal_questions","survey-likert","432","1509372","0.0-6.0-6.60","2986996","co37618","norming","","","{""aha"":1}","[0]","../img/tt/1044tt.jpg","",""
"null","<div style=""font-size:60px;""> </div>","null","fixation","html-keyboard-response","433","1509573","0.0-6.0-0.61","2986996","co37618","norming","","","","","","",""
"null","../img/tt/1254tt.jpg","null","mooney1","image-keyboard-response","434","1512578","0.0-6.0-1.61","2986996","co37618","norming","","","","","","",""
"6725.580000000307","","","post_mooney1_questions","survey-likert","435","1519308","0.0-6.0-2.61","2986996","co37618","norming","","","{""curiosity"":4,""confidence"":2}","[0,1]","../img/tt/1254tt.jpg","",""
"3294.030000000028","","","recognition","survey-text","436","1522604","0.0-6.0-3.61","2986996","co37618","norming","","","{""guess"":""rabbit""}","","../img/tt/1254tt.jpg","",""
"null","../img/gs/1254gs.jpg","null","reveal","image-keyboard-response","437","1524605","0.0-6.0-4.61","2986996","co37618","norming","","","","","","",""
"null","../img/tt/1254tt.jpg","null","mooney2","image-keyboard-response","438","1526608","0.0-6.0-5.61","2986996","co37618","norming","","","","","","",""
"1697.654999999795","","","post_reveal_questions","survey-likert","439","1528308","0.0-6.0-6.61","2986996","co37618","norming","","","{""aha"":3}","[0]","../img/tt/1254tt.jpg","",""
"null","<div style=""font-size:60px;""> </div>","null","fixation","html-keyboard-response","440","1528509","0.0-6.0-0.62","2986996","co37618","norming","","","","","","",""
"null","../img/tt/1091tt.jpg","null","mooney1","image-keyboard-response","441","1531517","0.0-6.0-1.62","2986996","co37618","norming","","","","","","",""
"10276.110000000335","","","post_mooney1_questions","survey-likert","442","1541796","0.0-6.0-2.62","2986996","co37618","norming","","","{""curiosity"":2,""confidence"":5}","[0,1]","../img/tt/1091tt.jpg","",""
"2325.940000000177","","","recognition","survey-text","443","1544124","0.0-6.0-3.62","2986996","co37618","norming","","","{""guess"":""ape""}","","../img/tt/1091tt.jpg","",""
"null","../img/gs/1091gs.jpg","null","reveal","image-keyboard-response","444","1546128","0.0-6.0-4.62","2986996","co37618","norming","","","","","","",""
"null","../img/tt/1091tt.jpg","null","mooney2","image-keyboard-response","445","1548130","0.0-6.0-5.62","2986996","co37618","norming","","","","","","",""
"2863.155000000028","","","post_reveal_questions","survey-likert","446","1550996","0.0-6.0-6.62","2986996","co37618","norming","","","{""aha"":4}","[0]","../img/tt/1091tt.jpg","",""
"null","<div style=""font-size:60px;""> </div>","null","fixation","html-keyboard-response","447","1551199","0.0-6.0-0.63","2986996","co37618","norming","","","","","","",""
"null","../img/tt/091tt.jpg","null","mooney1","image-keyboard-response","448","1554207","0.0-6.0-1.63","2986996","co37618","norming","","","","","","",""
"5753.575000000186","","","post_mooney1_questions","survey-likert","449","1559965","0.0-6.0-2.63","2986996","co37618","norming","","","{""curiosity"":4,""confidence"":1}","[0,1]","../img/tt/091tt.jpg","",""
"3181.875","","","recognition","survey-text","450","1563149","0.0-6.0-3.63","2986996","co37618","norming","","","{""guess"":""crab""}","","../img/tt/091tt.jpg","",""
"null","../img/gs/091gs.jpg","null","reveal","image-keyboard-response","451","1565156","0.0-6.0-4.63","2986996","co37618","norming","","","","","","",""
"null","../img/tt/091tt.jpg","null","mooney2","image-keyboard-response","452","1567165","0.0-6.0-5.63","2986996","co37618","norming","","","","","","",""
"5749.130000000121","","","post_reveal_questions","survey-likert","453","1572917","0.0-6.0-6.63","2986996","co37618","norming","","","{""aha"":4}","[0]","../img/tt/091tt.jpg","",""
"null","<div style=""font-size:60px;""> </div>","null","fixation","html-keyboard-response","454","1573122","0.0-6.0-0.64","2986996","co37618","norming","","","","","","",""
"null","../img/tt/300tt.jpg","null","mooney1","image-keyboard-response","455","1576130","0.0-6.0-1.64","2986996","co37618","norming","","","","","","",""
"11807.02500000014","","","post_mooney1_questions","survey-likert","456","1587941","0.0-6.0-2.64","2986996","co37618","norming","","","{""curiosity"":4,""confidence"":1}","[0,1]","../img/tt/300tt.jpg","",""
"3158.1049999999814","","","recognition","survey-text","457","1591101","0.0-6.0-3.64","2986996","co37618","norming","","","{""guess"":""snail""}","","../img/tt/300tt.jpg","",""
"null","../img/gs/300gs.jpg","null","reveal","image-keyboard-response","458","1593103","0.0-6.0-4.64","2986996","co37618","norming","","","","","","",""
"null","../img/tt/300tt.jpg","null","mooney2","image-keyboard-response","459","1595107","0.0-6.0-5.64","2986996","co37618","norming","","","","","","",""
"2239.314999999944","","","post_reveal_questions","survey-likert","460","1597349","0.0-6.0-6.64","2986996","co37618","norming","","","{""aha"":6}","[0]","../img/tt/300tt.jpg","",""
"null","<div style=""font-size:60px;""> </div>","null","fixation","html-keyboard-response","461","1597550","0.0-6.0-0.65","2986996","co37618","norming","","","","","","",""
"null","../img/tt/1087tt.jpg","null","mooney1","image-keyboard-response","462","1600552","0.0-6.0-1.65","2986996","co37618","norming","","","","","","",""
"12089.330000000075","","","post_mooney1_questions","survey-likert","463","1612645","0.0-6.0-2.65","2986996","co37618","norming","","","{""curiosity"":4,""confidence"":5}","[0,1]","../img/tt/1087tt.jpg","",""
"6966.149999999907","","","recognition","survey-text","464","1619603","0.0-6.0-3.65","2986996","co37618","norming","","","{""guess"":""sealion""}","","../img/tt/1087tt.jpg","",""
"null","../img/gs/1087gs.jpg","null","reveal","image-keyboard-response","465","1621604","0.0-6.0-4.65","2986996","co37618","norming","","","","","","",""
"null","../img/tt/1087tt.jpg","null","mooney2","image-keyboard-response","466","1623614","0.0-6.0-5.65","2986996","co37618","norming","","","","","","",""
"2234.2949999996927","","","post_reveal_questions","survey-likert","467","1625851","0.0-6.0-6.65","2986996","co37618","norming","","","{""aha"":2}","[0]","../img/tt/1087tt.jpg","",""
"null","<div style=""font-size:60px;""> </div>","null","fixation","html-keyboard-response","468","1626053","0.0-6.0-0.66","2986996","co37618","norming","","","","","","",""
"null","../img/tt/1126tt.jpg","null","mooney1","image-keyboard-response","469","1629061","0.0-6.0-1.66","2986996","co37618","norming","","","","","","",""
"4578.470000000438","","","post_mooney1_questions","survey-likert","470","1633644","0.0-6.0-2.66","2986996","co37618","norming","","","{""curiosity"":5,""confidence"":1}","[0,1]","../img/tt/1126tt.jpg","",""
"3093.965000000084","","","recognition","survey-text","471","1636739","0.0-6.0-3.66","2986996","co37618","norming","","","{""guess"":""snake""}","","../img/tt/1126tt.jpg","",""
"null","../img/gs/1126gs.jpg","null","reveal","image-keyboard-response","472","1638746","0.0-6.0-4.66","2986996","co37618","norming","","","","","","",""
"null","../img/tt/1126tt.jpg","null","mooney2","image-keyboard-response","473","1640754","0.0-6.0-5.66","2986996","co37618","norming","","","","","","",""
"2262.8100000002887","","","post_reveal_questions","survey-likert","474","1643019","0.0-6.0-6.66","2986996","co37618","norming","","","{""aha"":5}","[0]","../img/tt/1126tt.jpg","",""
"null","<div style=""font-size:60px;""> </div>","null","fixation","html-keyboard-response","475","1643221","0.0-6.0-0.67","2986996","co37618","norming","","","","","","",""
"null","../img/tt/1205tt.jpg","null","mooney1","image-keyboard-response","476","1646226","0.0-6.0-1.67","2986996","co37618","norming","","","","","","",""
"5541.780000000028","","","post_mooney1_questions","survey-likert","477","1651771","0.0-6.0-2.67","2986996","co37618","norming","","","{""curiosity"":4,""confidence"":5}","[0,1]","../img/tt/1205tt.jpg","",""
"5158.0550000004005","","","recognition","survey-text","478","1656931","0.0-6.0-3.67","2986996","co37618","norming","","","{""guess"":""theatre""}","","../img/tt/1205tt.jpg","",""
"null","../img/gs/1205gs.jpg","null","reveal","image-keyboard-response","479","1658935","0.0-6.0-4.67","2986996","co37618","norming","","","","","","",""
"null","../img/tt/1205tt.jpg","null","mooney2","image-keyboard-response","480","1660947","0.0-6.0-5.67","2986996","co37618","norming","","","","","","",""
"2877.065000000177","","","post_reveal_questions","survey-likert","481","1663827","0.0-6.0-6.67","2986996","co37618","norming","","","{""aha"":2}","[0]","../img/tt/1205tt.jpg","",""
"null","<div style=""font-size:60px;""> </div>","null","fixation","html-keyboard-response","482","1664029","0.0-6.0-0.68","2986996","co37618","norming","","","","","","",""
"null","../img/tt/1084tt.jpg","null","mooney1","image-keyboard-response","483","1667032","0.0-6.0-1.68","2986996","co37618","norming","","","","","","",""
"5519.949999999953","","","post_mooney1_questions","survey-likert","484","1672556","0.0-6.0-2.68","2986996","co37618","norming","","","{""curiosity"":2,""confidence"":5}","[0,1]","../img/tt/1084tt.jpg","",""
"6661.9799999997485","","","recognition","survey-text","485","1679219","0.0-6.0-3.68","2986996","co37618","norming","","","{""guess"":""strawberry""}","","../img/tt/1084tt.jpg","",""
"null","../img/gs/1084gs.jpg","null","reveal","image-keyboard-response","486","1681238","0.0-6.0-4.68","2986996","co37618","norming","","","","","","",""
"null","../img/tt/1084tt.jpg","null","mooney2","image-keyboard-response","487","1683248","0.0-6.0-5.68","2986996","co37618","norming","","","","","","",""
"2921.5800000003073","","","post_reveal_questions","survey-likert","488","1686172","0.0-6.0-6.68","2986996","co37618","norming","","","{""aha"":4}","[0]","../img/tt/1084tt.jpg","",""
"null","<div style=""font-size:60px;""> </div>","null","fixation","html-keyboard-response","489","1686374","0.0-6.0-0.69","2986996","co37618","norming","","","","","","",""
"null","../img/tt/1217tt.jpg","null","mooney1","image-keyboard-response","490","1689380","0.0-6.0-1.69","2986996","co37618","norming","","","","","","",""
"3996.429999999935","","","post_mooney1_questions","survey-likert","491","1693380","0.0-6.0-2.69","2986996","co37618","norming","","","{""curiosity"":5,""confidence"":1}","[0,1]","../img/tt/1217tt.jpg","",""
"3494.0999999998603","","","recognition","survey-text","492","1696876","0.0-6.0-3.69","2986996","co37618","norming","","","{""guess"":""cows""}","","../img/tt/1217tt.jpg","",""
"null","../img/gs/1217gs.jpg","null","reveal","image-keyboard-response","493","1698880","0.0-6.0-4.69","2986996","co37618","norming","","","","","","",""
"null","../img/tt/1217tt.jpg","null","mooney2","image-keyboard-response","494","1700881","0.0-6.0-5.69","2986996","co37618","norming","","","","","","",""
"2920.230000000214","","","post_reveal_questions","survey-likert","495","1703805","0.0-6.0-6.69","2986996","co37618","norming","","","{""aha"":5}","[0]","../img/tt/1217tt.jpg","",""
"null","<div style=""font-size:60px;""> </div>","null","fixation","html-keyboard-response","496","1704006","0.0-6.0-0.70","2986996","co37618","norming","","","","","","",""
"null","../img/tt/1061tt.jpg","null","mooney1","image-keyboard-response","497","1707017","0.0-6.0-1.70","2986996","co37618","norming","","","","","","",""
"6722.27500000014","","","post_mooney1_questions","survey-likert","498","1713741","0.0-6.0-2.70","2986996","co37618","norming","","","{""curiosity"":2,""confidence"":4}","[0,1]","../img/tt/1061tt.jpg","",""
"2094.0150000001304","","","recognition","survey-text","499","1715836","0.0-6.0-3.70","2986996","co37618","norming","","","{""guess"":""golf""}","","../img/tt/1061tt.jpg","",""
"null","../img/gs/1061gs.jpg","null","reveal","image-keyboard-response","500","1717838","0.0-6.0-4.70","2986996","co37618","norming","","","","","","",""
"null","../img/tt/1061tt.jpg","null","mooney2","image-keyboard-response","501","1719843","0.0-6.0-5.70","2986996","co37618","norming","","","","","","",""
"2022.9199999996927","","","post_reveal_questions","survey-likert","502","1721868","0.0-6.0-6.70","2986996","co37618","norming","","","{""aha"":4}","[0]","../img/tt/1061tt.jpg","",""
"null","<div style=""font-size:60px;""> </div>","null","fixation","html-keyboard-response","503","1722070","0.0-6.0-0.71","2986996","co37618","norming","","","","","","",""
"null","../img/tt/105tt.jpg","null","mooney1","image-keyboard-response","504","1725082","0.0-6.0-1.71","2986996","co37618","norming","","","","","","",""
"4975.23499999987","","","post_mooney1_questions","survey-likert","505","1730061","0.0-6.0-2.71","2986996","co37618","norming","","","{""curiosity"":1,""confidence"":5}","[0,1]","../img/tt/105tt.jpg","",""
"3661.8050000001676","","","recognition","survey-text","506","1733724","0.0-6.0-3.71","2986996","co37618","norming","","","{""guess"":""paperclips""}","","../img/tt/105tt.jpg","",""
"null","../img/gs/105gs.jpg","null","reveal","image-keyboard-response","507","1735728","0.0-6.0-4.71","2986996","co37618","norming","","","","","","",""
"null","../img/tt/105tt.jpg","null","mooney2","image-keyboard-response","508","1737733","0.0-6.0-5.71","2986996","co37618","norming","","","","","","",""
"2878.9149999998044","","","post_reveal_questions","survey-likert","509","1740612","0.0-6.0-6.71","2986996","co37618","norming","","","{""aha"":0}","[0]","../img/tt/105tt.jpg","",""
"null","<div style=""font-size:60px;""> </div>","null","fixation","html-keyboard-response","510","1740814","0.0-6.0-0.72","2986996","co37618","norming","","","","","","",""
"null","../img/tt/1269tt.jpg","null","mooney1","image-keyboard-response","511","1743819","0.0-6.0-1.72","2986996","co37618","norming","","","","","","",""
"4575.830000000307","","","post_mooney1_questions","survey-likert","512","1748397","0.0-6.0-2.72","2986996","co37618","norming","","","{""curiosity"":2,""confidence"":5}","[0,1]","../img/tt/1269tt.jpg","",""
"2542.0049999998882","","","recognition","survey-text","513","1750940","0.0-6.0-3.72","2986996","co37618","norming","","","{""guess"":""fox""}","","../img/tt/1269tt.jpg","",""
"null","../img/gs/1269gs.jpg","null","reveal","image-keyboard-response","514","1752945","0.0-6.0-4.72","2986996","co37618","norming","","","","","","",""
"null","../img/tt/1269tt.jpg","null","mooney2","image-keyboard-response","515","1754947","0.0-6.0-5.72","2986996","co37618","norming","","","","","","",""
"1254.2099999999627","","","post_reveal_questions","survey-likert","516","1756205","0.0-6.0-6.72","2986996","co37618","norming","","","{""aha"":5}","[0]","../img/tt/1269tt.jpg","",""
"null","<div style=""font-size:60px;""> </div>","null","fixation","html-keyboard-response","517","1756406","0.0-6.0-0.73","2986996","co37618","norming","","","","","","",""
"null","../img/tt/1228tt.jpg","null","mooney1","image-keyboard-response","518","1759408","0.0-6.0-1.73","2986996","co37618","norming","","","","","","",""
"4296.334999999963","","","post_mooney1_questions","survey-likert","519","1763709","0.0-6.0-2.73","2986996","co37618","norming","","","{""curiosity"":0,""confidence"":5}","[0,1]","../img/tt/1228tt.jpg","",""
"1742.3750000002328","","","recognition","survey-text","520","1765453","0.0-6.0-3.73","2986996","co37618","norming","","","{""guess"":""bird""}","","../img/tt/1228tt.jpg","",""
"null","../img/gs/1228gs.jpg","null","reveal","image-keyboard-response","521","1767458","0.0-6.0-4.73","2986996","co37618","norming","","","","","","",""
"null","../img/tt/1228tt.jpg","null","mooney2","image-keyboard-response","522","1769460","0.0-6.0-5.73","2986996","co37618","norming","","","","","","",""
"2733.519999999786","","","post_reveal_questions","survey-likert","523","1772197","0.0-6.0-6.73","2986996","co37618","norming","","","{""aha"":5}","[0]","../img/tt/1228tt.jpg","",""
"null","<div style=""font-size:60px;""> </div>","null","fixation","html-keyboard-response","524","1772398","0.0-6.0-0.74","2986996","co37618","norming","","","","","","",""
"null","../img/tt/194tt.jpg","null","mooney1","image-keyboard-response","525","1775410","0.0-6.0-1.74","2986996","co37618","norming","","","","","","",""
"6855.660000000149","","","post_mooney1_questions","survey-likert","526","1782269","0.0-6.0-2.74","2986996","co37618","norming","","","{""curiosity"":1,""confidence"":5}","[0,1]","../img/tt/194tt.jpg","",""
"2013.7700000000186","","","recognition","survey-text","527","1784285","0.0-6.0-3.74","2986996","co37618","norming","","","{""guess"":""train""}","","../img/tt/194tt.jpg","",""
"null","../img/gs/194gs.jpg","null","reveal","image-keyboard-response","528","1786292","0.0-6.0-4.74","2986996","co37618","norming","","","","","","",""
"null","../img/tt/194tt.jpg","null","mooney2","image-keyboard-response","529","1788294","0.0-6.0-5.74","2986996","co37618","norming","","","","","","",""
"1171.8349999999627","","","post_reveal_questions","survey-likert","530","1789469","0.0-6.0-6.74","2986996","co37618","norming","","","{""aha"":1}","[0]","../img/tt/194tt.jpg","",""
"null","<div style=""font-size:60px;""> </div>","null","fixation","html-keyboard-response","531","1789670","0.0-6.0-0.75","2986996","co37618","norming","","","","","","",""
"null","../img/tt/1156tt.jpg","null","mooney1","image-keyboard-response","532","1792680","0.0-6.0-1.75","2986996","co37618","norming","","","","","","",""
"4488.590000000084","","","post_mooney1_questions","survey-likert","533","1797173","0.0-6.0-2.75","2986996","co37618","norming","","","{""curiosity"":1,""confidence"":5}","[0,1]","../img/tt/1156tt.jpg","",""
"5030.2400000002235","","","recognition","survey-text","534","1802205","0.0-6.0-3.75","2986996","co37618","norming","","","{""guess"":""swimming""}","","../img/tt/1156tt.jpg","",""
"null","../img/gs/1156gs.jpg","null","reveal","image-keyboard-response","535","1804208","0.0-6.0-4.75","2986996","co37618","norming","","","","","","",""
"null","../img/tt/1156tt.jpg","null","mooney2","image-keyboard-response","536","1806210","0.0-6.0-5.75","2986996","co37618","norming","","","","","","",""
"1991.5","","","post_reveal_questions","survey-likert","537","1808204","0.0-6.0-6.75","2986996","co37618","norming","","","{""aha"":1}","[0]","../img/tt/1156tt.jpg","",""
"null","<div style=""font-size:60px;""> </div>","null","fixation","html-keyboard-response","538","1808405","0.0-6.0-0.76","2986996","co37618","norming","","","","","","",""
"null","../img/tt/1102tt.jpg","null","mooney1","image-keyboard-response","539","1811416","0.0-6.0-1.76","2986996","co37618","norming","","","","","","",""
"6913.125","","","post_mooney1_questions","survey-likert","540","1818332","0.0-6.0-2.76","2986996","co37618","norming","","","{""curiosity"":4,""confidence"":2}","[0,1]","../img/tt/1102tt.jpg","",""
"3566.18499999959","","","recognition","survey-text","541","1821900","0.0-6.0-3.76","2986996","co37618","norming","","","{""guess"":""jungle""}","","../img/tt/1102tt.jpg","",""
"null","../img/gs/1102gs.jpg","null","reveal","image-keyboard-response","542","1823908","0.0-6.0-4.76","2986996","co37618","norming","","","","","","",""
"null","../img/tt/1102tt.jpg","null","mooney2","image-keyboard-response","543","1825911","0.0-6.0-5.76","2986996","co37618","norming","","","","","","",""
"2369.730000000214","","","post_reveal_questions","survey-likert","544","1828284","0.0-6.0-6.76","2986996","co37618","norming","","","{""aha"":2}","[0]","../img/tt/1102tt.jpg","",""
"null","<div style=""font-size:60px;""> </div>","null","fixation","html-keyboard-response","545","1828486","0.0-6.0-0.77","2986996","co37618","norming","","","","","","",""
"null","../img/tt/1123tt.jpg","null","mooney1","image-keyboard-response","546","1831498","0.0-6.0-1.77","2986996","co37618","norming","","","","","","",""
"17070.51000000001","","","post_mooney1_questions","survey-likert","547","1848572","0.0-6.0-2.77","2986996","co37618","norming","","","{""curiosity"":1,""confidence"":5}","[0,1]","../img/tt/1123tt.jpg","",""
"9133.659999999916","","","recognition","survey-text","548","1857708","0.0-6.0-3.77","2986996","co37618","norming","","","{""guess"":""basketball""}","","../img/tt/1123tt.jpg","",""
"null","../img/gs/1123gs.jpg","null","reveal","image-keyboard-response","549","1859716","0.0-6.0-4.77","2986996","co37618","norming","","","","","","",""
"null","../img/tt/1123tt.jpg","null","mooney2","image-keyboard-response","550","1861722","0.0-6.0-5.77","2986996","co37618","norming","","","","","","",""
"2128.964999999851","","","post_reveal_questions","survey-likert","551","1863852","0.0-6.0-6.77","2986996","co37618","norming","","","{""aha"":4}","[0]","../img/tt/1123tt.jpg","",""
"null","<div style=""font-size:60px;""> </div>","null","fixation","html-keyboard-response","552","1864054","0.0-6.0-0.78","2986996","co37618","norming","","","","","","",""