"rt","stimulus","key_press","test_part","trial_type","trial_index","time_elapsed","internal_node_id","totalTime","subject","experiment_name","button_pressed","success","responses","question_order","currentStim","old","correct"
"7872.035000000096","Welcome to the experiment. This is an online experiment so please don't close the tab/window until we say goodbye.  Press any key to begin.","98","instructions","html-keyboard-response","0","7879","0.0-0.0","2696903","co37966","norming","","","","","","",""
"4926.564999999982","<div style='word-wrap: break-word; width: 900px'><h3>Please consider this information carefully before deciding whether to participate in this research</h3><ul style='text-align: left; font-size: .8em;'><li><b>Purpose of the research</b>: To examine how people process images.</li><li><b>What you will do in this research</b>:  Stimuli (images) will be presented on the computer and you will be asked different questions about them.</li><li><b>Time required</b>: Participation will take between 45 and 60 minutes to complete.</li><li><b>Risks</b>:  There are no anticipated risks associated with participating in this study. The effects of participating should be comparable to those you would experience from viewing a computer monitor for 30 minutes and using a mouse or keyboard.</li><li><b>Benefits</b>:  This study provides no benefits to you individually except for the credit. The study provides important information about the nature of perception and learning.</li><li><b>Confidentiality</b>:  Your participation in this study will remain confidential. No personally identifiable information will be associated with your data. Your de-identified data may be shared with other researchers and used in future projects.</li><li><b>Participation and withdrawal</b>:  Your participation in this study is completely voluntary and you may refuse to participate or you may choose to withdraw at any time without penalty.</li><li><b>How to contact the researchers</b>: If you have questions or concerns about your participation or payment, or want to request a summary of research findings, please contact Sander Van de Cruys (KU Leuven), at sander.vandecruys@kuleuven.be.</li></ul><p>The nature and purpose of this research have been sufficiently explained and I agree to participate in this study.  I understand that I am free to withdraw at any time without incurring any penalty.</p><p>Please consent by clicking the button below to continue. Otherwise, please exit the study at this time.</p></div>","","instructions","html-button-response","1","12807","0.0-1.0","2696903","co37966","norming","0","","","","","",""
"","","","instructions","fullscreen","2","17318","0.0-2.0","2696903","co37966","norming","","true","","","","",""
"32069.295000000013","","","sona","survey-html-form","3","49391","0.0-3.0","2696903","co37966","norming","","","[{""name"":""sonaid"",""value"":""37966""},{""name"":""debrief"",""value"":""yes""},{""name"":""datajoin"",""value"":""yes""}]","","","",""
"52023.36500000002","<div style='word-wrap: break-word; width: 900px'><h3>Instructions</h3><p>This experiment will have 3 parts. In the first part you will see a series of distorted images like the one below on the left. As you can see in the righthand image, the distorted images are derived from actual photographs. In what follows, you will <strong>briefly</strong> be presented with <strong>only</strong> the distorted image.</p> <div style='float: left; margin-right: 20px;'><img src='../img/018tt.jpg' height='250' width='250'></img></div><div style='float: right; margin-left: 20px;'><img src='../img/018gs.jpg' height='250' width='250'></img></div><p>Subsequently you will be asked a few questions about the image: One question on how <strong>curious</strong> you are about the solution and one on how <strong>confident</strong> you are that you know the solution.</p>Next, we ask you to make a guess on what is in the image. Note that it is OK to name just the <strong>basic level category</strong>. For example when you see a parrot in the image, 'parrot' will obviously be a correct answer but also correct is 'bird'. However, 'animal' will <strong>not</strong> be counted as a correct response. For the example above, 'rose' would be correct or 'flower', but not 'plant'. When soccer players are depicted, 'soccer', 'football', 'soccer players' will be correct, but not 'humans', 'outdoors', or 'sports'. You do not need to describe the image in full, just name the main object in it <strong>in one or two words</strong>. All images depict objects from one of the following broad level categories: animals, inanimate objects, plants, sports, vehicles, and food. Recognizing means knowing <strong>more</strong> than these broad labels for a given image. But we always encourage you to <strong>make a guess</strong> if you can. Note that you are allowed to use <strong>Dutch and English</strong> in your answers, whatever comes easiest for you.</p><p>Press any key to continue.</p></div>","32","instructions","html-keyboard-response","4","101416","0.0-4.0","2696903","co37966","norming","","","","","","",""
"6717.940000000002","<div style='word-wrap: break-word; width: 900px'><h3>Instructions</h3> <p>Next, the solution image will be revealed to you and you'll be asked to indicate how strong your <strong>aha-experience</strong> was after seeing the solution. This describes the positive feeling of the 'click' you sometimes experience, when the pieces of the 'puzzle' fall together and you suddenly have 'insight' in the image.</p><img src='aha.jpg' height='188' width='250'></img><p>Note that there are no right or wrong answers. We are interested in what <strong>you</strong> see in the image and how <strong>you</strong> feel about it.</p><p>Press any key to start the experiment.</p></div>","32","instructions","html-keyboard-response","5","108136","0.0-5.0","2696903","co37966","norming","","","","","","",""
"null","<div style=""font-size:60px;""> </div>","null","fixation","html-keyboard-response","6","108344","0.0-6.0-0.0","2696903","co37966","norming","","","","","","",""
"null","../img/tt/1101tt.jpg","null","mooney1","image-keyboard-response","7","111347","0.0-6.0-1.0","2696903","co37966","norming","","","","","","",""
"8401.515000000014","","","post_mooney1_questions","survey-likert","8","119751","0.0-6.0-2.0","2696903","co37966","norming","","","{""curiosity"":2,""confidence"":3}","[0,1]","../img/tt/1101tt.jpg","",""
"6381.6600000000035","","","recognition","survey-text","9","126135","0.0-6.0-3.0","2696903","co37966","norming","","","{""guess"":""man""}","","../img/tt/1101tt.jpg","",""
"null","../img/gs/1101gs.jpg","null","reveal","image-keyboard-response","10","128136","0.0-6.0-4.0","2696903","co37966","norming","","","","","","",""
"null","../img/tt/1101tt.jpg","null","mooney2","image-keyboard-response","11","130139","0.0-6.0-5.0","2696903","co37966","norming","","","","","","",""
"4961.819999999978","","","post_reveal_questions","survey-likert","12","135103","0.0-6.0-6.0","2696903","co37966","norming","","","{""aha"":4}","[0]","../img/tt/1101tt.jpg","",""
"null","<div style=""font-size:60px;""> </div>","null","fixation","html-keyboard-response","13","135306","0.0-6.0-0.1","2696903","co37966","norming","","","","","","",""
"null","../img/tt/1250tt.jpg","null","mooney1","image-keyboard-response","14","138315","0.0-6.0-1.1","2696903","co37966","norming","","","","","","",""
"10746.909999999829","","","post_mooney1_questions","survey-likert","15","149063","0.0-6.0-2.1","2696903","co37966","norming","","","{""curiosity"":5,""confidence"":0}","[0,1]","../img/tt/1250tt.jpg","",""
"7837.894999999873","","","recognition","survey-text","16","156903","0.0-6.0-3.1","2696903","co37966","norming","","","{""guess"":""""}","","../img/tt/1250tt.jpg","",""
"null","../img/gs/1250gs.jpg","null","reveal","image-keyboard-response","17","158906","0.0-6.0-4.1","2696903","co37966","norming","","","","","","",""
"null","../img/tt/1250tt.jpg","null","mooney2","image-keyboard-response","18","160915","0.0-6.0-5.1","2696903","co37966","norming","","","","","","",""
"2201.4300000000803","","","post_reveal_questions","survey-likert","19","163115","0.0-6.0-6.1","2696903","co37966","norming","","","{""aha"":6}","[0]","../img/tt/1250tt.jpg","",""
"null","<div style=""font-size:60px;""> </div>","null","fixation","html-keyboard-response","20","163316","0.0-6.0-0.2","2696903","co37966","norming","","","","","","",""
"null","../img/tt/442tt.jpg","null","mooney1","image-keyboard-response","21","166328","0.0-6.0-1.2","2696903","co37966","norming","","","","","","",""
"5938.259999999893","","","post_mooney1_questions","survey-likert","22","172267","0.0-6.0-2.2","2696903","co37966","norming","","","{""curiosity"":6,""confidence"":0}","[0,1]","../img/tt/442tt.jpg","",""
"1230.115000000049","","","recognition","survey-text","23","173499","0.0-6.0-3.2","2696903","co37966","norming","","","{""guess"":""""}","","../img/tt/442tt.jpg","",""
"null","../img/gs/442gs.jpg","null","reveal","image-keyboard-response","24","175505","0.0-6.0-4.2","2696903","co37966","norming","","","","","","",""
"null","../img/tt/442tt.jpg","null","mooney2","image-keyboard-response","25","177515","0.0-6.0-5.2","2696903","co37966","norming","","","","","","",""
"1693.6100000000442","","","post_reveal_questions","survey-likert","26","179211","0.0-6.0-6.2","2696903","co37966","norming","","","{""aha"":6}","[0]","../img/tt/442tt.jpg","",""
"null","<div style=""font-size:60px;""> </div>","null","fixation","html-keyboard-response","27","179412","0.0-6.0-0.3","2696903","co37966","norming","","","","","","",""
"null","../img/tt/1128tt.jpg","null","mooney1","image-keyboard-response","28","182424","0.0-6.0-1.3","2696903","co37966","norming","","","","","","",""
"6274.014999999985","","","post_mooney1_questions","survey-likert","29","188699","0.0-6.0-2.3","2696903","co37966","norming","","","{""curiosity"":5,""confidence"":1}","[0,1]","../img/tt/1128tt.jpg","",""
"1334.0850000001956","","","recognition","survey-text","30","190035","0.0-6.0-3.3","2696903","co37966","norming","","","{""guess"":""""}","","../img/tt/1128tt.jpg","",""
"null","../img/gs/1128gs.jpg","null","reveal","image-keyboard-response","31","192039","0.0-6.0-4.3","2696903","co37966","norming","","","","","","",""
"null","../img/tt/1128tt.jpg","null","mooney2","image-keyboard-response","32","194041","0.0-6.0-5.3","2696903","co37966","norming","","","","","","",""
"3816.05499999976","","","post_reveal_questions","survey-likert","33","197859","0.0-6.0-6.3","2696903","co37966","norming","","","{""aha"":6}","[0]","../img/tt/1128tt.jpg","",""
"null","<div style=""font-size:60px;""> </div>","null","fixation","html-keyboard-response","34","198068","0.0-6.0-0.4","2696903","co37966","norming","","","","","","",""
"null","../img/tt/416tt.jpg","null","mooney1","image-keyboard-response","35","201074","0.0-6.0-1.4","2696903","co37966","norming","","","","","","",""
"7600.51999999996","","","post_mooney1_questions","survey-likert","36","208675","0.0-6.0-2.4","2696903","co37966","norming","","","{""curiosity"":5,""confidence"":1}","[0,1]","../img/tt/416tt.jpg","",""
"1373.9700000000885","","","recognition","survey-text","37","210051","0.0-6.0-3.4","2696903","co37966","norming","","","{""guess"":""""}","","../img/tt/416tt.jpg","",""
"null","../img/gs/416gs.jpg","null","reveal","image-keyboard-response","38","212052","0.0-6.0-4.4","2696903","co37966","norming","","","","","","",""
"null","../img/tt/416tt.jpg","null","mooney2","image-keyboard-response","39","214070","0.0-6.0-5.4","2696903","co37966","norming","","","","","","",""
"1906.0450000001874","","","post_reveal_questions","survey-likert","40","215979","0.0-6.0-6.4","2696903","co37966","norming","","","{""aha"":5}","[0]","../img/tt/416tt.jpg","",""
"null","<div style=""font-size:60px;""> </div>","null","fixation","html-keyboard-response","41","216182","0.0-6.0-0.5","2696903","co37966","norming","","","","","","",""
"null","../img/tt/1232tt.jpg","null","mooney1","image-keyboard-response","42","219185","0.0-6.0-1.5","2696903","co37966","norming","","","","","","",""
"8135.660000000149","","","post_mooney1_questions","survey-likert","43","227321","0.0-6.0-2.5","2696903","co37966","norming","","","{""curiosity"":5,""confidence"":1}","[0,1]","../img/tt/1232tt.jpg","",""
"1797.884999999951","","","recognition","survey-text","44","229121","0.0-6.0-3.5","2696903","co37966","norming","","","{""guess"":""""}","","../img/tt/1232tt.jpg","",""
"null","../img/gs/1232gs.jpg","null","reveal","image-keyboard-response","45","231122","0.0-6.0-4.5","2696903","co37966","norming","","","","","","",""
"null","../img/tt/1232tt.jpg","null","mooney2","image-keyboard-response","46","233133","0.0-6.0-5.5","2696903","co37966","norming","","","","","","",""
"2330.1599999999744","","","post_reveal_questions","survey-likert","47","235465","0.0-6.0-6.5","2696903","co37966","norming","","","{""aha"":5}","[0]","../img/tt/1232tt.jpg","",""
"null","<div style=""font-size:60px;""> </div>","null","fixation","html-keyboard-response","48","235666","0.0-6.0-0.6","2696903","co37966","norming","","","","","","",""
"null","../img/tt/1118tt.jpg","null","mooney1","image-keyboard-response","49","238672","0.0-6.0-1.6","2696903","co37966","norming","","","","","","",""
"2951.3150000000314","","","post_mooney1_questions","survey-likert","50","241625","0.0-6.0-2.6","2696903","co37966","norming","","","{""curiosity"":4,""confidence"":1}","[0,1]","../img/tt/1118tt.jpg","",""
"2494.069999999949","","","recognition","survey-text","51","244121","0.0-6.0-3.6","2696903","co37966","norming","","","{""guess"":""car""}","","../img/tt/1118tt.jpg","",""
"null","../img/gs/1118gs.jpg","null","reveal","image-keyboard-response","52","246125","0.0-6.0-4.6","2696903","co37966","norming","","","","","","",""
"null","../img/tt/1118tt.jpg","null","mooney2","image-keyboard-response","53","248127","0.0-6.0-5.6","2696903","co37966","norming","","","","","","",""
"2231.645000000077","","","post_reveal_questions","survey-likert","54","250361","0.0-6.0-6.6","2696903","co37966","norming","","","{""aha"":6}","[0]","../img/tt/1118tt.jpg","",""
"null","<div style=""font-size:60px;""> </div>","null","fixation","html-keyboard-response","55","250565","0.0-6.0-0.7","2696903","co37966","norming","","","","","","",""
"null","../img/tt/497tt.jpg","null","mooney1","image-keyboard-response","56","253567","0.0-6.0-1.7","2696903","co37966","norming","","","","","","",""
"7640.049999999988","","","post_mooney1_questions","survey-likert","57","261210","0.0-6.0-2.7","2696903","co37966","norming","","","{""curiosity"":5,""confidence"":1}","[0,1]","../img/tt/497tt.jpg","",""
"1045.9049999999697","","","recognition","survey-text","58","262257","0.0-6.0-3.7","2696903","co37966","norming","","","{""guess"":""""}","","../img/tt/497tt.jpg","",""
"null","../img/gs/497gs.jpg","null","reveal","image-keyboard-response","59","264263","0.0-6.0-4.7","2696903","co37966","norming","","","","","","",""
"null","../img/tt/497tt.jpg","null","mooney2","image-keyboard-response","60","266268","0.0-6.0-5.7","2696903","co37966","norming","","","","","","",""
"3227.4150000000373","","","post_reveal_questions","survey-likert","61","269497","0.0-6.0-6.7","2696903","co37966","norming","","","{""aha"":4}","[0]","../img/tt/497tt.jpg","",""
"null","<div style=""font-size:60px;""> </div>","null","fixation","html-keyboard-response","62","269701","0.0-6.0-0.8","2696903","co37966","norming","","","","","","",""
"null","../img/tt/1156tt.jpg","null","mooney1","image-keyboard-response","63","272706","0.0-6.0-1.8","2696903","co37966","norming","","","","","","",""
"7476.475000000151","","","post_mooney1_questions","survey-likert","64","280185","0.0-6.0-2.8","2696903","co37966","norming","","","{""curiosity"":5,""confidence"":2}","[0,1]","../img/tt/1156tt.jpg","",""
"2942.074999999895","","","recognition","survey-text","65","283134","0.0-6.0-3.8","2696903","co37966","norming","","","{""guess"":""""}","","../img/tt/1156tt.jpg","",""
"null","../img/gs/1156gs.jpg","null","reveal","image-keyboard-response","66","285136","0.0-6.0-4.8","2696903","co37966","norming","","","","","","",""
"null","../img/tt/1156tt.jpg","null","mooney2","image-keyboard-response","67","287140","0.0-6.0-5.8","2696903","co37966","norming","","","","","","",""
"1400.3549999999814","","","post_reveal_questions","survey-likert","68","288542","0.0-6.0-6.8","2696903","co37966","norming","","","{""aha"":5}","[0]","../img/tt/1156tt.jpg","",""
"null","<div style=""font-size:60px;""> </div>","null","fixation","html-keyboard-response","69","288748","0.0-6.0-0.9","2696903","co37966","norming","","","","","","",""
"null","../img/tt/1089tt.jpg","null","mooney1","image-keyboard-response","70","291753","0.0-6.0-1.9","2696903","co37966","norming","","","","","","",""
"4227.104999999923","","","post_mooney1_questions","survey-likert","71","295983","0.0-6.0-2.9","2696903","co37966","norming","","","{""curiosity"":6,""confidence"":1}","[0,1]","../img/tt/1089tt.jpg","",""
"925.9050000000861","","","recognition","survey-text","72","296910","0.0-6.0-3.9","2696903","co37966","norming","","","{""guess"":""""}","","../img/tt/1089tt.jpg","",""
"null","../img/gs/1089gs.jpg","null","reveal","image-keyboard-response","73","298911","0.0-6.0-4.9","2696903","co37966","norming","","","","","","",""
"null","../img/tt/1089tt.jpg","null","mooney2","image-keyboard-response","74","300919","0.0-6.0-5.9","2696903","co37966","norming","","","","","","",""
"1845.0500000001048","","","post_reveal_questions","survey-likert","75","302766","0.0-6.0-6.9","2696903","co37966","norming","","","{""aha"":6}","[0]","../img/tt/1089tt.jpg","",""
"null","<div style=""font-size:60px;""> </div>","null","fixation","html-keyboard-response","76","302972","0.0-6.0-0.10","2696903","co37966","norming","","","","","","",""
"null","../img/tt/567tt.jpg","null","mooney1","image-keyboard-response","77","305978","0.0-6.0-1.10","2696903","co37966","norming","","","","","","",""
"4401.2949999999255","","","post_mooney1_questions","survey-likert","78","310382","0.0-6.0-2.10","2696903","co37966","norming","","","{""curiosity"":4,""confidence"":2}","[0,1]","../img/tt/567tt.jpg","",""
"5213.469999999914","","","recognition","survey-text","79","315598","0.0-6.0-3.10","2696903","co37966","norming","","","{""guess"":""car mirror""}","","../img/tt/567tt.jpg","",""
"null","../img/gs/567gs.jpg","null","reveal","image-keyboard-response","80","317606","0.0-6.0-4.10","2696903","co37966","norming","","","","","","",""
"null","../img/tt/567tt.jpg","null","mooney2","image-keyboard-response","81","319615","0.0-6.0-5.10","2696903","co37966","norming","","","","","","",""
"2701.3749999998836","","","post_reveal_questions","survey-likert","82","322318","0.0-6.0-6.10","2696903","co37966","norming","","","{""aha"":6}","[0]","../img/tt/567tt.jpg","",""
"null","<div style=""font-size:60px;""> </div>","null","fixation","html-keyboard-response","83","322524","0.0-6.0-0.11","2696903","co37966","norming","","","","","","",""
"null","../img/tt/301tt.jpg","null","mooney1","image-keyboard-response","84","325535","0.0-6.0-1.11","2696903","co37966","norming","","","","","","",""
"6213.369999999937","","","post_mooney1_questions","survey-likert","85","331751","0.0-6.0-2.11","2696903","co37966","norming","","","{""curiosity"":6,""confidence"":2}","[0,1]","../img/tt/301tt.jpg","",""
"2446.1350000001257","","","recognition","survey-text","86","334198","0.0-6.0-3.11","2696903","co37966","norming","","","{""guess"":""gun""}","","../img/tt/301tt.jpg","",""
"null","../img/gs/301gs.jpg","null","reveal","image-keyboard-response","87","336203","0.0-6.0-4.11","2696903","co37966","norming","","","","","","",""
"null","../img/tt/301tt.jpg","null","mooney2","image-keyboard-response","88","338214","0.0-6.0-5.11","2696903","co37966","norming","","","","","","",""
"2605.939999999886","","","post_reveal_questions","survey-likert","89","340822","0.0-6.0-6.11","2696903","co37966","norming","","","{""aha"":6}","[0]","../img/tt/301tt.jpg","",""
"null","<div style=""font-size:60px;""> </div>","null","fixation","html-keyboard-response","90","341026","0.0-6.0-0.12","2696903","co37966","norming","","","","","","",""
"null","../img/tt/1275tt.jpg","null","mooney1","image-keyboard-response","91","344038","0.0-6.0-1.12","2696903","co37966","norming","","","","","","",""
"3857.1599999997998","","","post_mooney1_questions","survey-likert","92","347898","0.0-6.0-2.12","2696903","co37966","norming","","","{""curiosity"":6,""confidence"":0}","[0,1]","../img/tt/1275tt.jpg","",""
"838.7749999999651","","","recognition","survey-text","93","348738","0.0-6.0-3.12","2696903","co37966","norming","","","{""guess"":""""}","","../img/tt/1275tt.jpg","",""
"null","../img/gs/1275gs.jpg","null","reveal","image-keyboard-response","94","350739","0.0-6.0-4.12","2696903","co37966","norming","","","","","","",""
"null","../img/tt/1275tt.jpg","null","mooney2","image-keyboard-response","95","352749","0.0-6.0-5.12","2696903","co37966","norming","","","","","","",""
"2578.4150000001537","","","post_reveal_questions","survey-likert","96","355330","0.0-6.0-6.12","2696903","co37966","norming","","","{""aha"":6}","[0]","../img/tt/1275tt.jpg","",""
"null","<div style=""font-size:60px;""> </div>","null","fixation","html-keyboard-response","97","355531","0.0-6.0-0.13","2696903","co37966","norming","","","","","","",""
"null","../img/tt/315tt.jpg","null","mooney1","image-keyboard-response","98","358540","0.0-6.0-1.13","2696903","co37966","norming","","","","","","",""
"5100.075000000012","","","post_mooney1_questions","survey-likert","99","363642","0.0-6.0-2.13","2696903","co37966","norming","","","{""curiosity"":4,""confidence"":2}","[0,1]","../img/tt/315tt.jpg","",""
"2501.844999999972","","","recognition","survey-text","100","366146","0.0-6.0-3.13","2696903","co37966","norming","","","{""guess"":""bird""}","","../img/tt/315tt.jpg","",""
"null","../img/gs/315gs.jpg","null","reveal","image-keyboard-response","101","368155","0.0-6.0-4.13","2696903","co37966","norming","","","","","","",""
"null","../img/tt/315tt.jpg","null","mooney2","image-keyboard-response","102","370166","0.0-6.0-5.13","2696903","co37966","norming","","","","","","",""
"2697.265000000014","","","post_reveal_questions","survey-likert","103","372866","0.0-6.0-6.13","2696903","co37966","norming","","","{""aha"":5}","[0]","../img/tt/315tt.jpg","",""
"null","<div style=""font-size:60px;""> </div>","null","fixation","html-keyboard-response","104","373075","0.0-6.0-0.14","2696903","co37966","norming","","","","","","",""
"null","../img/tt/319tt.jpg","null","mooney1","image-keyboard-response","105","376083","0.0-6.0-1.14","2696903","co37966","norming","","","","","","",""
"5572.0599999999395","","","post_mooney1_questions","survey-likert","106","381658","0.0-6.0-2.14","2696903","co37966","norming","","","{""curiosity"":4,""confidence"":3}","[0,1]","../img/tt/319tt.jpg","",""
"3877.8899999999558","","","recognition","survey-text","107","385538","0.0-6.0-3.14","2696903","co37966","norming","","","{""guess"":""batman""}","","../img/tt/319tt.jpg","",""
"null","../img/gs/319gs.jpg","null","reveal","image-keyboard-response","108","387541","0.0-6.0-4.14","2696903","co37966","norming","","","","","","",""
"null","../img/tt/319tt.jpg","null","mooney2","image-keyboard-response","109","389543","0.0-6.0-5.14","2696903","co37966","norming","","","","","","",""
"2720.6100000000442","","","post_reveal_questions","survey-likert","110","392266","0.0-6.0-6.14","2696903","co37966","norming","","","{""aha"":6}","[0]","../img/tt/319tt.jpg","",""
"null","<div style=""font-size:60px;""> </div>","null","fixation","html-keyboard-response","111","392471","0.0-6.0-0.15","2696903","co37966","norming","","","","","","",""
"null","../img/tt/1353tt.jpg","null","mooney1","image-keyboard-response","112","395476","0.0-6.0-1.15","2696903","co37966","norming","","","","","","",""
"4299.224999999977","","","post_mooney1_questions","survey-likert","113","399778","0.0-6.0-2.15","2696903","co37966","norming","","","{""curiosity"":6,""confidence"":2}","[0,1]","../img/tt/1353tt.jpg","",""
"965.9650000000838","","","recognition","survey-text","114","400746","0.0-6.0-3.15","2696903","co37966","norming","","","{""guess"":""""}","","../img/tt/1353tt.jpg","",""
"null","../img/gs/1353gs.jpg","null","reveal","image-keyboard-response","115","402749","0.0-6.0-4.15","2696903","co37966","norming","","","","","","",""
"null","../img/tt/1353tt.jpg","null","mooney2","image-keyboard-response","116","404754","0.0-6.0-5.15","2696903","co37966","norming","","","","","","",""
"3213.6450000000186","","","post_reveal_questions","survey-likert","117","407970","0.0-6.0-6.15","2696903","co37966","norming","","","{""aha"":6}","[0]","../img/tt/1353tt.jpg","",""
"null","<div style=""font-size:60px;""> </div>","null","fixation","html-keyboard-response","118","408180","0.0-6.0-0.16","2696903","co37966","norming","","","","","","",""
"null","../img/tt/1269tt.jpg","null","mooney1","image-keyboard-response","119","411192","0.0-6.0-1.16","2696903","co37966","norming","","","","","","",""
"8431.255000000005","","","post_mooney1_questions","survey-likert","120","419626","0.0-6.0-2.16","2696903","co37966","norming","","","{""curiosity"":1,""confidence"":6}","[0,1]","../img/tt/1269tt.jpg","",""
"3477.564999999944","","","recognition","survey-text","121","423106","0.0-6.0-3.16","2696903","co37966","norming","","","{""guess"":""eekhoorn""}","","../img/tt/1269tt.jpg","",""
"null","../img/gs/1269gs.jpg","null","reveal","image-keyboard-response","122","425110","0.0-6.0-4.16","2696903","co37966","norming","","","","","","",""
"null","../img/tt/1269tt.jpg","null","mooney2","image-keyboard-response","123","427120","0.0-6.0-5.16","2696903","co37966","norming","","","","","","",""
"2959.1399999999558","","","post_reveal_questions","survey-likert","124","430082","0.0-6.0-6.16","2696903","co37966","norming","","","{""aha"":0}","[0]","../img/tt/1269tt.jpg","",""
"null","<div style=""font-size:60px;""> </div>","null","fixation","html-keyboard-response","125","430284","0.0-6.0-0.17","2696903","co37966","norming","","","","","","",""
"null","../img/tt/1283tt.jpg","null","mooney1","image-keyboard-response","126","433290","0.0-6.0-1.17","2696903","co37966","norming","","","","","","",""
"4005.7799999999115","","","post_mooney1_questions","survey-likert","127","437298","0.0-6.0-2.17","2696903","co37966","norming","","","{""curiosity"":6,""confidence"":0}","[0,1]","../img/tt/1283tt.jpg","",""
"870.0550000001094","","","recognition","survey-text","128","438170","0.0-6.0-3.17","2696903","co37966","norming","","","{""guess"":""""}","","../img/tt/1283tt.jpg","",""
"null","../img/gs/1283gs.jpg","null","reveal","image-keyboard-response","129","440171","0.0-6.0-4.17","2696903","co37966","norming","","","","","","",""
"null","../img/tt/1283tt.jpg","null","mooney2","image-keyboard-response","130","442174","0.0-6.0-5.17","2696903","co37966","norming","","","","","","",""
"3937.3550000000396","","","post_reveal_questions","survey-likert","131","446114","0.0-6.0-6.17","2696903","co37966","norming","","","{""aha"":6}","[0]","../img/tt/1283tt.jpg","",""
"null","<div style=""font-size:60px;""> </div>","null","fixation","html-keyboard-response","132","446318","0.0-6.0-0.18","2696903","co37966","norming","","","","","","",""
"null","../img/tt/163tt.jpg","null","mooney1","image-keyboard-response","133","449325","0.0-6.0-1.18","2696903","co37966","norming","","","","","","",""
"7306.15000000014","","","post_mooney1_questions","survey-likert","134","456634","0.0-6.0-2.18","2696903","co37966","norming","","","{""curiosity"":1,""confidence"":6}","[0,1]","../img/tt/163tt.jpg","",""
"3349.975000000093","","","recognition","survey-text","135","459985","0.0-6.0-3.18","2696903","co37966","norming","","","{""guess"":""flower""}","","../img/tt/163tt.jpg","",""
"null","../img/gs/163gs.jpg","null","reveal","image-keyboard-response","136","461989","0.0-6.0-4.18","2696903","co37966","norming","","","","","","",""
"null","../img/tt/163tt.jpg","null","mooney2","image-keyboard-response","137","463993","0.0-6.0-5.18","2696903","co37966","norming","","","","","","",""
"2134.804999999935","","","post_reveal_questions","survey-likert","138","466128","0.0-6.0-6.18","2696903","co37966","norming","","","{""aha"":6}","[0]","../img/tt/163tt.jpg","",""
"null","<div style=""font-size:60px;""> </div>","null","fixation","html-keyboard-response","139","466336","0.0-6.0-0.19","2696903","co37966","norming","","","","","","",""
"null","../img/tt/1260tt.jpg","null","mooney1","image-keyboard-response","140","469338","0.0-6.0-1.19","2696903","co37966","norming","","","","","","",""
"5739.59500000003","","","post_mooney1_questions","survey-likert","141","475080","0.0-6.0-2.19","2696903","co37966","norming","","","{""curiosity"":5,""confidence"":2}","[0,1]","../img/tt/1260tt.jpg","",""
"3253.979999999923","","","recognition","survey-text","142","478336","0.0-6.0-3.19","2696903","co37966","norming","","","{""guess"":""struik""}","","../img/tt/1260tt.jpg","",""
"null","../img/gs/1260gs.jpg","null","reveal","image-keyboard-response","143","480342","0.0-6.0-4.19","2696903","co37966","norming","","","","","","",""
"null","../img/tt/1260tt.jpg","null","mooney2","image-keyboard-response","144","482343","0.0-6.0-5.19","2696903","co37966","norming","","","","","","",""
"2408.2200000000303","","","post_reveal_questions","survey-likert","145","484752","0.0-6.0-6.19","2696903","co37966","norming","","","{""aha"":5}","[0]","../img/tt/1260tt.jpg","",""
"null","<div style=""font-size:60px;""> </div>","null","fixation","html-keyboard-response","146","484955","0.0-6.0-0.20","2696903","co37966","norming","","","","","","",""
"null","../img/tt/1255tt.jpg","null","mooney1","image-keyboard-response","147","487962","0.0-6.0-1.20","2696903","co37966","norming","","","","","","",""
"6075.794999999984","","","post_mooney1_questions","survey-likert","148","494040","0.0-6.0-2.20","2696903","co37966","norming","","","{""curiosity"":4,""confidence"":3}","[0,1]","../img/tt/1255tt.jpg","",""
"3374.049999999872","","","recognition","survey-text","149","497416","0.0-6.0-3.20","2696903","co37966","norming","","","{""guess"":""konijn""}","","../img/tt/1255tt.jpg","",""
"null","../img/gs/1255gs.jpg","null","reveal","image-keyboard-response","150","499417","0.0-6.0-4.20","2696903","co37966","norming","","","","","","",""
"null","../img/tt/1255tt.jpg","null","mooney2","image-keyboard-response","151","501428","0.0-6.0-5.20","2696903","co37966","norming","","","","","","",""
"3217.8749999998254","","","post_reveal_questions","survey-likert","152","504648","0.0-6.0-6.20","2696903","co37966","norming","","","{""aha"":0}","[0]","../img/tt/1255tt.jpg","",""
"null","<div style=""font-size:60px;""> </div>","null","fixation","html-keyboard-response","153","504857","0.0-6.0-0.21","2696903","co37966","norming","","","","","","",""
"null","../img/tt/496tt.jpg","null","mooney1","image-keyboard-response","154","507860","0.0-6.0-1.21","2696903","co37966","norming","","","","","","",""
"7314.000000000116","","","post_mooney1_questions","survey-likert","155","515176","0.0-6.0-2.21","2696903","co37966","norming","","","{""curiosity"":1,""confidence"":5}","[0,1]","../img/tt/496tt.jpg","",""
"2493.850000000093","","","recognition","survey-text","156","517672","0.0-6.0-3.21","2696903","co37966","norming","","","{""guess"":""hond""}","","../img/tt/496tt.jpg","",""
"null","../img/gs/496gs.jpg","null","reveal","image-keyboard-response","157","519681","0.0-6.0-4.21","2696903","co37966","norming","","","","","","",""
"null","../img/tt/496tt.jpg","null","mooney2","image-keyboard-response","158","521687","0.0-6.0-5.21","2696903","co37966","norming","","","","","","",""
"2928.1399999999558","","","post_reveal_questions","survey-likert","159","524616","0.0-6.0-6.21","2696903","co37966","norming","","","{""aha"":0}","[0]","../img/tt/496tt.jpg","",""
"null","<div style=""font-size:60px;""> </div>","null","fixation","html-keyboard-response","160","524818","0.0-6.0-0.22","2696903","co37966","norming","","","","","","",""
"null","../img/tt/105tt.jpg","null","mooney1","image-keyboard-response","161","527827","0.0-6.0-1.22","2696903","co37966","norming","","","","","","",""
"13267.580000000191","","","post_mooney1_questions","survey-likert","162","541097","0.0-6.0-2.22","2696903","co37966","norming","","","{""curiosity"":5,""confidence"":0}","[0,1]","../img/tt/105tt.jpg","",""
"902.2099999999627","","","recognition","survey-text","163","542001","0.0-6.0-3.22","2696903","co37966","norming","","","{""guess"":""""}","","../img/tt/105tt.jpg","",""
"null","../img/gs/105gs.jpg","null","reveal","image-keyboard-response","164","544010","0.0-6.0-4.22","2696903","co37966","norming","","","","","","",""
"null","../img/tt/105tt.jpg","null","mooney2","image-keyboard-response","165","546012","0.0-6.0-5.22","2696903","co37966","norming","","","","","","",""
"3722.969999999972","","","post_reveal_questions","survey-likert","166","549737","0.0-6.0-6.22","2696903","co37966","norming","","","{""aha"":4}","[0]","../img/tt/105tt.jpg","",""
"null","<div style=""font-size:60px;""> </div>","null","fixation","html-keyboard-response","167","549943","0.0-6.0-0.23","2696903","co37966","norming","","","","","","",""
"null","../img/tt/440tt.jpg","null","mooney1","image-keyboard-response","168","552952","0.0-6.0-1.23","2696903","co37966","norming","","","","","","",""
"6126.554999999935","","","post_mooney1_questions","survey-likert","169","559082","0.0-6.0-2.23","2696903","co37966","norming","","","{""curiosity"":4,""confidence"":2}","[0,1]","../img/tt/440tt.jpg","",""
"2926.0050000000047","","","recognition","survey-text","170","562009","0.0-6.0-3.23","2696903","co37966","norming","","","{""guess"":""boerderij ""}","","../img/tt/440tt.jpg","",""
"null","../img/gs/440gs.jpg","null","reveal","image-keyboard-response","171","564018","0.0-6.0-4.23","2696903","co37966","norming","","","","","","",""
"null","../img/tt/440tt.jpg","null","mooney2","image-keyboard-response","172","566020","0.0-6.0-5.23","2696903","co37966","norming","","","","","","",""
"2715.1199999999953","","","post_reveal_questions","survey-likert","173","568737","0.0-6.0-6.23","2696903","co37966","norming","","","{""aha"":5}","[0]","../img/tt/440tt.jpg","",""
"null","<div style=""font-size:60px;""> </div>","null","fixation","html-keyboard-response","174","568941","0.0-6.0-0.24","2696903","co37966","norming","","","","","","",""
"null","../img/tt/1234tt.jpg","null","mooney1","image-keyboard-response","175","571944","0.0-6.0-1.24","2696903","co37966","norming","","","","","","",""
"5510.369999999995","","","post_mooney1_questions","survey-likert","176","577457","0.0-6.0-2.24","2696903","co37966","norming","","","{""curiosity"":5,""confidence"":4}","[0,1]","../img/tt/1234tt.jpg","",""
"3654.0150000001304","","","recognition","survey-text","177","581113","0.0-6.0-3.24","2696903","co37966","norming","","","{""guess"":""zwaan""}","","../img/tt/1234tt.jpg","",""
"null","../img/gs/1234gs.jpg","null","reveal","image-keyboard-response","178","583119","0.0-6.0-4.24","2696903","co37966","norming","","","","","","",""
"null","../img/tt/1234tt.jpg","null","mooney2","image-keyboard-response","179","585122","0.0-6.0-5.24","2696903","co37966","norming","","","","","","",""
"1828.7099999999627","","","post_reveal_questions","survey-likert","180","586953","0.0-6.0-6.24","2696903","co37966","norming","","","{""aha"":2}","[0]","../img/tt/1234tt.jpg","",""
"null","<div style=""font-size:60px;""> </div>","null","fixation","html-keyboard-response","181","587156","0.0-6.0-0.25","2696903","co37966","norming","","","","","","",""
"null","../img/tt/001tt.jpg","null","mooney1","image-keyboard-response","182","590160","0.0-6.0-1.25","2696903","co37966","norming","","","","","","",""
"5679.189999999828","","","post_mooney1_questions","survey-likert","183","595842","0.0-6.0-2.25","2696903","co37966","norming","","","{""curiosity"":5,""confidence"":0}","[0,1]","../img/tt/001tt.jpg","",""
"1030.0300000001444","","","recognition","survey-text","184","596873","0.0-6.0-3.25","2696903","co37966","norming","","","{""guess"":""""}","","../img/tt/001tt.jpg","",""
"null","../img/gs/001gs.jpg","null","reveal","image-keyboard-response","185","598882","0.0-6.0-4.25","2696903","co37966","norming","","","","","","",""
"null","../img/tt/001tt.jpg","null","mooney2","image-keyboard-response","186","600884","0.0-6.0-5.25","2696903","co37966","norming","","","","","","",""
"3899.3450000000885","","","post_reveal_questions","survey-likert","187","604785","0.0-6.0-6.25","2696903","co37966","norming","","","{""aha"":6}","[0]","../img/tt/001tt.jpg","",""
"null","<div style=""font-size:60px;""> </div>","null","fixation","html-keyboard-response","188","604991","0.0-6.0-0.26","2696903","co37966","norming","","","","","","",""
"null","../img/tt/1276tt.jpg","null","mooney1","image-keyboard-response","189","607997","0.0-6.0-1.26","2696903","co37966","norming","","","","","","",""
"9657.645000000019","","","post_mooney1_questions","survey-likert","190","617658","0.0-6.0-2.26","2696903","co37966","norming","","","{""curiosity"":4,""confidence"":2}","[0,1]","../img/tt/1276tt.jpg","",""
"3725.965000000084","","","recognition","survey-text","191","621385","0.0-6.0-3.26","2696903","co37966","norming","","","{""guess"":""vogel""}","","../img/tt/1276tt.jpg","",""
"null","../img/gs/1276gs.jpg","null","reveal","image-keyboard-response","192","623393","0.0-6.0-4.26","2696903","co37966","norming","","","","","","",""
"null","../img/tt/1276tt.jpg","null","mooney2","image-keyboard-response","193","625395","0.0-6.0-5.26","2696903","co37966","norming","","","","","","",""
"3444.4249999998137","","","post_reveal_questions","survey-likert","194","628841","0.0-6.0-6.26","2696903","co37966","norming","","","{""aha"":5}","[0]","../img/tt/1276tt.jpg","",""
"null","<div style=""font-size:60px;""> </div>","null","fixation","html-keyboard-response","195","629050","0.0-6.0-0.27","2696903","co37966","norming","","","","","","",""
"null","../img/tt/378tt.jpg","null","mooney1","image-keyboard-response","196","632056","0.0-6.0-1.27","2696903","co37966","norming","","","","","","",""
"5854.745000000112","","","post_mooney1_questions","survey-likert","197","637914","0.0-6.0-2.27","2696903","co37966","norming","","","{""curiosity"":5,""confidence"":1}","[0,1]","../img/tt/378tt.jpg","",""
"2685.759999999893","","","recognition","survey-text","198","640601","0.0-6.0-3.27","2696903","co37966","norming","","","{""guess"":""zwijn""}","","../img/tt/378tt.jpg","",""
"null","../img/gs/378gs.jpg","null","reveal","image-keyboard-response","199","642611","0.0-6.0-4.27","2696903","co37966","norming","","","","","","",""
"null","../img/tt/378tt.jpg","null","mooney2","image-keyboard-response","200","644620","0.0-6.0-5.27","2696903","co37966","norming","","","","","","",""
"1859.255000000121","","","post_reveal_questions","survey-likert","201","646481","0.0-6.0-6.27","2696903","co37966","norming","","","{""aha"":5}","[0]","../img/tt/378tt.jpg","",""
"null","<div style=""font-size:60px;""> </div>","null","fixation","html-keyboard-response","202","646687","0.0-6.0-0.28","2696903","co37966","norming","","","","","","",""
"null","../img/tt/1191tt.jpg","null","mooney1","image-keyboard-response","203","649692","0.0-6.0-1.28","2696903","co37966","norming","","","","","","",""
"5562.7200000000885","","","post_mooney1_questions","survey-likert","204","655251","0.0-6.0-2.28","2696903","co37966","norming","","","{""curiosity"":1,""confidence"":5}","[0,1]","../img/tt/1191tt.jpg","",""
"4198.104999999981","","","recognition","survey-text","205","659450","0.0-6.0-3.28","2696903","co37966","norming","","","{""guess"":""kamelen""}","","../img/tt/1191tt.jpg","",""
"null","../img/gs/1191gs.jpg","null","reveal","image-keyboard-response","206","661456","0.0-6.0-4.28","2696903","co37966","norming","","","","","","",""
"null","../img/tt/1191tt.jpg","null","mooney2","image-keyboard-response","207","663467","0.0-6.0-5.28","2696903","co37966","norming","","","","","","",""
"2349.1900000000605","","","post_reveal_questions","survey-likert","208","665819","0.0-6.0-6.28","2696903","co37966","norming","","","{""aha"":6}","[0]","../img/tt/1191tt.jpg","",""
"null","<div style=""font-size:60px;""> </div>","null","fixation","html-keyboard-response","209","666029","0.0-6.0-0.29","2696903","co37966","norming","","","","","","",""
"null","../img/tt/1175tt.jpg","null","mooney1","image-keyboard-response","210","669037","0.0-6.0-1.29","2696903","co37966","norming","","","","","","",""
"3962.785000000149","","","post_mooney1_questions","survey-likert","211","673003","0.0-6.0-2.29","2696903","co37966","norming","","","{""curiosity"":6,""confidence"":0}","[0,1]","../img/tt/1175tt.jpg","",""
"1301.6849999999395","","","recognition","survey-text","212","674306","0.0-6.0-3.29","2696903","co37966","norming","","","{""guess"":""""}","","../img/tt/1175tt.jpg","",""
"null","../img/gs/1175gs.jpg","null","reveal","image-keyboard-response","213","676309","0.0-6.0-4.29","2696903","co37966","norming","","","","","","",""
"null","../img/tt/1175tt.jpg","null","mooney2","image-keyboard-response","214","678311","0.0-6.0-5.29","2696903","co37966","norming","","","","","","",""
"2761.940000000177","","","post_reveal_questions","survey-likert","215","681075","0.0-6.0-6.29","2696903","co37966","norming","","","{""aha"":6}","[0]","../img/tt/1175tt.jpg","",""
"null","<div style=""font-size:60px;""> </div>","null","fixation","html-keyboard-response","216","681278","0.0-6.0-0.30","2696903","co37966","norming","","","","","","",""
"null","../img/tt/013tt.jpg","null","mooney1","image-keyboard-response","217","684289","0.0-6.0-1.30","2696903","co37966","norming","","","","","","",""
"5606.640000000014","","","post_mooney1_questions","survey-likert","218","689899","0.0-6.0-2.30","2696903","co37966","norming","","","{""curiosity"":5,""confidence"":1}","[0,1]","../img/tt/013tt.jpg","",""
"2725.9400000000605","","","recognition","survey-text","219","692626","0.0-6.0-3.30","2696903","co37966","norming","","","{""guess"":""old woman""}","","../img/tt/013tt.jpg","",""
"null","../img/gs/013gs.jpg","null","reveal","image-keyboard-response","220","694633","0.0-6.0-4.30","2696903","co37966","norming","","","","","","",""
"null","../img/tt/013tt.jpg","null","mooney2","image-keyboard-response","221","696634","0.0-6.0-5.30","2696903","co37966","norming","","","","","","",""
"2438.3599999998696","","","post_reveal_questions","survey-likert","222","699074","0.0-6.0-6.30","2696903","co37966","norming","","","{""aha"":6}","[0]","../img/tt/013tt.jpg","",""
"null","<div style=""font-size:60px;""> </div>","null","fixation","html-keyboard-response","223","699275","0.0-6.0-0.31","2696903","co37966","norming","","","","","","",""
"null","../img/tt/1087tt.jpg","null","mooney1","image-keyboard-response","224","702282","0.0-6.0-1.31","2696903","co37966","norming","","","","","","",""
"8069.744999999995","","","post_mooney1_questions","survey-likert","225","710354","0.0-6.0-2.31","2696903","co37966","norming","","","{""curiosity"":6,""confidence"":0}","[0,1]","../img/tt/1087tt.jpg","",""
"1230.1899999999441","","","recognition","survey-text","226","711586","0.0-6.0-3.31","2696903","co37966","norming","","","{""guess"":""""}","","../img/tt/1087tt.jpg","",""
"null","../img/gs/1087gs.jpg","null","reveal","image-keyboard-response","227","713599","0.0-6.0-4.31","2696903","co37966","norming","","","","","","",""
"null","../img/tt/1087tt.jpg","null","mooney2","image-keyboard-response","228","715602","0.0-6.0-5.31","2696903","co37966","norming","","","","","","",""
"1612.7549999998882","","","post_reveal_questions","survey-likert","229","717217","0.0-6.0-6.31","2696903","co37966","norming","","","{""aha"":6}","[0]","../img/tt/1087tt.jpg","",""
"null","<div style=""font-size:60px;""> </div>","null","fixation","html-keyboard-response","230","717420","0.0-6.0-0.32","2696903","co37966","norming","","","","","","",""
"null","../img/tt/1235tt.jpg","null","mooney1","image-keyboard-response","231","720431","0.0-6.0-1.32","2696903","co37966","norming","","","","","","",""
"6841.020000000135","","","post_mooney1_questions","survey-likert","232","727274","0.0-6.0-2.32","2696903","co37966","norming","","","{""curiosity"":5,""confidence"":1}","[0,1]","../img/tt/1235tt.jpg","",""
"3717.5999999998603","","","recognition","survey-text","233","730993","0.0-6.0-3.32","2696903","co37966","norming","","","{""guess"":""cows""}","","../img/tt/1235tt.jpg","",""
"null","../img/gs/1235gs.jpg","null","reveal","image-keyboard-response","234","732995","0.0-6.0-4.32","2696903","co37966","norming","","","","","","",""
"null","../img/tt/1235tt.jpg","null","mooney2","image-keyboard-response","235","734997","0.0-6.0-5.32","2696903","co37966","norming","","","","","","",""
"2210.280000000028","","","post_reveal_questions","survey-likert","236","737209","0.0-6.0-6.32","2696903","co37966","norming","","","{""aha"":6}","[0]","../img/tt/1235tt.jpg","",""
"null","<div style=""font-size:60px;""> </div>","null","fixation","html-keyboard-response","237","737420","0.0-6.0-0.33","2696903","co37966","norming","","","","","","",""
"null","../img/tt/436tt.jpg","null","mooney1","image-keyboard-response","238","740424","0.0-6.0-1.33","2696903","co37966","norming","","","","","","",""
"13896.994999999763","","","post_mooney1_questions","survey-likert","239","754322","0.0-6.0-2.33","2696903","co37966","norming","","","{""curiosity"":5,""confidence"":0}","[0,1]","../img/tt/436tt.jpg","",""
"990.2200000002049","","","recognition","survey-text","240","755313","0.0-6.0-3.33","2696903","co37966","norming","","","{""guess"":""""}","","../img/tt/436tt.jpg","",""
"null","../img/gs/436gs.jpg","null","reveal","image-keyboard-response","241","757316","0.0-6.0-4.33","2696903","co37966","norming","","","","","","",""
"null","../img/tt/436tt.jpg","null","mooney2","image-keyboard-response","242","759318","0.0-6.0-5.33","2696903","co37966","norming","","","","","","",""
"3761.2149999999674","","","post_reveal_questions","survey-likert","243","763081","0.0-6.0-6.33","2696903","co37966","norming","","","{""aha"":6}","[0]","../img/tt/436tt.jpg","",""
"null","<div style=""font-size:60px;""> </div>","null","fixation","html-keyboard-response","244","763283","0.0-6.0-0.34","2696903","co37966","norming","","","","","","",""
"null","../img/tt/1262tt.jpg","null","mooney1","image-keyboard-response","245","766290","0.0-6.0-1.34","2696903","co37966","norming","","","","","","",""
"8580.68499999994","","","post_mooney1_questions","survey-likert","246","774867","0.0-6.0-2.34","2696903","co37966","norming","","","{""curiosity"":6,""confidence"":2}","[0,1]","../img/tt/1262tt.jpg","",""
"5790","","","recognition","survey-text","247","780659","0.0-6.0-3.34","2696903","co37966","norming","","","{""guess"":""lizzard""}","","../img/tt/1262tt.jpg","",""
"null","../img/gs/1262gs.jpg","null","reveal","image-keyboard-response","248","782660","0.0-6.0-4.34","2696903","co37966","norming","","","","","","",""
"null","../img/tt/1262tt.jpg","null","mooney2","image-keyboard-response","249","784663","0.0-6.0-5.34","2696903","co37966","norming","","","","","","",""
"1953.7550000000047","","","post_reveal_questions","survey-likert","250","786619","0.0-6.0-6.34","2696903","co37966","norming","","","{""aha"":6}","[0]","../img/tt/1262tt.jpg","",""
"null","<div style=""font-size:60px;""> </div>","null","fixation","html-keyboard-response","251","786821","0.0-6.0-0.35","2696903","co37966","norming","","","","","","",""
"null","../img/tt/318tt.jpg","null","mooney1","image-keyboard-response","252","789824","0.0-6.0-1.35","2696903","co37966","norming","","","","","","",""
"3984.074999999837","","","post_mooney1_questions","survey-likert","253","793811","0.0-6.0-2.35","2696903","co37966","norming","","","{""curiosity"":4,""confidence"":2}","[0,1]","../img/tt/318tt.jpg","",""
"2334.100000000093","","","recognition","survey-text","254","796147","0.0-6.0-3.35","2696903","co37966","norming","","","{""guess"":""car""}","","../img/tt/318tt.jpg","",""
"null","../img/gs/318gs.jpg","null","reveal","image-keyboard-response","255","798151","0.0-6.0-4.35","2696903","co37966","norming","","","","","","",""
"null","../img/tt/318tt.jpg","null","mooney2","image-keyboard-response","256","800161","0.0-6.0-5.35","2696903","co37966","norming","","","","","","",""
"2935.620000000228","","","post_reveal_questions","survey-likert","257","803099","0.0-6.0-6.35","2696903","co37966","norming","","","{""aha"":1}","[0]","../img/tt/318tt.jpg","",""
"null","<div style=""font-size:60px;""> </div>","null","fixation","html-keyboard-response","258","803301","0.0-6.0-0.36","2696903","co37966","norming","","","","","","",""
"null","../img/tt/121tt.jpg","null","mooney1","image-keyboard-response","259","806303","0.0-6.0-1.36","2696903","co37966","norming","","","","","","",""
"9656.865000000224","","","post_mooney1_questions","survey-likert","260","815963","0.0-6.0-2.36","2696903","co37966","norming","","","{""curiosity"":4,""confidence"":2}","[0,1]","../img/tt/121tt.jpg","",""
"3302.015000000014","","","recognition","survey-text","261","819267","0.0-6.0-3.36","2696903","co37966","norming","","","{""guess"":""grass""}","","../img/tt/121tt.jpg","",""
"null","../img/gs/121gs.jpg","null","reveal","image-keyboard-response","262","821272","0.0-6.0-4.36","2696903","co37966","norming","","","","","","",""
"null","../img/tt/121tt.jpg","null","mooney2","image-keyboard-response","263","823274","0.0-6.0-5.36","2696903","co37966","norming","","","","","","",""
"2622.5899999999674","","","post_reveal_questions","survey-likert","264","825899","0.0-6.0-6.36","2696903","co37966","norming","","","{""aha"":6}","[0]","../img/tt/121tt.jpg","",""
"null","<div style=""font-size:60px;""> </div>","null","fixation","html-keyboard-response","265","826106","0.0-6.0-0.37","2696903","co37966","norming","","","","","","",""
"null","../img/tt/507tt.jpg","null","mooney1","image-keyboard-response","266","829115","0.0-6.0-1.37","2696903","co37966","norming","","","","","","",""
"7180.9550000000745","","","post_mooney1_questions","survey-likert","267","836305","0.0-6.0-2.37","2696903","co37966","norming","","","{""curiosity"":3,""confidence"":3}","[0,1]","../img/tt/507tt.jpg","",""
"5094.185000000172","","","recognition","survey-text","268","841401","0.0-6.0-3.37","2696903","co37966","norming","","","{""guess"":""running woman""}","","../img/tt/507tt.jpg","",""
"null","../img/gs/507gs.jpg","null","reveal","image-keyboard-response","269","843410","0.0-6.0-4.37","2696903","co37966","norming","","","","","","",""
"null","../img/tt/507tt.jpg","null","mooney2","image-keyboard-response","270","845420","0.0-6.0-5.37","2696903","co37966","norming","","","","","","",""
"2802.969999999972","","","post_reveal_questions","survey-likert","271","848225","0.0-6.0-6.37","2696903","co37966","norming","","","{""aha"":2}","[0]","../img/tt/507tt.jpg","",""
"null","<div style=""font-size:60px;""> </div>","null","fixation","html-keyboard-response","272","848433","0.0-6.0-0.38","2696903","co37966","norming","","","","","","",""
"null","../img/tt/559tt.jpg","null","mooney1","image-keyboard-response","273","851435","0.0-6.0-1.38","2696903","co37966","norming","","","","","","",""
"6979.814999999944","","","post_mooney1_questions","survey-likert","274","858417","0.0-6.0-2.38","2696903","co37966","norming","","","{""curiosity"":4,""confidence"":2}","[0,1]","../img/tt/559tt.jpg","",""
"4118.175000000047","","","recognition","survey-text","275","862537","0.0-6.0-3.38","2696903","co37966","norming","","","{""guess"":""naaimachine""}","","../img/tt/559tt.jpg","",""
"null","../img/gs/559gs.jpg","null","reveal","image-keyboard-response","276","864546","0.0-6.0-4.38","2696903","co37966","norming","","","","","","",""
"null","../img/tt/559tt.jpg","null","mooney2","image-keyboard-response","277","866555","0.0-6.0-5.38","2696903","co37966","norming","","","","","","",""
"3108.079999999958","","","post_reveal_questions","survey-likert","278","869665","0.0-6.0-6.38","2696903","co37966","norming","","","{""aha"":1}","[0]","../img/tt/559tt.jpg","",""
"null","<div style=""font-size:60px;""> </div>","null","fixation","html-keyboard-response","279","869871","0.0-6.0-0.39","2696903","co37966","norming","","","","","","",""
"null","../img/tt/1063tt.jpg","null","mooney1","image-keyboard-response","280","872882","0.0-6.0-1.39","2696903","co37966","norming","","","","","","",""
"4412.48499999987","","","post_mooney1_questions","survey-likert","281","877297","0.0-6.0-2.39","2696903","co37966","norming","","","{""curiosity"":4,""confidence"":2}","[0,1]","../img/tt/1063tt.jpg","",""
"3206.024999999907","","","recognition","survey-text","282","880505","0.0-6.0-3.39","2696903","co37966","norming","","","{""guess"":""olifant""}","","../img/tt/1063tt.jpg","",""
"null","../img/gs/1063gs.jpg","null","reveal","image-keyboard-response","283","882508","0.0-6.0-4.39","2696903","co37966","norming","","","","","","",""
"null","../img/tt/1063tt.jpg","null","mooney2","image-keyboard-response","284","884517","0.0-6.0-5.39","2696903","co37966","norming","","","","","","",""
"1785.9349999999395","","","post_reveal_questions","survey-likert","285","886305","0.0-6.0-6.39","2696903","co37966","norming","","","{""aha"":5}","[0]","../img/tt/1063tt.jpg","",""
"null","<div style=""font-size:60px;""> </div>","null","fixation","html-keyboard-response","286","886510","0.0-6.0-0.40","2696903","co37966","norming","","","","","","",""
"null","../img/tt/1086tt.jpg","null","mooney1","image-keyboard-response","287","889518","0.0-6.0-1.40","2696903","co37966","norming","","","","","","",""
"6305.4400000000605","","","post_mooney1_questions","survey-likert","288","895818","0.0-6.0-2.40","2696903","co37966","norming","","","{""curiosity"":4,""confidence"":2}","[0,1]","../img/tt/1086tt.jpg","",""
"2205.9299999995856","","","recognition","survey-text","289","898026","0.0-6.0-3.40","2696903","co37966","norming","","","{""guess"":""wolf""}","","../img/tt/1086tt.jpg","",""
"null","../img/gs/1086gs.jpg","null","reveal","image-keyboard-response","290","900027","0.0-6.0-4.40","2696903","co37966","norming","","","","","","",""
"null","../img/tt/1086tt.jpg","null","mooney2","image-keyboard-response","291","902032","0.0-6.0-5.40","2696903","co37966","norming","","","","","","",""
"3400.5849999998463","","","post_reveal_questions","survey-likert","292","905434","0.0-6.0-6.40","2696903","co37966","norming","","","{""aha"":5}","[0]","../img/tt/1086tt.jpg","",""
"null","<div style=""font-size:60px;""> </div>","null","fixation","html-keyboard-response","293","905639","0.0-6.0-0.41","2696903","co37966","norming","","","","","","",""
"null","../img/tt/081tt.jpg","null","mooney1","image-keyboard-response","294","908640","0.0-6.0-1.41","2696903","co37966","norming","","","","","","",""
"7511.739999999874","","","post_mooney1_questions","survey-likert","295","916154","0.0-6.0-2.41","2696903","co37966","norming","","","{""curiosity"":5,""confidence"":1}","[0,1]","../img/tt/081tt.jpg","",""
"2070.2900000001537","","","recognition","survey-text","296","918226","0.0-6.0-3.41","2696903","co37966","norming","","","{""guess"":""kat""}","","../img/tt/081tt.jpg","",""
"null","../img/gs/081gs.jpg","null","reveal","image-keyboard-response","297","920229","0.0-6.0-4.41","2696903","co37966","norming","","","","","","",""
"null","../img/tt/081tt.jpg","null","mooney2","image-keyboard-response","298","922235","0.0-6.0-5.41","2696903","co37966","norming","","","","","","",""
"3278.1900000000605","","","post_reveal_questions","survey-likert","299","925514","0.0-6.0-6.41","2696903","co37966","norming","","","{""aha"":5}","[0]","../img/tt/081tt.jpg","",""
"null","<div style=""font-size:60px;""> </div>","null","fixation","html-keyboard-response","300","925722","0.0-6.0-0.42","2696903","co37966","norming","","","","","","",""
"null","../img/tt/1236tt.jpg","null","mooney1","image-keyboard-response","301","928729","0.0-6.0-1.42","2696903","co37966","norming","","","","","","",""
"4278.85999999987","","","post_mooney1_questions","survey-likert","302","933010","0.0-6.0-2.42","2696903","co37966","norming","","","{""curiosity"":5,""confidence"":1}","[0,1]","../img/tt/1236tt.jpg","",""
"5213.865000000107","","","recognition","survey-text","303","938226","0.0-6.0-3.42","2696903","co37966","norming","","","{""guess"":""paddenstoel""}","","../img/tt/1236tt.jpg","",""
"null","../img/gs/1236gs.jpg","null","reveal","image-keyboard-response","304","940228","0.0-6.0-4.42","2696903","co37966","norming","","","","","","",""
"null","../img/tt/1236tt.jpg","null","mooney2","image-keyboard-response","305","942233","0.0-6.0-5.42","2696903","co37966","norming","","","","","","",""
"1960.1000000002095","","","post_reveal_questions","survey-likert","306","944194","0.0-6.0-6.42","2696903","co37966","norming","","","{""aha"":6}","[0]","../img/tt/1236tt.jpg","",""
"null","<div style=""font-size:60px;""> </div>","null","fixation","html-keyboard-response","307","944404","0.0-6.0-0.43","2696903","co37966","norming","","","","","","",""
"null","../img/tt/1033tt.jpg","null","mooney1","image-keyboard-response","308","947407","0.0-6.0-1.43","2696903","co37966","norming","","","","","","",""
"8168.645000000135","","","post_mooney1_questions","survey-likert","309","955578","0.0-6.0-2.43","2696903","co37966","norming","","","{""curiosity"":5,""confidence"":1}","[0,1]","../img/tt/1033tt.jpg","",""
"2933.980000000214","","","recognition","survey-text","310","958519","0.0-6.0-3.43","2696903","co37966","norming","","","{""guess"":""speerwerper""}","","../img/tt/1033tt.jpg","",""
"null","../img/gs/1033gs.jpg","null","reveal","image-keyboard-response","311","960528","0.0-6.0-4.43","2696903","co37966","norming","","","","","","",""
"null","../img/tt/1033tt.jpg","null","mooney2","image-keyboard-response","312","962538","0.0-6.0-5.43","2696903","co37966","norming","","","","","","",""
"2788.3299999998417","","","post_reveal_questions","survey-likert","313","965327","0.0-6.0-6.43","2696903","co37966","norming","","","{""aha"":5}","[0]","../img/tt/1033tt.jpg","",""
"null","<div style=""font-size:60px;""> </div>","null","fixation","html-keyboard-response","314","965529","0.0-6.0-0.44","2696903","co37966","norming","","","","","","",""
"null","../img/tt/1055tt.jpg","null","mooney1","image-keyboard-response","315","968533","0.0-6.0-1.44","2696903","co37966","norming","","","","","","",""
"3472.850000000093","","","post_mooney1_questions","survey-likert","316","972007","0.0-6.0-2.44","2696903","co37966","norming","","","{""curiosity"":6,""confidence"":0}","[0,1]","../img/tt/1055tt.jpg","",""
"926.2100000000792","","","recognition","survey-text","317","972935","0.0-6.0-3.44","2696903","co37966","norming","","","{""guess"":""""}","","../img/tt/1055tt.jpg","",""
"null","../img/gs/1055gs.jpg","null","reveal","image-keyboard-response","318","974945","0.0-6.0-4.44","2696903","co37966","norming","","","","","","",""
"null","../img/tt/1055tt.jpg","null","mooney2","image-keyboard-response","319","976946","0.0-6.0-5.44","2696903","co37966","norming","","","","","","",""
"2281.494999999646","","","post_reveal_questions","survey-likert","320","979231","0.0-6.0-6.44","2696903","co37966","norming","","","{""aha"":6}","[0]","../img/tt/1055tt.jpg","",""
"null","<div style=""font-size:60px;""> </div>","null","fixation","html-keyboard-response","321","979433","0.0-6.0-0.45","2696903","co37966","norming","","","","","","",""
"null","../img/tt/306tt.jpg","null","mooney1","image-keyboard-response","322","982440","0.0-6.0-1.45","2696903","co37966","norming","","","","","","",""
"3989.7849999996834","","","post_mooney1_questions","survey-likert","323","986431","0.0-6.0-2.45","2696903","co37966","norming","","","{""curiosity"":6,""confidence"":0}","[0,1]","../img/tt/306tt.jpg","",""
"1358.2999999999302","","","recognition","survey-text","324","987791","0.0-6.0-3.45","2696903","co37966","norming","","","{""guess"":""""}","","../img/tt/306tt.jpg","",""
"null","../img/gs/306gs.jpg","null","reveal","image-keyboard-response","325","989793","0.0-6.0-4.45","2696903","co37966","norming","","","","","","",""
"null","../img/tt/306tt.jpg","null","mooney2","image-keyboard-response","326","991801","0.0-6.0-5.45","2696903","co37966","norming","","","","","","",""
"3556.2050000003073","","","post_reveal_questions","survey-likert","327","995359","0.0-6.0-6.45","2696903","co37966","norming","","","{""aha"":6}","[0]","../img/tt/306tt.jpg","",""
"null","<div style=""font-size:60px;""> </div>","null","fixation","html-keyboard-response","328","995560","0.0-6.0-0.46","2696903","co37966","norming","","","","","","",""
"null","../img/tt/584tt.jpg","null","mooney1","image-keyboard-response","329","998569","0.0-6.0-1.46","2696903","co37966","norming","","","","","","",""
"9155.180000000168","","","post_mooney1_questions","survey-likert","330","1007728","0.0-6.0-2.46","2696903","co37966","norming","","","{""curiosity"":5,""confidence"":1}","[0,1]","../img/tt/584tt.jpg","",""
"3446.0399999998044","","","recognition","survey-text","331","1011175","0.0-6.0-3.46","2696903","co37966","norming","","","{""guess"":""flowers""}","","../img/tt/584tt.jpg","",""
"null","../img/gs/584gs.jpg","null","reveal","image-keyboard-response","332","1013177","0.0-6.0-4.46","2696903","co37966","norming","","","","","","",""
"null","../img/tt/584tt.jpg","null","mooney2","image-keyboard-response","333","1015188","0.0-6.0-5.46","2696903","co37966","norming","","","","","","",""
"2256.8999999997905","","","post_reveal_questions","survey-likert","334","1017448","0.0-6.0-6.46","2696903","co37966","norming","","","{""aha"":6}","[0]","../img/tt/584tt.jpg","",""
"null","<div style=""font-size:60px;""> </div>","null","fixation","html-keyboard-response","335","1017657","0.0-6.0-0.47","2696903","co37966","norming","","","","","","",""
"null","../img/tt/1084tt.jpg","null","mooney1","image-keyboard-response","336","1020660","0.0-6.0-1.47","2696903","co37966","norming","","","","","","",""
"3513.225000000093","","","post_mooney1_questions","survey-likert","337","1024177","0.0-6.0-2.47","2696903","co37966","norming","","","{""curiosity"":6,""confidence"":0}","[0,1]","../img/tt/1084tt.jpg","",""
"1373.7750000000233","","","recognition","survey-text","338","1025552","0.0-6.0-3.47","2696903","co37966","norming","","","{""guess"":""""}","","../img/tt/1084tt.jpg","",""
"null","../img/gs/1084gs.jpg","null","reveal","image-keyboard-response","339","1027555","0.0-6.0-4.47","2696903","co37966","norming","","","","","","",""
"null","../img/tt/1084tt.jpg","null","mooney2","image-keyboard-response","340","1029562","0.0-6.0-5.47","2696903","co37966","norming","","","","","","",""
"1931.5750000000698","","","post_reveal_questions","survey-likert","341","1031496","0.0-6.0-6.47","2696903","co37966","norming","","","{""aha"":6}","[0]","../img/tt/1084tt.jpg","",""
"null","<div style=""font-size:60px;""> </div>","null","fixation","html-keyboard-response","342","1031699","0.0-6.0-0.48","2696903","co37966","norming","","","","","","",""
"null","../img/tt/1043tt.jpg","null","mooney1","image-keyboard-response","343","1034704","0.0-6.0-1.48","2696903","co37966","norming","","","","","","",""
"4061.894999999902","","","post_mooney1_questions","survey-likert","344","1038769","0.0-6.0-2.48","2696903","co37966","norming","","","{""curiosity"":5,""confidence"":1}","[0,1]","../img/tt/1043tt.jpg","",""
"2550.124999999767","","","recognition","survey-text","345","1041321","0.0-6.0-3.48","2696903","co37966","norming","","","{""guess"":""a pie""}","","../img/tt/1043tt.jpg","",""
"null","../img/gs/1043gs.jpg","null","reveal","image-keyboard-response","346","1043325","0.0-6.0-4.48","2696903","co37966","norming","","","","","","",""
"null","../img/tt/1043tt.jpg","null","mooney2","image-keyboard-response","347","1045328","0.0-6.0-5.48","2696903","co37966","norming","","","","","","",""
"5118.289999999804","","","post_reveal_questions","survey-likert","348","1050448","0.0-6.0-6.48","2696903","co37966","norming","","","{""aha"":5}","[0]","../img/tt/1043tt.jpg","",""
"null","<div style=""font-size:60px;""> </div>","null","fixation","html-keyboard-response","349","1050656","0.0-6.0-0.49","2696903","co37966","norming","","","","","","",""
"null","../img/tt/1251tt.jpg","null","mooney1","image-keyboard-response","350","1053664","0.0-6.0-1.49","2696903","co37966","norming","","","","","","",""
"4901.795000000391","","","post_mooney1_questions","survey-likert","351","1058569","0.0-6.0-2.49","2696903","co37966","norming","","","{""curiosity"":5,""confidence"":2}","[0,1]","../img/tt/1251tt.jpg","",""
"3069.9850000001024","","","recognition","survey-text","352","1061640","0.0-6.0-3.49","2696903","co37966","norming","","","{""guess"":""beer""}","","../img/tt/1251tt.jpg","",""
"null","../img/gs/1251gs.jpg","null","reveal","image-keyboard-response","353","1063647","0.0-6.0-4.49","2696903","co37966","norming","","","","","","",""
"null","../img/tt/1251tt.jpg","null","mooney2","image-keyboard-response","354","1065649","0.0-6.0-5.49","2696903","co37966","norming","","","","","","",""
"1589.1350000002421","","","post_reveal_questions","survey-likert","355","1067240","0.0-6.0-6.49","2696903","co37966","norming","","","{""aha"":1}","[0]","../img/tt/1251tt.jpg","",""
"null","<div style=""font-size:60px;""> </div>","null","fixation","html-keyboard-response","356","1067451","0.0-6.0-0.50","2696903","co37966","norming","","","","","","",""
"null","../img/tt/1200tt.jpg","null","mooney1","image-keyboard-response","357","1070458","0.0-6.0-1.50","2696903","co37966","norming","","","","","","",""
"6629.429999999935","","","post_mooney1_questions","survey-likert","358","1077089","0.0-6.0-2.50","2696903","co37966","norming","","","{""curiosity"":4,""confidence"":3}","[0,1]","../img/tt/1200tt.jpg","",""
"2926.060000000056","","","recognition","survey-text","359","1080019","0.0-6.0-3.50","2696903","co37966","norming","","","{""guess"":""boot""}","","../img/tt/1200tt.jpg","",""
"null","../img/gs/1200gs.jpg","null","reveal","image-keyboard-response","360","1082022","0.0-6.0-4.50","2696903","co37966","norming","","","","","","",""
"null","../img/tt/1200tt.jpg","null","mooney2","image-keyboard-response","361","1084025","0.0-6.0-5.50","2696903","co37966","norming","","","","","","",""
"1983.8000000000466","","","post_reveal_questions","survey-likert","362","1086011","0.0-6.0-6.50","2696903","co37966","norming","","","{""aha"":4}","[0]","../img/tt/1200tt.jpg","",""
"null","<div style=""font-size:60px;""> </div>","null","fixation","html-keyboard-response","363","1086215","0.0-6.0-0.51","2696903","co37966","norming","","","","","","",""
"null","../img/tt/1226tt.jpg","null","mooney1","image-keyboard-response","364","1089218","0.0-6.0-1.51","2696903","co37966","norming","","","","","","",""
"4663.125","","","post_mooney1_questions","survey-likert","365","1093884","0.0-6.0-2.51","2696903","co37966","norming","","","{""curiosity"":2,""confidence"":4}","[0,1]","../img/tt/1226tt.jpg","",""
"2141.8700000001118","","","recognition","survey-text","366","1096027","0.0-6.0-3.51","2696903","co37966","norming","","","{""guess"":""kip""}","","../img/tt/1226tt.jpg","",""
"null","../img/gs/1226gs.jpg","null","reveal","image-keyboard-response","367","1098034","0.0-6.0-4.51","2696903","co37966","norming","","","","","","",""
"null","../img/tt/1226tt.jpg","null","mooney2","image-keyboard-response","368","1100037","0.0-6.0-5.51","2696903","co37966","norming","","","","","","",""
"4580.095000000205","","","post_reveal_questions","survey-likert","369","1104619","0.0-6.0-6.51","2696903","co37966","norming","","","{""aha"":1}","[0]","../img/tt/1226tt.jpg","",""
"null","<div style=""font-size:60px;""> </div>","null","fixation","html-keyboard-response","370","1104823","0.0-6.0-0.52","2696903","co37966","norming","","","","","","",""
"null","../img/tt/1027tt.jpg","null","mooney1","image-keyboard-response","371","1107833","0.0-6.0-1.52","2696903","co37966","norming","","","","","","",""
"5785.29000000027","","","post_mooney1_questions","survey-likert","372","1113619","0.0-6.0-2.52","2696903","co37966","norming","","","{""curiosity"":4,""confidence"":2}","[0,1]","../img/tt/1027tt.jpg","",""
"2054.4449999995995","","","recognition","survey-text","373","1115675","0.0-6.0-3.52","2696903","co37966","norming","","","{""guess"":""lama""}","","../img/tt/1027tt.jpg","",""
"null","../img/gs/1027gs.jpg","null","reveal","image-keyboard-response","374","1117685","0.0-6.0-4.52","2696903","co37966","norming","","","","","","",""
"null","../img/tt/1027tt.jpg","null","mooney2","image-keyboard-response","375","1119688","0.0-6.0-5.52","2696903","co37966","norming","","","","","","",""
"2377.190000000177","","","post_reveal_questions","survey-likert","376","1122067","0.0-6.0-6.52","2696903","co37966","norming","","","{""aha"":6}","[0]","../img/tt/1027tt.jpg","",""
"null","<div style=""font-size:60px;""> </div>","null","fixation","html-keyboard-response","377","1122278","0.0-6.0-0.53","2696903","co37966","norming","","","","","","",""
"null","../img/tt/1097tt.jpg","null","mooney1","image-keyboard-response","378","1125282","0.0-6.0-1.53","2696903","co37966","norming","","","","","","",""
"6958.360000000102","","","post_mooney1_questions","survey-likert","379","1132244","0.0-6.0-2.53","2696903","co37966","norming","","","{""curiosity"":1,""confidence"":5}","[0,1]","../img/tt/1097tt.jpg","",""
"8502.034999999916","","","recognition","survey-text","380","1140747","0.0-6.0-3.53","2696903","co37966","norming","","","{""guess"":""peddle surfer""}","","../img/tt/1097tt.jpg","",""
"null","../img/gs/1097gs.jpg","null","reveal","image-keyboard-response","381","1142750","0.0-6.0-4.53","2696903","co37966","norming","","","","","","",""
"null","../img/tt/1097tt.jpg","null","mooney2","image-keyboard-response","382","1144752","0.0-6.0-5.53","2696903","co37966","norming","","","","","","",""
"2623.93499999959","","","post_reveal_questions","survey-likert","383","1147379","0.0-6.0-6.53","2696903","co37966","norming","","","{""aha"":0}","[0]","../img/tt/1097tt.jpg","",""
"null","<div style=""font-size:60px;""> </div>","null","fixation","html-keyboard-response","384","1147582","0.0-6.0-0.54","2696903","co37966","norming","","","","","","",""
"null","../img/tt/1272tt.jpg","null","mooney1","image-keyboard-response","385","1150587","0.0-6.0-1.54","2696903","co37966","norming","","","","","","",""
"9252.689999999711","","","post_mooney1_questions","survey-likert","386","1159843","0.0-6.0-2.54","2696903","co37966","norming","","","{""curiosity"":4,""confidence"":2}","[0,1]","../img/tt/1272tt.jpg","",""
"2886.090000000084","","","recognition","survey-text","387","1162731","0.0-6.0-3.54","2696903","co37966","norming","","","{""guess"":""windsurfer""}","","../img/tt/1272tt.jpg","",""
"null","../img/gs/1272gs.jpg","null","reveal","image-keyboard-response","388","1164738","0.0-6.0-4.54","2696903","co37966","norming","","","","","","",""
"null","../img/tt/1272tt.jpg","null","mooney2","image-keyboard-response","389","1166740","0.0-6.0-5.54","2696903","co37966","norming","","","","","","",""
"2644.269999999786","","","post_reveal_questions","survey-likert","390","1169387","0.0-6.0-6.54","2696903","co37966","norming","","","{""aha"":6}","[0]","../img/tt/1272tt.jpg","",""
"null","<div style=""font-size:60px;""> </div>","null","fixation","html-keyboard-response","391","1169594","0.0-6.0-0.55","2696903","co37966","norming","","","","","","",""
"null","../img/tt/1217tt.jpg","null","mooney1","image-keyboard-response","392","1172602","0.0-6.0-1.55","2696903","co37966","norming","","","","","","",""
"8957.155000000028","","","post_mooney1_questions","survey-likert","393","1181563","0.0-6.0-2.55","2696903","co37966","norming","","","{""curiosity"":4,""confidence"":1}","[0,1]","../img/tt/1217tt.jpg","",""
"7613.979999999981","","","recognition","survey-text","394","1189179","0.0-6.0-3.55","2696903","co37966","norming","","","{""guess"":""rugby player""}","","../img/tt/1217tt.jpg","",""
"null","../img/gs/1217gs.jpg","null","reveal","image-keyboard-response","395","1191183","0.0-6.0-4.55","2696903","co37966","norming","","","","","","",""
"null","../img/tt/1217tt.jpg","null","mooney2","image-keyboard-response","396","1193192","0.0-6.0-5.55","2696903","co37966","norming","","","","","","",""
"2111.804999999935","","","post_reveal_questions","survey-likert","397","1195307","0.0-6.0-6.55","2696903","co37966","norming","","","{""aha"":1}","[0]","../img/tt/1217tt.jpg","",""
"null","<div style=""font-size:60px;""> </div>","null","fixation","html-keyboard-response","398","1195516","0.0-6.0-0.56","2696903","co37966","norming","","","","","","",""
"null","../img/tt/279tt.jpg","null","mooney1","image-keyboard-response","399","1198532","0.0-6.0-1.56","2696903","co37966","norming","","","","","","",""
"5084.070000000531","","","post_mooney1_questions","survey-likert","400","1203618","0.0-6.0-2.56","2696903","co37966","norming","","","{""curiosity"":3,""confidence"":3}","[0,1]","../img/tt/279tt.jpg","",""
"2221.894999999786","","","recognition","survey-text","401","1205841","0.0-6.0-3.56","2696903","co37966","norming","","","{""guess"":""koala""}","","../img/tt/279tt.jpg","",""
"null","../img/gs/279gs.jpg","null","reveal","image-keyboard-response","402","1207847","0.0-6.0-4.56","2696903","co37966","norming","","","","","","",""
"null","../img/tt/279tt.jpg","null","mooney2","image-keyboard-response","403","1209858","0.0-6.0-5.56","2696903","co37966","norming","","","","","","",""
"3468.8600000003353","","","post_reveal_questions","survey-likert","404","1213329","0.0-6.0-6.56","2696903","co37966","norming","","","{""aha"":1}","[0]","../img/tt/279tt.jpg","",""
"null","<div style=""font-size:60px;""> </div>","null","fixation","html-keyboard-response","405","1213538","0.0-6.0-0.57","2696903","co37966","norming","","","","","","",""
"null","../img/tt/140tt.jpg","null","mooney1","image-keyboard-response","406","1216549","0.0-6.0-1.57","2696903","co37966","norming","","","","","","",""
"4699.175000000279","","","post_mooney1_questions","survey-likert","407","1221249","0.0-6.0-2.57","2696903","co37966","norming","","","{""curiosity"":5,""confidence"":1}","[0,1]","../img/tt/140tt.jpg","",""
"2270","","","recognition","survey-text","408","1223521","0.0-6.0-3.57","2696903","co37966","norming","","","{""guess"":""kanarie""}","","../img/tt/140tt.jpg","",""
"null","../img/gs/140gs.jpg","null","reveal","image-keyboard-response","409","1225531","0.0-6.0-4.57","2696903","co37966","norming","","","","","","",""
"null","../img/tt/140tt.jpg","null","mooney2","image-keyboard-response","410","1227533","0.0-6.0-5.57","2696903","co37966","norming","","","","","","",""
"2034.1299999998882","","","post_reveal_questions","survey-likert","411","1229569","0.0-6.0-6.57","2696903","co37966","norming","","","{""aha"":6}","[0]","../img/tt/140tt.jpg","",""
"null","<div style=""font-size:60px;""> </div>","null","fixation","html-keyboard-response","412","1229777","0.0-6.0-0.58","2696903","co37966","norming","","","","","","",""
"null","../img/tt/1159tt.jpg","null","mooney1","image-keyboard-response","413","1232783","0.0-6.0-1.58","2696903","co37966","norming","","","","","","",""
"3966.8149999997113","","","post_mooney1_questions","survey-likert","414","1236753","0.0-6.0-2.58","2696903","co37966","norming","","","{""curiosity"":5,""confidence"":1}","[0,1]","../img/tt/1159tt.jpg","",""
"5310.2599999997765","","","recognition","survey-text","415","1242065","0.0-6.0-3.58","2696903","co37966","norming","","","{""guess"":""piano""}","","../img/tt/1159tt.jpg","",""
"null","../img/gs/1159gs.jpg","null","reveal","image-keyboard-response","416","1244072","0.0-6.0-4.58","2696903","co37966","norming","","","","","","",""
"null","../img/tt/1159tt.jpg","null","mooney2","image-keyboard-response","417","1246077","0.0-6.0-5.58","2696903","co37966","norming","","","","","","",""
"2929.5750000001863","","","post_reveal_questions","survey-likert","418","1249009","0.0-6.0-6.58","2696903","co37966","norming","","","{""aha"":6}","[0]","../img/tt/1159tt.jpg","",""
"null","<div style=""font-size:60px;""> </div>","null","fixation","html-keyboard-response","419","1249220","0.0-6.0-0.59","2696903","co37966","norming","","","","","","",""
"null","../img/tt/053tt.jpg","null","mooney1","image-keyboard-response","420","1252223","0.0-6.0-1.59","2696903","co37966","norming","","","","","","",""
"5942.449999999953","","","post_mooney1_questions","survey-likert","421","1258169","0.0-6.0-2.59","2696903","co37966","norming","","","{""curiosity"":2,""confidence"":4}","[0,1]","../img/tt/053tt.jpg","",""
"2966.1200000001118","","","recognition","survey-text","422","1261135","0.0-6.0-3.59","2696903","co37966","norming","","","{""guess"":""surfers""}","","../img/tt/053tt.jpg","",""
"null","../img/gs/053gs.jpg","null","reveal","image-keyboard-response","423","1263139","0.0-6.0-4.59","2696903","co37966","norming","","","","","","",""
"null","../img/tt/053tt.jpg","null","mooney2","image-keyboard-response","424","1265143","0.0-6.0-5.59","2696903","co37966","norming","","","","","","",""
"2444.8950000000186","","","post_reveal_questions","survey-likert","425","1267591","0.0-6.0-6.59","2696903","co37966","norming","","","{""aha"":4}","[0]","../img/tt/053tt.jpg","",""
"null","<div style=""font-size:60px;""> </div>","null","fixation","html-keyboard-response","426","1267795","0.0-6.0-0.60","2696903","co37966","norming","","","","","","",""
"null","../img/tt/552tt.jpg","null","mooney1","image-keyboard-response","427","1270800","0.0-6.0-1.60","2696903","co37966","norming","","","","","","",""
"6611.140000000363","","","post_mooney1_questions","survey-likert","428","1277415","0.0-6.0-2.60","2696903","co37966","norming","","","{""curiosity"":4,""confidence"":1}","[0,1]","../img/tt/552tt.jpg","",""
"2310.0649999997113","","","recognition","survey-text","429","1279727","0.0-6.0-3.60","2696903","co37966","norming","","","{""guess"":""buggy""}","","../img/tt/552tt.jpg","",""
"null","../img/gs/552gs.jpg","null","reveal","image-keyboard-response","430","1281734","0.0-6.0-4.60","2696903","co37966","norming","","","","","","",""
"null","../img/tt/552tt.jpg","null","mooney2","image-keyboard-response","431","1283736","0.0-6.0-5.60","2696903","co37966","norming","","","","","","",""
"4099.820000000065","","","post_reveal_questions","survey-likert","432","1287839","0.0-6.0-6.60","2696903","co37966","norming","","","{""aha"":6}","[0]","../img/tt/552tt.jpg","",""
"null","<div style=""font-size:60px;""> </div>","null","fixation","html-keyboard-response","433","1288047","0.0-6.0-0.61","2696903","co37966","norming","","","","","","",""
"null","../img/tt/329tt.jpg","null","mooney1","image-keyboard-response","434","1291050","0.0-6.0-1.61","2696903","co37966","norming","","","","","","",""
"6921.329999999609","","","post_mooney1_questions","survey-likert","435","1297975","0.0-6.0-2.61","2696903","co37966","norming","","","{""curiosity"":6,""confidence"":0}","[0,1]","../img/tt/329tt.jpg","",""
"709.7999999995809","","","recognition","survey-text","436","1298687","0.0-6.0-3.61","2696903","co37966","norming","","","{""guess"":""""}","","../img/tt/329tt.jpg","",""
"null","../img/gs/329gs.jpg","null","reveal","image-keyboard-response","437","1300688","0.0-6.0-4.61","2696903","co37966","norming","","","","","","",""
"null","../img/tt/329tt.jpg","null","mooney2","image-keyboard-response","438","1302691","0.0-6.0-5.61","2696903","co37966","norming","","","","","","",""
"2545.890000000363","","","post_reveal_questions","survey-likert","439","1305239","0.0-6.0-6.61","2696903","co37966","norming","","","{""aha"":6}","[0]","../img/tt/329tt.jpg","",""
"null","<div style=""font-size:60px;""> </div>","null","fixation","html-keyboard-response","440","1305444","0.0-6.0-0.62","2696903","co37966","norming","","","","","","",""
"null","../img/tt/056tt.jpg","null","mooney1","image-keyboard-response","441","1308455","0.0-6.0-1.62","2696903","co37966","norming","","","","","","",""
"4823.040000000037","","","post_mooney1_questions","survey-likert","442","1313279","0.0-6.0-2.62","2696903","co37966","norming","","","{""curiosity"":5,""confidence"":1}","[0,1]","../img/tt/056tt.jpg","",""
"2173.9799999999814","","","recognition","survey-text","443","1315455","0.0-6.0-3.62","2696903","co37966","norming","","","{""guess"":""slak""}","","../img/tt/056tt.jpg","",""
"null","../img/gs/056gs.jpg","null","reveal","image-keyboard-response","444","1317460","0.0-6.0-4.62","2696903","co37966","norming","","","","","","",""
"null","../img/tt/056tt.jpg","null","mooney2","image-keyboard-response","445","1319466","0.0-6.0-5.62","2696903","co37966","norming","","","","","","",""
"2300.945000000065","","","post_reveal_questions","survey-likert","446","1321769","0.0-6.0-6.62","2696903","co37966","norming","","","{""aha"":6}","[0]","../img/tt/056tt.jpg","",""
"null","<div style=""font-size:60px;""> </div>","null","fixation","html-keyboard-response","447","1321980","0.0-6.0-0.63","2696903","co37966","norming","","","","","","",""
"null","../img/tt/094tt.jpg","null","mooney1","image-keyboard-response","448","1324984","0.0-6.0-1.63","2696903","co37966","norming","","","","","","",""
"4453.689999999711","","","post_mooney1_questions","survey-likert","449","1329441","0.0-6.0-2.63","2696903","co37966","norming","","","{""curiosity"":5,""confidence"":1}","[0,1]","../img/tt/094tt.jpg","",""
"2429.6749999998137","","","recognition","survey-text","450","1331873","0.0-6.0-3.63","2696903","co37966","norming","","","{""guess"":""everzwijn""}","","../img/tt/094tt.jpg","",""
"null","../img/gs/094gs.jpg","null","reveal","image-keyboard-response","451","1333875","0.0-6.0-4.63","2696903","co37966","norming","","","","","","",""
"null","../img/tt/094tt.jpg","null","mooney2","image-keyboard-response","452","1335880","0.0-6.0-5.63","2696903","co37966","norming","","","","","","",""
"2398.3600000001024","","","post_reveal_questions","survey-likert","453","1338281","0.0-6.0-6.63","2696903","co37966","norming","","","{""aha"":6}","[0]","../img/tt/094tt.jpg","",""
"null","<div style=""font-size:60px;""> </div>","null","fixation","html-keyboard-response","454","1338485","0.0-6.0-0.64","2696903","co37966","norming","","","","","","",""
"null","../img/tt/603tt.jpg","null","mooney1","image-keyboard-response","455","1341496","0.0-6.0-1.64","2696903","co37966","norming","","","","","","",""
"4725.890000000363","","","post_mooney1_questions","survey-likert","456","1346226","0.0-6.0-2.64","2696903","co37966","norming","","","{""curiosity"":3,""confidence"":3}","[0,1]","../img/tt/603tt.jpg","",""
"1997.8100000002887","","","recognition","survey-text","457","1348226","0.0-6.0-3.64","2696903","co37966","norming","","","{""guess"":""kat""}","","../img/tt/603tt.jpg","",""
"null","../img/gs/603gs.jpg","null","reveal","image-keyboard-response","458","1350228","0.0-6.0-4.64","2696903","co37966","norming","","","","","","",""
"null","../img/tt/603tt.jpg","null","mooney2","image-keyboard-response","459","1352240","0.0-6.0-5.64","2696903","co37966","norming","","","","","","",""
"3342.530000000028","","","post_reveal_questions","survey-likert","460","1355585","0.0-6.0-6.64","2696903","co37966","norming","","","{""aha"":1}","[0]","../img/tt/603tt.jpg","",""
"null","<div style=""font-size:60px;""> </div>","null","fixation","html-keyboard-response","461","1355796","0.0-6.0-0.65","2696903","co37966","norming","","","","","","",""
"null","../img/tt/1196tt.jpg","null","mooney1","image-keyboard-response","462","1358801","0.0-6.0-1.65","2696903","co37966","norming","","","","","","",""
"3597.570000000065","","","post_mooney1_questions","survey-likert","463","1362401","0.0-6.0-2.65","2696903","co37966","norming","","","{""curiosity"":6,""confidence"":0}","[0,1]","../img/tt/1196tt.jpg","",""
"1565.785000000149","","","recognition","survey-text","464","1363969","0.0-6.0-3.65","2696903","co37966","norming","","","{""guess"":""""}","","../img/tt/1196tt.jpg","",""
"null","../img/gs/1196gs.jpg","null","reveal","image-keyboard-response","465","1365975","0.0-6.0-4.65","2696903","co37966","norming","","","","","","",""
"null","../img/tt/1196tt.jpg","null","mooney2","image-keyboard-response","466","1367984","0.0-6.0-5.65","2696903","co37966","norming","","","","","","",""
"2086.524999999907","","","post_reveal_questions","survey-likert","467","1370073","0.0-6.0-6.65","2696903","co37966","norming","","","{""aha"":6}","[0]","../img/tt/1196tt.jpg","",""
"null","<div style=""font-size:60px;""> </div>","null","fixation","html-keyboard-response","468","1370275","0.0-6.0-0.66","2696903","co37966","norming","","","","","","",""
"null","../img/tt/064tt.jpg","null","mooney1","image-keyboard-response","469","1373284","0.0-6.0-1.66","2696903","co37966","norming","","","","","","",""
"6129.35999999987","","","post_mooney1_questions","survey-likert","470","1379417","0.0-6.0-2.66","2696903","co37966","norming","","","{""curiosity"":4,""confidence"":1}","[0,1]","../img/tt/064tt.jpg","",""
"2997.894999999786","","","recognition","survey-text","471","1382412","0.0-6.0-3.66","2696903","co37966","norming","","","{""guess"":""kreeft""}","","../img/tt/064tt.jpg","",""
"null","../img/gs/064gs.jpg","null","reveal","image-keyboard-response","472","1384413","0.0-6.0-4.66","2696903","co37966","norming","","","","","","",""
"null","../img/tt/064tt.jpg","null","mooney2","image-keyboard-response","473","1386415","0.0-6.0-5.66","2696903","co37966","norming","","","","","","",""
"2467.7950000001583","","","post_reveal_questions","survey-likert","474","1388884","0.0-6.0-6.66","2696903","co37966","norming","","","{""aha"":6}","[0]","../img/tt/064tt.jpg","",""
"null","<div style=""font-size:60px;""> </div>","null","fixation","html-keyboard-response","475","1389095","0.0-6.0-0.67","2696903","co37966","norming","","","","","","",""
"null","../img/tt/1181tt.jpg","null","mooney1","image-keyboard-response","476","1392106","0.0-6.0-1.67","2696903","co37966","norming","","","","","","",""
"5446.835000000196","","","post_mooney1_questions","survey-likert","477","1397556","0.0-6.0-2.67","2696903","co37966","norming","","","{""curiosity"":6,""confidence"":0}","[0,1]","../img/tt/1181tt.jpg","",""
"773.929999999702","","","recognition","survey-text","478","1398332","0.0-6.0-3.67","2696903","co37966","norming","","","{""guess"":""""}","","../img/tt/1181tt.jpg","",""
"null","../img/gs/1181gs.jpg","null","reveal","image-keyboard-response","479","1400333","0.0-6.0-4.67","2696903","co37966","norming","","","","","","",""
"null","../img/tt/1181tt.jpg","null","mooney2","image-keyboard-response","480","1402345","0.0-6.0-5.67","2696903","co37966","norming","","","","","","",""
"1552.964999999851","","","post_reveal_questions","survey-likert","481","1403900","0.0-6.0-6.67","2696903","co37966","norming","","","{""aha"":6}","[0]","../img/tt/1181tt.jpg","",""
"null","<div style=""font-size:60px;""> </div>","null","fixation","html-keyboard-response","482","1404102","0.0-6.0-0.68","2696903","co37966","norming","","","","","","",""
"null","../img/tt/307tt.jpg","null","mooney1","image-keyboard-response","483","1407108","0.0-6.0-1.68","2696903","co37966","norming","","","","","","",""
"8036.855000000214","","","post_mooney1_questions","survey-likert","484","1415148","0.0-6.0-2.68","2696903","co37966","norming","","","{""curiosity"":6,""confidence"":1}","[0,1]","../img/tt/307tt.jpg","",""
"2749.9799999999814","","","recognition","survey-text","485","1417900","0.0-6.0-3.68","2696903","co37966","norming","","","{""guess"":""walvis""}","","../img/tt/307tt.jpg","",""
"null","../img/gs/307gs.jpg","null","reveal","image-keyboard-response","486","1419903","0.0-6.0-4.68","2696903","co37966","norming","","","","","","",""
"null","../img/tt/307tt.jpg","null","mooney2","image-keyboard-response","487","1421905","0.0-6.0-5.68","2696903","co37966","norming","","","","","","",""
"1958.5800000000745","","","post_reveal_questions","survey-likert","488","1423868","0.0-6.0-6.68","2696903","co37966","norming","","","{""aha"":6}","[0]","../img/tt/307tt.jpg","",""
"null","<div style=""font-size:60px;""> </div>","null","fixation","html-keyboard-response","489","1424076","0.0-6.0-0.69","2696903","co37966","norming","","","","","","",""
"null","../img/tt/1161tt.jpg","null","mooney1","image-keyboard-response","490","1427088","0.0-6.0-1.69","2696903","co37966","norming","","","","","","",""
"4152.765000000363","","","post_mooney1_questions","survey-likert","491","1431244","0.0-6.0-2.69","2696903","co37966","norming","","","{""curiosity"":6,""confidence"":0}","[0,1]","../img/tt/1161tt.jpg","",""
"1870.1699999996927","","","recognition","survey-text","492","1433116","0.0-6.0-3.69","2696903","co37966","norming","","","{""guess"":""""}","","../img/tt/1161tt.jpg","",""
"null","../img/gs/1161gs.jpg","null","reveal","image-keyboard-response","493","1435123","0.0-6.0-4.69","2696903","co37966","norming","","","","","","",""
"null","../img/tt/1161tt.jpg","null","mooney2","image-keyboard-response","494","1437133","0.0-6.0-5.69","2696903","co37966","norming","","","","","","",""
"2860.470000000205","","","post_reveal_questions","survey-likert","495","1439996","0.0-6.0-6.69","2696903","co37966","norming","","","{""aha"":6}","[0]","../img/tt/1161tt.jpg","",""
"null","<div style=""font-size:60px;""> </div>","null","fixation","html-keyboard-response","496","1440198","0.0-6.0-0.70","2696903","co37966","norming","","","","","","",""
"null","../img/tt/040tt.jpg","null","mooney1","image-keyboard-response","497","1443208","0.0-6.0-1.70","2696903","co37966","norming","","","","","","",""
"3838.0500000002794","","","post_mooney1_questions","survey-likert","498","1447049","0.0-6.0-2.70","2696903","co37966","norming","","","{""curiosity"":6,""confidence"":0}","[0,1]","../img/tt/040tt.jpg","",""
"1190.184999999823","","","recognition","survey-text","499","1448241","0.0-6.0-3.70","2696903","co37966","norming","","","{""guess"":""""}","","../img/tt/040tt.jpg","",""
"null","../img/gs/040gs.jpg","null","reveal","image-keyboard-response","500","1450249","0.0-6.0-4.70","2696903","co37966","norming","","","","","","",""
"null","../img/tt/040tt.jpg","null","mooney2","image-keyboard-response","501","1452253","0.0-6.0-5.70","2696903","co37966","norming","","","","","","",""
"3032.970000000205","","","post_reveal_questions","survey-likert","502","1455289","0.0-6.0-6.70","2696903","co37966","norming","","","{""aha"":6}","[0]","../img/tt/040tt.jpg","",""
"null","<div style=""font-size:60px;""> </div>","null","fixation","html-keyboard-response","503","1455495","0.0-6.0-0.71","2696903","co37966","norming","","","","","","",""
"null","../img/tt/1044tt.jpg","null","mooney1","image-keyboard-response","504","1458501","0.0-6.0-1.71","2696903","co37966","norming","","","","","","",""
"5347.005000000121","","","post_mooney1_questions","survey-likert","505","1463849","0.0-6.0-2.71","2696903","co37966","norming","","","{""curiosity"":6,""confidence"":0}","[0,1]","../img/tt/1044tt.jpg","",""
"1293.9000000001397","","","recognition","survey-text","506","1465145","0.0-6.0-3.71","2696903","co37966","norming","","","{""guess"":""""}","","../img/tt/1044tt.jpg","",""
"null","../img/gs/1044gs.jpg","null","reveal","image-keyboard-response","507","1467147","0.0-6.0-4.71","2696903","co37966","norming","","","","","","",""
"null","../img/tt/1044tt.jpg","null","mooney2","image-keyboard-response","508","1469151","0.0-6.0-5.71","2696903","co37966","norming","","","","","","",""
"3679.2299999997485","","","post_reveal_questions","survey-likert","509","1472833","0.0-6.0-6.71","2696903","co37966","norming","","","{""aha"":6}","[0]","../img/tt/1044tt.jpg","",""
"null","<div style=""font-size:60px;""> </div>","null","fixation","html-keyboard-response","510","1473035","0.0-6.0-0.72","2696903","co37966","norming","","","","","","",""
"null","../img/tt/1148tt.jpg","null","mooney1","image-keyboard-response","511","1476039","0.0-6.0-1.72","2696903","co37966","norming","","","","","","",""
"6727.045000000158","","","post_mooney1_questions","survey-likert","512","1482769","0.0-6.0-2.72","2696903","co37966","norming","","","{""curiosity"":4,""confidence"":2}","[0,1]","../img/tt/1148tt.jpg","",""
"6174.155000000028","","","recognition","survey-text","513","1488945","0.0-6.0-3.72","2696903","co37966","norming","","","{""guess"":""kano""}","","../img/tt/1148tt.jpg","",""
"null","../img/gs/1148gs.jpg","null","reveal","image-keyboard-response","514","1490952","0.0-6.0-4.72","2696903","co37966","norming","","","","","","",""
"null","../img/tt/1148tt.jpg","null","mooney2","image-keyboard-response","515","1492954","0.0-6.0-5.72","2696903","co37966","norming","","","","","","",""
"2115.3349999999627","","","post_reveal_questions","survey-likert","516","1495073","0.0-6.0-6.72","2696903","co37966","norming","","","{""aha"":6}","[0]","../img/tt/1148tt.jpg","",""
"null","<div style=""font-size:60px;""> </div>","null","fixation","html-keyboard-response","517","1495274","0.0-6.0-0.73","2696903","co37966","norming","","","","","","",""
"null","../img/tt/082tt.jpg","null","mooney1","image-keyboard-response","518","1498280","0.0-6.0-1.73","2696903","co37966","norming","","","","","","",""
"4381.97499999986","","","post_mooney1_questions","survey-likert","519","1502665","0.0-6.0-2.73","2696903","co37966","norming","","","{""curiosity"":4,""confidence"":2}","[0,1]","../img/tt/082tt.jpg","",""
"5030.010000000009","","","recognition","survey-text","520","1507692","0.0-6.0-3.73","2696903","co37966","norming","","","{""guess"":""hoogspringer""}","","../img/tt/082tt.jpg","",""
"null","../img/gs/082gs.jpg","null","reveal","image-keyboard-response","521","1509693","0.0-6.0-4.73","2696903","co37966","norming","","","","","","",""
"null","../img/tt/082tt.jpg","null","mooney2","image-keyboard-response","522","1511697","0.0-6.0-5.73","2696903","co37966","norming","","","","","","",""
"1952.1899999999441","","","post_reveal_questions","survey-likert","523","1513652","0.0-6.0-6.73","2696903","co37966","norming","","","{""aha"":6}","[0]","../img/tt/082tt.jpg","",""
"null","<div style=""font-size:60px;""> </div>","null","fixation","html-keyboard-response","524","1513854","0.0-6.0-0.74","2696903","co37966","norming","","","","","","",""
"null","../img/tt/406tt.jpg","null","mooney1","image-keyboard-response","525","1516859","0.0-6.0-1.74","2696903","co37966","norming","","","","","","",""
"3375.1800000001676","","","post_mooney1_questions","survey-likert","526","1520236","0.0-6.0-2.74","2696903","co37966","norming","","","{""curiosity"":6,""confidence"":0}","[0,1]","../img/tt/406tt.jpg","",""
"1029.9599999999627","","","recognition","survey-text","527","1521267","0.0-6.0-3.74","2696903","co37966","norming","","","{""guess"":""""}","","../img/tt/406tt.jpg","",""
"null","../img/gs/406gs.jpg","null","reveal","image-keyboard-response","528","1523270","0.0-6.0-4.74","2696903","co37966","norming","","","","","","",""
"null","../img/tt/406tt.jpg","null","mooney2","image-keyboard-response","529","1525279","0.0-6.0-5.74","2696903","co37966","norming","","","","","","",""
"3633.6750000000466","","","post_reveal_questions","survey-likert","530","1528916","0.0-6.0-6.74","2696903","co37966","norming","","","{""aha"":6}","[0]","../img/tt/406tt.jpg","",""
"null","<div style=""font-size:60px;""> </div>","null","fixation","html-keyboard-response","531","1529117","0.0-6.0-0.75","2696903","co37966","norming","","","","","","",""
"null","../img/tt/1125tt.jpg","null","mooney1","image-keyboard-response","532","1532126","0.0-6.0-1.75","2696903","co37966","norming","","","","","","",""
"3114.1099999998696","","","post_mooney1_questions","survey-likert","533","1535244","0.0-6.0-2.75","2696903","co37966","norming","","","{""curiosity"":6,""confidence"":0}","[0,1]","../img/tt/1125tt.jpg","",""
"693.5700000000652","","","recognition","survey-text","534","1535939","0.0-6.0-3.75","2696903","co37966","norming","","","{""guess"":""""}","","../img/tt/1125tt.jpg","",""
"null","../img/gs/1125gs.jpg","null","reveal","image-keyboard-response","535","1537940","0.0-6.0-4.75","2696903","co37966","norming","","","","","","",""
"null","../img/tt/1125tt.jpg","null","mooney2","image-keyboard-response","536","1539943","0.0-6.0-5.75","2696903","co37966","norming","","","","","","",""
"4138.879999999888","","","post_reveal_questions","survey-likert","537","1544083","0.0-6.0-6.75","2696903","co37966","norming","","","{""aha"":6}","[0]","../img/tt/1125tt.jpg","",""
"null","<div style=""font-size:60px;""> </div>","null","fixation","html-keyboard-response","538","1544292","0.0-6.0-0.76","2696903","co37966","norming","","","","","","",""
"null","../img/tt/1243tt.jpg","null","mooney1","image-keyboard-response","539","1547303","0.0-6.0-1.76","2696903","co37966","norming","","","","","","",""
"5168.670000000158","","","post_mooney1_questions","survey-likert","540","1552476","0.0-6.0-2.76","2696903","co37966","norming","","","{""curiosity"":4,""confidence"":1}","[0,1]","../img/tt/1243tt.jpg","",""
"1997.9950000001118","","","recognition","survey-text","541","1554475","0.0-6.0-3.76","2696903","co37966","norming","","","{""guess"":""keeper""}","","../img/tt/1243tt.jpg","",""
"null","../img/gs/1243gs.jpg","null","reveal","image-keyboard-response","542","1556477","0.0-6.0-4.76","2696903","co37966","norming","","","","","","",""
"null","../img/tt/1243tt.jpg","null","mooney2","image-keyboard-response","543","1558482","0.0-6.0-5.76","2696903","co37966","norming","","","","","","",""
"2863.8849999997765","","","post_reveal_questions","survey-likert","544","1561348","0.0-6.0-6.76","2696903","co37966","norming","","","{""aha"":6}","[0]","../img/tt/1243tt.jpg","",""
"null","<div style=""font-size:60px;""> </div>","null","fixation","html-keyboard-response","545","1561551","0.0-6.0-0.77","2696903","co37966","norming","","","","","","",""
"null","../img/tt/1247tt.jpg","null","mooney1","image-keyboard-response","546","1564563","0.0-6.0-1.77","2696903","co37966","norming","","","","","","",""
"4300.5449999999255","","","post_mooney1_questions","survey-likert","547","1568865","0.0-6.0-2.77","2696903","co37966","norming","","","{""curiosity"":5,""confidence"":1}","[0,1]","../img/tt/1247tt.jpg","",""
"2190.000000000233","","","recognition","survey-text","548","1571057","0.0-6.0-3.77","2696903","co37966","norming","","","{""guess"":""vos""}","","../img/tt/1247tt.jpg","",""
"null","../img/gs/1247gs.jpg","null","reveal","image-keyboard-response","549","1573059","0.0-6.0-4.77","2696903","co37966","norming","","","","","","",""
"null","../img/tt/1247tt.jpg","null","mooney2","image-keyboard-response","550","1575067","0.0-6.0-5.77","2696903","co37966","norming","","","","","","",""
"2450.7999999998137","","","post_reveal_questions","survey-likert","551","1577521","0.0-6.0-6.77","2696903","co37966","norming","","","{""aha"":4}","[0]","../img/tt/1247tt.jpg","",""
"null","<div style=""font-size:60px;""> </div>","null","fixation","html-keyboard-response","552","1577722","0.0-6.0-0.78","2696903","co37966","norming","","","","","","",""
