"rt","stimulus","key_press","test_part","trial_type","trial_index","time_elapsed","internal_node_id","totalTime","subject","experiment_name","button_pressed","success","responses","question_order","currentStim","old","correct"
"6040.485000000444","Welcome to the experiment. This is an online experiment so please don't close the tab/window until we say goodbye.  Press any key to begin.","32","instructions","html-keyboard-response","0","6043","0.0-0.0","2364319","co37528","norming","","","","","","",""
"2958.534999999756","<div style='word-wrap: break-word; width: 900px'><h3>Please consider this information carefully before deciding whether to participate in this research</h3><ul style='text-align: left; font-size: .8em;'><li><b>Purpose of the research</b>: To examine how people process images.</li><li><b>What you will do in this research</b>:  Stimuli (images) will be presented on the computer and you will be asked different questions about them.</li><li><b>Time required</b>: Participation will take between 45 and 60 minutes to complete.</li><li><b>Risks</b>:  There are no anticipated risks associated with participating in this study. The effects of participating should be comparable to those you would experience from viewing a computer monitor for 30 minutes and using a mouse or keyboard.</li><li><b>Benefits</b>:  This study provides no benefits to you individually except for the credit. The study provides important information about the nature of perception and learning.</li><li><b>Confidentiality</b>:  Your participation in this study will remain confidential. No personally identifiable information will be associated with your data. Your de-identified data may be shared with other researchers and used in future projects.</li><li><b>Participation and withdrawal</b>:  Your participation in this study is completely voluntary and you may refuse to participate or you may choose to withdraw at any time without penalty.</li><li><b>How to contact the researchers</b>: If you have questions or concerns about your participation or payment, or want to request a summary of research findings, please contact Sander Van de Cruys (KU Leuven), at sander.vandecruys@kuleuven.be.</li></ul><p>The nature and purpose of this research have been sufficiently explained and I agree to participate in this study.  I understand that I am free to withdraw at any time without incurring any penalty.</p><p>Please consent by clicking the button below to continue. Otherwise, please exit the study at this time.</p></div>","","instructions","html-button-response","1","9003","0.0-1.0","2364319","co37528","norming","0","","","","","",""
"","","","instructions","fullscreen","2","14387","0.0-2.0","2364319","co37528","norming","","true","","","","",""
"25374.58500000048","","","sona","survey-html-form","3","39763","0.0-3.0","2364319","co37528","norming","","","[{""name"":""sonaid"",""value"":""37528""},{""name"":""debrief"",""value"":""yes""},{""name"":""datajoin"",""value"":""yes""}]","","","",""
"9397.785000000113","<div style='word-wrap: break-word; width: 900px'><h3>Instructions</h3><p>This experiment will have 3 parts. In the first part you will see a series of distorted images like the one below on the left. As you can see in the righthand image, the distorted images are derived from actual photographs. In what follows, you will <strong>briefly</strong> be presented with <strong>only</strong> the distorted image.</p> <div style='float: left; margin-right: 20px;'><img src='../img/018tt.jpg' height='250' width='250'></img></div><div style='float: right; margin-left: 20px;'><img src='../img/018gs.jpg' height='250' width='250'></img></div><p>Subsequently you will be asked a few questions about the image: One question on how <strong>curious</strong> you are about the solution and one on how <strong>confident</strong> you are that you know the solution.</p>Next, we ask you to make a guess on what is in the image. Note that it is OK to name just the <strong>basic level category</strong>. For example when you see a parrot in the image, 'parrot' will obviously be a correct answer but also correct is 'bird'. However, 'animal' will <strong>not</strong> be counted as a correct response. For the example above, 'rose' would be correct or 'flower', but not 'plant'. When soccer players are depicted, 'soccer', 'football', 'soccer players' will be correct, but not 'humans', 'outdoors', or 'sports'. You do not need to describe the image in full, just name the main object in it <strong>in one or two words</strong>. All images depict objects from one of the following broad level categories: animals, inanimate objects, plants, sports, vehicles, and food. Recognizing means knowing <strong>more</strong> than these broad labels for a given image. But we always encourage you to <strong>make a guess</strong> if you can. Note that you are allowed to use <strong>Dutch and English</strong> in your answers, whatever comes easiest for you.</p><p>Press any key to continue.</p></div>","32","instructions","html-keyboard-response","4","49162","0.0-4.0","2364319","co37528","norming","","","","","","",""
"11599.404999999933","<div style='word-wrap: break-word; width: 900px'><h3>Instructions</h3> <p>Next, the solution image will be revealed to you and you'll be asked to indicate how strong your <strong>aha-experience</strong> was after seeing the solution. This describes the positive feeling of the 'click' you sometimes experience, when the pieces of the 'puzzle' fall together and you suddenly have 'insight' in the image.</p><img src='aha.jpg' height='188' width='250'></img><p>Note that there are no right or wrong answers. We are interested in what <strong>you</strong> see in the image and how <strong>you</strong> feel about it.</p><p>Press any key to start the experiment.</p></div>","32","instructions","html-keyboard-response","5","60757","0.0-5.0","2364319","co37528","norming","","","","","","",""
"null","<div style=""font-size:60px;""> </div>","null","fixation","html-keyboard-response","6","60962","0.0-6.0-0.0","2364319","co37528","norming","","","","","","",""
"null","../img/tt/584tt.jpg","null","mooney1","image-keyboard-response","7","63965","0.0-6.0-1.0","2364319","co37528","norming","","","","","","",""
"10142.815000000155","","","post_mooney1_questions","survey-likert","8","74110","0.0-6.0-2.0","2364319","co37528","norming","","","{""curiosity"":5,""confidence"":1}","[0,1]","../img/tt/584tt.jpg","",""
"6389.760000000024","","","recognition","survey-text","9","80502","0.0-6.0-3.0","2364319","co37528","norming","","","{""guess"":""star""}","","../img/tt/584tt.jpg","",""
"null","../img/gs/584gs.jpg","null","reveal","image-keyboard-response","10","82512","0.0-6.0-4.0","2364319","co37528","norming","","","","","","",""
"null","../img/tt/584tt.jpg","null","mooney2","image-keyboard-response","11","84520","0.0-6.0-5.0","2364319","co37528","norming","","","","","","",""
"5227.930000000022","","","post_reveal_questions","survey-likert","12","89749","0.0-6.0-6.0","2364319","co37528","norming","","","{""aha"":4}","[0]","../img/tt/584tt.jpg","",""
"null","<div style=""font-size:60px;""> </div>","null","fixation","html-keyboard-response","13","89952","0.0-6.0-0.1","2364319","co37528","norming","","","","","","",""
"null","../img/tt/1202tt.jpg","null","mooney1","image-keyboard-response","14","92959","0.0-6.0-1.1","2364319","co37528","norming","","","","","","",""
"10245.425000000061","","","post_mooney1_questions","survey-likert","15","103205","0.0-6.0-2.1","2364319","co37528","norming","","","{""curiosity"":3,""confidence"":0}","[0,1]","../img/tt/1202tt.jpg","",""
"989.9199999999837","","","recognition","survey-text","16","104197","0.0-6.0-3.1","2364319","co37528","norming","","","{""guess"":""""}","","../img/tt/1202tt.jpg","",""
"null","../img/gs/1202gs.jpg","null","reveal","image-keyboard-response","17","106206","0.0-6.0-4.1","2364319","co37528","norming","","","","","","",""
"null","../img/tt/1202tt.jpg","null","mooney2","image-keyboard-response","18","108212","0.0-6.0-5.1","2364319","co37528","norming","","","","","","",""
"5640.655000000144","","","post_reveal_questions","survey-likert","19","113853","0.0-6.0-6.1","2364319","co37528","norming","","","{""aha"":1}","[0]","../img/tt/1202tt.jpg","",""
"null","<div style=""font-size:60px;""> </div>","null","fixation","html-keyboard-response","20","114055","0.0-6.0-0.2","2364319","co37528","norming","","","","","","",""
"null","../img/tt/1101tt.jpg","null","mooney1","image-keyboard-response","21","117066","0.0-6.0-1.2","2364319","co37528","norming","","","","","","",""
"5818.220000000118","","","post_mooney1_questions","survey-likert","22","122889","0.0-6.0-2.2","2364319","co37528","norming","","","{""curiosity"":2,""confidence"":5}","[0,1]","../img/tt/1101tt.jpg","",""
"4125.965000000171","","","recognition","survey-text","23","127017","0.0-6.0-3.2","2364319","co37528","norming","","","{""guess"":""Man""}","","../img/tt/1101tt.jpg","",""
"null","../img/gs/1101gs.jpg","null","reveal","image-keyboard-response","24","129022","0.0-6.0-4.2","2364319","co37528","norming","","","","","","",""
"null","../img/tt/1101tt.jpg","null","mooney2","image-keyboard-response","25","131026","0.0-6.0-5.2","2364319","co37528","norming","","","","","","",""
"4638.069999999949","","","post_reveal_questions","survey-likert","26","135665","0.0-6.0-6.2","2364319","co37528","norming","","","{""aha"":0}","[0]","../img/tt/1101tt.jpg","",""
"null","<div style=""font-size:60px;""> </div>","null","fixation","html-keyboard-response","27","135874","0.0-6.0-0.3","2364319","co37528","norming","","","","","","",""
"null","../img/tt/105tt.jpg","null","mooney1","image-keyboard-response","28","138881","0.0-6.0-1.3","2364319","co37528","norming","","","","","","",""
"5223.135000000184","","","post_mooney1_questions","survey-likert","29","144105","0.0-6.0-2.3","2364319","co37528","norming","","","{""curiosity"":1,""confidence"":6}","[0,1]","../img/tt/105tt.jpg","",""
"2797.929999999731","","","recognition","survey-text","30","146905","0.0-6.0-3.3","2364319","co37528","norming","","","{""guess"":""paperclips""}","","../img/tt/105tt.jpg","",""
"null","../img/gs/105gs.jpg","null","reveal","image-keyboard-response","31","148909","0.0-6.0-4.3","2364319","co37528","norming","","","","","","",""
"null","../img/tt/105tt.jpg","null","mooney2","image-keyboard-response","32","150911","0.0-6.0-5.3","2364319","co37528","norming","","","","","","",""
"2992.949999999837","","","post_reveal_questions","survey-likert","33","153905","0.0-6.0-6.3","2364319","co37528","norming","","","{""aha"":0}","[0]","../img/tt/105tt.jpg","",""
"null","<div style=""font-size:60px;""> </div>","null","fixation","html-keyboard-response","34","154109","0.0-6.0-0.4","2364319","co37528","norming","","","","","","",""
"null","../img/tt/1235tt.jpg","null","mooney1","image-keyboard-response","35","157114","0.0-6.0-1.4","2364319","co37528","norming","","","","","","",""
"9461.490000000573","","","post_mooney1_questions","survey-likert","36","166577","0.0-6.0-2.4","2364319","co37528","norming","","","{""curiosity"":6,""confidence"":2}","[0,1]","../img/tt/1235tt.jpg","",""
"1813.9550000005402","","","recognition","survey-text","37","168393","0.0-6.0-3.4","2364319","co37528","norming","","","{""guess"":""head""}","","../img/tt/1235tt.jpg","",""
"null","../img/gs/1235gs.jpg","null","reveal","image-keyboard-response","38","170395","0.0-6.0-4.4","2364319","co37528","norming","","","","","","",""
"null","../img/tt/1235tt.jpg","null","mooney2","image-keyboard-response","39","172409","0.0-6.0-5.4","2364319","co37528","norming","","","","","","",""
"4223.164999999426","","","post_reveal_questions","survey-likert","40","176633","0.0-6.0-6.4","2364319","co37528","norming","","","{""aha"":5}","[0]","../img/tt/1235tt.jpg","",""
"null","<div style=""font-size:60px;""> </div>","null","fixation","html-keyboard-response","41","176835","0.0-6.0-0.5","2364319","co37528","norming","","","","","","",""
"null","../img/tt/412tt.jpg","null","mooney1","image-keyboard-response","42","179837","0.0-6.0-1.5","2364319","co37528","norming","","","","","","",""
"5434.709999999526","","","post_mooney1_questions","survey-likert","43","185281","0.0-6.0-2.5","2364319","co37528","norming","","","{""curiosity"":6,""confidence"":2}","[0,1]","../img/tt/412tt.jpg","",""
"2110.0799999994633","","","recognition","survey-text","44","187393","0.0-6.0-3.5","2364319","co37528","norming","","","{""guess"":""bottle""}","","../img/tt/412tt.jpg","",""
"null","../img/gs/412gs.jpg","null","reveal","image-keyboard-response","45","189402","0.0-6.0-4.5","2364319","co37528","norming","","","","","","",""
"null","../img/tt/412tt.jpg","null","mooney2","image-keyboard-response","46","191407","0.0-6.0-5.5","2364319","co37528","norming","","","","","","",""
"1888.3450000002922","","","post_reveal_questions","survey-likert","47","193296","0.0-6.0-6.5","2364319","co37528","norming","","","{""aha"":4}","[0]","../img/tt/412tt.jpg","",""
"null","<div style=""font-size:60px;""> </div>","null","fixation","html-keyboard-response","48","193500","0.0-6.0-0.6","2364319","co37528","norming","","","","","","",""
"null","../img/tt/1148tt.jpg","null","mooney1","image-keyboard-response","49","196511","0.0-6.0-1.6","2364319","co37528","norming","","","","","","",""
"4944.580000000307","","","post_mooney1_questions","survey-likert","50","201457","0.0-6.0-2.6","2364319","co37528","norming","","","{""curiosity"":4,""confidence"":1}","[0,1]","../img/tt/1148tt.jpg","",""
"1629.765000000596","","","recognition","survey-text","51","203088","0.0-6.0-3.6","2364319","co37528","norming","","","{""guess"":""boat""}","","../img/tt/1148tt.jpg","",""
"null","../img/gs/1148gs.jpg","null","reveal","image-keyboard-response","52","205095","0.0-6.0-4.6","2364319","co37528","norming","","","","","","",""
"null","../img/tt/1148tt.jpg","null","mooney2","image-keyboard-response","53","207096","0.0-6.0-5.6","2364319","co37528","norming","","","","","","",""
"4655.324999999721","","","post_reveal_questions","survey-likert","54","211752","0.0-6.0-6.6","2364319","co37528","norming","","","{""aha"":3}","[0]","../img/tt/1148tt.jpg","",""
"null","<div style=""font-size:60px;""> </div>","null","fixation","html-keyboard-response","55","211953","0.0-6.0-0.7","2364319","co37528","norming","","","","","","",""
"null","../img/tt/1154tt.jpg","null","mooney1","image-keyboard-response","56","214956","0.0-6.0-1.7","2364319","co37528","norming","","","","","","",""
"5843.509999999689","","","post_mooney1_questions","survey-likert","57","220801","0.0-6.0-2.7","2364319","co37528","norming","","","{""curiosity"":4,""confidence"":1}","[0,1]","../img/tt/1154tt.jpg","",""
"741.9449999997742","","","recognition","survey-text","58","221544","0.0-6.0-3.7","2364319","co37528","norming","","","{""guess"":""""}","","../img/tt/1154tt.jpg","",""
"null","../img/gs/1154gs.jpg","null","reveal","image-keyboard-response","59","223555","0.0-6.0-4.7","2364319","co37528","norming","","","","","","",""
"null","../img/tt/1154tt.jpg","null","mooney2","image-keyboard-response","60","225561","0.0-6.0-5.7","2364319","co37528","norming","","","","","","",""
"2526.884999999311","","","post_reveal_questions","survey-likert","61","228088","0.0-6.0-6.7","2364319","co37528","norming","","","{""aha"":2}","[0]","../img/tt/1154tt.jpg","",""
"null","<div style=""font-size:60px;""> </div>","null","fixation","html-keyboard-response","62","228290","0.0-6.0-0.8","2364319","co37528","norming","","","","","","",""
"null","../img/tt/1044tt.jpg","null","mooney1","image-keyboard-response","63","231296","0.0-6.0-1.8","2364319","co37528","norming","","","","","","",""
"4951.7949999999255","","","post_mooney1_questions","survey-likert","64","236249","0.0-6.0-2.8","2364319","co37528","norming","","","{""curiosity"":5,""confidence"":1}","[0,1]","../img/tt/1044tt.jpg","",""
"1686.0150000002177","","","recognition","survey-text","65","237937","0.0-6.0-3.8","2364319","co37528","norming","","","{""guess"":""hat""}","","../img/tt/1044tt.jpg","",""
"null","../img/gs/1044gs.jpg","null","reveal","image-keyboard-response","66","239941","0.0-6.0-4.8","2364319","co37528","norming","","","","","","",""
"null","../img/tt/1044tt.jpg","null","mooney2","image-keyboard-response","67","241948","0.0-6.0-5.8","2364319","co37528","norming","","","","","","",""
"1459.8050000004005","","","post_reveal_questions","survey-likert","68","243399","0.0-6.0-6.8","2364319","co37528","norming","","","{""aha"":5}","[0]","../img/tt/1044tt.jpg","",""
"null","<div style=""font-size:60px;""> </div>","null","fixation","html-keyboard-response","69","243604","0.0-6.0-0.9","2364319","co37528","norming","","","","","","",""
"null","../img/tt/096tt.jpg","null","mooney1","image-keyboard-response","70","246606","0.0-6.0-1.9","2364319","co37528","norming","","","","","","",""
"5728.285000000149","","","post_mooney1_questions","survey-likert","71","252335","0.0-6.0-2.9","2364319","co37528","norming","","","{""curiosity"":3,""confidence"":1}","[0,1]","../img/tt/096tt.jpg","",""
"3253.850000000035","","","recognition","survey-text","72","255591","0.0-6.0-3.9","2364319","co37528","norming","","","{""guess"":""sunbank""}","","../img/tt/096tt.jpg","",""
"null","../img/gs/096gs.jpg","null","reveal","image-keyboard-response","73","257595","0.0-6.0-4.9","2364319","co37528","norming","","","","","","",""
"null","../img/tt/096tt.jpg","null","mooney2","image-keyboard-response","74","259600","0.0-6.0-5.9","2364319","co37528","norming","","","","","","",""
"4701.714999999269","","","post_reveal_questions","survey-likert","75","264303","0.0-6.0-6.9","2364319","co37528","norming","","","{""aha"":1}","[0]","../img/tt/096tt.jpg","",""
"null","<div style=""font-size:60px;""> </div>","null","fixation","html-keyboard-response","76","264505","0.0-6.0-0.10","2364319","co37528","norming","","","","","","",""
"null","../img/tt/222tt.jpg","null","mooney1","image-keyboard-response","77","267514","0.0-6.0-1.10","2364319","co37528","norming","","","","","","",""
"5188.455000000424","","","post_mooney1_questions","survey-likert","78","272703","0.0-6.0-2.10","2364319","co37528","norming","","","{""curiosity"":3,""confidence"":2}","[0,1]","../img/tt/222tt.jpg","",""
"1284.7849999997998","","","recognition","survey-text","79","273991","0.0-6.0-3.10","2364319","co37528","norming","","","{""guess"":""tank""}","","../img/tt/222tt.jpg","",""
"null","../img/gs/222gs.jpg","null","reveal","image-keyboard-response","80","275996","0.0-6.0-4.10","2364319","co37528","norming","","","","","","",""
"null","../img/tt/222tt.jpg","null","mooney2","image-keyboard-response","81","278007","0.0-6.0-5.10","2364319","co37528","norming","","","","","","",""
"3391.44500000024","","","post_reveal_questions","survey-likert","82","281399","0.0-6.0-6.10","2364319","co37528","norming","","","{""aha"":4}","[0]","../img/tt/222tt.jpg","",""
"null","<div style=""font-size:60px;""> </div>","null","fixation","html-keyboard-response","83","281605","0.0-6.0-0.11","2364319","co37528","norming","","","","","","",""
"null","../img/tt/1171tt.jpg","null","mooney1","image-keyboard-response","84","284613","0.0-6.0-1.11","2364319","co37528","norming","","","","","","",""
"4489.029999999737","","","post_mooney1_questions","survey-likert","85","289103","0.0-6.0-2.11","2364319","co37528","norming","","","{""curiosity"":4,""confidence"":1}","[0,1]","../img/tt/1171tt.jpg","",""
"877.5750000004191","","","recognition","survey-text","86","289983","0.0-6.0-3.11","2364319","co37528","norming","","","{""guess"":""""}","","../img/tt/1171tt.jpg","",""
"null","../img/gs/1171gs.jpg","null","reveal","image-keyboard-response","87","291986","0.0-6.0-4.11","2364319","co37528","norming","","","","","","",""
"null","../img/tt/1171tt.jpg","null","mooney2","image-keyboard-response","88","293988","0.0-6.0-5.11","2364319","co37528","norming","","","","","","",""
"2593.925000000105","","","post_reveal_questions","survey-likert","89","296583","0.0-6.0-6.11","2364319","co37528","norming","","","{""aha"":4}","[0]","../img/tt/1171tt.jpg","",""
"null","<div style=""font-size:60px;""> </div>","null","fixation","html-keyboard-response","90","296789","0.0-6.0-0.12","2364319","co37528","norming","","","","","","",""
"null","../img/tt/1151tt.jpg","null","mooney1","image-keyboard-response","91","299790","0.0-6.0-1.12","2364319","co37528","norming","","","","","","",""
"4583.950000000186","","","post_mooney1_questions","survey-likert","92","304379","0.0-6.0-2.12","2364319","co37528","norming","","","{""curiosity"":6,""confidence"":2}","[0,1]","../img/tt/1151tt.jpg","",""
"1357.8850000003586","","","recognition","survey-text","93","305738","0.0-6.0-3.12","2364319","co37528","norming","","","{""guess"":""giraf""}","","../img/tt/1151tt.jpg","",""
"null","../img/gs/1151gs.jpg","null","reveal","image-keyboard-response","94","307746","0.0-6.0-4.12","2364319","co37528","norming","","","","","","",""
"null","../img/tt/1151tt.jpg","null","mooney2","image-keyboard-response","95","309747","0.0-6.0-5.12","2364319","co37528","norming","","","","","","",""
"3262.7699999993783","","","post_reveal_questions","survey-likert","96","313010","0.0-6.0-6.12","2364319","co37528","norming","","","{""aha"":3}","[0]","../img/tt/1151tt.jpg","",""
"null","<div style=""font-size:60px;""> </div>","null","fixation","html-keyboard-response","97","313212","0.0-6.0-0.13","2364319","co37528","norming","","","","","","",""
"null","../img/tt/135tt.jpg","null","mooney1","image-keyboard-response","98","316214","0.0-6.0-1.13","2364319","co37528","norming","","","","","","",""
"4394.620000000054","","","post_mooney1_questions","survey-likert","99","320611","0.0-6.0-2.13","2364319","co37528","norming","","","{""curiosity"":1,""confidence"":6}","[0,1]","../img/tt/135tt.jpg","",""
"1670.0649999993038","","","recognition","survey-text","100","322282","0.0-6.0-3.13","2364319","co37528","norming","","","{""guess"":""toilet""}","","../img/tt/135tt.jpg","",""
"null","../img/gs/135gs.jpg","null","reveal","image-keyboard-response","101","324285","0.0-6.0-4.13","2364319","co37528","norming","","","","","","",""
"null","../img/tt/135tt.jpg","null","mooney2","image-keyboard-response","102","326289","0.0-6.0-5.13","2364319","co37528","norming","","","","","","",""
"4528.065000000468","","","post_reveal_questions","survey-likert","103","330818","0.0-6.0-6.13","2364319","co37528","norming","","","{""aha"":0}","[0]","../img/tt/135tt.jpg","",""
"null","<div style=""font-size:60px;""> </div>","null","fixation","html-keyboard-response","104","331020","0.0-6.0-0.14","2364319","co37528","norming","","","","","","",""
"null","../img/tt/1156tt.jpg","null","mooney1","image-keyboard-response","105","334024","0.0-6.0-1.14","2364319","co37528","norming","","","","","","",""
"4472.950000000303","","","post_mooney1_questions","survey-likert","106","338499","0.0-6.0-2.14","2364319","co37528","norming","","","{""curiosity"":5,""confidence"":1}","[0,1]","../img/tt/1156tt.jpg","",""
"902","","","recognition","survey-text","107","339402","0.0-6.0-3.14","2364319","co37528","norming","","","{""guess"":""""}","","../img/tt/1156tt.jpg","",""
"null","../img/gs/1156gs.jpg","null","reveal","image-keyboard-response","108","341404","0.0-6.0-4.14","2364319","co37528","norming","","","","","","",""
"null","../img/tt/1156tt.jpg","null","mooney2","image-keyboard-response","109","343413","0.0-6.0-5.14","2364319","co37528","norming","","","","","","",""
"3572.6250000006985","","","post_reveal_questions","survey-likert","110","346986","0.0-6.0-6.14","2364319","co37528","norming","","","{""aha"":4}","[0]","../img/tt/1156tt.jpg","",""
"null","<div style=""font-size:60px;""> </div>","null","fixation","html-keyboard-response","111","347192","0.0-6.0-0.15","2364319","co37528","norming","","","","","","",""
"null","../img/tt/1146tt.jpg","null","mooney1","image-keyboard-response","112","350201","0.0-6.0-1.15","2364319","co37528","norming","","","","","","",""
"4751.7399999997","","","post_mooney1_questions","survey-likert","113","354955","0.0-6.0-2.15","2364319","co37528","norming","","","{""curiosity"":1,""confidence"":4}","[0,1]","../img/tt/1146tt.jpg","",""
"2894.049999999872","","","recognition","survey-text","114","357850","0.0-6.0-3.15","2364319","co37528","norming","","","{""guess"":""person sitting""}","","../img/tt/1146tt.jpg","",""
"null","../img/gs/1146gs.jpg","null","reveal","image-keyboard-response","115","359861","0.0-6.0-4.15","2364319","co37528","norming","","","","","","",""
"null","../img/tt/1146tt.jpg","null","mooney2","image-keyboard-response","116","361865","0.0-6.0-5.15","2364319","co37528","norming","","","","","","",""
"2518.6399999993155","","","post_reveal_questions","survey-likert","117","364391","0.0-6.0-6.15","2364319","co37528","norming","","","{""aha"":5}","[0]","../img/tt/1146tt.jpg","",""
"null","<div style=""font-size:60px;""> </div>","null","fixation","html-keyboard-response","118","364594","0.0-6.0-0.16","2364319","co37528","norming","","","","","","",""
"null","../img/tt/194tt.jpg","null","mooney1","image-keyboard-response","119","367597","0.0-6.0-1.16","2364319","co37528","norming","","","","","","",""
"4704.490000000049","","","post_mooney1_questions","survey-likert","120","372303","0.0-6.0-2.16","2364319","co37528","norming","","","{""curiosity"":1,""confidence"":4}","[0,1]","../img/tt/194tt.jpg","",""
"4909.540000000619","","","recognition","survey-text","121","377215","0.0-6.0-3.16","2364319","co37528","norming","","","{""guess"":""woman sitting""}","","../img/tt/194tt.jpg","",""
"null","../img/gs/194gs.jpg","null","reveal","image-keyboard-response","122","379218","0.0-6.0-4.16","2364319","co37528","norming","","","","","","",""
"null","../img/tt/194tt.jpg","null","mooney2","image-keyboard-response","123","381228","0.0-6.0-5.16","2364319","co37528","norming","","","","","","",""
"2689.2399999996996","","","post_reveal_questions","survey-likert","124","383919","0.0-6.0-6.16","2364319","co37528","norming","","","{""aha"":2}","[0]","../img/tt/194tt.jpg","",""
"null","<div style=""font-size:60px;""> </div>","null","fixation","html-keyboard-response","125","384126","0.0-6.0-0.17","2364319","co37528","norming","","","","","","",""
"null","../img/tt/1024tt.jpg","null","mooney1","image-keyboard-response","126","387134","0.0-6.0-1.17","2364319","co37528","norming","","","","","","",""
"7766.854999999865","","","post_mooney1_questions","survey-likert","127","394903","0.0-6.0-2.17","2364319","co37528","norming","","","{""curiosity"":0,""confidence"":0}","[0,1]","../img/tt/1024tt.jpg","",""
"998.0649999997695","","","recognition","survey-text","128","395903","0.0-6.0-3.17","2364319","co37528","norming","","","{""guess"":""""}","","../img/tt/1024tt.jpg","",""
"null","../img/gs/1024gs.jpg","null","reveal","image-keyboard-response","129","397910","0.0-6.0-4.17","2364319","co37528","norming","","","","","","",""
"null","../img/tt/1024tt.jpg","null","mooney2","image-keyboard-response","130","399918","0.0-6.0-5.17","2364319","co37528","norming","","","","","","",""
"2512.0550000001676","","","post_reveal_questions","survey-likert","131","402431","0.0-6.0-6.17","2364319","co37528","norming","","","{""aha"":4}","[0]","../img/tt/1024tt.jpg","",""
"null","<div style=""font-size:60px;""> </div>","null","fixation","html-keyboard-response","132","402634","0.0-6.0-0.18","2364319","co37528","norming","","","","","","",""
"null","../img/tt/081tt.jpg","null","mooney1","image-keyboard-response","133","405639","0.0-6.0-1.18","2364319","co37528","norming","","","","","","",""
"6069.580000000307","","","post_mooney1_questions","survey-likert","134","411711","0.0-6.0-2.18","2364319","co37528","norming","","","{""curiosity"":2,""confidence"":3}","[0,1]","../img/tt/081tt.jpg","",""
"4126.124999999767","","","recognition","survey-text","135","415839","0.0-6.0-3.18","2364319","co37528","norming","","","{""guess"":""man from above""}","","../img/tt/081tt.jpg","",""
"null","../img/gs/081gs.jpg","null","reveal","image-keyboard-response","136","417841","0.0-6.0-4.18","2364319","co37528","norming","","","","","","",""
"null","../img/tt/081tt.jpg","null","mooney2","image-keyboard-response","137","419842","0.0-6.0-5.18","2364319","co37528","norming","","","","","","",""
"1666.8049999998184","","","post_reveal_questions","survey-likert","138","421511","0.0-6.0-6.18","2364319","co37528","norming","","","{""aha"":5}","[0]","../img/tt/081tt.jpg","",""
"null","<div style=""font-size:60px;""> </div>","null","fixation","html-keyboard-response","139","421717","0.0-6.0-0.19","2364319","co37528","norming","","","","","","",""
"null","../img/tt/598tt.jpg","null","mooney1","image-keyboard-response","140","424720","0.0-6.0-1.19","2364319","co37528","norming","","","","","","",""
"5005.949999999779","","","post_mooney1_questions","survey-likert","141","429729","0.0-6.0-2.19","2364319","co37528","norming","","","{""curiosity"":4,""confidence"":2}","[0,1]","../img/tt/598tt.jpg","",""
"2126.185000000114","","","recognition","survey-text","142","431856","0.0-6.0-3.19","2364319","co37528","norming","","","{""guess"":""insect""}","","../img/tt/598tt.jpg","",""
"null","../img/gs/598gs.jpg","null","reveal","image-keyboard-response","143","433858","0.0-6.0-4.19","2364319","co37528","norming","","","","","","",""
"null","../img/tt/598tt.jpg","null","mooney2","image-keyboard-response","144","435861","0.0-6.0-5.19","2364319","co37528","norming","","","","","","",""
"2801.849999999802","","","post_reveal_questions","survey-likert","145","438665","0.0-6.0-6.19","2364319","co37528","norming","","","{""aha"":4}","[0]","../img/tt/598tt.jpg","",""
"null","<div style=""font-size:60px;""> </div>","null","fixation","html-keyboard-response","146","438871","0.0-6.0-0.20","2364319","co37528","norming","","","","","","",""
"null","../img/tt/1142tt.jpg","null","mooney1","image-keyboard-response","147","441876","0.0-6.0-1.20","2364319","co37528","norming","","","","","","",""
"4578.330000000249","","","post_mooney1_questions","survey-likert","148","446457","0.0-6.0-2.20","2364319","co37528","norming","","","{""curiosity"":3,""confidence"":1}","[0,1]","../img/tt/1142tt.jpg","",""
"725.9650000005495","","","recognition","survey-text","149","447184","0.0-6.0-3.20","2364319","co37528","norming","","","{""guess"":""""}","","../img/tt/1142tt.jpg","",""
"null","../img/gs/1142gs.jpg","null","reveal","image-keyboard-response","150","449188","0.0-6.0-4.20","2364319","co37528","norming","","","","","","",""
"null","../img/tt/1142tt.jpg","null","mooney2","image-keyboard-response","151","451189","0.0-6.0-5.20","2364319","co37528","norming","","","","","","",""
"2746.750000000233","","","post_reveal_questions","survey-likert","152","453937","0.0-6.0-6.20","2364319","co37528","norming","","","{""aha"":2}","[0]","../img/tt/1142tt.jpg","",""
"null","<div style=""font-size:60px;""> </div>","null","fixation","html-keyboard-response","153","454147","0.0-6.0-0.21","2364319","co37528","norming","","","","","","",""
"null","../img/tt/442tt.jpg","null","mooney1","image-keyboard-response","154","457150","0.0-6.0-1.21","2364319","co37528","norming","","","","","","",""
"5017.979999999632","","","post_mooney1_questions","survey-likert","155","462168","0.0-6.0-2.21","2364319","co37528","norming","","","{""curiosity"":5,""confidence"":1}","[0,1]","../img/tt/442tt.jpg","",""
"4678.404999999679","","","recognition","survey-text","156","466848","0.0-6.0-3.21","2364319","co37528","norming","","","{""guess"":""animal""}","","../img/tt/442tt.jpg","",""
"null","../img/gs/442gs.jpg","null","reveal","image-keyboard-response","157","468850","0.0-6.0-4.21","2364319","co37528","norming","","","","","","",""
"null","../img/tt/442tt.jpg","null","mooney2","image-keyboard-response","158","470852","0.0-6.0-5.21","2364319","co37528","norming","","","","","","",""
"2666.2249999999185","","","post_reveal_questions","survey-likert","159","473521","0.0-6.0-6.21","2364319","co37528","norming","","","{""aha"":5}","[0]","../img/tt/442tt.jpg","",""
"null","<div style=""font-size:60px;""> </div>","null","fixation","html-keyboard-response","160","473730","0.0-6.0-0.22","2364319","co37528","norming","","","","","","",""
"null","../img/tt/1086tt.jpg","null","mooney1","image-keyboard-response","161","476733","0.0-6.0-1.22","2364319","co37528","norming","","","","","","",""
"4392.945000000473","","","post_mooney1_questions","survey-likert","162","481129","0.0-6.0-2.22","2364319","co37528","norming","","","{""curiosity"":5,""confidence"":5}","[0,1]","../img/tt/1086tt.jpg","",""
"1174.1750000001048","","","recognition","survey-text","163","482304","0.0-6.0-3.22","2364319","co37528","norming","","","{""guess"":""dogs""}","","../img/tt/1086tt.jpg","",""
"null","../img/gs/1086gs.jpg","null","reveal","image-keyboard-response","164","484313","0.0-6.0-4.22","2364319","co37528","norming","","","","","","",""
"null","../img/tt/1086tt.jpg","null","mooney2","image-keyboard-response","165","486315","0.0-6.0-5.22","2364319","co37528","norming","","","","","","",""
"3283.0450000001583","","","post_reveal_questions","survey-likert","166","489600","0.0-6.0-6.22","2364319","co37528","norming","","","{""aha"":3}","[0]","../img/tt/1086tt.jpg","",""
"null","<div style=""font-size:60px;""> </div>","null","fixation","html-keyboard-response","167","489804","0.0-6.0-0.23","2364319","co37528","norming","","","","","","",""
"null","../img/tt/126tt.jpg","null","mooney1","image-keyboard-response","168","492813","0.0-6.0-1.23","2364319","co37528","norming","","","","","","",""
"8472.700000000244","","","post_mooney1_questions","survey-likert","169","501289","0.0-6.0-2.23","2364319","co37528","norming","","","{""curiosity"":3,""confidence"":0}","[0,1]","../img/tt/126tt.jpg","",""
"741.6400000001304","","","recognition","survey-text","170","502032","0.0-6.0-3.23","2364319","co37528","norming","","","{""guess"":""""}","","../img/tt/126tt.jpg","",""
"null","../img/gs/126gs.jpg","null","reveal","image-keyboard-response","171","504034","0.0-6.0-4.23","2364319","co37528","norming","","","","","","",""
"null","../img/tt/126tt.jpg","null","mooney2","image-keyboard-response","172","506040","0.0-6.0-5.23","2364319","co37528","norming","","","","","","",""
"3326.285000000091","","","post_reveal_questions","survey-likert","173","509368","0.0-6.0-6.23","2364319","co37528","norming","","","{""aha"":5}","[0]","../img/tt/126tt.jpg","",""
"null","<div style=""font-size:60px;""> </div>","null","fixation","html-keyboard-response","174","509576","0.0-6.0-0.24","2364319","co37528","norming","","","","","","",""
"null","../img/tt/358tt.jpg","null","mooney1","image-keyboard-response","175","512586","0.0-6.0-1.24","2364319","co37528","norming","","","","","","",""
"3443.005000000121","","","post_mooney1_questions","survey-likert","176","516033","0.0-6.0-2.24","2364319","co37528","norming","","","{""curiosity"":5,""confidence"":2}","[0,1]","../img/tt/358tt.jpg","",""
"2638.114999999758","","","recognition","survey-text","177","518672","0.0-6.0-3.24","2364319","co37528","norming","","","{""guess"":""animal""}","","../img/tt/358tt.jpg","",""
"null","../img/gs/358gs.jpg","null","reveal","image-keyboard-response","178","520673","0.0-6.0-4.24","2364319","co37528","norming","","","","","","",""
"null","../img/tt/358tt.jpg","null","mooney2","image-keyboard-response","179","522676","0.0-6.0-5.24","2364319","co37528","norming","","","","","","",""
"2522.4800000005635","","","post_reveal_questions","survey-likert","180","525201","0.0-6.0-6.24","2364319","co37528","norming","","","{""aha"":3}","[0]","../img/tt/358tt.jpg","",""
"null","<div style=""font-size:60px;""> </div>","null","fixation","html-keyboard-response","181","525402","0.0-6.0-0.25","2364319","co37528","norming","","","","","","",""
"null","../img/tt/055tt.jpg","null","mooney1","image-keyboard-response","182","528414","0.0-6.0-1.25","2364319","co37528","norming","","","","","","",""
"6903.800000000047","","","post_mooney1_questions","survey-likert","183","535321","0.0-6.0-2.25","2364319","co37528","norming","","","{""curiosity"":1,""confidence"":6}","[0,1]","../img/tt/055tt.jpg","",""
"1398.0249999995576","","","recognition","survey-text","184","536720","0.0-6.0-3.25","2364319","co37528","norming","","","{""guess"":""saddle""}","","../img/tt/055tt.jpg","",""
"null","../img/gs/055gs.jpg","null","reveal","image-keyboard-response","185","538722","0.0-6.0-4.25","2364319","co37528","norming","","","","","","",""
"null","../img/tt/055tt.jpg","null","mooney2","image-keyboard-response","186","540727","0.0-6.0-5.25","2364319","co37528","norming","","","","","","",""
"1759.9500000005355","","","post_reveal_questions","survey-likert","187","542488","0.0-6.0-6.25","2364319","co37528","norming","","","{""aha"":0}","[0]","../img/tt/055tt.jpg","",""
"null","<div style=""font-size:60px;""> </div>","null","fixation","html-keyboard-response","188","542693","0.0-6.0-0.26","2364319","co37528","norming","","","","","","",""
"null","../img/tt/1232tt.jpg","null","mooney1","image-keyboard-response","189","545701","0.0-6.0-1.26","2364319","co37528","norming","","","","","","",""
"3824.859999999753","","","post_mooney1_questions","survey-likert","190","549525","0.0-6.0-2.26","2364319","co37528","norming","","","{""curiosity"":3,""confidence"":1}","[0,1]","../img/tt/1232tt.jpg","",""
"454.3800000001211","","","recognition","survey-text","191","549980","0.0-6.0-3.26","2364319","co37528","norming","","","{""guess"":""""}","","../img/tt/1232tt.jpg","",""
"null","../img/gs/1232gs.jpg","null","reveal","image-keyboard-response","192","551986","0.0-6.0-4.26","2364319","co37528","norming","","","","","","",""
"null","../img/tt/1232tt.jpg","null","mooney2","image-keyboard-response","193","553992","0.0-6.0-5.26","2364319","co37528","norming","","","","","","",""
"2690.524999999907","","","post_reveal_questions","survey-likert","194","556684","0.0-6.0-6.26","2364319","co37528","norming","","","{""aha"":4}","[0]","../img/tt/1232tt.jpg","",""
"null","<div style=""font-size:60px;""> </div>","null","fixation","html-keyboard-response","195","556886","0.0-6.0-0.27","2364319","co37528","norming","","","","","","",""
"null","../img/tt/112tt.jpg","null","mooney1","image-keyboard-response","196","559892","0.0-6.0-1.27","2364319","co37528","norming","","","","","","",""
"4373.45000000007","","","post_mooney1_questions","survey-likert","197","564268","0.0-6.0-2.27","2364319","co37528","norming","","","{""curiosity"":3,""confidence"":1}","[0,1]","../img/tt/112tt.jpg","",""
"827.7499999995343","","","recognition","survey-text","198","565100","0.0-6.0-3.27","2364319","co37528","norming","","","{""guess"":""""}","","../img/tt/112tt.jpg","",""
"null","../img/gs/112gs.jpg","null","reveal","image-keyboard-response","199","567105","0.0-6.0-4.27","2364319","co37528","norming","","","","","","",""
"null","../img/tt/112tt.jpg","null","mooney2","image-keyboard-response","200","569110","0.0-6.0-5.27","2364319","co37528","norming","","","","","","",""
"3044.0650000000605","","","post_reveal_questions","survey-likert","201","572156","0.0-6.0-6.27","2364319","co37528","norming","","","{""aha"":5}","[0]","../img/tt/112tt.jpg","",""
"null","<div style=""font-size:60px;""> </div>","null","fixation","html-keyboard-response","202","572367","0.0-6.0-0.28","2364319","co37528","norming","","","","","","",""
"null","../img/tt/010tt.jpg","null","mooney1","image-keyboard-response","203","575371","0.0-6.0-1.28","2364319","co37528","norming","","","","","","",""
"4407.290000000154","","","post_mooney1_questions","survey-likert","204","579780","0.0-6.0-2.28","2364319","co37528","norming","","","{""curiosity"":1,""confidence"":1}","[0,1]","../img/tt/010tt.jpg","",""
"941.8850000002421","","","recognition","survey-text","205","580724","0.0-6.0-3.28","2364319","co37528","norming","","","{""guess"":""""}","","../img/tt/010tt.jpg","",""
"null","../img/gs/010gs.jpg","null","reveal","image-keyboard-response","206","582725","0.0-6.0-4.28","2364319","co37528","norming","","","","","","",""
"null","../img/tt/010tt.jpg","null","mooney2","image-keyboard-response","207","584734","0.0-6.0-5.28","2364319","co37528","norming","","","","","","",""
"3963.939999999595","","","post_reveal_questions","survey-likert","208","588700","0.0-6.0-6.28","2364319","co37528","norming","","","{""aha"":5}","[0]","../img/tt/010tt.jpg","",""
"null","<div style=""font-size:60px;""> </div>","null","fixation","html-keyboard-response","209","588908","0.0-6.0-0.29","2364319","co37528","norming","","","","","","",""
"null","../img/tt/1227tt.jpg","null","mooney1","image-keyboard-response","210","591912","0.0-6.0-1.29","2364319","co37528","norming","","","","","","",""
"5569.205000000657","","","post_mooney1_questions","survey-likert","211","597484","0.0-6.0-2.29","2364319","co37528","norming","","","{""curiosity"":5,""confidence"":1}","[0,1]","../img/tt/1227tt.jpg","",""
"958.2899999995716","","","recognition","survey-text","212","598444","0.0-6.0-3.29","2364319","co37528","norming","","","{""guess"":""""}","","../img/tt/1227tt.jpg","",""
"null","../img/gs/1227gs.jpg","null","reveal","image-keyboard-response","213","600452","0.0-6.0-4.29","2364319","co37528","norming","","","","","","",""
"null","../img/tt/1227tt.jpg","null","mooney2","image-keyboard-response","214","602454","0.0-6.0-5.29","2364319","co37528","norming","","","","","","",""
"1899.6649999999208","","","post_reveal_questions","survey-likert","215","604356","0.0-6.0-6.29","2364319","co37528","norming","","","{""aha"":6}","[0]","../img/tt/1227tt.jpg","",""
"null","<div style=""font-size:60px;""> </div>","null","fixation","html-keyboard-response","216","604562","0.0-6.0-0.30","2364319","co37528","norming","","","","","","",""
"null","../img/tt/1353tt.jpg","null","mooney1","image-keyboard-response","217","607569","0.0-6.0-1.30","2364319","co37528","norming","","","","","","",""
"6982.469999999856","","","post_mooney1_questions","survey-likert","218","614553","0.0-6.0-2.30","2364319","co37528","norming","","","{""curiosity"":6,""confidence"":1}","[0,1]","../img/tt/1353tt.jpg","",""
"981.7900000007357","","","recognition","survey-text","219","615536","0.0-6.0-3.30","2364319","co37528","norming","","","{""guess"":""art""}","","../img/tt/1353tt.jpg","",""
"null","../img/gs/1353gs.jpg","null","reveal","image-keyboard-response","220","617538","0.0-6.0-4.30","2364319","co37528","norming","","","","","","",""
"null","../img/tt/1353tt.jpg","null","mooney2","image-keyboard-response","221","619538","0.0-6.0-5.30","2364319","co37528","norming","","","","","","",""
"1861.230000000447","","","post_reveal_questions","survey-likert","222","621400","0.0-6.0-6.30","2364319","co37528","norming","","","{""aha"":6}","[0]","../img/tt/1353tt.jpg","",""
"null","<div style=""font-size:60px;""> </div>","null","fixation","html-keyboard-response","223","621602","0.0-6.0-0.31","2364319","co37528","norming","","","","","","",""
"null","../img/tt/1084tt.jpg","null","mooney1","image-keyboard-response","224","624605","0.0-6.0-1.31","2364319","co37528","norming","","","","","","",""
"3944.1400000004796","","","post_mooney1_questions","survey-likert","225","628552","0.0-6.0-2.31","2364319","co37528","norming","","","{""curiosity"":2,""confidence"":3}","[0,1]","../img/tt/1084tt.jpg","",""
"5510.260000000009","","","recognition","survey-text","226","634064","0.0-6.0-3.31","2364319","co37528","norming","","","{""guess"":""table""}","","../img/tt/1084tt.jpg","",""
"null","../img/gs/1084gs.jpg","null","reveal","image-keyboard-response","227","636066","0.0-6.0-4.31","2364319","co37528","norming","","","","","","",""
"null","../img/tt/1084tt.jpg","null","mooney2","image-keyboard-response","228","638074","0.0-6.0-5.31","2364319","co37528","norming","","","","","","",""
"3131.664999999921","","","post_reveal_questions","survey-likert","229","641208","0.0-6.0-6.31","2364319","co37528","norming","","","{""aha"":1}","[0]","../img/tt/1084tt.jpg","",""
"null","<div style=""font-size:60px;""> </div>","null","fixation","html-keyboard-response","230","641410","0.0-6.0-0.32","2364319","co37528","norming","","","","","","",""
"null","../img/tt/270tt.jpg","null","mooney1","image-keyboard-response","231","644420","0.0-6.0-1.32","2364319","co37528","norming","","","","","","",""
"6313.724999999977","","","post_mooney1_questions","survey-likert","232","650737","0.0-6.0-2.32","2364319","co37528","norming","","","{""curiosity"":5,""confidence"":2}","[0,1]","../img/tt/270tt.jpg","",""
"1325.5549999994691","","","recognition","survey-text","233","652064","0.0-6.0-3.32","2364319","co37528","norming","","","{""guess"":""food""}","","../img/tt/270tt.jpg","",""
"null","../img/gs/270gs.jpg","null","reveal","image-keyboard-response","234","654065","0.0-6.0-4.32","2364319","co37528","norming","","","","","","",""
"null","../img/tt/270tt.jpg","null","mooney2","image-keyboard-response","235","656068","0.0-6.0-5.32","2364319","co37528","norming","","","","","","",""
"1633.7649999995483","","","post_reveal_questions","survey-likert","236","657704","0.0-6.0-6.32","2364319","co37528","norming","","","{""aha"":6}","[0]","../img/tt/270tt.jpg","",""
"null","<div style=""font-size:60px;""> </div>","null","fixation","html-keyboard-response","237","657906","0.0-6.0-0.33","2364319","co37528","norming","","","","","","",""
"null","../img/tt/406tt.jpg","null","mooney1","image-keyboard-response","238","660916","0.0-6.0-1.33","2364319","co37528","norming","","","","","","",""
"5457.429999999469","","","post_mooney1_questions","survey-likert","239","666377","0.0-6.0-2.33","2364319","co37528","norming","","","{""curiosity"":5,""confidence"":1}","[0,1]","../img/tt/406tt.jpg","",""
"2069.95000000007","","","recognition","survey-text","240","668448","0.0-6.0-3.33","2364319","co37528","norming","","","{""guess"":""bat""}","","../img/tt/406tt.jpg","",""
"null","../img/gs/406gs.jpg","null","reveal","image-keyboard-response","241","670450","0.0-6.0-4.33","2364319","co37528","norming","","","","","","",""
"null","../img/tt/406tt.jpg","null","mooney2","image-keyboard-response","242","672460","0.0-6.0-5.33","2364319","co37528","norming","","","","","","",""
"2105.68499999959","","","post_reveal_questions","survey-likert","243","674568","0.0-6.0-6.33","2364319","co37528","norming","","","{""aha"":6}","[0]","../img/tt/406tt.jpg","",""
"null","<div style=""font-size:60px;""> </div>","null","fixation","html-keyboard-response","244","674777","0.0-6.0-0.34","2364319","co37528","norming","","","","","","",""
"null","../img/tt/053tt.jpg","null","mooney1","image-keyboard-response","245","677781","0.0-6.0-1.34","2364319","co37528","norming","","","","","","",""
"4745.0350000008475","","","post_mooney1_questions","survey-likert","246","682528","0.0-6.0-2.34","2364319","co37528","norming","","","{""curiosity"":5,""confidence"":1}","[0,1]","../img/tt/053tt.jpg","",""
"1438.1500000000233","","","recognition","survey-text","247","683968","0.0-6.0-3.34","2364319","co37528","norming","","","{""guess"":""grot""}","","../img/tt/053tt.jpg","",""
"null","../img/gs/053gs.jpg","null","reveal","image-keyboard-response","248","685972","0.0-6.0-4.34","2364319","co37528","norming","","","","","","",""
"null","../img/tt/053tt.jpg","null","mooney2","image-keyboard-response","249","687973","0.0-6.0-5.34","2364319","co37528","norming","","","","","","",""
"2112.8300000000745","","","post_reveal_questions","survey-likert","250","690088","0.0-6.0-6.34","2364319","co37528","norming","","","{""aha"":3}","[0]","../img/tt/053tt.jpg","",""
"null","<div style=""font-size:60px;""> </div>","null","fixation","html-keyboard-response","251","690299","0.0-6.0-0.35","2364319","co37528","norming","","","","","","",""
"null","../img/tt/1161tt.jpg","null","mooney1","image-keyboard-response","252","693309","0.0-6.0-1.35","2364319","co37528","norming","","","","","","",""
"4440.695000000298","","","post_mooney1_questions","survey-likert","253","697753","0.0-6.0-2.35","2364319","co37528","norming","","","{""curiosity"":1,""confidence"":4}","[0,1]","../img/tt/1161tt.jpg","",""
"1957.9249999996973","","","recognition","survey-text","254","699712","0.0-6.0-3.35","2364319","co37528","norming","","","{""guess"":""climbing""}","","../img/tt/1161tt.jpg","",""
"null","../img/gs/1161gs.jpg","null","reveal","image-keyboard-response","255","701718","0.0-6.0-4.35","2364319","co37528","norming","","","","","","",""
"null","../img/tt/1161tt.jpg","null","mooney2","image-keyboard-response","256","703721","0.0-6.0-5.35","2364319","co37528","norming","","","","","","",""
"1573.4849999998696","","","post_reveal_questions","survey-likert","257","705296","0.0-6.0-6.35","2364319","co37528","norming","","","{""aha"":5}","[0]","../img/tt/1161tt.jpg","",""
"null","<div style=""font-size:60px;""> </div>","null","fixation","html-keyboard-response","258","705504","0.0-6.0-0.36","2364319","co37528","norming","","","","","","",""
"null","../img/tt/1224tt.jpg","null","mooney1","image-keyboard-response","259","708505","0.0-6.0-1.36","2364319","co37528","norming","","","","","","",""
"3501.0600000005215","","","post_mooney1_questions","survey-likert","260","712008","0.0-6.0-2.36","2364319","co37528","norming","","","{""curiosity"":1,""confidence"":4}","[0,1]","../img/tt/1224tt.jpg","",""
"1702.2600000000093","","","recognition","survey-text","261","713712","0.0-6.0-3.36","2364319","co37528","norming","","","{""guess"":""person""}","","../img/tt/1224tt.jpg","",""
"null","../img/gs/1224gs.jpg","null","reveal","image-keyboard-response","262","715714","0.0-6.0-4.36","2364319","co37528","norming","","","","","","",""
"null","../img/tt/1224tt.jpg","null","mooney2","image-keyboard-response","263","717716","0.0-6.0-5.36","2364319","co37528","norming","","","","","","",""
"1906.16500000027","","","post_reveal_questions","survey-likert","264","719624","0.0-6.0-6.36","2364319","co37528","norming","","","{""aha"":1}","[0]","../img/tt/1224tt.jpg","",""
"null","<div style=""font-size:60px;""> </div>","null","fixation","html-keyboard-response","265","719829","0.0-6.0-0.37","2364319","co37528","norming","","","","","","",""
"null","../img/tt/405tt.jpg","null","mooney1","image-keyboard-response","266","722837","0.0-6.0-1.37","2364319","co37528","norming","","","","","","",""
"3816.940000000526","","","post_mooney1_questions","survey-likert","267","726656","0.0-6.0-2.37","2364319","co37528","norming","","","{""curiosity"":6,""confidence"":1}","[0,1]","../img/tt/405tt.jpg","",""
"462.3249999994878","","","recognition","survey-text","268","727120","0.0-6.0-3.37","2364319","co37528","norming","","","{""guess"":""""}","","../img/tt/405tt.jpg","",""
"null","../img/gs/405gs.jpg","null","reveal","image-keyboard-response","269","729125","0.0-6.0-4.37","2364319","co37528","norming","","","","","","",""
"null","../img/tt/405tt.jpg","null","mooney2","image-keyboard-response","270","731127","0.0-6.0-5.37","2364319","co37528","norming","","","","","","",""
"1872.0100000000093","","","post_reveal_questions","survey-likert","271","733000","0.0-6.0-6.37","2364319","co37528","norming","","","{""aha"":6}","[0]","../img/tt/405tt.jpg","",""
"null","<div style=""font-size:60px;""> </div>","null","fixation","html-keyboard-response","272","733203","0.0-6.0-0.38","2364319","co37528","norming","","","","","","",""
"null","../img/tt/189tt.jpg","null","mooney1","image-keyboard-response","273","736208","0.0-6.0-1.38","2364319","co37528","norming","","","","","","",""
"7365.534999999916","","","post_mooney1_questions","survey-likert","274","743576","0.0-6.0-2.38","2364319","co37528","norming","","","{""curiosity"":4,""confidence"":2}","[0,1]","../img/tt/189tt.jpg","",""
"3670.3299999998417","","","recognition","survey-text","275","747248","0.0-6.0-3.38","2364319","co37528","norming","","","{""guess"":""horse""}","","../img/tt/189tt.jpg","",""
"null","../img/gs/189gs.jpg","null","reveal","image-keyboard-response","276","749249","0.0-6.0-4.38","2364319","co37528","norming","","","","","","",""
"null","../img/tt/189tt.jpg","null","mooney2","image-keyboard-response","277","751256","0.0-6.0-5.38","2364319","co37528","norming","","","","","","",""
"1916.2449999994133","","","post_reveal_questions","survey-likert","278","753176","0.0-6.0-6.38","2364319","co37528","norming","","","{""aha"":6}","[0]","../img/tt/189tt.jpg","",""
"null","<div style=""font-size:60px;""> </div>","null","fixation","html-keyboard-response","279","753377","0.0-6.0-0.39","2364319","co37528","norming","","","","","","",""
"null","../img/tt/064tt.jpg","null","mooney1","image-keyboard-response","280","756381","0.0-6.0-1.39","2364319","co37528","norming","","","","","","",""
"4904.190000000177","","","post_mooney1_questions","survey-likert","281","761288","0.0-6.0-2.39","2364319","co37528","norming","","","{""curiosity"":5,""confidence"":0}","[0,1]","../img/tt/064tt.jpg","",""
"1685.9799999992829","","","recognition","survey-text","282","762976","0.0-6.0-3.39","2364319","co37528","norming","","","{""guess"":""animal""}","","../img/tt/064tt.jpg","",""
"null","../img/gs/064gs.jpg","null","reveal","image-keyboard-response","283","764979","0.0-6.0-4.39","2364319","co37528","norming","","","","","","",""
"null","../img/tt/064tt.jpg","null","mooney2","image-keyboard-response","284","766981","0.0-6.0-5.39","2364319","co37528","norming","","","","","","",""
"2064.3700000001118","","","post_reveal_questions","survey-likert","285","769048","0.0-6.0-6.39","2364319","co37528","norming","","","{""aha"":6}","[0]","../img/tt/064tt.jpg","",""
"null","<div style=""font-size:60px;""> </div>","null","fixation","html-keyboard-response","286","769251","0.0-6.0-0.40","2364319","co37528","norming","","","","","","",""
"null","../img/tt/080tt.jpg","null","mooney1","image-keyboard-response","287","772255","0.0-6.0-1.40","2364319","co37528","norming","","","","","","",""
"5142.334999999497","","","post_mooney1_questions","survey-likert","288","777400","0.0-6.0-2.40","2364319","co37528","norming","","","{""curiosity"":4,""confidence"":1}","[0,1]","../img/tt/080tt.jpg","",""
"1510.1500000000233","","","recognition","survey-text","289","778912","0.0-6.0-3.40","2364319","co37528","norming","","","{""guess"":""ice""}","","../img/tt/080tt.jpg","",""
"null","../img/gs/080gs.jpg","null","reveal","image-keyboard-response","290","780916","0.0-6.0-4.40","2364319","co37528","norming","","","","","","",""
"null","../img/tt/080tt.jpg","null","mooney2","image-keyboard-response","291","782917","0.0-6.0-5.40","2364319","co37528","norming","","","","","","",""
"1480.4749999993946","","","post_reveal_questions","survey-likert","292","784400","0.0-6.0-6.40","2364319","co37528","norming","","","{""aha"":5}","[0]","../img/tt/080tt.jpg","",""
"null","<div style=""font-size:60px;""> </div>","null","fixation","html-keyboard-response","293","784602","0.0-6.0-0.41","2364319","co37528","norming","","","","","","",""
"null","../img/tt/1006tt.jpg","null","mooney1","image-keyboard-response","294","787605","0.0-6.0-1.41","2364319","co37528","norming","","","","","","",""
"5025.330000000424","","","post_mooney1_questions","survey-likert","295","792624","0.0-6.0-2.41","2364319","co37528","norming","","","{""curiosity"":5,""confidence"":2}","[0,1]","../img/tt/1006tt.jpg","",""
"2166.035000000149","","","recognition","survey-text","296","794792","0.0-6.0-3.41","2364319","co37528","norming","","","{""guess"":""landscape""}","","../img/tt/1006tt.jpg","",""
"null","../img/gs/1006gs.jpg","null","reveal","image-keyboard-response","297","796794","0.0-6.0-4.41","2364319","co37528","norming","","","","","","",""
"null","../img/tt/1006tt.jpg","null","mooney2","image-keyboard-response","298","798794","0.0-6.0-5.41","2364319","co37528","norming","","","","","","",""
"1955.0999999992782","","","post_reveal_questions","survey-likert","299","800752","0.0-6.0-6.41","2364319","co37528","norming","","","{""aha"":6}","[0]","../img/tt/1006tt.jpg","",""
"null","<div style=""font-size:60px;""> </div>","null","fixation","html-keyboard-response","300","800953","0.0-6.0-0.42","2364319","co37528","norming","","","","","","",""
"null","../img/tt/1189tt.jpg","null","mooney1","image-keyboard-response","301","803958","0.0-6.0-1.42","2364319","co37528","norming","","","","","","",""
"3863.2299999999814","","","post_mooney1_questions","survey-likert","302","807824","0.0-6.0-2.42","2364319","co37528","norming","","","{""curiosity"":4,""confidence"":0}","[0,1]","../img/tt/1189tt.jpg","",""
"550.0000000001164","","","recognition","survey-text","303","808375","0.0-6.0-3.42","2364319","co37528","norming","","","{""guess"":""""}","","../img/tt/1189tt.jpg","",""
"null","../img/gs/1189gs.jpg","null","reveal","image-keyboard-response","304","810381","0.0-6.0-4.42","2364319","co37528","norming","","","","","","",""
"null","../img/tt/1189tt.jpg","null","mooney2","image-keyboard-response","305","812389","0.0-6.0-5.42","2364319","co37528","norming","","","","","","",""
"1766.2000000000698","","","post_reveal_questions","survey-likert","306","814160","0.0-6.0-6.42","2364319","co37528","norming","","","{""aha"":0}","[0]","../img/tt/1189tt.jpg","",""
"null","<div style=""font-size:60px;""> </div>","null","fixation","html-keyboard-response","307","814361","0.0-6.0-0.43","2364319","co37528","norming","","","","","","",""
"null","../img/tt/082tt.jpg","null","mooney1","image-keyboard-response","308","817369","0.0-6.0-1.43","2364319","co37528","norming","","","","","","",""
"4484.14000000048","","","post_mooney1_questions","survey-likert","309","821856","0.0-6.0-2.43","2364319","co37528","norming","","","{""curiosity"":4,""confidence"":4}","[0,1]","../img/tt/082tt.jpg","",""
"1573.6049999996321","","","recognition","survey-text","310","823431","0.0-6.0-3.43","2364319","co37528","norming","","","{""guess"":""bird""}","","../img/tt/082tt.jpg","",""
"null","../img/gs/082gs.jpg","null","reveal","image-keyboard-response","311","825440","0.0-6.0-4.43","2364319","co37528","norming","","","","","","",""
"null","../img/tt/082tt.jpg","null","mooney2","image-keyboard-response","312","827454","0.0-6.0-5.43","2364319","co37528","norming","","","","","","",""
"2072.3400000005495","","","post_reveal_questions","survey-likert","313","829527","0.0-6.0-6.43","2364319","co37528","norming","","","{""aha"":4}","[0]","../img/tt/082tt.jpg","",""
"null","<div style=""font-size:60px;""> </div>","null","fixation","html-keyboard-response","314","829735","0.0-6.0-0.44","2364319","co37528","norming","","","","","","",""
"null","../img/tt/549tt.jpg","null","mooney1","image-keyboard-response","315","832741","0.0-6.0-1.44","2364319","co37528","norming","","","","","","",""
"3336.659999999916","","","post_mooney1_questions","survey-likert","316","836079","0.0-6.0-2.44","2364319","co37528","norming","","","{""curiosity"":4,""confidence"":1}","[0,1]","../img/tt/549tt.jpg","",""
"437.98499999952037","","","recognition","survey-text","317","836519","0.0-6.0-3.44","2364319","co37528","norming","","","{""guess"":""""}","","../img/tt/549tt.jpg","",""
"null","../img/gs/549gs.jpg","null","reveal","image-keyboard-response","318","838526","0.0-6.0-4.44","2364319","co37528","norming","","","","","","",""
"null","../img/tt/549tt.jpg","null","mooney2","image-keyboard-response","319","840529","0.0-6.0-5.44","2364319","co37528","norming","","","","","","",""
"2580.8800000004703","","","post_reveal_questions","survey-likert","320","843111","0.0-6.0-6.44","2364319","co37528","norming","","","{""aha"":2}","[0]","../img/tt/549tt.jpg","",""
"null","<div style=""font-size:60px;""> </div>","null","fixation","html-keyboard-response","321","843316","0.0-6.0-0.45","2364319","co37528","norming","","","","","","",""
"null","../img/tt/1278tt.jpg","null","mooney1","image-keyboard-response","322","846321","0.0-6.0-1.45","2364319","co37528","norming","","","","","","",""
"6461.939999999246","","","post_mooney1_questions","survey-likert","323","852787","0.0-6.0-2.45","2364319","co37528","norming","","","{""curiosity"":5,""confidence"":0}","[0,1]","../img/tt/1278tt.jpg","",""
"1398.1949999998324","","","recognition","survey-text","324","854187","0.0-6.0-3.45","2364319","co37528","norming","","","{""guess"":""woma""}","","../img/tt/1278tt.jpg","",""
"null","../img/gs/1278gs.jpg","null","reveal","image-keyboard-response","325","856188","0.0-6.0-4.45","2364319","co37528","norming","","","","","","",""
"null","../img/tt/1278tt.jpg","null","mooney2","image-keyboard-response","326","858192","0.0-6.0-5.45","2364319","co37528","norming","","","","","","",""
"3312.2450000001118","","","post_reveal_questions","survey-likert","327","861507","0.0-6.0-6.45","2364319","co37528","norming","","","{""aha"":5}","[0]","../img/tt/1278tt.jpg","",""
"null","<div style=""font-size:60px;""> </div>","null","fixation","html-keyboard-response","328","861711","0.0-6.0-0.46","2364319","co37528","norming","","","","","","",""
"null","../img/tt/1070tt.jpg","null","mooney1","image-keyboard-response","329","864715","0.0-6.0-1.46","2364319","co37528","norming","","","","","","",""
"3653.444999999949","","","post_mooney1_questions","survey-likert","330","868371","0.0-6.0-2.46","2364319","co37528","norming","","","{""curiosity"":4,""confidence"":5}","[0,1]","../img/tt/1070tt.jpg","",""
"1366.140000000014","","","recognition","survey-text","331","869739","0.0-6.0-3.46","2364319","co37528","norming","","","{""guess"":""pie""}","","../img/tt/1070tt.jpg","",""
"null","../img/gs/1070gs.jpg","null","reveal","image-keyboard-response","332","871741","0.0-6.0-4.46","2364319","co37528","norming","","","","","","",""
"null","../img/tt/1070tt.jpg","null","mooney2","image-keyboard-response","333","873743","0.0-6.0-5.46","2364319","co37528","norming","","","","","","",""
"1954.3949999996694","","","post_reveal_questions","survey-likert","334","875699","0.0-6.0-6.46","2364319","co37528","norming","","","{""aha"":1}","[0]","../img/tt/1070tt.jpg","",""
"null","<div style=""font-size:60px;""> </div>","null","fixation","html-keyboard-response","335","875902","0.0-6.0-0.47","2364319","co37528","norming","","","","","","",""
"null","../img/tt/301tt.jpg","null","mooney1","image-keyboard-response","336","878907","0.0-6.0-1.47","2364319","co37528","norming","","","","","","",""
"3612.979999999865","","","post_mooney1_questions","survey-likert","337","882523","0.0-6.0-2.47","2364319","co37528","norming","","","{""curiosity"":3,""confidence"":2}","[0,1]","../img/tt/301tt.jpg","",""
"1869.8300000005402","","","recognition","survey-text","338","884395","0.0-6.0-3.47","2364319","co37528","norming","","","{""guess"":""cinema""}","","../img/tt/301tt.jpg","",""
"null","../img/gs/301gs.jpg","null","reveal","image-keyboard-response","339","886396","0.0-6.0-4.47","2364319","co37528","norming","","","","","","",""
"null","../img/tt/301tt.jpg","null","mooney2","image-keyboard-response","340","888398","0.0-6.0-5.47","2364319","co37528","norming","","","","","","",""
"1827.5700000004144","","","post_reveal_questions","survey-likert","341","890227","0.0-6.0-6.47","2364319","co37528","norming","","","{""aha"":3}","[0]","../img/tt/301tt.jpg","",""
"null","<div style=""font-size:60px;""> </div>","null","fixation","html-keyboard-response","342","890433","0.0-6.0-0.48","2364319","co37528","norming","","","","","","",""
"null","../img/tt/044tt.jpg","null","mooney1","image-keyboard-response","343","893437","0.0-6.0-1.48","2364319","co37528","norming","","","","","","",""
"4491.145000000019","","","post_mooney1_questions","survey-likert","344","897931","0.0-6.0-2.48","2364319","co37528","norming","","","{""curiosity"":2,""confidence"":3}","[0,1]","../img/tt/044tt.jpg","",""
"1117.8250000003027","","","recognition","survey-text","345","899051","0.0-6.0-3.48","2364319","co37528","norming","","","{""guess"":""pc""}","","../img/tt/044tt.jpg","",""
"null","../img/gs/044gs.jpg","null","reveal","image-keyboard-response","346","901058","0.0-6.0-4.48","2364319","co37528","norming","","","","","","",""
"null","../img/tt/044tt.jpg","null","mooney2","image-keyboard-response","347","903059","0.0-6.0-5.48","2364319","co37528","norming","","","","","","",""
"2541.7849999994505","","","post_reveal_questions","survey-likert","348","905603","0.0-6.0-6.48","2364319","co37528","norming","","","{""aha"":5}","[0]","../img/tt/044tt.jpg","",""
"null","<div style=""font-size:60px;""> </div>","null","fixation","html-keyboard-response","349","905804","0.0-6.0-0.49","2364319","co37528","norming","","","","","","",""
"null","../img/tt/1260tt.jpg","null","mooney1","image-keyboard-response","350","908807","0.0-6.0-1.49","2364319","co37528","norming","","","","","","",""
"6217.070000000647","","","post_mooney1_questions","survey-likert","351","915032","0.0-6.0-2.49","2364319","co37528","norming","","","{""curiosity"":4,""confidence"":3}","[0,1]","../img/tt/1260tt.jpg","",""
"1701.7900000001537","","","recognition","survey-text","352","916736","0.0-6.0-3.49","2364319","co37528","norming","","","{""guess"":""reptile""}","","../img/tt/1260tt.jpg","",""
"null","../img/gs/1260gs.jpg","null","reveal","image-keyboard-response","353","918737","0.0-6.0-4.49","2364319","co37528","norming","","","","","","",""
"null","../img/tt/1260tt.jpg","null","mooney2","image-keyboard-response","354","920749","0.0-6.0-5.49","2364319","co37528","norming","","","","","","",""
"1808.7650000007125","","","post_reveal_questions","survey-likert","355","922560","0.0-6.0-6.49","2364319","co37528","norming","","","{""aha"":6}","[0]","../img/tt/1260tt.jpg","",""
"null","<div style=""font-size:60px;""> </div>","null","fixation","html-keyboard-response","356","922765","0.0-6.0-0.50","2364319","co37528","norming","","","","","","",""
"null","../img/tt/079tt.jpg","null","mooney1","image-keyboard-response","357","925776","0.0-6.0-1.50","2364319","co37528","norming","","","","","","",""
"3531.9199999993434","","","post_mooney1_questions","survey-likert","358","929312","0.0-6.0-2.50","2364319","co37528","norming","","","{""curiosity"":5,""confidence"":4}","[0,1]","../img/tt/079tt.jpg","",""
"1278.2399999996414","","","recognition","survey-text","359","930592","0.0-6.0-3.50","2364319","co37528","norming","","","{""guess"":""bear""}","","../img/tt/079tt.jpg","",""
"null","../img/gs/079gs.jpg","null","reveal","image-keyboard-response","360","932593","0.0-6.0-4.50","2364319","co37528","norming","","","","","","",""
"null","../img/tt/079tt.jpg","null","mooney2","image-keyboard-response","361","934596","0.0-6.0-5.50","2364319","co37528","norming","","","","","","",""
"1338.0250000000233","","","post_reveal_questions","survey-likert","362","935936","0.0-6.0-6.50","2364319","co37528","norming","","","{""aha"":3}","[0]","../img/tt/079tt.jpg","",""
"null","<div style=""font-size:60px;""> </div>","null","fixation","html-keyboard-response","363","936138","0.0-6.0-0.51","2364319","co37528","norming","","","","","","",""
"null","../img/tt/1242tt.jpg","null","mooney1","image-keyboard-response","364","939147","0.0-6.0-1.51","2364319","co37528","norming","","","","","","",""
"4274.379999999772","","","post_mooney1_questions","survey-likert","365","943424","0.0-6.0-2.51","2364319","co37528","norming","","","{""curiosity"":4,""confidence"":1}","[0,1]","../img/tt/1242tt.jpg","",""
"670.1300000003539","","","recognition","survey-text","366","944096","0.0-6.0-3.51","2364319","co37528","norming","","","{""guess"":""""}","","../img/tt/1242tt.jpg","",""
"null","../img/gs/1242gs.jpg","null","reveal","image-keyboard-response","367","946097","0.0-6.0-4.51","2364319","co37528","norming","","","","","","",""
"null","../img/tt/1242tt.jpg","null","mooney2","image-keyboard-response","368","948098","0.0-6.0-5.51","2364319","co37528","norming","","","","","","",""
"1979.1249999997672","","","post_reveal_questions","survey-likert","369","950080","0.0-6.0-6.51","2364319","co37528","norming","","","{""aha"":5}","[0]","../img/tt/1242tt.jpg","",""
"null","<div style=""font-size:60px;""> </div>","null","fixation","html-keyboard-response","370","950282","0.0-6.0-0.52","2364319","co37528","norming","","","","","","",""
"null","../img/tt/353tt.jpg","null","mooney1","image-keyboard-response","371","953289","0.0-6.0-1.52","2364319","co37528","norming","","","","","","",""
"3996.2050000003073","","","post_mooney1_questions","survey-likert","372","957288","0.0-6.0-2.52","2364319","co37528","norming","","","{""curiosity"":5,""confidence"":2}","[0,1]","../img/tt/353tt.jpg","",""
"1494.1699999999255","","","recognition","survey-text","373","958784","0.0-6.0-3.52","2364319","co37528","norming","","","{""guess"":""animal""}","","../img/tt/353tt.jpg","",""
"null","../img/gs/353gs.jpg","null","reveal","image-keyboard-response","374","960786","0.0-6.0-4.52","2364319","co37528","norming","","","","","","",""
"null","../img/tt/353tt.jpg","null","mooney2","image-keyboard-response","375","962789","0.0-6.0-5.52","2364319","co37528","norming","","","","","","",""
"1632.9699999996228","","","post_reveal_questions","survey-likert","376","964424","0.0-6.0-6.52","2364319","co37528","norming","","","{""aha"":5}","[0]","../img/tt/353tt.jpg","",""
"null","<div style=""font-size:60px;""> </div>","null","fixation","html-keyboard-response","377","964632","0.0-6.0-0.53","2364319","co37528","norming","","","","","","",""
"null","../img/tt/040tt.jpg","null","mooney1","image-keyboard-response","378","967644","0.0-6.0-1.53","2364319","co37528","norming","","","","","","",""
"5577.454999999609","","","post_mooney1_questions","survey-likert","379","973226","0.0-6.0-2.53","2364319","co37528","norming","","","{""curiosity"":5,""confidence"":3}","[0,1]","../img/tt/040tt.jpg","",""
"3638.0899999995017","","","recognition","survey-text","380","976866","0.0-6.0-3.53","2364319","co37528","norming","","","{""guess"":""husky""}","","../img/tt/040tt.jpg","",""
"null","../img/gs/040gs.jpg","null","reveal","image-keyboard-response","381","978869","0.0-6.0-4.53","2364319","co37528","norming","","","","","","",""
"null","../img/tt/040tt.jpg","null","mooney2","image-keyboard-response","382","980870","0.0-6.0-5.53","2364319","co37528","norming","","","","","","",""
"2593.179999999935","","","post_reveal_questions","survey-likert","383","983466","0.0-6.0-6.53","2364319","co37528","norming","","","{""aha"":4}","[0]","../img/tt/040tt.jpg","",""
"null","<div style=""font-size:60px;""> </div>","null","fixation","html-keyboard-response","384","983667","0.0-6.0-0.54","2364319","co37528","norming","","","","","","",""
"null","../img/tt/1061tt.jpg","null","mooney1","image-keyboard-response","385","986674","0.0-6.0-1.54","2364319","co37528","norming","","","","","","",""
"4852.544999999693","","","post_mooney1_questions","survey-likert","386","991530","0.0-6.0-2.54","2364319","co37528","norming","","","{""curiosity"":3,""confidence"":2}","[0,1]","../img/tt/1061tt.jpg","",""
"5125.9049999999115","","","recognition","survey-text","387","996658","0.0-6.0-3.54","2364319","co37528","norming","","","{""guess"":""person and dining table""}","","../img/tt/1061tt.jpg","",""
"null","../img/gs/1061gs.jpg","null","reveal","image-keyboard-response","388","998660","0.0-6.0-4.54","2364319","co37528","norming","","","","","","",""
"null","../img/tt/1061tt.jpg","null","mooney2","image-keyboard-response","389","1000662","0.0-6.0-5.54","2364319","co37528","norming","","","","","","",""
"1273.995000000461","","","post_reveal_questions","survey-likert","390","1001938","0.0-6.0-6.54","2364319","co37528","norming","","","{""aha"":2}","[0]","../img/tt/1061tt.jpg","",""
"null","<div style=""font-size:60px;""> </div>","null","fixation","html-keyboard-response","391","1002142","0.0-6.0-0.55","2364319","co37528","norming","","","","","","",""
"null","../img/tt/124tt.jpg","null","mooney1","image-keyboard-response","392","1005144","0.0-6.0-1.55","2364319","co37528","norming","","","","","","",""
"4949.980000000331","","","post_mooney1_questions","survey-likert","393","1010098","0.0-6.0-2.55","2364319","co37528","norming","","","{""curiosity"":5,""confidence"":5}","[0,1]","../img/tt/124tt.jpg","",""
"1821.8150000002934","","","recognition","survey-text","394","1011922","0.0-6.0-3.55","2364319","co37528","norming","","","{""guess"":""monkey""}","","../img/tt/124tt.jpg","",""
"null","../img/gs/124gs.jpg","null","reveal","image-keyboard-response","395","1013929","0.0-6.0-4.55","2364319","co37528","norming","","","","","","",""
"null","../img/tt/124tt.jpg","null","mooney2","image-keyboard-response","396","1015932","0.0-6.0-5.55","2364319","co37528","norming","","","","","","",""
"1403.9300000004005","","","post_reveal_questions","survey-likert","397","1017338","0.0-6.0-6.55","2364319","co37528","norming","","","{""aha"":3}","[0]","../img/tt/124tt.jpg","",""
"null","<div style=""font-size:60px;""> </div>","null","fixation","html-keyboard-response","398","1017539","0.0-6.0-0.56","2364319","co37528","norming","","","","","","",""
"null","../img/tt/1175tt.jpg","null","mooney1","image-keyboard-response","399","1020549","0.0-6.0-1.56","2364319","co37528","norming","","","","","","",""
"5129.824999999953","","","post_mooney1_questions","survey-likert","400","1025682","0.0-6.0-2.56","2364319","co37528","norming","","","{""curiosity"":2,""confidence"":4}","[0,1]","../img/tt/1175tt.jpg","",""
"1118.0649999995949","","","recognition","survey-text","401","1026802","0.0-6.0-3.56","2364319","co37528","norming","","","{""guess"":""table""}","","../img/tt/1175tt.jpg","",""
"null","../img/gs/1175gs.jpg","null","reveal","image-keyboard-response","402","1028805","0.0-6.0-4.56","2364319","co37528","norming","","","","","","",""
"null","../img/tt/1175tt.jpg","null","mooney2","image-keyboard-response","403","1030806","0.0-6.0-5.56","2364319","co37528","norming","","","","","","",""
"2329.7099999999627","","","post_reveal_questions","survey-likert","404","1033135","0.0-6.0-6.56","2364319","co37528","norming","","","{""aha"":4}","[0]","../img/tt/1175tt.jpg","",""
"null","<div style=""font-size:60px;""> </div>","null","fixation","html-keyboard-response","405","1033337","0.0-6.0-0.57","2364319","co37528","norming","","","","","","",""
"null","../img/tt/1027tt.jpg","null","mooney1","image-keyboard-response","406","1036345","0.0-6.0-1.57","2364319","co37528","norming","","","","","","",""
"4371.105000000214","","","post_mooney1_questions","survey-likert","407","1040719","0.0-6.0-2.57","2364319","co37528","norming","","","{""curiosity"":5,""confidence"":0}","[0,1]","../img/tt/1027tt.jpg","",""
"662.1000000004424","","","recognition","survey-text","408","1041383","0.0-6.0-3.57","2364319","co37528","norming","","","{""guess"":""""}","","../img/tt/1027tt.jpg","",""
"null","../img/gs/1027gs.jpg","null","reveal","image-keyboard-response","409","1043388","0.0-6.0-4.57","2364319","co37528","norming","","","","","","",""
"null","../img/tt/1027tt.jpg","null","mooney2","image-keyboard-response","410","1045396","0.0-6.0-5.57","2364319","co37528","norming","","","","","","",""
"1504.184999999823","","","post_reveal_questions","survey-likert","411","1046903","0.0-6.0-6.57","2364319","co37528","norming","","","{""aha"":1}","[0]","../img/tt/1027tt.jpg","",""
"null","<div style=""font-size:60px;""> </div>","null","fixation","html-keyboard-response","412","1047107","0.0-6.0-0.58","2364319","co37528","norming","","","","","","",""
"null","../img/tt/329tt.jpg","null","mooney1","image-keyboard-response","413","1050116","0.0-6.0-1.58","2364319","co37528","norming","","","","","","",""
"5551.924999999814","","","post_mooney1_questions","survey-likert","414","1055671","0.0-6.0-2.58","2364319","co37528","norming","","","{""curiosity"":5,""confidence"":0}","[0,1]","../img/tt/329tt.jpg","",""
"717.9150000002701","","","recognition","survey-text","415","1056391","0.0-6.0-3.58","2364319","co37528","norming","","","{""guess"":""""}","","../img/tt/329tt.jpg","",""
"null","../img/gs/329gs.jpg","null","reveal","image-keyboard-response","416","1058400","0.0-6.0-4.58","2364319","co37528","norming","","","","","","",""
"null","../img/tt/329tt.jpg","null","mooney2","image-keyboard-response","417","1060401","0.0-6.0-5.58","2364319","co37528","norming","","","","","","",""
"1868.059999999823","","","post_reveal_questions","survey-likert","418","1062271","0.0-6.0-6.58","2364319","co37528","norming","","","{""aha"":0}","[0]","../img/tt/329tt.jpg","",""
"null","<div style=""font-size:60px;""> </div>","null","fixation","html-keyboard-response","419","1062480","0.0-6.0-0.59","2364319","co37528","norming","","","","","","",""
"null","../img/tt/1205tt.jpg","null","mooney1","image-keyboard-response","420","1065484","0.0-6.0-1.59","2364319","co37528","norming","","","","","","",""
"4393.804999999702","","","post_mooney1_questions","survey-likert","421","1069879","0.0-6.0-2.59","2364319","co37528","norming","","","{""curiosity"":4,""confidence"":1}","[0,1]","../img/tt/1205tt.jpg","",""
"1862.0749999999534","","","recognition","survey-text","422","1071743","0.0-6.0-3.59","2364319","co37528","norming","","","{""guess"":""podium""}","","../img/tt/1205tt.jpg","",""
"null","../img/gs/1205gs.jpg","null","reveal","image-keyboard-response","423","1073745","0.0-6.0-4.59","2364319","co37528","norming","","","","","","",""
"null","../img/tt/1205tt.jpg","null","mooney2","image-keyboard-response","424","1075751","0.0-6.0-5.59","2364319","co37528","norming","","","","","","",""
"2238.5349999994505","","","post_reveal_questions","survey-likert","425","1077991","0.0-6.0-6.59","2364319","co37528","norming","","","{""aha"":3}","[0]","../img/tt/1205tt.jpg","",""
"null","<div style=""font-size:60px;""> </div>","null","fixation","html-keyboard-response","426","1078192","0.0-6.0-0.60","2364319","co37528","norming","","","","","","",""
"null","../img/tt/1211tt.jpg","null","mooney1","image-keyboard-response","427","1081194","0.0-6.0-1.60","2364319","co37528","norming","","","","","","",""
"3626.3499999996275","","","post_mooney1_questions","survey-likert","428","1084823","0.0-6.0-2.60","2364319","co37528","norming","","","{""curiosity"":4,""confidence"":1}","[0,1]","../img/tt/1211tt.jpg","",""
"2534.20999999973","","","recognition","survey-text","429","1087359","0.0-6.0-3.60","2364319","co37528","norming","","","{""guess"":""boat""}","","../img/tt/1211tt.jpg","",""
"null","../img/gs/1211gs.jpg","null","reveal","image-keyboard-response","430","1089367","0.0-6.0-4.60","2364319","co37528","norming","","","","","","",""
"null","../img/tt/1211tt.jpg","null","mooney2","image-keyboard-response","431","1091376","0.0-6.0-5.60","2364319","co37528","norming","","","","","","",""
"1676.3799999998882","","","post_reveal_questions","survey-likert","432","1093055","0.0-6.0-6.60","2364319","co37528","norming","","","{""aha"":3}","[0]","../img/tt/1211tt.jpg","",""
"null","<div style=""font-size:60px;""> </div>","null","fixation","html-keyboard-response","433","1093273","0.0-6.0-0.61","2364319","co37528","norming","","","","","","",""
"null","../img/tt/163tt.jpg","null","mooney1","image-keyboard-response","434","1096278","0.0-6.0-1.61","2364319","co37528","norming","","","","","","",""
"7500.594999999506","","","post_mooney1_questions","survey-likert","435","1103782","0.0-6.0-2.61","2364319","co37528","norming","","","{""curiosity"":4,""confidence"":1}","[0,1]","../img/tt/163tt.jpg","",""
"4126.185000000289","","","recognition","survey-text","436","1107910","0.0-6.0-3.61","2364319","co37528","norming","","","{""guess"":""something on a lap""}","","../img/tt/163tt.jpg","",""
"null","../img/gs/163gs.jpg","null","reveal","image-keyboard-response","437","1109920","0.0-6.0-4.61","2364319","co37528","norming","","","","","","",""
"null","../img/tt/163tt.jpg","null","mooney2","image-keyboard-response","438","1111921","0.0-6.0-5.61","2364319","co37528","norming","","","","","","",""
"2050.3199999993667","","","post_reveal_questions","survey-likert","439","1113974","0.0-6.0-6.61","2364319","co37528","norming","","","{""aha"":2}","[0]","../img/tt/163tt.jpg","",""
"null","<div style=""font-size:60px;""> </div>","null","fixation","html-keyboard-response","440","1114185","0.0-6.0-0.62","2364319","co37528","norming","","","","","","",""
"null","../img/tt/1236tt.jpg","null","mooney1","image-keyboard-response","441","1117188","0.0-6.0-1.62","2364319","co37528","norming","","","","","","",""
"5375.189999999711","","","post_mooney1_questions","survey-likert","442","1122566","0.0-6.0-2.62","2364319","co37528","norming","","","{""curiosity"":5,""confidence"":1}","[0,1]","../img/tt/1236tt.jpg","",""
"2350.1999999997206","","","recognition","survey-text","443","1124918","0.0-6.0-3.62","2364319","co37528","norming","","","{""guess"":""person""}","","../img/tt/1236tt.jpg","",""
"null","../img/gs/1236gs.jpg","null","reveal","image-keyboard-response","444","1126928","0.0-6.0-4.62","2364319","co37528","norming","","","","","","",""
"null","../img/tt/1236tt.jpg","null","mooney2","image-keyboard-response","445","1128930","0.0-6.0-5.62","2364319","co37528","norming","","","","","","",""
"2561.3950000004843","","","post_reveal_questions","survey-likert","446","1131494","0.0-6.0-6.62","2364319","co37528","norming","","","{""aha"":6}","[0]","../img/tt/1236tt.jpg","",""
"null","<div style=""font-size:60px;""> </div>","null","fixation","html-keyboard-response","447","1131695","0.0-6.0-0.63","2364319","co37528","norming","","","","","","",""
"null","../img/tt/1190tt.jpg","null","mooney1","image-keyboard-response","448","1134701","0.0-6.0-1.63","2364319","co37528","norming","","","","","","",""
"4648.344999999739","","","post_mooney1_questions","survey-likert","449","1139350","0.0-6.0-2.63","2364319","co37528","norming","","","{""curiosity"":5,""confidence"":0}","[0,1]","../img/tt/1190tt.jpg","",""
"414.00500000058673","","","recognition","survey-text","450","1139766","0.0-6.0-3.63","2364319","co37528","norming","","","{""guess"":""""}","","../img/tt/1190tt.jpg","",""
"null","../img/gs/1190gs.jpg","null","reveal","image-keyboard-response","451","1141773","0.0-6.0-4.63","2364319","co37528","norming","","","","","","",""
"null","../img/tt/1190tt.jpg","null","mooney2","image-keyboard-response","452","1143775","0.0-6.0-5.63","2364319","co37528","norming","","","","","","",""
"1956.5650000004098","","","post_reveal_questions","survey-likert","453","1145734","0.0-6.0-6.63","2364319","co37528","norming","","","{""aha"":5}","[0]","../img/tt/1190tt.jpg","",""
"null","<div style=""font-size:60px;""> </div>","null","fixation","html-keyboard-response","454","1145942","0.0-6.0-0.64","2364319","co37528","norming","","","","","","",""
"null","../img/tt/1247tt.jpg","null","mooney1","image-keyboard-response","455","1148948","0.0-6.0-1.64","2364319","co37528","norming","","","","","","",""
"3911.339999999618","","","post_mooney1_questions","survey-likert","456","1152862","0.0-6.0-2.64","2364319","co37528","norming","","","{""curiosity"":4,""confidence"":0}","[0,1]","../img/tt/1247tt.jpg","",""
"1102.010000000475","","","recognition","survey-text","457","1153968","0.0-6.0-3.64","2364319","co37528","norming","","","{""guess"":""""}","","../img/tt/1247tt.jpg","",""
"null","../img/gs/1247gs.jpg","null","reveal","image-keyboard-response","458","1155976","0.0-6.0-4.64","2364319","co37528","norming","","","","","","",""
"null","../img/tt/1247tt.jpg","null","mooney2","image-keyboard-response","459","1157978","0.0-6.0-5.64","2364319","co37528","norming","","","","","","",""
"2043.7549999996554","","","post_reveal_questions","survey-likert","460","1160024","0.0-6.0-6.64","2364319","co37528","norming","","","{""aha"":6}","[0]","../img/tt/1247tt.jpg","",""
"null","<div style=""font-size:60px;""> </div>","null","fixation","html-keyboard-response","461","1160233","0.0-6.0-0.65","2364319","co37528","norming","","","","","","",""
"null","../img/tt/496tt.jpg","null","mooney1","image-keyboard-response","462","1163236","0.0-6.0-1.65","2364319","co37528","norming","","","","","","",""
"5249.144999999786","","","post_mooney1_questions","survey-likert","463","1168489","0.0-6.0-2.65","2364319","co37528","norming","","","{""curiosity"":4,""confidence"":6}","[0,1]","../img/tt/496tt.jpg","",""
"1693.7850000003818","","","recognition","survey-text","464","1170184","0.0-6.0-3.65","2364319","co37528","norming","","","{""guess"":""pug""}","","../img/tt/496tt.jpg","",""
"null","../img/gs/496gs.jpg","null","reveal","image-keyboard-response","465","1172186","0.0-6.0-4.65","2364319","co37528","norming","","","","","","",""
"null","../img/tt/496tt.jpg","null","mooney2","image-keyboard-response","466","1174192","0.0-6.0-5.65","2364319","co37528","norming","","","","","","",""
"1381.4799999999814","","","post_reveal_questions","survey-likert","467","1175576","0.0-6.0-6.65","2364319","co37528","norming","","","{""aha"":1}","[0]","../img/tt/496tt.jpg","",""
"null","<div style=""font-size:60px;""> </div>","null","fixation","html-keyboard-response","468","1175781","0.0-6.0-0.66","2364319","co37528","norming","","","","","","",""
"null","../img/tt/273tt.jpg","null","mooney1","image-keyboard-response","469","1178784","0.0-6.0-1.66","2364319","co37528","norming","","","","","","",""
"5269.095000000438","","","post_mooney1_questions","survey-likert","470","1184056","0.0-6.0-2.66","2364319","co37528","norming","","","{""curiosity"":5,""confidence"":2}","[0,1]","../img/tt/273tt.jpg","",""
"3229.9999999995343","","","recognition","survey-text","471","1187288","0.0-6.0-3.66","2364319","co37528","norming","","","{""guess"":""hand with a ring""}","","../img/tt/273tt.jpg","",""
"null","../img/gs/273gs.jpg","null","reveal","image-keyboard-response","472","1189289","0.0-6.0-4.66","2364319","co37528","norming","","","","","","",""
"null","../img/tt/273tt.jpg","null","mooney2","image-keyboard-response","473","1191294","0.0-6.0-5.66","2364319","co37528","norming","","","","","","",""
"2151.2000000001863","","","post_reveal_questions","survey-likert","474","1193448","0.0-6.0-6.66","2364319","co37528","norming","","","{""aha"":5}","[0]","../img/tt/273tt.jpg","",""
"null","<div style=""font-size:60px;""> </div>","null","fixation","html-keyboard-response","475","1193655","0.0-6.0-0.67","2364319","co37528","norming","","","","","","",""
"null","../img/tt/1186tt.jpg","null","mooney1","image-keyboard-response","476","1196658","0.0-6.0-1.67","2364319","co37528","norming","","","","","","",""
"4259.255000000121","","","post_mooney1_questions","survey-likert","477","1200920","0.0-6.0-2.67","2364319","co37528","norming","","","{""curiosity"":4,""confidence"":1}","[0,1]","../img/tt/1186tt.jpg","",""
"1069.744999999879","","","recognition","survey-text","478","1201992","0.0-6.0-3.67","2364319","co37528","norming","","","{""guess"":""""}","","../img/tt/1186tt.jpg","",""
"null","../img/gs/1186gs.jpg","null","reveal","image-keyboard-response","479","1203998","0.0-6.0-4.67","2364319","co37528","norming","","","","","","",""
"null","../img/tt/1186tt.jpg","null","mooney2","image-keyboard-response","480","1206001","0.0-6.0-5.67","2364319","co37528","norming","","","","","","",""
"1926.670000000624","","","post_reveal_questions","survey-likert","481","1207928","0.0-6.0-6.67","2364319","co37528","norming","","","{""aha"":5}","[0]","../img/tt/1186tt.jpg","",""
"null","<div style=""font-size:60px;""> </div>","null","fixation","html-keyboard-response","482","1208133","0.0-6.0-0.68","2364319","co37528","norming","","","","","","",""
"null","../img/tt/1069tt.jpg","null","mooney1","image-keyboard-response","483","1211137","0.0-6.0-1.68","2364319","co37528","norming","","","","","","",""
"5292.120000000112","","","post_mooney1_questions","survey-likert","484","1216433","0.0-6.0-2.68","2364319","co37528","norming","","","{""curiosity"":5,""confidence"":3}","[0,1]","../img/tt/1069tt.jpg","",""
"2566.0049999996554","","","recognition","survey-text","485","1219001","0.0-6.0-3.68","2364319","co37528","norming","","","{""guess"":""animals""}","","../img/tt/1069tt.jpg","",""
"null","../img/gs/1069gs.jpg","null","reveal","image-keyboard-response","486","1221003","0.0-6.0-4.68","2364319","co37528","norming","","","","","","",""
"null","../img/tt/1069tt.jpg","null","mooney2","image-keyboard-response","487","1223006","0.0-6.0-5.68","2364319","co37528","norming","","","","","","",""
"3159.1699999996927","","","post_reveal_questions","survey-likert","488","1226169","0.0-6.0-6.68","2364319","co37528","norming","","","{""aha"":5}","[0]","../img/tt/1069tt.jpg","",""
"null","<div style=""font-size:60px;""> </div>","null","fixation","html-keyboard-response","489","1226375","0.0-6.0-0.69","2364319","co37528","norming","","","","","","",""
"null","../img/tt/318tt.jpg","null","mooney1","image-keyboard-response","490","1229382","0.0-6.0-1.69","2364319","co37528","norming","","","","","","",""
"3632.2399999999907","","","post_mooney1_questions","survey-likert","491","1233017","0.0-6.0-2.69","2364319","co37528","norming","","","{""curiosity"":4,""confidence"":1}","[0,1]","../img/tt/318tt.jpg","",""
"1726.3300000003073","","","recognition","survey-text","492","1234745","0.0-6.0-3.69","2364319","co37528","norming","","","{""guess"":""plate""}","","../img/tt/318tt.jpg","",""
"null","../img/gs/318gs.jpg","null","reveal","image-keyboard-response","493","1236747","0.0-6.0-4.69","2364319","co37528","norming","","","","","","",""
"null","../img/tt/318tt.jpg","null","mooney2","image-keyboard-response","494","1238751","0.0-6.0-5.69","2364319","co37528","norming","","","","","","",""
"2071.619999999879","","","post_reveal_questions","survey-likert","495","1240825","0.0-6.0-6.69","2364319","co37528","norming","","","{""aha"":1}","[0]","../img/tt/318tt.jpg","",""
"null","<div style=""font-size:60px;""> </div>","null","fixation","html-keyboard-response","496","1241034","0.0-6.0-0.70","2364319","co37528","norming","","","","","","",""
"null","../img/tt/1250tt.jpg","null","mooney1","image-keyboard-response","497","1244038","0.0-6.0-1.70","2364319","co37528","norming","","","","","","",""
"3760.374999999767","","","post_mooney1_questions","survey-likert","498","1247801","0.0-6.0-2.70","2364319","co37528","norming","","","{""curiosity"":1,""confidence"":0}","[0,1]","../img/tt/1250tt.jpg","",""
"862.285000000149","","","recognition","survey-text","499","1248665","0.0-6.0-3.70","2364319","co37528","norming","","","{""guess"":""""}","","../img/tt/1250tt.jpg","",""
"null","../img/gs/1250gs.jpg","null","reveal","image-keyboard-response","500","1250667","0.0-6.0-4.70","2364319","co37528","norming","","","","","","",""
"null","../img/tt/1250tt.jpg","null","mooney2","image-keyboard-response","501","1252675","0.0-6.0-5.70","2364319","co37528","norming","","","","","","",""
"1963.8750000002328","","","post_reveal_questions","survey-likert","502","1254641","0.0-6.0-6.70","2364319","co37528","norming","","","{""aha"":2}","[0]","../img/tt/1250tt.jpg","",""
"null","<div style=""font-size:60px;""> </div>","null","fixation","html-keyboard-response","503","1254843","0.0-6.0-0.71","2364319","co37528","norming","","","","","","",""
"null","../img/tt/1217tt.jpg","null","mooney1","image-keyboard-response","504","1257856","0.0-6.0-1.71","2364319","co37528","norming","","","","","","",""
"4870.540000000037","","","post_mooney1_questions","survey-likert","505","1262729","0.0-6.0-2.71","2364319","co37528","norming","","","{""curiosity"":5,""confidence"":1}","[0,1]","../img/tt/1217tt.jpg","",""
"1501.9849999998696","","","recognition","survey-text","506","1264233","0.0-6.0-3.71","2364319","co37528","norming","","","{""guess"":""animals""}","","../img/tt/1217tt.jpg","",""
"null","../img/gs/1217gs.jpg","null","reveal","image-keyboard-response","507","1266236","0.0-6.0-4.71","2364319","co37528","norming","","","","","","",""
"null","../img/tt/1217tt.jpg","null","mooney2","image-keyboard-response","508","1268237","0.0-6.0-5.71","2364319","co37528","norming","","","","","","",""
"2042.005000000354","","","post_reveal_questions","survey-likert","509","1270281","0.0-6.0-6.71","2364319","co37528","norming","","","{""aha"":0}","[0]","../img/tt/1217tt.jpg","",""
"null","<div style=""font-size:60px;""> </div>","null","fixation","html-keyboard-response","510","1270483","0.0-6.0-0.72","2364319","co37528","norming","","","","","","",""
"null","../img/tt/111tt.jpg","null","mooney1","image-keyboard-response","511","1273487","0.0-6.0-1.72","2364319","co37528","norming","","","","","","",""
"4342.975000000559","","","post_mooney1_questions","survey-likert","512","1277829","0.0-6.0-2.72","2364319","co37528","norming","","","{""curiosity"":1,""confidence"":3}","[0,1]","../img/tt/111tt.jpg","",""
"1805.7849999994505","","","recognition","survey-text","513","1279637","0.0-6.0-3.72","2364319","co37528","norming","","","{""guess"":""telephone""}","","../img/tt/111tt.jpg","",""
"null","../img/gs/111gs.jpg","null","reveal","image-keyboard-response","514","1281645","0.0-6.0-4.72","2364319","co37528","norming","","","","","","",""
"null","../img/tt/111tt.jpg","null","mooney2","image-keyboard-response","515","1283654","0.0-6.0-5.72","2364319","co37528","norming","","","","","","",""
"2828.714999999618","","","post_reveal_questions","survey-likert","516","1286485","0.0-6.0-6.72","2364319","co37528","norming","","","{""aha"":5}","[0]","../img/tt/111tt.jpg","",""
"null","<div style=""font-size:60px;""> </div>","null","fixation","html-keyboard-response","517","1286692","0.0-6.0-0.73","2364319","co37528","norming","","","","","","",""
"null","../img/tt/1188tt.jpg","null","mooney1","image-keyboard-response","518","1289700","0.0-6.0-1.73","2364319","co37528","norming","","","","","","",""
"4165.544999999693","","","post_mooney1_questions","survey-likert","519","1293869","0.0-6.0-2.73","2364319","co37528","norming","","","{""curiosity"":1,""confidence"":3}","[0,1]","../img/tt/1188tt.jpg","",""
"2134.080000000773","","","recognition","survey-text","520","1296005","0.0-6.0-3.73","2364319","co37528","norming","","","{""guess"":""climber""}","","../img/tt/1188tt.jpg","",""
"null","../img/gs/1188gs.jpg","null","reveal","image-keyboard-response","521","1298006","0.0-6.0-4.73","2364319","co37528","norming","","","","","","",""
"null","../img/tt/1188tt.jpg","null","mooney2","image-keyboard-response","522","1300009","0.0-6.0-5.73","2364319","co37528","norming","","","","","","",""
"2000.8499999993946","","","post_reveal_questions","survey-likert","523","1302013","0.0-6.0-6.73","2364319","co37528","norming","","","{""aha"":4}","[0]","../img/tt/1188tt.jpg","",""
"null","<div style=""font-size:60px;""> </div>","null","fixation","html-keyboard-response","524","1302224","0.0-6.0-0.74","2364319","co37528","norming","","","","","","",""
"null","../img/tt/436tt.jpg","null","mooney1","image-keyboard-response","525","1305234","0.0-6.0-1.74","2364319","co37528","norming","","","","","","",""
"4192","","","post_mooney1_questions","survey-likert","526","1309429","0.0-6.0-2.74","2364319","co37528","norming","","","{""curiosity"":1,""confidence"":1}","[0,1]","../img/tt/436tt.jpg","",""
"1246.6050000002142","","","recognition","survey-text","527","1310677","0.0-6.0-3.74","2364319","co37528","norming","","","{""guess"":""kid""}","","../img/tt/436tt.jpg","",""
"null","../img/gs/436gs.jpg","null","reveal","image-keyboard-response","528","1312679","0.0-6.0-4.74","2364319","co37528","norming","","","","","","",""
"null","../img/tt/436tt.jpg","null","mooney2","image-keyboard-response","529","1314682","0.0-6.0-5.74","2364319","co37528","norming","","","","","","",""
"1704.730000000447","","","post_reveal_questions","survey-likert","530","1316389","0.0-6.0-6.74","2364319","co37528","norming","","","{""aha"":6}","[0]","../img/tt/436tt.jpg","",""
"null","<div style=""font-size:60px;""> </div>","null","fixation","html-keyboard-response","531","1316590","0.0-6.0-0.75","2364319","co37528","norming","","","","","","",""
"null","../img/tt/1362tt.jpg","null","mooney1","image-keyboard-response","532","1319596","0.0-6.0-1.75","2364319","co37528","norming","","","","","","",""
"3423.7249999996275","","","post_mooney1_questions","survey-likert","533","1323021","0.0-6.0-2.75","2364319","co37528","norming","","","{""curiosity"":1,""confidence"":3}","[0,1]","../img/tt/1362tt.jpg","",""
"4982.159999999683","","","recognition","survey-text","534","1328005","0.0-6.0-3.75","2364319","co37528","norming","","","{""guess"":""table with stuff""}","","../img/tt/1362tt.jpg","",""
"null","../img/gs/1362gs.jpg","null","reveal","image-keyboard-response","535","1330006","0.0-6.0-4.75","2364319","co37528","norming","","","","","","",""
"null","../img/tt/1362tt.jpg","null","mooney2","image-keyboard-response","536","1332014","0.0-6.0-5.75","2364319","co37528","norming","","","","","","",""
"2068.3300000000745","","","post_reveal_questions","survey-likert","537","1334085","0.0-6.0-6.75","2364319","co37528","norming","","","{""aha"":1}","[0]","../img/tt/1362tt.jpg","",""
"null","<div style=""font-size:60px;""> </div>","null","fixation","html-keyboard-response","538","1334288","0.0-6.0-0.76","2364319","co37528","norming","","","","","","",""
"null","../img/tt/1279tt.jpg","null","mooney1","image-keyboard-response","539","1337301","0.0-6.0-1.76","2364319","co37528","norming","","","","","","",""
"5633.2850000008475","","","post_mooney1_questions","survey-likert","540","1342938","0.0-6.0-2.76","2364319","co37528","norming","","","{""curiosity"":4,""confidence"":1}","[0,1]","../img/tt/1279tt.jpg","",""
"1709.8049999994691","","","recognition","survey-text","541","1344649","0.0-6.0-3.76","2364319","co37528","norming","","","{""guess"":""dogs""}","","../img/tt/1279tt.jpg","",""
"null","../img/gs/1279gs.jpg","null","reveal","image-keyboard-response","542","1346650","0.0-6.0-4.76","2364319","co37528","norming","","","","","","",""
"null","../img/tt/1279tt.jpg","null","mooney2","image-keyboard-response","543","1348657","0.0-6.0-5.76","2364319","co37528","norming","","","","","","",""
"1950.399999999674","","","post_reveal_questions","survey-likert","544","1350609","0.0-6.0-6.76","2364319","co37528","norming","","","{""aha"":2}","[0]","../img/tt/1279tt.jpg","",""
"null","<div style=""font-size:60px;""> </div>","null","fixation","html-keyboard-response","545","1350810","0.0-6.0-0.77","2364319","co37528","norming","","","","","","",""
"null","../img/tt/1063tt.jpg","null","mooney1","image-keyboard-response","546","1353816","0.0-6.0-1.77","2364319","co37528","norming","","","","","","",""
"4757.885000000009","","","post_mooney1_questions","survey-likert","547","1358577","0.0-6.0-2.77","2364319","co37528","norming","","","{""curiosity"":4,""confidence"":1}","[0,1]","../img/tt/1063tt.jpg","",""
"1253.9850000001024","","","recognition","survey-text","548","1359833","0.0-6.0-3.77","2364319","co37528","norming","","","{""guess"":""cows""}","","../img/tt/1063tt.jpg","",""
"null","../img/gs/1063gs.jpg","null","reveal","image-keyboard-response","549","1361835","0.0-6.0-4.77","2364319","co37528","norming","","","","","","",""
"null","../img/tt/1063tt.jpg","null","mooney2","image-keyboard-response","550","1363836","0.0-6.0-5.77","2364319","co37528","norming","","","","","","",""
"1522.1550000004936","","","post_reveal_questions","survey-likert","551","1365361","0.0-6.0-6.77","2364319","co37528","norming","","","{""aha"":2}","[0]","../img/tt/1063tt.jpg","",""
"null","<div style=""font-size:60px;""> </div>","null","fixation","html-keyboard-response","552","1365568","0.0-6.0-0.78","2364319","co37528","norming","","","","","","",""
"null","../img/tt/1199tt.jpg","null","mooney1","image-keyboard-response","553","1368570","0.0-6.0-1.78","2364319","co37528","norming","","","","","","",""
