"rt","stimulus","key_press","test_part","trial_type","trial_index","time_elapsed","internal_node_id","totalTime","subject","experiment_name","button_pressed","success","responses","question_order","currentStim","old","correct"
"3904.0249999999896","Welcome to the experiment. This is an online experiment so please don't close the tab/window until we say goodbye.  Press any key to begin.","32","instructions","html-keyboard-response","0","3918","0.0-0.0","2801947","co37636","norming","","","","","","",""
"26310.550000000003","<div style='word-wrap: break-word; width: 900px'><h3>Please consider this information carefully before deciding whether to participate in this research</h3><ul style='text-align: left; font-size: .8em;'><li><b>Purpose of the research</b>: To examine how people process images.</li><li><b>What you will do in this research</b>:  Stimuli (images) will be presented on the computer and you will be asked different questions about them.</li><li><b>Time required</b>: Participation will take between 45 and 60 minutes to complete.</li><li><b>Risks</b>:  There are no anticipated risks associated with participating in this study. The effects of participating should be comparable to those you would experience from viewing a computer monitor for 30 minutes and using a mouse or keyboard.</li><li><b>Benefits</b>:  This study provides no benefits to you individually except for the credit. The study provides important information about the nature of perception and learning.</li><li><b>Confidentiality</b>:  Your participation in this study will remain confidential. No personally identifiable information will be associated with your data. Your de-identified data may be shared with other researchers and used in future projects.</li><li><b>Participation and withdrawal</b>:  Your participation in this study is completely voluntary and you may refuse to participate or you may choose to withdraw at any time without penalty.</li><li><b>How to contact the researchers</b>: If you have questions or concerns about your participation or payment, or want to request a summary of research findings, please contact Sander Van de Cruys (KU Leuven), at sander.vandecruys@kuleuven.be.</li></ul><p>The nature and purpose of this research have been sufficiently explained and I agree to participate in this study.  I understand that I am free to withdraw at any time without incurring any penalty.</p><p>Please consent by clicking the button below to continue. Otherwise, please exit the study at this time.</p></div>","","instructions","html-button-response","1","30229","0.0-1.0","2801947","co37636","norming","0","","","","","",""
"","","","instructions","fullscreen","2","33839","0.0-2.0","2801947","co37636","norming","","true","","","","",""
"16148.915000000015","","","sona","survey-html-form","3","49994","0.0-3.0","2801947","co37636","norming","","","[{""name"":""sonaid"",""value"":""37636""},{""name"":""debrief"",""value"":""yes""},{""name"":""datajoin"",""value"":""yes""}]","","","",""
"37502.295000000006","<div style='word-wrap: break-word; width: 900px'><h3>Instructions</h3><p>This experiment will have 3 parts. In the first part you will see a series of distorted images like the one below on the left. As you can see in the righthand image, the distorted images are derived from actual photographs. In what follows, you will <strong>briefly</strong> be presented with <strong>only</strong> the distorted image.</p> <div style='float: left; margin-right: 20px;'><img src='../img/018tt.jpg' height='250' width='250'></img></div><div style='float: right; margin-left: 20px;'><img src='../img/018gs.jpg' height='250' width='250'></img></div><p>Subsequently you will be asked a few questions about the image: One question on how <strong>curious</strong> you are about the solution and one on how <strong>confident</strong> you are that you know the solution.</p>Next, we ask you to make a guess on what is in the image. Note that it is OK to name just the <strong>basic level category</strong>. For example when you see a parrot in the image, 'parrot' will obviously be a correct answer but also correct is 'bird'. However, 'animal' will <strong>not</strong> be counted as a correct response. For the example above, 'rose' would be correct or 'flower', but not 'plant'. When soccer players are depicted, 'soccer', 'football', 'soccer players' will be correct, but not 'humans', 'outdoors', or 'sports'. You do not need to describe the image in full, just name the main object in it <strong>in one or two words</strong>. All images depict objects from one of the following broad level categories: animals, inanimate objects, plants, sports, vehicles, and food. Recognizing means knowing <strong>more</strong> than these broad labels for a given image. But we always encourage you to <strong>make a guess</strong> if you can. Note that you are allowed to use <strong>Dutch and English</strong> in your answers, whatever comes easiest for you.</p><p>Press any key to continue.</p></div>","32","instructions","html-keyboard-response","4","87497","0.0-4.0","2801947","co37636","norming","","","","","","",""
"141087.255","<div style='word-wrap: break-word; width: 900px'><h3>Instructions</h3> <p>Next, the solution image will be revealed to you and you'll be asked to indicate how strong your <strong>aha-experience</strong> was after seeing the solution. This describes the positive feeling of the 'click' you sometimes experience, when the pieces of the 'puzzle' fall together and you suddenly have 'insight' in the image.</p><img src='aha.jpg' height='188' width='250'></img><p>Note that there are no right or wrong answers. We are interested in what <strong>you</strong> see in the image and how <strong>you</strong> feel about it.</p><p>Press any key to start the experiment.</p></div>","32","instructions","html-keyboard-response","5","228559","0.0-5.0","2801947","co37636","norming","","","","","","",""
"null","<div style=""font-size:60px;""> </div>","null","fixation","html-keyboard-response","6","228767","0.0-6.0-0.0","2801947","co37636","norming","","","","","","",""
"null","../img/tt/052tt.jpg","null","mooney1","image-keyboard-response","7","231773","0.0-6.0-1.0","2801947","co37636","norming","","","","","","",""
"10969.065000000002","","","post_mooney1_questions","survey-likert","8","242744","0.0-6.0-2.0","2801947","co37636","norming","","","{""curiosity"":5,""confidence"":3}","[0,1]","../img/tt/052tt.jpg","",""
"5677.669999999984","","","recognition","survey-text","9","248423","0.0-6.0-3.0","2801947","co37636","norming","","","{""guess"":""teeth""}","","../img/tt/052tt.jpg","",""
"null","../img/gs/052gs.jpg","null","reveal","image-keyboard-response","10","250427","0.0-6.0-4.0","2801947","co37636","norming","","","","","","",""
"null","../img/tt/052tt.jpg","null","mooney2","image-keyboard-response","11","252435","0.0-6.0-5.0","2801947","co37636","norming","","","","","","",""
"3682.8399999999965","","","post_reveal_questions","survey-likert","12","256119","0.0-6.0-6.0","2801947","co37636","norming","","","{""aha"":3}","[0]","../img/tt/052tt.jpg","",""
"null","<div style=""font-size:60px;""> </div>","null","fixation","html-keyboard-response","13","256322","0.0-6.0-0.1","2801947","co37636","norming","","","","","","",""
"null","../img/tt/1247tt.jpg","null","mooney1","image-keyboard-response","14","259330","0.0-6.0-1.1","2801947","co37636","norming","","","","","","",""
"6332.704999999958","","","post_mooney1_questions","survey-likert","15","265664","0.0-6.0-2.1","2801947","co37636","norming","","","{""curiosity"":5,""confidence"":3}","[0,1]","../img/tt/1247tt.jpg","",""
"12678.440000000002","","","recognition","survey-text","16","278344","0.0-6.0-3.1","2801947","co37636","norming","","","{""guess"":""man looking down""}","","../img/tt/1247tt.jpg","",""
"null","../img/gs/1247gs.jpg","null","reveal","image-keyboard-response","17","280345","0.0-6.0-4.1","2801947","co37636","norming","","","","","","",""
"null","../img/tt/1247tt.jpg","null","mooney2","image-keyboard-response","18","282353","0.0-6.0-5.1","2801947","co37636","norming","","","","","","",""
"4493.774999999965","","","post_reveal_questions","survey-likert","19","286848","0.0-6.0-6.1","2801947","co37636","norming","","","{""aha"":4}","[0]","../img/tt/1247tt.jpg","",""
"null","<div style=""font-size:60px;""> </div>","null","fixation","html-keyboard-response","20","287049","0.0-6.0-0.2","2801947","co37636","norming","","","","","","",""
"null","../img/tt/082tt.jpg","null","mooney1","image-keyboard-response","21","289995","0.0-6.0-1.2","2801947","co37636","norming","","","","","","",""
"5598.440000000002","","","post_mooney1_questions","survey-likert","22","295596","0.0-6.0-2.2","2801947","co37636","norming","","","{""curiosity"":5,""confidence"":3}","[0,1]","../img/tt/082tt.jpg","",""
"3846.2000000000116","","","recognition","survey-text","23","299444","0.0-6.0-3.2","2801947","co37636","norming","","","{""guess"":""ladder""}","","../img/tt/082tt.jpg","",""
"null","../img/gs/082gs.jpg","null","reveal","image-keyboard-response","24","301454","0.0-6.0-4.2","2801947","co37636","norming","","","","","","",""
"null","../img/tt/082tt.jpg","null","mooney2","image-keyboard-response","25","303458","0.0-6.0-5.2","2801947","co37636","norming","","","","","","",""
"5656.005000000005","","","post_reveal_questions","survey-likert","26","309116","0.0-6.0-6.2","2801947","co37636","norming","","","{""aha"":4}","[0]","../img/tt/082tt.jpg","",""
"null","<div style=""font-size:60px;""> </div>","null","fixation","html-keyboard-response","27","309318","0.0-6.0-0.3","2801947","co37636","norming","","","","","","",""
"null","../img/tt/1255tt.jpg","null","mooney1","image-keyboard-response","28","312325","0.0-6.0-1.3","2801947","co37636","norming","","","","","","",""
"5222.179999999993","","","post_mooney1_questions","survey-likert","29","317548","0.0-6.0-2.3","2801947","co37636","norming","","","{""curiosity"":4,""confidence"":4}","[0,1]","../img/tt/1255tt.jpg","",""
"3542.109999999986","","","recognition","survey-text","30","321092","0.0-6.0-3.3","2801947","co37636","norming","","","{""guess"":""rabbit""}","","../img/tt/1255tt.jpg","",""
"null","../img/gs/1255gs.jpg","null","reveal","image-keyboard-response","31","323093","0.0-6.0-4.3","2801947","co37636","norming","","","","","","",""
"null","../img/tt/1255tt.jpg","null","mooney2","image-keyboard-response","32","325097","0.0-6.0-5.3","2801947","co37636","norming","","","","","","",""
"3240.4349999999977","","","post_reveal_questions","survey-likert","33","328340","0.0-6.0-6.3","2801947","co37636","norming","","","{""aha"":2}","[0]","../img/tt/1255tt.jpg","",""
"null","<div style=""font-size:60px;""> </div>","null","fixation","html-keyboard-response","34","328541","0.0-6.0-0.4","2801947","co37636","norming","","","","","","",""
"null","../img/tt/456tt.jpg","null","mooney1","image-keyboard-response","35","331546","0.0-6.0-1.4","2801947","co37636","norming","","","","","","",""
"5687.199999999953","","","post_mooney1_questions","survey-likert","36","337236","0.0-6.0-2.4","2801947","co37636","norming","","","{""curiosity"":5,""confidence"":3}","[0,1]","../img/tt/456tt.jpg","",""
"4077.945000000007","","","recognition","survey-text","37","341316","0.0-6.0-3.4","2801947","co37636","norming","","","{""guess"":""high heel""}","","../img/tt/456tt.jpg","",""
"null","../img/gs/456gs.jpg","null","reveal","image-keyboard-response","38","343325","0.0-6.0-4.4","2801947","co37636","norming","","","","","","",""
"null","../img/tt/456tt.jpg","null","mooney2","image-keyboard-response","39","345345","0.0-6.0-5.4","2801947","co37636","norming","","","","","","",""
"2769.475000000035","","","post_reveal_questions","survey-likert","40","348116","0.0-6.0-6.4","2801947","co37636","norming","","","{""aha"":4}","[0]","../img/tt/456tt.jpg","",""
"null","<div style=""font-size:60px;""> </div>","null","fixation","html-keyboard-response","41","348317","0.0-6.0-0.5","2801947","co37636","norming","","","","","","",""
"null","../img/tt/1241tt.jpg","null","mooney1","image-keyboard-response","42","351255","0.0-6.0-1.5","2801947","co37636","norming","","","","","","",""
"3511.875","","","post_mooney1_questions","survey-likert","43","354769","0.0-6.0-2.5","2801947","co37636","norming","","","{""curiosity"":5,""confidence"":3}","[0,1]","../img/tt/1241tt.jpg","",""
"11974.26999999996","","","recognition","survey-text","44","366745","0.0-6.0-3.5","2801947","co37636","norming","","","{""guess"":""tiger""}","","../img/tt/1241tt.jpg","",""
"null","../img/gs/1241gs.jpg","null","reveal","image-keyboard-response","45","368753","0.0-6.0-4.5","2801947","co37636","norming","","","","","","",""
"null","../img/tt/1241tt.jpg","null","mooney2","image-keyboard-response","46","370756","0.0-6.0-5.5","2801947","co37636","norming","","","","","","",""
"3074.9199999999837","","","post_reveal_questions","survey-likert","47","373833","0.0-6.0-6.5","2801947","co37636","norming","","","{""aha"":5}","[0]","../img/tt/1241tt.jpg","",""
"null","<div style=""font-size:60px;""> </div>","null","fixation","html-keyboard-response","48","374034","0.0-6.0-0.6","2801947","co37636","norming","","","","","","",""
"null","../img/tt/1130tt.jpg","null","mooney1","image-keyboard-response","49","377038","0.0-6.0-1.6","2801947","co37636","norming","","","","","","",""
"6240.97000000003","","","post_mooney1_questions","survey-likert","50","383281","0.0-6.0-2.6","2801947","co37636","norming","","","{""curiosity"":4,""confidence"":4}","[0,1]","../img/tt/1130tt.jpg","",""
"10086.044999999984","","","recognition","survey-text","51","393369","0.0-6.0-3.6","2801947","co37636","norming","","","{""guess"":""man on bicycle""}","","../img/tt/1130tt.jpg","",""
"null","../img/gs/1130gs.jpg","null","reveal","image-keyboard-response","52","395378","0.0-6.0-4.6","2801947","co37636","norming","","","","","","",""
"null","../img/tt/1130tt.jpg","null","mooney2","image-keyboard-response","53","397382","0.0-6.0-5.6","2801947","co37636","norming","","","","","","",""
"1720.7200000000303","","","post_reveal_questions","survey-likert","54","399105","0.0-6.0-6.6","2801947","co37636","norming","","","{""aha"":2}","[0]","../img/tt/1130tt.jpg","",""
"null","<div style=""font-size:60px;""> </div>","null","fixation","html-keyboard-response","55","399308","0.0-6.0-0.7","2801947","co37636","norming","","","","","","",""
"null","../img/tt/1089tt.jpg","null","mooney1","image-keyboard-response","56","402318","0.0-6.0-1.7","2801947","co37636","norming","","","","","","",""
"6017.089999999909","","","post_mooney1_questions","survey-likert","57","408337","0.0-6.0-2.7","2801947","co37636","norming","","","{""curiosity"":5,""confidence"":2}","[0,1]","../img/tt/1089tt.jpg","",""
"3446.015000000014","","","recognition","survey-text","58","411719","0.0-6.0-3.7","2801947","co37636","norming","","","{""guess"":""dog""}","","../img/tt/1089tt.jpg","",""
"null","../img/gs/1089gs.jpg","null","reveal","image-keyboard-response","59","413724","0.0-6.0-4.7","2801947","co37636","norming","","","","","","",""
"null","../img/tt/1089tt.jpg","null","mooney2","image-keyboard-response","60","415728","0.0-6.0-5.7","2801947","co37636","norming","","","","","","",""
"4204.255000000005","","","post_reveal_questions","survey-likert","61","419935","0.0-6.0-6.7","2801947","co37636","norming","","","{""aha"":4}","[0]","../img/tt/1089tt.jpg","",""
"null","<div style=""font-size:60px;""> </div>","null","fixation","html-keyboard-response","62","420137","0.0-6.0-0.8","2801947","co37636","norming","","","","","","",""
"null","../img/tt/319tt.jpg","null","mooney1","image-keyboard-response","63","423139","0.0-6.0-1.8","2801947","co37636","norming","","","","","","",""
"5449.125","","","post_mooney1_questions","survey-likert","64","428591","0.0-6.0-2.8","2801947","co37636","norming","","","{""curiosity"":5,""confidence"":1}","[0,1]","../img/tt/319tt.jpg","",""
"12261.965000000026","","","recognition","survey-text","65","440855","0.0-6.0-3.8","2801947","co37636","norming","","","{""guess"":""two pandas""}","","../img/tt/319tt.jpg","",""
"null","../img/gs/319gs.jpg","null","reveal","image-keyboard-response","66","442863","0.0-6.0-4.8","2801947","co37636","norming","","","","","","",""
"null","../img/tt/319tt.jpg","null","mooney2","image-keyboard-response","67","444867","0.0-6.0-5.8","2801947","co37636","norming","","","","","","",""
"2425.070000000007","","","post_reveal_questions","survey-likert","68","447295","0.0-6.0-6.8","2801947","co37636","norming","","","{""aha"":4}","[0]","../img/tt/319tt.jpg","",""
"null","<div style=""font-size:60px;""> </div>","null","fixation","html-keyboard-response","69","447498","0.0-6.0-0.9","2801947","co37636","norming","","","","","","",""
"null","../img/tt/1237tt.jpg","null","mooney1","image-keyboard-response","70","450505","0.0-6.0-1.9","2801947","co37636","norming","","","","","","",""
"5788.825000000128","","","post_mooney1_questions","survey-likert","71","456295","0.0-6.0-2.9","2801947","co37636","norming","","","{""curiosity"":4,""confidence"":3}","[0,1]","../img/tt/1237tt.jpg","",""
"11686.109999999986","","","recognition","survey-text","72","467983","0.0-6.0-3.9","2801947","co37636","norming","","","{""guess"":""kanoër""}","","../img/tt/1237tt.jpg","",""
"null","../img/gs/1237gs.jpg","null","reveal","image-keyboard-response","73","469984","0.0-6.0-4.9","2801947","co37636","norming","","","","","","",""
"null","../img/tt/1237tt.jpg","null","mooney2","image-keyboard-response","74","471921","0.0-6.0-5.9","2801947","co37636","norming","","","","","","",""
"1874.0699999999488","","","post_reveal_questions","survey-likert","75","473797","0.0-6.0-6.9","2801947","co37636","norming","","","{""aha"":4}","[0]","../img/tt/1237tt.jpg","",""
"null","<div style=""font-size:60px;""> </div>","null","fixation","html-keyboard-response","76","473999","0.0-6.0-0.10","2801947","co37636","norming","","","","","","",""
"null","../img/tt/1123tt.jpg","null","mooney1","image-keyboard-response","77","477007","0.0-6.0-1.10","2801947","co37636","norming","","","","","","",""
"8443.570000000065","","","post_mooney1_questions","survey-likert","78","485454","0.0-6.0-2.10","2801947","co37636","norming","","","{""curiosity"":5,""confidence"":1}","[0,1]","../img/tt/1123tt.jpg","",""
"3772.9550000000163","","","recognition","survey-text","79","489229","0.0-6.0-3.10","2801947","co37636","norming","","","{""guess"":""monkey""}","","../img/tt/1123tt.jpg","",""
"null","../img/gs/1123gs.jpg","null","reveal","image-keyboard-response","80","491237","0.0-6.0-4.10","2801947","co37636","norming","","","","","","",""
"null","../img/tt/1123tt.jpg","null","mooney2","image-keyboard-response","81","493248","0.0-6.0-5.10","2801947","co37636","norming","","","","","","",""
"2498.9749999999767","","","post_reveal_questions","survey-likert","82","495749","0.0-6.0-6.10","2801947","co37636","norming","","","{""aha"":5}","[0]","../img/tt/1123tt.jpg","",""
"null","<div style=""font-size:60px;""> </div>","null","fixation","html-keyboard-response","83","495951","0.0-6.0-0.11","2801947","co37636","norming","","","","","","",""
"null","../img/tt/438tt.jpg","null","mooney1","image-keyboard-response","84","498958","0.0-6.0-1.11","2801947","co37636","norming","","","","","","",""
"4980.234999999986","","","post_mooney1_questions","survey-likert","85","503941","0.0-6.0-2.11","2801947","co37636","norming","","","{""curiosity"":5,""confidence"":2}","[0,1]","../img/tt/438tt.jpg","",""
"4918.149999999965","","","recognition","survey-text","86","508861","0.0-6.0-3.11","2801947","co37636","norming","","","{""guess"":""grapes""}","","../img/tt/438tt.jpg","",""
"null","../img/gs/438gs.jpg","null","reveal","image-keyboard-response","87","510868","0.0-6.0-4.11","2801947","co37636","norming","","","","","","",""
"null","../img/tt/438tt.jpg","null","mooney2","image-keyboard-response","88","512876","0.0-6.0-5.11","2801947","co37636","norming","","","","","","",""
"2871.4150000000955","","","post_reveal_questions","survey-likert","89","515749","0.0-6.0-6.11","2801947","co37636","norming","","","{""aha"":5}","[0]","../img/tt/438tt.jpg","",""
"null","<div style=""font-size:60px;""> </div>","null","fixation","html-keyboard-response","90","515951","0.0-6.0-0.12","2801947","co37636","norming","","","","","","",""
"null","../img/tt/1272tt.jpg","null","mooney1","image-keyboard-response","91","518956","0.0-6.0-1.12","2801947","co37636","norming","","","","","","",""
"4734.974999999977","","","post_mooney1_questions","survey-likert","92","523694","0.0-6.0-2.12","2801947","co37636","norming","","","{""curiosity"":5,""confidence"":1}","[0,1]","../img/tt/1272tt.jpg","",""
"4093.984999999986","","","recognition","survey-text","93","527789","0.0-6.0-3.12","2801947","co37636","norming","","","{""guess"":""pineapple""}","","../img/tt/1272tt.jpg","",""
"null","../img/gs/1272gs.jpg","null","reveal","image-keyboard-response","94","529793","0.0-6.0-4.12","2801947","co37636","norming","","","","","","",""
"null","../img/tt/1272tt.jpg","null","mooney2","image-keyboard-response","95","531797","0.0-6.0-5.12","2801947","co37636","norming","","","","","","",""
"2303.6300000000047","","","post_reveal_questions","survey-likert","96","534059","0.0-6.0-6.12","2801947","co37636","norming","","","{""aha"":5}","[0]","../img/tt/1272tt.jpg","",""
"null","<div style=""font-size:60px;""> </div>","null","fixation","html-keyboard-response","97","534261","0.0-6.0-0.13","2801947","co37636","norming","","","","","","",""
"null","../img/tt/1353tt.jpg","null","mooney1","image-keyboard-response","98","537271","0.0-6.0-1.13","2801947","co37636","norming","","","","","","",""
"3946.085000000079","","","post_mooney1_questions","survey-likert","99","541219","0.0-6.0-2.13","2801947","co37636","norming","","","{""curiosity"":5,""confidence"":1}","[0,1]","../img/tt/1353tt.jpg","",""
"2870.100000000093","","","recognition","survey-text","100","544091","0.0-6.0-3.13","2801947","co37636","norming","","","{""guess"":""hand""}","","../img/tt/1353tt.jpg","",""
"null","../img/gs/1353gs.jpg","null","reveal","image-keyboard-response","101","546093","0.0-6.0-4.13","2801947","co37636","norming","","","","","","",""
"null","../img/tt/1353tt.jpg","null","mooney2","image-keyboard-response","102","548095","0.0-6.0-5.13","2801947","co37636","norming","","","","","","",""
"2099.6450000000186","","","post_reveal_questions","survey-likert","103","550195","0.0-6.0-6.13","2801947","co37636","norming","","","{""aha"":4}","[0]","../img/tt/1353tt.jpg","",""
"null","<div style=""font-size:60px;""> </div>","null","fixation","html-keyboard-response","104","550396","0.0-6.0-0.14","2801947","co37636","norming","","","","","","",""
"null","../img/tt/031tt.jpg","null","mooney1","image-keyboard-response","105","553400","0.0-6.0-1.14","2801947","co37636","norming","","","","","","",""
"4560.199999999953","","","post_mooney1_questions","survey-likert","106","557963","0.0-6.0-2.14","2801947","co37636","norming","","","{""curiosity"":4,""confidence"":3}","[0,1]","../img/tt/031tt.jpg","",""
"3670.144999999902","","","recognition","survey-text","107","561635","0.0-6.0-3.14","2801947","co37636","norming","","","{""guess"":""bear""}","","../img/tt/031tt.jpg","",""
"null","../img/gs/031gs.jpg","null","reveal","image-keyboard-response","108","563638","0.0-6.0-4.14","2801947","co37636","norming","","","","","","",""
"null","../img/tt/031tt.jpg","null","mooney2","image-keyboard-response","109","565640","0.0-6.0-5.14","2801947","co37636","norming","","","","","","",""
"3137.4949999999953","","","post_reveal_questions","survey-likert","110","568779","0.0-6.0-6.14","2801947","co37636","norming","","","{""aha"":2}","[0]","../img/tt/031tt.jpg","",""
"null","<div style=""font-size:60px;""> </div>","null","fixation","html-keyboard-response","111","568981","0.0-6.0-0.15","2801947","co37636","norming","","","","","","",""
"null","../img/tt/078tt.jpg","null","mooney1","image-keyboard-response","112","571991","0.0-6.0-1.15","2801947","co37636","norming","","","","","","",""
"3499.444999999949","","","post_mooney1_questions","survey-likert","113","575492","0.0-6.0-2.15","2801947","co37636","norming","","","{""curiosity"":5,""confidence"":1}","[0,1]","../img/tt/078tt.jpg","",""
"3805.7550000000047","","","recognition","survey-text","114","579299","0.0-6.0-3.15","2801947","co37636","norming","","","{""guess"":""books""}","","../img/tt/078tt.jpg","",""
"null","../img/gs/078gs.jpg","null","reveal","image-keyboard-response","115","581308","0.0-6.0-4.15","2801947","co37636","norming","","","","","","",""
"null","../img/tt/078tt.jpg","null","mooney2","image-keyboard-response","116","583320","0.0-6.0-5.15","2801947","co37636","norming","","","","","","",""
"3808.4599999999627","","","post_reveal_questions","survey-likert","117","587131","0.0-6.0-6.15","2801947","co37636","norming","","","{""aha"":3}","[0]","../img/tt/078tt.jpg","",""
"null","<div style=""font-size:60px;""> </div>","null","fixation","html-keyboard-response","118","587332","0.0-6.0-0.16","2801947","co37636","norming","","","","","","",""
"null","../img/tt/060tt.jpg","null","mooney1","image-keyboard-response","119","590342","0.0-6.0-1.16","2801947","co37636","norming","","","","","","",""
"3394.140000000014","","","post_mooney1_questions","survey-likert","120","593736","0.0-6.0-2.16","2801947","co37636","norming","","","{""curiosity"":5,""confidence"":2}","[0,1]","../img/tt/060tt.jpg","",""
"2942.0149999998976","","","recognition","survey-text","121","596680","0.0-6.0-3.16","2801947","co37636","norming","","","{""guess"":""snake""}","","../img/tt/060tt.jpg","",""
"null","../img/gs/060gs.jpg","null","reveal","image-keyboard-response","122","598688","0.0-6.0-4.16","2801947","co37636","norming","","","","","","",""
"null","../img/tt/060tt.jpg","null","mooney2","image-keyboard-response","123","600693","0.0-6.0-5.16","2801947","co37636","norming","","","","","","",""
"3127.9499999999534","","","post_reveal_questions","survey-likert","124","603824","0.0-6.0-6.16","2801947","co37636","norming","","","{""aha"":5}","[0]","../img/tt/060tt.jpg","",""
"null","<div style=""font-size:60px;""> </div>","null","fixation","html-keyboard-response","125","604025","0.0-6.0-0.17","2801947","co37636","norming","","","","","","",""
"null","../img/tt/1086tt.jpg","null","mooney1","image-keyboard-response","126","607032","0.0-6.0-1.17","2801947","co37636","norming","","","","","","",""
"3404.8000000000466","","","post_mooney1_questions","survey-likert","127","610440","0.0-6.0-2.17","2801947","co37636","norming","","","{""curiosity"":5,""confidence"":2}","[0,1]","../img/tt/1086tt.jpg","",""
"3390.225000000093","","","recognition","survey-text","128","613831","0.0-6.0-3.17","2801947","co37636","norming","","","{""guess"":""wolves""}","","../img/tt/1086tt.jpg","",""
"null","../img/gs/1086gs.jpg","null","reveal","image-keyboard-response","129","615842","0.0-6.0-4.17","2801947","co37636","norming","","","","","","",""
"null","../img/tt/1086tt.jpg","null","mooney2","image-keyboard-response","130","617849","0.0-6.0-5.17","2801947","co37636","norming","","","","","","",""
"2204.030000000028","","","post_reveal_questions","survey-likert","131","620056","0.0-6.0-6.17","2801947","co37636","norming","","","{""aha"":4}","[0]","../img/tt/1086tt.jpg","",""
"null","<div style=""font-size:60px;""> </div>","null","fixation","html-keyboard-response","132","620257","0.0-6.0-0.18","2801947","co37636","norming","","","","","","",""
"null","../img/tt/1122tt.jpg","null","mooney1","image-keyboard-response","133","623262","0.0-6.0-1.18","2801947","co37636","norming","","","","","","",""
"3030.7649999998976","","","post_mooney1_questions","survey-likert","134","626296","0.0-6.0-2.18","2801947","co37636","norming","","","{""curiosity"":5,""confidence"":1}","[0,1]","../img/tt/1122tt.jpg","",""
"3101.939999999944","","","recognition","survey-text","135","629399","0.0-6.0-3.18","2801947","co37636","norming","","","{""guess"":""tanks""}","","../img/tt/1122tt.jpg","",""
"null","../img/gs/1122gs.jpg","null","reveal","image-keyboard-response","136","631404","0.0-6.0-4.18","2801947","co37636","norming","","","","","","",""
"null","../img/tt/1122tt.jpg","null","mooney2","image-keyboard-response","137","633410","0.0-6.0-5.18","2801947","co37636","norming","","","","","","",""
"2131.329999999958","","","post_reveal_questions","survey-likert","138","635544","0.0-6.0-6.18","2801947","co37636","norming","","","{""aha"":5}","[0]","../img/tt/1122tt.jpg","",""
"null","<div style=""font-size:60px;""> </div>","null","fixation","html-keyboard-response","139","635745","0.0-6.0-0.19","2801947","co37636","norming","","","","","","",""
"null","../img/tt/406tt.jpg","null","mooney1","image-keyboard-response","140","638757","0.0-6.0-1.19","2801947","co37636","norming","","","","","","",""
"2976.640000000014","","","post_mooney1_questions","survey-likert","141","641736","0.0-6.0-2.19","2801947","co37636","norming","","","{""curiosity"":5,""confidence"":1}","[0,1]","../img/tt/406tt.jpg","",""
"2461.8749999998836","","","recognition","survey-text","142","644199","0.0-6.0-3.19","2801947","co37636","norming","","","{""guess"":""bat""}","","../img/tt/406tt.jpg","",""
"null","../img/gs/406gs.jpg","null","reveal","image-keyboard-response","143","646201","0.0-6.0-4.19","2801947","co37636","norming","","","","","","",""
"null","../img/tt/406tt.jpg","null","mooney2","image-keyboard-response","144","648204","0.0-6.0-5.19","2801947","co37636","norming","","","","","","",""
"2905.4599999999627","","","post_reveal_questions","survey-likert","145","651112","0.0-6.0-6.19","2801947","co37636","norming","","","{""aha"":2}","[0]","../img/tt/406tt.jpg","",""
"null","<div style=""font-size:60px;""> </div>","null","fixation","html-keyboard-response","146","651312","0.0-6.0-0.20","2801947","co37636","norming","","","","","","",""
"null","../img/tt/076tt.jpg","null","mooney1","image-keyboard-response","147","654321","0.0-6.0-1.20","2801947","co37636","norming","","","","","","",""
"5711.369999999995","","","post_mooney1_questions","survey-likert","148","660035","0.0-6.0-2.20","2801947","co37636","norming","","","{""curiosity"":4,""confidence"":3}","[0,1]","../img/tt/076tt.jpg","",""
"8326.219999999972","","","recognition","survey-text","149","668363","0.0-6.0-3.20","2801947","co37636","norming","","","{""guess"":""rolschaats""}","","../img/tt/076tt.jpg","",""
"null","../img/gs/076gs.jpg","null","reveal","image-keyboard-response","150","670371","0.0-6.0-4.20","2801947","co37636","norming","","","","","","",""
"null","../img/tt/076tt.jpg","null","mooney2","image-keyboard-response","151","672373","0.0-6.0-5.20","2801947","co37636","norming","","","","","","",""
"1555.9599999999627","","","post_reveal_questions","survey-likert","152","673931","0.0-6.0-6.20","2801947","co37636","norming","","","{""aha"":1}","[0]","../img/tt/076tt.jpg","",""
"null","<div style=""font-size:60px;""> </div>","null","fixation","html-keyboard-response","153","674134","0.0-6.0-0.21","2801947","co37636","norming","","","","","","",""
"null","../img/tt/1033tt.jpg","null","mooney1","image-keyboard-response","154","677136","0.0-6.0-1.21","2801947","co37636","norming","","","","","","",""
"5224.489999999991","","","post_mooney1_questions","survey-likert","155","682363","0.0-6.0-2.21","2801947","co37636","norming","","","{""curiosity"":5,""confidence"":2}","[0,1]","../img/tt/1033tt.jpg","",""
"5221.915000000037","","","recognition","survey-text","156","687587","0.0-6.0-3.21","2801947","co37636","norming","","","{""guess"":""football player""}","","../img/tt/1033tt.jpg","",""
"null","../img/gs/1033gs.jpg","null","reveal","image-keyboard-response","157","689595","0.0-6.0-4.21","2801947","co37636","norming","","","","","","",""
"null","../img/tt/1033tt.jpg","null","mooney2","image-keyboard-response","158","691603","0.0-6.0-5.21","2801947","co37636","norming","","","","","","",""
"2061.6250000001164","","","post_reveal_questions","survey-likert","159","693667","0.0-6.0-6.21","2801947","co37636","norming","","","{""aha"":5}","[0]","../img/tt/1033tt.jpg","",""
"null","<div style=""font-size:60px;""> </div>","null","fixation","html-keyboard-response","160","693869","0.0-6.0-0.22","2801947","co37636","norming","","","","","","",""
"null","../img/tt/1046tt.jpg","null","mooney1","image-keyboard-response","161","696875","0.0-6.0-1.22","2801947","co37636","norming","","","","","","",""
"3333.274999999907","","","post_mooney1_questions","survey-likert","162","700211","0.0-6.0-2.22","2801947","co37636","norming","","","{""curiosity"":5,""confidence"":1}","[0,1]","../img/tt/1046tt.jpg","",""
"5397.805000000051","","","recognition","survey-text","163","705611","0.0-6.0-3.22","2801947","co37636","norming","","","{""guess"":""alligator""}","","../img/tt/1046tt.jpg","",""
"null","../img/gs/1046gs.jpg","null","reveal","image-keyboard-response","164","707620","0.0-6.0-4.22","2801947","co37636","norming","","","","","","",""
"null","../img/tt/1046tt.jpg","null","mooney2","image-keyboard-response","165","709631","0.0-6.0-5.22","2801947","co37636","norming","","","","","","",""
"2289.95000000007","","","post_reveal_questions","survey-likert","166","711923","0.0-6.0-6.22","2801947","co37636","norming","","","{""aha"":5}","[0]","../img/tt/1046tt.jpg","",""
"null","<div style=""font-size:60px;""> </div>","null","fixation","html-keyboard-response","167","712125","0.0-6.0-0.23","2801947","co37636","norming","","","","","","",""
"null","../img/tt/1278tt.jpg","null","mooney1","image-keyboard-response","168","715126","0.0-6.0-1.23","2801947","co37636","norming","","","","","","",""
"3306.3900000001304","","","post_mooney1_questions","survey-likert","169","718435","0.0-6.0-2.23","2801947","co37636","norming","","","{""curiosity"":5,""confidence"":1}","[0,1]","../img/tt/1278tt.jpg","",""
"4246.0299999999115","","","recognition","survey-text","170","722683","0.0-6.0-3.23","2801947","co37636","norming","","","{""guess"":""scientist""}","","../img/tt/1278tt.jpg","",""
"null","../img/gs/1278gs.jpg","null","reveal","image-keyboard-response","171","724688","0.0-6.0-4.23","2801947","co37636","norming","","","","","","",""
"null","../img/tt/1278tt.jpg","null","mooney2","image-keyboard-response","172","726697","0.0-6.0-5.23","2801947","co37636","norming","","","","","","",""
"5888.089999999967","","","post_reveal_questions","survey-likert","173","732587","0.0-6.0-6.23","2801947","co37636","norming","","","{""aha"":5}","[0]","../img/tt/1278tt.jpg","",""
"null","<div style=""font-size:60px;""> </div>","null","fixation","html-keyboard-response","174","732789","0.0-6.0-0.24","2801947","co37636","norming","","","","","","",""
"null","../img/tt/1262tt.jpg","null","mooney1","image-keyboard-response","175","735792","0.0-6.0-1.24","2801947","co37636","norming","","","","","","",""
"3800.159999999916","","","post_mooney1_questions","survey-likert","176","739595","0.0-6.0-2.24","2801947","co37636","norming","","","{""curiosity"":5,""confidence"":1}","[0,1]","../img/tt/1262tt.jpg","",""
"8597.959999999963","","","recognition","survey-text","177","748195","0.0-6.0-3.24","2801947","co37636","norming","","","{""guess"":""bear""}","","../img/tt/1262tt.jpg","",""
"null","../img/gs/1262gs.jpg","null","reveal","image-keyboard-response","178","750201","0.0-6.0-4.24","2801947","co37636","norming","","","","","","",""
"null","../img/tt/1262tt.jpg","null","mooney2","image-keyboard-response","179","752212","0.0-6.0-5.24","2801947","co37636","norming","","","","","","",""
"2458.7449999999953","","","post_reveal_questions","survey-likert","180","754675","0.0-6.0-6.24","2801947","co37636","norming","","","{""aha"":5}","[0]","../img/tt/1262tt.jpg","",""
"null","<div style=""font-size:60px;""> </div>","null","fixation","html-keyboard-response","181","754877","0.0-6.0-0.25","2801947","co37636","norming","","","","","","",""
"null","../img/tt/599tt.jpg","null","mooney1","image-keyboard-response","182","757888","0.0-6.0-1.25","2801947","co37636","norming","","","","","","",""
"4040.5999999999767","","","post_mooney1_questions","survey-likert","183","761931","0.0-6.0-2.25","2801947","co37636","norming","","","{""curiosity"":4,""confidence"":2}","[0,1]","../img/tt/599tt.jpg","",""
"3326.164999999921","","","recognition","survey-text","184","765259","0.0-6.0-3.25","2801947","co37636","norming","","","{""guess"":""owl""}","","../img/tt/599tt.jpg","",""
"null","../img/gs/599gs.jpg","null","reveal","image-keyboard-response","185","767268","0.0-6.0-4.25","2801947","co37636","norming","","","","","","",""
"null","../img/tt/599tt.jpg","null","mooney2","image-keyboard-response","186","769277","0.0-6.0-5.25","2801947","co37636","norming","","","","","","",""
"2819.4749999999767","","","post_reveal_questions","survey-likert","187","772099","0.0-6.0-6.25","2801947","co37636","norming","","","{""aha"":3}","[0]","../img/tt/599tt.jpg","",""
"null","<div style=""font-size:60px;""> </div>","null","fixation","html-keyboard-response","188","772301","0.0-6.0-0.26","2801947","co37636","norming","","","","","","",""
"null","../img/tt/1202tt.jpg","null","mooney1","image-keyboard-response","189","775305","0.0-6.0-1.26","2801947","co37636","norming","","","","","","",""
"3287.0899999999674","","","post_mooney1_questions","survey-likert","190","778595","0.0-6.0-2.26","2801947","co37636","norming","","","{""curiosity"":5,""confidence"":1}","[0,1]","../img/tt/1202tt.jpg","",""
"10197.909999999916","","","recognition","survey-text","191","788795","0.0-6.0-3.26","2801947","co37636","norming","","","{""guess"":""football player""}","","../img/tt/1202tt.jpg","",""
"null","../img/gs/1202gs.jpg","null","reveal","image-keyboard-response","192","790798","0.0-6.0-4.26","2801947","co37636","norming","","","","","","",""
"null","../img/tt/1202tt.jpg","null","mooney2","image-keyboard-response","193","792800","0.0-6.0-5.26","2801947","co37636","norming","","","","","","",""
"1888.8250000000698","","","post_reveal_questions","survey-likert","194","794691","0.0-6.0-6.26","2801947","co37636","norming","","","{""aha"":5}","[0]","../img/tt/1202tt.jpg","",""
"null","<div style=""font-size:60px;""> </div>","null","fixation","html-keyboard-response","195","794892","0.0-6.0-0.27","2801947","co37636","norming","","","","","","",""
"null","../img/tt/318tt.jpg","null","mooney1","image-keyboard-response","196","797896","0.0-6.0-1.27","2801947","co37636","norming","","","","","","",""
"4176.349999999977","","","post_mooney1_questions","survey-likert","197","802075","0.0-6.0-2.27","2801947","co37636","norming","","","{""curiosity"":5,""confidence"":1}","[0,1]","../img/tt/318tt.jpg","",""
"5397.920000000042","","","recognition","survey-text","198","807475","0.0-6.0-3.27","2801947","co37636","norming","","","{""guess"":""man with helmet""}","","../img/tt/318tt.jpg","",""
"null","../img/gs/318gs.jpg","null","reveal","image-keyboard-response","199","809477","0.0-6.0-4.27","2801947","co37636","norming","","","","","","",""
"null","../img/tt/318tt.jpg","null","mooney2","image-keyboard-response","200","811487","0.0-6.0-5.27","2801947","co37636","norming","","","","","","",""
"1937.9850000001024","","","post_reveal_questions","survey-likert","201","813427","0.0-6.0-6.27","2801947","co37636","norming","","","{""aha"":5}","[0]","../img/tt/318tt.jpg","",""
"null","<div style=""font-size:60px;""> </div>","null","fixation","html-keyboard-response","202","813628","0.0-6.0-0.28","2801947","co37636","norming","","","","","","",""
"null","../img/tt/091tt.jpg","null","mooney1","image-keyboard-response","203","816633","0.0-6.0-1.28","2801947","co37636","norming","","","","","","",""
"3022.960000000079","","","post_mooney1_questions","survey-likert","204","819659","0.0-6.0-2.28","2801947","co37636","norming","","","{""curiosity"":5,""confidence"":1}","[0,1]","../img/tt/091tt.jpg","",""
"3686.155000000028","","","recognition","survey-text","205","823347","0.0-6.0-3.28","2801947","co37636","norming","","","{""guess"":""alligator""}","","../img/tt/091tt.jpg","",""
"null","../img/gs/091gs.jpg","null","reveal","image-keyboard-response","206","825358","0.0-6.0-4.28","2801947","co37636","norming","","","","","","",""
"null","../img/tt/091tt.jpg","null","mooney2","image-keyboard-response","207","827365","0.0-6.0-5.28","2801947","co37636","norming","","","","","","",""
"2427.840000000084","","","post_reveal_questions","survey-likert","208","829795","0.0-6.0-6.28","2801947","co37636","norming","","","{""aha"":5}","[0]","../img/tt/091tt.jpg","",""
"null","<div style=""font-size:60px;""> </div>","null","fixation","html-keyboard-response","209","829997","0.0-6.0-0.29","2801947","co37636","norming","","","","","","",""
"null","../img/tt/094tt.jpg","null","mooney1","image-keyboard-response","210","833003","0.0-6.0-1.29","2801947","co37636","norming","","","","","","",""
"3398.3599999998696","","","post_mooney1_questions","survey-likert","211","836395","0.0-6.0-2.29","2801947","co37636","norming","","","{""curiosity"":5,""confidence"":1}","[0,1]","../img/tt/094tt.jpg","",""
"2486.094999999972","","","recognition","survey-text","212","838882","0.0-6.0-3.29","2801947","co37636","norming","","","{""guess"":""deer""}","","../img/tt/094tt.jpg","",""
"null","../img/gs/094gs.jpg","null","reveal","image-keyboard-response","213","840887","0.0-6.0-4.29","2801947","co37636","norming","","","","","","",""
"null","../img/tt/094tt.jpg","null","mooney2","image-keyboard-response","214","842889","0.0-6.0-5.29","2801947","co37636","norming","","","","","","",""
"1607.7249999999767","","","post_reveal_questions","survey-likert","215","844499","0.0-6.0-6.29","2801947","co37636","norming","","","{""aha"":5}","[0]","../img/tt/094tt.jpg","",""
"null","<div style=""font-size:60px;""> </div>","null","fixation","html-keyboard-response","216","844700","0.0-6.0-0.30","2801947","co37636","norming","","","","","","",""
"null","../img/tt/1161tt.jpg","null","mooney1","image-keyboard-response","217","847705","0.0-6.0-1.30","2801947","co37636","norming","","","","","","",""
"3630.8899999998976","","","post_mooney1_questions","survey-likert","218","851339","0.0-6.0-2.30","2801947","co37636","norming","","","{""curiosity"":5,""confidence"":2}","[0,1]","../img/tt/1161tt.jpg","",""
"7446.1699999999255","","","recognition","survey-text","219","858786","0.0-6.0-3.30","2801947","co37636","norming","","","{""guess"":""running man""}","","../img/tt/1161tt.jpg","",""
"null","../img/gs/1161gs.jpg","null","reveal","image-keyboard-response","220","860790","0.0-6.0-4.30","2801947","co37636","norming","","","","","","",""
"null","../img/tt/1161tt.jpg","null","mooney2","image-keyboard-response","221","862792","0.0-6.0-5.30","2801947","co37636","norming","","","","","","",""
"2656.655000000028","","","post_reveal_questions","survey-likert","222","865451","0.0-6.0-6.30","2801947","co37636","norming","","","{""aha"":4}","[0]","../img/tt/1161tt.jpg","",""
"null","<div style=""font-size:60px;""> </div>","null","fixation","html-keyboard-response","223","865652","0.0-6.0-0.31","2801947","co37636","norming","","","","","","",""
"null","../img/tt/307tt.jpg","null","mooney1","image-keyboard-response","224","868658","0.0-6.0-1.31","2801947","co37636","norming","","","","","","",""
"3367.564999999944","","","post_mooney1_questions","survey-likert","225","872026","0.0-6.0-2.31","2801947","co37636","norming","","","{""curiosity"":5,""confidence"":1}","[0,1]","../img/tt/307tt.jpg","",""
"4878.145000000019","","","recognition","survey-text","226","876906","0.0-6.0-3.31","2801947","co37636","norming","","","{""guess"":""snail""}","","../img/tt/307tt.jpg","",""
"null","../img/gs/307gs.jpg","null","reveal","image-keyboard-response","227","878908","0.0-6.0-4.31","2801947","co37636","norming","","","","","","",""
"null","../img/tt/307tt.jpg","null","mooney2","image-keyboard-response","228","880910","0.0-6.0-5.31","2801947","co37636","norming","","","","","","",""
"3834.2900000000373","","","post_reveal_questions","survey-likert","229","884747","0.0-6.0-6.31","2801947","co37636","norming","","","{""aha"":3}","[0]","../img/tt/307tt.jpg","",""
"null","<div style=""font-size:60px;""> </div>","null","fixation","html-keyboard-response","230","884948","0.0-6.0-0.32","2801947","co37636","norming","","","","","","",""
"null","../img/tt/1362tt.jpg","null","mooney1","image-keyboard-response","231","887959","0.0-6.0-1.32","2801947","co37636","norming","","","","","","",""
"3478.82500000007","","","post_mooney1_questions","survey-likert","232","891442","0.0-6.0-2.32","2801947","co37636","norming","","","{""curiosity"":5,""confidence"":1}","[0,1]","../img/tt/1362tt.jpg","",""
"4030.394999999902","","","recognition","survey-text","233","895474","0.0-6.0-3.32","2801947","co37636","norming","","","{""guess"":""sink""}","","../img/tt/1362tt.jpg","",""
"null","../img/gs/1362gs.jpg","null","reveal","image-keyboard-response","234","897486","0.0-6.0-4.32","2801947","co37636","norming","","","","","","",""
"null","../img/tt/1362tt.jpg","null","mooney2","image-keyboard-response","235","899495","0.0-6.0-5.32","2801947","co37636","norming","","","","","","",""
"1971.3800000000047","","","post_reveal_questions","survey-likert","236","901467","0.0-6.0-6.32","2801947","co37636","norming","","","{""aha"":4}","[0]","../img/tt/1362tt.jpg","",""
"null","<div style=""font-size:60px;""> </div>","null","fixation","html-keyboard-response","237","901669","0.0-6.0-0.33","2801947","co37636","norming","","","","","","",""
"null","../img/tt/584tt.jpg","null","mooney1","image-keyboard-response","238","904671","0.0-6.0-1.33","2801947","co37636","norming","","","","","","",""
"3859.0250000000233","","","post_mooney1_questions","survey-likert","239","908531","0.0-6.0-2.33","2801947","co37636","norming","","","{""curiosity"":4,""confidence"":3}","[0,1]","../img/tt/584tt.jpg","",""
"3469.7949999999255","","","recognition","survey-text","240","912003","0.0-6.0-3.33","2801947","co37636","norming","","","{""guess"":""flower""}","","../img/tt/584tt.jpg","",""
"null","../img/gs/584gs.jpg","null","reveal","image-keyboard-response","241","914011","0.0-6.0-4.33","2801947","co37636","norming","","","","","","",""
"null","../img/tt/584tt.jpg","null","mooney2","image-keyboard-response","242","916012","0.0-6.0-5.33","2801947","co37636","norming","","","","","","",""
"1878.2100000000792","","","post_reveal_questions","survey-likert","243","917891","0.0-6.0-6.33","2801947","co37636","norming","","","{""aha"":5}","[0]","../img/tt/584tt.jpg","",""
"null","<div style=""font-size:60px;""> </div>","null","fixation","html-keyboard-response","244","918094","0.0-6.0-0.34","2801947","co37636","norming","","","","","","",""
"null","../img/tt/1224tt.jpg","null","mooney1","image-keyboard-response","245","921098","0.0-6.0-1.34","2801947","co37636","norming","","","","","","",""
"4488.494999999879","","","post_mooney1_questions","survey-likert","246","925587","0.0-6.0-2.34","2801947","co37636","norming","","","{""curiosity"":5,""confidence"":2}","[0,1]","../img/tt/1224tt.jpg","",""
"4574.145000000019","","","recognition","survey-text","247","930163","0.0-6.0-3.34","2801947","co37636","norming","","","{""guess"":""man in chair""}","","../img/tt/1224tt.jpg","",""
"null","../img/gs/1224gs.jpg","null","reveal","image-keyboard-response","248","932168","0.0-6.0-4.34","2801947","co37636","norming","","","","","","",""
"null","../img/tt/1224tt.jpg","null","mooney2","image-keyboard-response","249","934174","0.0-6.0-5.34","2801947","co37636","norming","","","","","","",""
"2852.1300000000047","","","post_reveal_questions","survey-likert","250","937027","0.0-6.0-6.34","2801947","co37636","norming","","","{""aha"":4}","[0]","../img/tt/1224tt.jpg","",""
"null","<div style=""font-size:60px;""> </div>","null","fixation","html-keyboard-response","251","937230","0.0-6.0-0.35","2801947","co37636","norming","","","","","","",""
"null","../img/tt/1270tt.jpg","null","mooney1","image-keyboard-response","252","940238","0.0-6.0-1.35","2801947","co37636","norming","","","","","","",""
"3268.4749999998603","","","post_mooney1_questions","survey-likert","253","943508","0.0-6.0-2.35","2801947","co37636","norming","","","{""curiosity"":5,""confidence"":1}","[0,1]","../img/tt/1270tt.jpg","",""
"4350.134999999893","","","recognition","survey-text","254","947859","0.0-6.0-3.35","2801947","co37636","norming","","","{""guess"":""fisherman""}","","../img/tt/1270tt.jpg","",""
"null","../img/gs/1270gs.jpg","null","reveal","image-keyboard-response","255","949861","0.0-6.0-4.35","2801947","co37636","norming","","","","","","",""
"null","../img/tt/1270tt.jpg","null","mooney2","image-keyboard-response","256","951869","0.0-6.0-5.35","2801947","co37636","norming","","","","","","",""
"2213.484999999986","","","post_reveal_questions","survey-likert","257","954083","0.0-6.0-6.35","2801947","co37636","norming","","","{""aha"":5}","[0]","../img/tt/1270tt.jpg","",""
"null","<div style=""font-size:60px;""> </div>","null","fixation","html-keyboard-response","258","954286","0.0-6.0-0.36","2801947","co37636","norming","","","","","","",""
"null","../img/tt/126tt.jpg","null","mooney1","image-keyboard-response","259","957291","0.0-6.0-1.36","2801947","co37636","norming","","","","","","",""
"3415.4999999998836","","","post_mooney1_questions","survey-likert","260","960708","0.0-6.0-2.36","2801947","co37636","norming","","","{""curiosity"":5,""confidence"":1}","[0,1]","../img/tt/126tt.jpg","",""
"3213.969999999972","","","recognition","survey-text","261","963924","0.0-6.0-3.36","2801947","co37636","norming","","","{""guess"":""pig""}","","../img/tt/126tt.jpg","",""
"null","../img/gs/126gs.jpg","null","reveal","image-keyboard-response","262","965929","0.0-6.0-4.36","2801947","co37636","norming","","","","","","",""
"null","../img/tt/126tt.jpg","null","mooney2","image-keyboard-response","263","967930","0.0-6.0-5.36","2801947","co37636","norming","","","","","","",""
"1872.9699999998556","","","post_reveal_questions","survey-likert","264","969804","0.0-6.0-6.36","2801947","co37636","norming","","","{""aha"":5}","[0]","../img/tt/126tt.jpg","",""
"null","<div style=""font-size:60px;""> </div>","null","fixation","html-keyboard-response","265","970005","0.0-6.0-0.37","2801947","co37636","norming","","","","","","",""
"null","../img/tt/353tt.jpg","null","mooney1","image-keyboard-response","266","973009","0.0-6.0-1.37","2801947","co37636","norming","","","","","","",""
"3553.375","","","post_mooney1_questions","survey-likert","267","976564","0.0-6.0-2.37","2801947","co37636","norming","","","{""curiosity"":5,""confidence"":2}","[0,1]","../img/tt/353tt.jpg","",""
"11374.130000000121","","","recognition","survey-text","268","987940","0.0-6.0-3.37","2801947","co37636","norming","","","{""guess"":""vermin""}","","../img/tt/353tt.jpg","",""
"null","../img/gs/353gs.jpg","null","reveal","image-keyboard-response","269","989948","0.0-6.0-4.37","2801947","co37636","norming","","","","","","",""
"null","../img/tt/353tt.jpg","null","mooney2","image-keyboard-response","270","991953","0.0-6.0-5.37","2801947","co37636","norming","","","","","","",""
"1865.6000000000931","","","post_reveal_questions","survey-likert","271","993820","0.0-6.0-6.37","2801947","co37636","norming","","","{""aha"":5}","[0]","../img/tt/353tt.jpg","",""
"null","<div style=""font-size:60px;""> </div>","null","fixation","html-keyboard-response","272","994021","0.0-6.0-0.38","2801947","co37636","norming","","","","","","",""
"null","../img/tt/013tt.jpg","null","mooney1","image-keyboard-response","273","997029","0.0-6.0-1.38","2801947","co37636","norming","","","","","","",""
"3597.794999999809","","","post_mooney1_questions","survey-likert","274","1000628","0.0-6.0-2.38","2801947","co37636","norming","","","{""curiosity"":5,""confidence"":1}","[0,1]","../img/tt/013tt.jpg","",""
"14221.540000000037","","","recognition","survey-text","275","1014851","0.0-6.0-3.38","2801947","co37636","norming","","","{""guess"":""man""}","","../img/tt/013tt.jpg","",""
"null","../img/gs/013gs.jpg","null","reveal","image-keyboard-response","276","1016855","0.0-6.0-4.38","2801947","co37636","norming","","","","","","",""
"null","../img/tt/013tt.jpg","null","mooney2","image-keyboard-response","277","1018861","0.0-6.0-5.38","2801947","co37636","norming","","","","","","",""
"2180.2099999999627","","","post_reveal_questions","survey-likert","278","1021046","0.0-6.0-6.38","2801947","co37636","norming","","","{""aha"":5}","[0]","../img/tt/013tt.jpg","",""
"null","<div style=""font-size:60px;""> </div>","null","fixation","html-keyboard-response","279","1021248","0.0-6.0-0.39","2801947","co37636","norming","","","","","","",""
"null","../img/tt/580tt.jpg","null","mooney1","image-keyboard-response","280","1024252","0.0-6.0-1.39","2801947","co37636","norming","","","","","","",""
"2990.1999999999534","","","post_mooney1_questions","survey-likert","281","1027246","0.0-6.0-2.39","2801947","co37636","norming","","","{""curiosity"":5,""confidence"":1}","[0,1]","../img/tt/580tt.jpg","",""
"2702.164999999921","","","recognition","survey-text","282","1029950","0.0-6.0-3.39","2801947","co37636","norming","","","{""guess"":""ape""}","","../img/tt/580tt.jpg","",""
"null","../img/gs/580gs.jpg","null","reveal","image-keyboard-response","283","1031951","0.0-6.0-4.39","2801947","co37636","norming","","","","","","",""
"null","../img/tt/580tt.jpg","null","mooney2","image-keyboard-response","284","1033962","0.0-6.0-5.39","2801947","co37636","norming","","","","","","",""
"2403.1199999999953","","","post_reveal_questions","survey-likert","285","1036366","0.0-6.0-6.39","2801947","co37636","norming","","","{""aha"":5}","[0]","../img/tt/580tt.jpg","",""
"null","<div style=""font-size:60px;""> </div>","null","fixation","html-keyboard-response","286","1036567","0.0-6.0-0.40","2801947","co37636","norming","","","","","","",""
"null","../img/tt/1242tt.jpg","null","mooney1","image-keyboard-response","287","1039573","0.0-6.0-1.40","2801947","co37636","norming","","","","","","",""
"3181.0800000000745","","","post_mooney1_questions","survey-likert","288","1042758","0.0-6.0-2.40","2801947","co37636","norming","","","{""curiosity"":5,""confidence"":1}","[0,1]","../img/tt/1242tt.jpg","",""
"6958.170000000042","","","recognition","survey-text","289","1049718","0.0-6.0-3.40","2801947","co37636","norming","","","{""guess"":""monkey""}","","../img/tt/1242tt.jpg","",""
"null","../img/gs/1242gs.jpg","null","reveal","image-keyboard-response","290","1051724","0.0-6.0-4.40","2801947","co37636","norming","","","","","","",""
"null","../img/tt/1242tt.jpg","null","mooney2","image-keyboard-response","291","1053730","0.0-6.0-5.40","2801947","co37636","norming","","","","","","",""
"1761.3499999998603","","","post_reveal_questions","survey-likert","292","1055494","0.0-6.0-6.40","2801947","co37636","norming","","","{""aha"":5}","[0]","../img/tt/1242tt.jpg","",""
"null","<div style=""font-size:60px;""> </div>","null","fixation","html-keyboard-response","293","1055695","0.0-6.0-0.41","2801947","co37636","norming","","","","","","",""
"null","../img/tt/1236tt.jpg","null","mooney1","image-keyboard-response","294","1058699","0.0-6.0-1.41","2801947","co37636","norming","","","","","","",""
"2937.284999999916","","","post_mooney1_questions","survey-likert","295","1061638","0.0-6.0-2.41","2801947","co37636","norming","","","{""curiosity"":5,""confidence"":1}","[0,1]","../img/tt/1236tt.jpg","",""
"3318.034999999916","","","recognition","survey-text","296","1064958","0.0-6.0-3.41","2801947","co37636","norming","","","{""guess"":""fish""}","","../img/tt/1236tt.jpg","",""
"null","../img/gs/1236gs.jpg","null","reveal","image-keyboard-response","297","1066968","0.0-6.0-4.41","2801947","co37636","norming","","","","","","",""
"null","../img/tt/1236tt.jpg","null","mooney2","image-keyboard-response","298","1068971","0.0-6.0-5.41","2801947","co37636","norming","","","","","","",""
"1792.5","","","post_reveal_questions","survey-likert","299","1070766","0.0-6.0-6.41","2801947","co37636","norming","","","{""aha"":5}","[0]","../img/tt/1236tt.jpg","",""
"null","<div style=""font-size:60px;""> </div>","null","fixation","html-keyboard-response","300","1070967","0.0-6.0-0.42","2801947","co37636","norming","","","","","","",""
"null","../img/tt/1012tt.jpg","null","mooney1","image-keyboard-response","301","1073974","0.0-6.0-1.42","2801947","co37636","norming","","","","","","",""
"3014.155000000028","","","post_mooney1_questions","survey-likert","302","1076990","0.0-6.0-2.42","2801947","co37636","norming","","","{""curiosity"":5,""confidence"":2}","[0,1]","../img/tt/1012tt.jpg","",""
"4574.094999999972","","","recognition","survey-text","303","1081561","0.0-6.0-3.42","2801947","co37636","norming","","","{""guess"":""rhinos""}","","../img/tt/1012tt.jpg","",""
"null","../img/gs/1012gs.jpg","null","reveal","image-keyboard-response","304","1083570","0.0-6.0-4.42","2801947","co37636","norming","","","","","","",""
"null","../img/tt/1012tt.jpg","null","mooney2","image-keyboard-response","305","1085576","0.0-6.0-5.42","2801947","co37636","norming","","","","","","",""
"2051.394999999786","","","post_reveal_questions","survey-likert","306","1087633","0.0-6.0-6.42","2801947","co37636","norming","","","{""aha"":5}","[0]","../img/tt/1012tt.jpg","",""
"null","<div style=""font-size:60px;""> </div>","null","fixation","html-keyboard-response","307","1087834","0.0-6.0-0.43","2801947","co37636","norming","","","","","","",""
"null","../img/tt/273tt.jpg","null","mooney1","image-keyboard-response","308","1090840","0.0-6.0-1.43","2801947","co37636","norming","","","","","","",""
"3256.1049999999814","","","post_mooney1_questions","survey-likert","309","1094097","0.0-6.0-2.43","2801947","co37636","norming","","","{""curiosity"":4,""confidence"":3}","[0,1]","../img/tt/273tt.jpg","",""
"3086.125","","","recognition","survey-text","310","1097185","0.0-6.0-3.43","2801947","co37636","norming","","","{""guess"":""mouth""}","","../img/tt/273tt.jpg","",""
"null","../img/gs/273gs.jpg","null","reveal","image-keyboard-response","311","1099187","0.0-6.0-4.43","2801947","co37636","norming","","","","","","",""
"null","../img/tt/273tt.jpg","null","mooney2","image-keyboard-response","312","1101188","0.0-6.0-5.43","2801947","co37636","norming","","","","","","",""
"2002.3249999999534","","","post_reveal_questions","survey-likert","313","1103193","0.0-6.0-6.43","2801947","co37636","norming","","","{""aha"":2}","[0]","../img/tt/273tt.jpg","",""
"null","<div style=""font-size:60px;""> </div>","null","fixation","html-keyboard-response","314","1103395","0.0-6.0-0.44","2801947","co37636","norming","","","","","","",""
"null","../img/tt/1269tt.jpg","null","mooney1","image-keyboard-response","315","1106398","0.0-6.0-1.44","2801947","co37636","norming","","","","","","",""
"3224.255000000121","","","post_mooney1_questions","survey-likert","316","1109625","0.0-6.0-2.44","2801947","co37636","norming","","","{""curiosity"":4,""confidence"":3}","[0,1]","../img/tt/1269tt.jpg","",""
"12654.335000000196","","","recognition","survey-text","317","1122281","0.0-6.0-3.44","2801947","co37636","norming","","","{""guess"":""squirrel""}","","../img/tt/1269tt.jpg","",""
"null","../img/gs/1269gs.jpg","null","reveal","image-keyboard-response","318","1124292","0.0-6.0-4.44","2801947","co37636","norming","","","","","","",""
"null","../img/tt/1269tt.jpg","null","mooney2","image-keyboard-response","319","1126303","0.0-6.0-5.44","2801947","co37636","norming","","","","","","",""
"2951.6650000000373","","","post_reveal_questions","survey-likert","320","1129257","0.0-6.0-6.44","2801947","co37636","norming","","","{""aha"":1}","[0]","../img/tt/1269tt.jpg","",""
"null","<div style=""font-size:60px;""> </div>","null","fixation","html-keyboard-response","321","1129458","0.0-6.0-0.45","2801947","co37636","norming","","","","","","",""
"null","../img/tt/1024tt.jpg","null","mooney1","image-keyboard-response","322","1132470","0.0-6.0-1.45","2801947","co37636","norming","","","","","","",""
"3520.284999999916","","","post_mooney1_questions","survey-likert","323","1135993","0.0-6.0-2.45","2801947","co37636","norming","","","{""curiosity"":5,""confidence"":1}","[0,1]","../img/tt/1024tt.jpg","",""
"8254.304999999935","","","recognition","survey-text","324","1144257","0.0-6.0-3.45","2801947","co37636","norming","","","{""guess"":""basketball player""}","","../img/tt/1024tt.jpg","",""
"null","../img/gs/1024gs.jpg","null","reveal","image-keyboard-response","325","1146259","0.0-6.0-4.45","2801947","co37636","norming","","","","","","",""
"null","../img/tt/1024tt.jpg","null","mooney2","image-keyboard-response","326","1148265","0.0-6.0-5.45","2801947","co37636","norming","","","","","","",""
"2429.5149999998976","","","post_reveal_questions","survey-likert","327","1150697","0.0-6.0-6.45","2801947","co37636","norming","","","{""aha"":5}","[0]","../img/tt/1024tt.jpg","",""
"null","<div style=""font-size:60px;""> </div>","null","fixation","html-keyboard-response","328","1150899","0.0-6.0-0.46","2801947","co37636","norming","","","","","","",""
"null","../img/tt/1004tt.jpg","null","mooney1","image-keyboard-response","329","1153905","0.0-6.0-1.46","2801947","co37636","norming","","","","","","",""
"3869.144999999786","","","post_mooney1_questions","survey-likert","330","1157777","0.0-6.0-2.46","2801947","co37636","norming","","","{""curiosity"":5,""confidence"":2}","[0,1]","../img/tt/1004tt.jpg","",""
"2966.215000000084","","","recognition","survey-text","331","1160745","0.0-6.0-3.46","2801947","co37636","norming","","","{""guess"":""horse""}","","../img/tt/1004tt.jpg","",""
"null","../img/gs/1004gs.jpg","null","reveal","image-keyboard-response","332","1162755","0.0-6.0-4.46","2801947","co37636","norming","","","","","","",""
"null","../img/tt/1004tt.jpg","null","mooney2","image-keyboard-response","333","1164762","0.0-6.0-5.46","2801947","co37636","norming","","","","","","",""
"2356.8249999999534","","","post_reveal_questions","survey-likert","334","1167121","0.0-6.0-6.46","2801947","co37636","norming","","","{""aha"":5}","[0]","../img/tt/1004tt.jpg","",""
"null","<div style=""font-size:60px;""> </div>","null","fixation","html-keyboard-response","335","1167323","0.0-6.0-0.47","2801947","co37636","norming","","","","","","",""
"null","../img/tt/435tt.jpg","null","mooney1","image-keyboard-response","336","1170333","0.0-6.0-1.47","2801947","co37636","norming","","","","","","",""
"3952.9749999998603","","","post_mooney1_questions","survey-likert","337","1174289","0.0-6.0-2.47","2801947","co37636","norming","","","{""curiosity"":4,""confidence"":3}","[0,1]","../img/tt/435tt.jpg","",""
"4165.485000000102","","","recognition","survey-text","338","1178457","0.0-6.0-3.47","2801947","co37636","norming","","","{""guess"":""pool table""}","","../img/tt/435tt.jpg","",""
"null","../img/gs/435gs.jpg","null","reveal","image-keyboard-response","339","1180459","0.0-6.0-4.47","2801947","co37636","norming","","","","","","",""
"null","../img/tt/435tt.jpg","null","mooney2","image-keyboard-response","340","1182465","0.0-6.0-5.47","2801947","co37636","norming","","","","","","",""
"2733.0149999996647","","","post_reveal_questions","survey-likert","341","1185201","0.0-6.0-6.47","2801947","co37636","norming","","","{""aha"":2}","[0]","../img/tt/435tt.jpg","",""
"null","<div style=""font-size:60px;""> </div>","null","fixation","html-keyboard-response","342","1185402","0.0-6.0-0.48","2801947","co37636","norming","","","","","","",""
"null","../img/tt/1102tt.jpg","null","mooney1","image-keyboard-response","343","1188414","0.0-6.0-1.48","2801947","co37636","norming","","","","","","",""
"3399.7399999999907","","","post_mooney1_questions","survey-likert","344","1191817","0.0-6.0-2.48","2801947","co37636","norming","","","{""curiosity"":5,""confidence"":1}","[0,1]","../img/tt/1102tt.jpg","",""
"2798.035000000149","","","recognition","survey-text","345","1194617","0.0-6.0-3.48","2801947","co37636","norming","","","{""guess"":""car""}","","../img/tt/1102tt.jpg","",""
"null","../img/gs/1102gs.jpg","null","reveal","image-keyboard-response","346","1196620","0.0-6.0-4.48","2801947","co37636","norming","","","","","","",""
"null","../img/tt/1102tt.jpg","null","mooney2","image-keyboard-response","347","1198630","0.0-6.0-5.48","2801947","co37636","norming","","","","","","",""
"2680.7650000001304","","","post_reveal_questions","survey-likert","348","1201308","0.0-6.0-6.48","2801947","co37636","norming","","","{""aha"":5}","[0]","../img/tt/1102tt.jpg","",""
"null","<div style=""font-size:60px;""> </div>","null","fixation","html-keyboard-response","349","1201515","0.0-6.0-0.49","2801947","co37636","norming","","","","","","",""
"null","../img/tt/1181tt.jpg","null","mooney1","image-keyboard-response","350","1204519","0.0-6.0-1.49","2801947","co37636","norming","","","","","","",""
"3410.499999999767","","","post_mooney1_questions","survey-likert","351","1207933","0.0-6.0-2.49","2801947","co37636","norming","","","{""curiosity"":5,""confidence"":2}","[0,1]","../img/tt/1181tt.jpg","",""
"5566.254999999888","","","recognition","survey-text","352","1213500","0.0-6.0-3.49","2801947","co37636","norming","","","{""guess"":""men hugging""}","","../img/tt/1181tt.jpg","",""
"null","../img/gs/1181gs.jpg","null","reveal","image-keyboard-response","353","1215502","0.0-6.0-4.49","2801947","co37636","norming","","","","","","",""
"null","../img/tt/1181tt.jpg","null","mooney2","image-keyboard-response","354","1217504","0.0-6.0-5.49","2801947","co37636","norming","","","","","","",""
"1562.1749999998137","","","post_reveal_questions","survey-likert","355","1219068","0.0-6.0-6.49","2801947","co37636","norming","","","{""aha"":4}","[0]","../img/tt/1181tt.jpg","",""
"null","<div style=""font-size:60px;""> </div>","null","fixation","html-keyboard-response","356","1219270","0.0-6.0-0.50","2801947","co37636","norming","","","","","","",""
"null","../img/tt/118tt.jpg","null","mooney1","image-keyboard-response","357","1222280","0.0-6.0-1.50","2801947","co37636","norming","","","","","","",""
"3825.7049999998417","","","post_mooney1_questions","survey-likert","358","1226109","0.0-6.0-2.50","2801947","co37636","norming","","","{""curiosity"":5,""confidence"":1}","[0,1]","../img/tt/118tt.jpg","",""
"3326.0100000000093","","","recognition","survey-text","359","1229436","0.0-6.0-3.50","2801947","co37636","norming","","","{""guess"":""snake""}","","../img/tt/118tt.jpg","",""
"null","../img/gs/118gs.jpg","null","reveal","image-keyboard-response","360","1231445","0.0-6.0-4.50","2801947","co37636","norming","","","","","","",""
"null","../img/tt/118tt.jpg","null","mooney2","image-keyboard-response","361","1233449","0.0-6.0-5.50","2801947","co37636","norming","","","","","","",""
"2712.1999999999534","","","post_reveal_questions","survey-likert","362","1236164","0.0-6.0-6.50","2801947","co37636","norming","","","{""aha"":4}","[0]","../img/tt/118tt.jpg","",""
"null","<div style=""font-size:60px;""> </div>","null","fixation","html-keyboard-response","363","1236367","0.0-6.0-0.51","2801947","co37636","norming","","","","","","",""
"null","../img/tt/559tt.jpg","null","mooney1","image-keyboard-response","364","1239379","0.0-6.0-1.51","2801947","co37636","norming","","","","","","",""
"3374.185000000056","","","post_mooney1_questions","survey-likert","365","1242756","0.0-6.0-2.51","2801947","co37636","norming","","","{""curiosity"":5,""confidence"":1}","[0,1]","../img/tt/559tt.jpg","",""
"4638.120000000112","","","recognition","survey-text","366","1247396","0.0-6.0-3.51","2801947","co37636","norming","","","{""guess"":""table""}","","../img/tt/559tt.jpg","",""
"null","../img/gs/559gs.jpg","null","reveal","image-keyboard-response","367","1249399","0.0-6.0-4.51","2801947","co37636","norming","","","","","","",""
"null","../img/tt/559tt.jpg","null","mooney2","image-keyboard-response","368","1251402","0.0-6.0-5.51","2801947","co37636","norming","","","","","","",""
"1775.530000000028","","","post_reveal_questions","survey-likert","369","1253180","0.0-6.0-6.51","2801947","co37636","norming","","","{""aha"":4}","[0]","../img/tt/559tt.jpg","",""
"null","<div style=""font-size:60px;""> </div>","null","fixation","html-keyboard-response","370","1253383","0.0-6.0-0.52","2801947","co37636","norming","","","","","","",""
"null","../img/tt/1186tt.jpg","null","mooney1","image-keyboard-response","371","1256388","0.0-6.0-1.52","2801947","co37636","norming","","","","","","",""
"3214.5149999998976","","","post_mooney1_questions","survey-likert","372","1259605","0.0-6.0-2.52","2801947","co37636","norming","","","{""curiosity"":4,""confidence"":2}","[0,1]","../img/tt/1186tt.jpg","",""
"2733.994999999879","","","recognition","survey-text","373","1262343","0.0-6.0-3.52","2801947","co37636","norming","","","{""guess"":""skater""}","","../img/tt/1186tt.jpg","",""
"null","../img/gs/1186gs.jpg","null","reveal","image-keyboard-response","374","1264349","0.0-6.0-4.52","2801947","co37636","norming","","","","","","",""
"null","../img/tt/1186tt.jpg","null","mooney2","image-keyboard-response","375","1266356","0.0-6.0-5.52","2801947","co37636","norming","","","","","","",""
"1792.5349999999162","","","post_reveal_questions","survey-likert","376","1268152","0.0-6.0-6.52","2801947","co37636","norming","","","{""aha"":2}","[0]","../img/tt/1186tt.jpg","",""
"null","<div style=""font-size:60px;""> </div>","null","fixation","html-keyboard-response","377","1268352","0.0-6.0-0.53","2801947","co37636","norming","","","","","","",""
"null","../img/tt/055tt.jpg","null","mooney1","image-keyboard-response","378","1271357","0.0-6.0-1.53","2801947","co37636","norming","","","","","","",""
"3088.439999999944","","","post_mooney1_questions","survey-likert","379","1274448","0.0-6.0-2.53","2801947","co37636","norming","","","{""curiosity"":4,""confidence"":3}","[0,1]","../img/tt/055tt.jpg","",""
"3006.155000000028","","","recognition","survey-text","380","1277456","0.0-6.0-3.53","2801947","co37636","norming","","","{""guess"":""saddle""}","","../img/tt/055tt.jpg","",""
"null","../img/gs/055gs.jpg","null","reveal","image-keyboard-response","381","1279457","0.0-6.0-4.53","2801947","co37636","norming","","","","","","",""
"null","../img/tt/055tt.jpg","null","mooney2","image-keyboard-response","382","1281468","0.0-6.0-5.53","2801947","co37636","norming","","","","","","",""
"2056.9749999998603","","","post_reveal_questions","survey-likert","383","1283528","0.0-6.0-6.53","2801947","co37636","norming","","","{""aha"":1}","[0]","../img/tt/055tt.jpg","",""
"null","<div style=""font-size:60px;""> </div>","null","fixation","html-keyboard-response","384","1283729","0.0-6.0-0.54","2801947","co37636","norming","","","","","","",""
"null","../img/tt/1091tt.jpg","null","mooney1","image-keyboard-response","385","1286735","0.0-6.0-1.54","2801947","co37636","norming","","","","","","",""
"4277.864999999991","","","post_mooney1_questions","survey-likert","386","1291016","0.0-6.0-2.54","2801947","co37636","norming","","","{""curiosity"":5,""confidence"":2}","[0,1]","../img/tt/1091tt.jpg","",""
"3197.905000000028","","","recognition","survey-text","387","1294215","0.0-6.0-3.54","2801947","co37636","norming","","","{""guess"":""gorilla""}","","../img/tt/1091tt.jpg","",""
"null","../img/gs/1091gs.jpg","null","reveal","image-keyboard-response","388","1296222","0.0-6.0-4.54","2801947","co37636","norming","","","","","","",""
"null","../img/tt/1091tt.jpg","null","mooney2","image-keyboard-response","389","1298226","0.0-6.0-5.54","2801947","co37636","norming","","","","","","",""
"2586.6650000000373","","","post_reveal_questions","survey-likert","390","1300815","0.0-6.0-6.54","2801947","co37636","norming","","","{""aha"":4}","[0]","../img/tt/1091tt.jpg","",""
"null","<div style=""font-size:60px;""> </div>","null","fixation","html-keyboard-response","391","1301016","0.0-6.0-0.55","2801947","co37636","norming","","","","","","",""
"null","../img/tt/1205tt.jpg","null","mooney1","image-keyboard-response","392","1304022","0.0-6.0-1.55","2801947","co37636","norming","","","","","","",""
"3654.964999999851","","","post_mooney1_questions","survey-likert","393","1307680","0.0-6.0-2.55","2801947","co37636","norming","","","{""curiosity"":5,""confidence"":2}","[0,1]","../img/tt/1205tt.jpg","",""
"7054.119999999879","","","recognition","survey-text","394","1314735","0.0-6.0-3.55","2801947","co37636","norming","","","{""guess"":""kung fu""}","","../img/tt/1205tt.jpg","",""
"null","../img/gs/1205gs.jpg","null","reveal","image-keyboard-response","395","1316745","0.0-6.0-4.55","2801947","co37636","norming","","","","","","",""
"null","../img/tt/1205tt.jpg","null","mooney2","image-keyboard-response","396","1318756","0.0-6.0-5.55","2801947","co37636","norming","","","","","","",""
"3216.8850000000093","","","post_reveal_questions","survey-likert","397","1321975","0.0-6.0-6.55","2801947","co37636","norming","","","{""aha"":3}","[0]","../img/tt/1205tt.jpg","",""
"null","<div style=""font-size:60px;""> </div>","null","fixation","html-keyboard-response","398","1322176","0.0-6.0-0.56","2801947","co37636","norming","","","","","","",""
"null","../img/tt/044tt.jpg","null","mooney1","image-keyboard-response","399","1325187","0.0-6.0-1.56","2801947","co37636","norming","","","","","","",""
"3577.225000000093","","","post_mooney1_questions","survey-likert","400","1328768","0.0-6.0-2.56","2801947","co37636","norming","","","{""curiosity"":5,""confidence"":1}","[0,1]","../img/tt/044tt.jpg","",""
"4014.250000000233","","","recognition","survey-text","401","1332783","0.0-6.0-3.56","2801947","co37636","norming","","","{""guess"":""computer""}","","../img/tt/044tt.jpg","",""
"null","../img/gs/044gs.jpg","null","reveal","image-keyboard-response","402","1334788","0.0-6.0-4.56","2801947","co37636","norming","","","","","","",""
"null","../img/tt/044tt.jpg","null","mooney2","image-keyboard-response","403","1336797","0.0-6.0-5.56","2801947","co37636","norming","","","","","","",""
"2063.3249999999534","","","post_reveal_questions","survey-likert","404","1338864","0.0-6.0-6.56","2801947","co37636","norming","","","{""aha"":5}","[0]","../img/tt/044tt.jpg","",""
"null","<div style=""font-size:60px;""> </div>","null","fixation","html-keyboard-response","405","1339074","0.0-6.0-0.57","2801947","co37636","norming","","","","","","",""
"null","../img/tt/1116tt.jpg","null","mooney1","image-keyboard-response","406","1342084","0.0-6.0-1.57","2801947","co37636","norming","","","","","","",""
"3122.9499999999534","","","post_mooney1_questions","survey-likert","407","1345208","0.0-6.0-2.57","2801947","co37636","norming","","","{""curiosity"":5,""confidence"":1}","[0,1]","../img/tt/1116tt.jpg","",""
"3725.894999999786","","","recognition","survey-text","408","1348935","0.0-6.0-3.57","2801947","co37636","norming","","","{""guess"":""traffic""}","","../img/tt/1116tt.jpg","",""
"null","../img/gs/1116gs.jpg","null","reveal","image-keyboard-response","409","1350942","0.0-6.0-4.57","2801947","co37636","norming","","","","","","",""
"null","../img/tt/1116tt.jpg","null","mooney2","image-keyboard-response","410","1352946","0.0-6.0-5.57","2801947","co37636","norming","","","","","","",""
"2469.029999999795","","","post_reveal_questions","survey-likert","411","1355416","0.0-6.0-6.57","2801947","co37636","norming","","","{""aha"":4}","[0]","../img/tt/1116tt.jpg","",""
"null","<div style=""font-size:60px;""> </div>","null","fixation","html-keyboard-response","412","1355617","0.0-6.0-0.58","2801947","co37636","norming","","","","","","",""
"null","../img/tt/112tt.jpg","null","mooney1","image-keyboard-response","413","1358626","0.0-6.0-1.58","2801947","co37636","norming","","","","","","",""
"4362.160000000149","","","post_mooney1_questions","survey-likert","414","1362992","0.0-6.0-2.58","2801947","co37636","norming","","","{""curiosity"":4,""confidence"":2}","[0,1]","../img/tt/112tt.jpg","",""
"4558.024999999674","","","recognition","survey-text","415","1367551","0.0-6.0-3.58","2801947","co37636","norming","","","{""guess"":""cell phone""}","","../img/tt/112tt.jpg","",""
"null","../img/gs/112gs.jpg","null","reveal","image-keyboard-response","416","1369560","0.0-6.0-4.58","2801947","co37636","norming","","","","","","",""
"null","../img/tt/112tt.jpg","null","mooney2","image-keyboard-response","417","1371564","0.0-6.0-5.58","2801947","co37636","norming","","","","","","",""
"3032.934999999823","","","post_reveal_questions","survey-likert","418","1374599","0.0-6.0-6.58","2801947","co37636","norming","","","{""aha"":5}","[0]","../img/tt/112tt.jpg","",""
"null","<div style=""font-size:60px;""> </div>","null","fixation","html-keyboard-response","419","1374801","0.0-6.0-0.59","2801947","co37636","norming","","","","","","",""
"null","../img/tt/1107tt.jpg","null","mooney1","image-keyboard-response","420","1377813","0.0-6.0-1.59","2801947","co37636","norming","","","","","","",""
"3519.8700000001118","","","post_mooney1_questions","survey-likert","421","1381336","0.0-6.0-2.59","2801947","co37636","norming","","","{""curiosity"":4,""confidence"":3}","[0,1]","../img/tt/1107tt.jpg","",""
"4717.73499999987","","","recognition","survey-text","422","1386059","0.0-6.0-3.59","2801947","co37636","norming","","","{""guess"":""kitten""}","","../img/tt/1107tt.jpg","",""
"null","../img/gs/1107gs.jpg","null","reveal","image-keyboard-response","423","1388062","0.0-6.0-4.59","2801947","co37636","norming","","","","","","",""
"null","../img/tt/1107tt.jpg","null","mooney2","image-keyboard-response","424","1390063","0.0-6.0-5.59","2801947","co37636","norming","","","","","","",""
"2339.5200000000186","","","post_reveal_questions","survey-likert","425","1392404","0.0-6.0-6.59","2801947","co37636","norming","","","{""aha"":2}","[0]","../img/tt/1107tt.jpg","",""
"null","<div style=""font-size:60px;""> </div>","null","fixation","html-keyboard-response","426","1392605","0.0-6.0-0.60","2801947","co37636","norming","","","","","","",""
"null","../img/tt/1148tt.jpg","null","mooney1","image-keyboard-response","427","1395609","0.0-6.0-1.60","2801947","co37636","norming","","","","","","",""
"4894.340000000084","","","post_mooney1_questions","survey-likert","428","1400508","0.0-6.0-2.60","2801947","co37636","norming","","","{""curiosity"":5,""confidence"":2}","[0,1]","../img/tt/1148tt.jpg","",""
"4373.894999999786","","","recognition","survey-text","429","1404883","0.0-6.0-3.60","2801947","co37636","norming","","","{""guess"":""woman dancing""}","","../img/tt/1148tt.jpg","",""
"null","../img/gs/1148gs.jpg","null","reveal","image-keyboard-response","430","1406885","0.0-6.0-4.60","2801947","co37636","norming","","","","","","",""
"null","../img/tt/1148tt.jpg","null","mooney2","image-keyboard-response","431","1408896","0.0-6.0-5.60","2801947","co37636","norming","","","","","","",""
"2392.654999999795","","","post_reveal_questions","survey-likert","432","1411291","0.0-6.0-6.60","2801947","co37636","norming","","","{""aha"":5}","[0]","../img/tt/1148tt.jpg","",""
"null","<div style=""font-size:60px;""> </div>","null","fixation","html-keyboard-response","433","1411492","0.0-6.0-0.61","2801947","co37636","norming","","","","","","",""
"null","../img/tt/046tt.jpg","null","mooney1","image-keyboard-response","434","1414501","0.0-6.0-1.61","2801947","co37636","norming","","","","","","",""
"3418.4950000001118","","","post_mooney1_questions","survey-likert","435","1417924","0.0-6.0-2.61","2801947","co37636","norming","","","{""curiosity"":5,""confidence"":1}","[0,1]","../img/tt/046tt.jpg","",""
"2805.8950000002515","","","recognition","survey-text","436","1420731","0.0-6.0-3.61","2801947","co37636","norming","","","{""guess"":""horse""}","","../img/tt/046tt.jpg","",""
"null","../img/gs/046gs.jpg","null","reveal","image-keyboard-response","437","1422734","0.0-6.0-4.61","2801947","co37636","norming","","","","","","",""
"null","../img/tt/046tt.jpg","null","mooney2","image-keyboard-response","438","1424737","0.0-6.0-5.61","2801947","co37636","norming","","","","","","",""
"1855.1699999999255","","","post_reveal_questions","survey-likert","439","1426596","0.0-6.0-6.61","2801947","co37636","norming","","","{""aha"":5}","[0]","../img/tt/046tt.jpg","",""
"null","<div style=""font-size:60px;""> </div>","null","fixation","html-keyboard-response","440","1426796","0.0-6.0-0.62","2801947","co37636","norming","","","","","","",""
"null","../img/tt/105tt.jpg","null","mooney1","image-keyboard-response","441","1429799","0.0-6.0-1.62","2801947","co37636","norming","","","","","","",""
"2648.0449999999255","","","post_mooney1_questions","survey-likert","442","1432452","0.0-6.0-2.62","2801947","co37636","norming","","","{""curiosity"":4,""confidence"":2}","[0,1]","../img/tt/105tt.jpg","",""
"6517.989999999991","","","recognition","survey-text","443","1438971","0.0-6.0-3.62","2801947","co37636","norming","","","{""guess"":""chains""}","","../img/tt/105tt.jpg","",""
"null","../img/gs/105gs.jpg","null","reveal","image-keyboard-response","444","1440978","0.0-6.0-4.62","2801947","co37636","norming","","","","","","",""
"null","../img/tt/105tt.jpg","null","mooney2","image-keyboard-response","445","1442982","0.0-6.0-5.62","2801947","co37636","norming","","","","","","",""
"1341.2450000001118","","","post_reveal_questions","survey-likert","446","1444326","0.0-6.0-6.62","2801947","co37636","norming","","","{""aha"":4}","[0]","../img/tt/105tt.jpg","",""
"null","<div style=""font-size:60px;""> </div>","null","fixation","html-keyboard-response","447","1444527","0.0-6.0-0.63","2801947","co37636","norming","","","","","","",""
"null","../img/tt/1188tt.jpg","null","mooney1","image-keyboard-response","448","1447538","0.0-6.0-1.63","2801947","co37636","norming","","","","","","",""
"3952.3850000000093","","","post_mooney1_questions","survey-likert","449","1451494","0.0-6.0-2.63","2801947","co37636","norming","","","{""curiosity"":4,""confidence"":2}","[0,1]","../img/tt/1188tt.jpg","",""
"6309.979999999981","","","recognition","survey-text","450","1457806","0.0-6.0-3.63","2801947","co37636","norming","","","{""guess"":""football player""}","","../img/tt/1188tt.jpg","",""
"null","../img/gs/1188gs.jpg","null","reveal","image-keyboard-response","451","1459814","0.0-6.0-4.63","2801947","co37636","norming","","","","","","",""
"null","../img/tt/1188tt.jpg","null","mooney2","image-keyboard-response","452","1461819","0.0-6.0-5.63","2801947","co37636","norming","","","","","","",""
"2351.5400000000373","","","post_reveal_questions","survey-likert","453","1464173","0.0-6.0-6.63","2801947","co37636","norming","","","{""aha"":4}","[0]","../img/tt/1188tt.jpg","",""
"null","<div style=""font-size:60px;""> </div>","null","fixation","html-keyboard-response","454","1464379","0.0-6.0-0.64","2801947","co37636","norming","","","","","","",""
"null","../img/tt/121tt.jpg","null","mooney1","image-keyboard-response","455","1467390","0.0-6.0-1.64","2801947","co37636","norming","","","","","","",""
"3189.1350000000093","","","post_mooney1_questions","survey-likert","456","1470583","0.0-6.0-2.64","2801947","co37636","norming","","","{""curiosity"":5,""confidence"":1}","[0,1]","../img/tt/121tt.jpg","",""
"5220.729999999981","","","recognition","survey-text","457","1475806","0.0-6.0-3.64","2801947","co37636","norming","","","{""guess"":""velociraptor""}","","../img/tt/121tt.jpg","",""
"null","../img/gs/121gs.jpg","null","reveal","image-keyboard-response","458","1477808","0.0-6.0-4.64","2801947","co37636","norming","","","","","","",""
"null","../img/tt/121tt.jpg","null","mooney2","image-keyboard-response","459","1479809","0.0-6.0-5.64","2801947","co37636","norming","","","","","","",""
"3609.3899999998976","","","post_reveal_questions","survey-likert","460","1483422","0.0-6.0-6.64","2801947","co37636","norming","","","{""aha"":4}","[0]","../img/tt/121tt.jpg","",""
"null","<div style=""font-size:60px;""> </div>","null","fixation","html-keyboard-response","461","1483622","0.0-6.0-0.65","2801947","co37636","norming","","","","","","",""
"null","../img/tt/1127tt.jpg","null","mooney1","image-keyboard-response","462","1486632","0.0-6.0-1.65","2801947","co37636","norming","","","","","","",""
"4149.005000000121","","","post_mooney1_questions","survey-likert","463","1490782","0.0-6.0-2.65","2801947","co37636","norming","","","{""curiosity"":5,""confidence"":2}","[0,1]","../img/tt/1127tt.jpg","",""
"4397.949999999953","","","recognition","survey-text","464","1495182","0.0-6.0-3.65","2801947","co37636","norming","","","{""guess"":""teacher""}","","../img/tt/1127tt.jpg","",""
"null","../img/gs/1127gs.jpg","null","reveal","image-keyboard-response","465","1497189","0.0-6.0-4.65","2801947","co37636","norming","","","","","","",""
"null","../img/tt/1127tt.jpg","null","mooney2","image-keyboard-response","466","1499191","0.0-6.0-5.65","2801947","co37636","norming","","","","","","",""
"1708.4599999999627","","","post_reveal_questions","survey-likert","467","1500902","0.0-6.0-6.65","2801947","co37636","norming","","","{""aha"":4}","[0]","../img/tt/1127tt.jpg","",""
"null","<div style=""font-size:60px;""> </div>","null","fixation","html-keyboard-response","468","1501108","0.0-6.0-0.66","2801947","co37636","norming","","","","","","",""
"null","../img/tt/507tt.jpg","null","mooney1","image-keyboard-response","469","1504111","0.0-6.0-1.66","2801947","co37636","norming","","","","","","",""
"3022.435000000056","","","post_mooney1_questions","survey-likert","470","1507135","0.0-6.0-2.66","2801947","co37636","norming","","","{""curiosity"":5,""confidence"":1}","[0,1]","../img/tt/507tt.jpg","",""
"4830","","","recognition","survey-text","471","1511966","0.0-6.0-3.66","2801947","co37636","norming","","","{""guess"":""fashion model""}","","../img/tt/507tt.jpg","",""
"null","../img/gs/507gs.jpg","null","reveal","image-keyboard-response","472","1513973","0.0-6.0-4.66","2801947","co37636","norming","","","","","","",""
"null","../img/tt/507tt.jpg","null","mooney2","image-keyboard-response","473","1515978","0.0-6.0-5.66","2801947","co37636","norming","","","","","","",""
"2489.4600000001956","","","post_reveal_questions","survey-likert","474","1518470","0.0-6.0-6.66","2801947","co37636","norming","","","{""aha"":4}","[0]","../img/tt/507tt.jpg","",""
"null","<div style=""font-size:60px;""> </div>","null","fixation","html-keyboard-response","475","1518672","0.0-6.0-0.67","2801947","co37636","norming","","","","","","",""
"null","../img/tt/1254tt.jpg","null","mooney1","image-keyboard-response","476","1521677","0.0-6.0-1.67","2801947","co37636","norming","","","","","","",""
"2965.534999999916","","","post_mooney1_questions","survey-likert","477","1524647","0.0-6.0-2.67","2801947","co37636","norming","","","{""curiosity"":5,""confidence"":1}","[0,1]","../img/tt/1254tt.jpg","",""
"3429.864999999758","","","recognition","survey-text","478","1528078","0.0-6.0-3.67","2801947","co37636","norming","","","{""guess"":""wolves""}","","../img/tt/1254tt.jpg","",""
"null","../img/gs/1254gs.jpg","null","reveal","image-keyboard-response","479","1530088","0.0-6.0-4.67","2801947","co37636","norming","","","","","","",""
"null","../img/tt/1254tt.jpg","null","mooney2","image-keyboard-response","480","1532094","0.0-6.0-5.67","2801947","co37636","norming","","","","","","",""
"2751.4150000000373","","","post_reveal_questions","survey-likert","481","1534846","0.0-6.0-6.67","2801947","co37636","norming","","","{""aha"":5}","[0]","../img/tt/1254tt.jpg","",""
"null","<div style=""font-size:60px;""> </div>","null","fixation","html-keyboard-response","482","1535048","0.0-6.0-0.68","2801947","co37636","norming","","","","","","",""
"null","../img/tt/1053tt.jpg","null","mooney1","image-keyboard-response","483","1538058","0.0-6.0-1.68","2801947","co37636","norming","","","","","","",""
"3402.8900000001304","","","post_mooney1_questions","survey-likert","484","1541462","0.0-6.0-2.68","2801947","co37636","norming","","","{""curiosity"":5,""confidence"":2}","[0,1]","../img/tt/1053tt.jpg","",""
"4486.274999999907","","","recognition","survey-text","485","1545950","0.0-6.0-3.68","2801947","co37636","norming","","","{""guess"":""bears""}","","../img/tt/1053tt.jpg","",""
"null","../img/gs/1053gs.jpg","null","reveal","image-keyboard-response","486","1547955","0.0-6.0-4.68","2801947","co37636","norming","","","","","","",""
"null","../img/tt/1053tt.jpg","null","mooney2","image-keyboard-response","487","1549957","0.0-6.0-5.68","2801947","co37636","norming","","","","","","",""
"2888.0799999998417","","","post_reveal_questions","survey-likert","488","1552846","0.0-6.0-6.68","2801947","co37636","norming","","","{""aha"":4}","[0]","../img/tt/1053tt.jpg","",""
"null","<div style=""font-size:60px;""> </div>","null","fixation","html-keyboard-response","489","1553047","0.0-6.0-0.69","2801947","co37636","norming","","","","","","",""
"null","../img/tt/358tt.jpg","null","mooney1","image-keyboard-response","490","1556054","0.0-6.0-1.69","2801947","co37636","norming","","","","","","",""
"2895.739999999758","","","post_mooney1_questions","survey-likert","491","1558951","0.0-6.0-2.69","2801947","co37636","norming","","","{""curiosity"":5,""confidence"":1}","[0,1]","../img/tt/358tt.jpg","",""
"6198.114999999991","","","recognition","survey-text","492","1565146","0.0-6.0-3.69","2801947","co37636","norming","","","{""guess"":""horse""}","","../img/tt/358tt.jpg","",""
"null","../img/gs/358gs.jpg","null","reveal","image-keyboard-response","493","1567148","0.0-6.0-4.69","2801947","co37636","norming","","","","","","",""
"null","../img/tt/358tt.jpg","null","mooney2","image-keyboard-response","494","1569158","0.0-6.0-5.69","2801947","co37636","norming","","","","","","",""
"2721.6399999998976","","","post_reveal_questions","survey-likert","495","1571883","0.0-6.0-6.69","2801947","co37636","norming","","","{""aha"":5}","[0]","../img/tt/358tt.jpg","",""
"null","<div style=""font-size:60px;""> </div>","null","fixation","html-keyboard-response","496","1572085","0.0-6.0-0.70","2801947","co37636","norming","","","","","","",""
"null","../img/tt/1261tt.jpg","null","mooney1","image-keyboard-response","497","1575097","0.0-6.0-1.70","2801947","co37636","norming","","","","","","",""
"4278.244999999879","","","post_mooney1_questions","survey-likert","498","1579379","0.0-6.0-2.70","2801947","co37636","norming","","","{""curiosity"":5,""confidence"":1}","[0,1]","../img/tt/1261tt.jpg","",""
"6478.0800000000745","","","recognition","survey-text","499","1585858","0.0-6.0-3.70","2801947","co37636","norming","","","{""guess"":""food""}","","../img/tt/1261tt.jpg","",""
"null","../img/gs/1261gs.jpg","null","reveal","image-keyboard-response","500","1587867","0.0-6.0-4.70","2801947","co37636","norming","","","","","","",""
"null","../img/tt/1261tt.jpg","null","mooney2","image-keyboard-response","501","1589876","0.0-6.0-5.70","2801947","co37636","norming","","","","","","",""
"2005.505000000121","","","post_reveal_questions","survey-likert","502","1591882","0.0-6.0-6.70","2801947","co37636","norming","","","{""aha"":4}","[0]","../img/tt/1261tt.jpg","",""
"null","<div style=""font-size:60px;""> </div>","null","fixation","html-keyboard-response","503","1592090","0.0-6.0-0.71","2801947","co37636","norming","","","","","","",""
"null","../img/tt/1143tt.jpg","null","mooney1","image-keyboard-response","504","1595098","0.0-6.0-1.71","2801947","co37636","norming","","","","","","",""
"3501.489999999758","","","post_mooney1_questions","survey-likert","505","1598603","0.0-6.0-2.71","2801947","co37636","norming","","","{""curiosity"":5,""confidence"":1}","[0,1]","../img/tt/1143tt.jpg","",""
"5077.655000000028","","","recognition","survey-text","506","1603682","0.0-6.0-3.71","2801947","co37636","norming","","","{""guess"":""home spinners""}","","../img/tt/1143tt.jpg","",""
"null","../img/gs/1143gs.jpg","null","reveal","image-keyboard-response","507","1605684","0.0-6.0-4.71","2801947","co37636","norming","","","","","","",""
"null","../img/tt/1143tt.jpg","null","mooney2","image-keyboard-response","508","1607687","0.0-6.0-5.71","2801947","co37636","norming","","","","","","",""
"1377.1899999999441","","","post_reveal_questions","survey-likert","509","1609066","0.0-6.0-6.71","2801947","co37636","norming","","","{""aha"":2}","[0]","../img/tt/1143tt.jpg","",""
"null","<div style=""font-size:60px;""> </div>","null","fixation","html-keyboard-response","510","1609268","0.0-6.0-0.72","2801947","co37636","norming","","","","","","",""
"null","../img/tt/1126tt.jpg","null","mooney1","image-keyboard-response","511","1612277","0.0-6.0-1.72","2801947","co37636","norming","","","","","","",""
"3922.594999999972","","","post_mooney1_questions","survey-likert","512","1616203","0.0-6.0-2.72","2801947","co37636","norming","","","{""curiosity"":4,""confidence"":3}","[0,1]","../img/tt/1126tt.jpg","",""
"4869.944999999832","","","recognition","survey-text","513","1621074","0.0-6.0-3.72","2801947","co37636","norming","","","{""guess"":""climbing man""}","","../img/tt/1126tt.jpg","",""
"null","../img/gs/1126gs.jpg","null","reveal","image-keyboard-response","514","1623084","0.0-6.0-4.72","2801947","co37636","norming","","","","","","",""
"null","../img/tt/1126tt.jpg","null","mooney2","image-keyboard-response","515","1625091","0.0-6.0-5.72","2801947","co37636","norming","","","","","","",""
"3288.2549999998882","","","post_reveal_questions","survey-likert","516","1628382","0.0-6.0-6.72","2801947","co37636","norming","","","{""aha"":1}","[0]","../img/tt/1126tt.jpg","",""
"null","<div style=""font-size:60px;""> </div>","null","fixation","html-keyboard-response","517","1628588","0.0-6.0-0.73","2801947","co37636","norming","","","","","","",""
"null","../img/tt/063tt.jpg","null","mooney1","image-keyboard-response","518","1631591","0.0-6.0-1.73","2801947","co37636","norming","","","","","","",""
"2923.1400000001304","","","post_mooney1_questions","survey-likert","519","1634518","0.0-6.0-2.73","2801947","co37636","norming","","","{""curiosity"":5,""confidence"":2}","[0,1]","../img/tt/063tt.jpg","",""
"4118.104999999981","","","recognition","survey-text","520","1638638","0.0-6.0-3.73","2801947","co37636","norming","","","{""guess"":""harmonica""}","","../img/tt/063tt.jpg","",""
"null","../img/gs/063gs.jpg","null","reveal","image-keyboard-response","521","1640647","0.0-6.0-4.73","2801947","co37636","norming","","","","","","",""
"null","../img/tt/063tt.jpg","null","mooney2","image-keyboard-response","522","1642655","0.0-6.0-5.73","2801947","co37636","norming","","","","","","",""
"2260.2750000001397","","","post_reveal_questions","survey-likert","523","1644918","0.0-6.0-6.73","2801947","co37636","norming","","","{""aha"":4}","[0]","../img/tt/063tt.jpg","",""
"null","<div style=""font-size:60px;""> </div>","null","fixation","html-keyboard-response","524","1645119","0.0-6.0-0.74","2801947","co37636","norming","","","","","","",""
"null","../img/tt/1151tt.jpg","null","mooney1","image-keyboard-response","525","1648123","0.0-6.0-1.74","2801947","co37636","norming","","","","","","",""
"3033.5100000000093","","","post_mooney1_questions","survey-likert","526","1651158","0.0-6.0-2.74","2801947","co37636","norming","","","{""curiosity"":5,""confidence"":1}","[0,1]","../img/tt/1151tt.jpg","",""
"5405.910000000149","","","recognition","survey-text","527","1656566","0.0-6.0-3.74","2801947","co37636","norming","","","{""guess"":""badger""}","","../img/tt/1151tt.jpg","",""
"null","../img/gs/1151gs.jpg","null","reveal","image-keyboard-response","528","1658574","0.0-6.0-4.74","2801947","co37636","norming","","","","","","",""
"null","../img/tt/1151tt.jpg","null","mooney2","image-keyboard-response","529","1660585","0.0-6.0-5.74","2801947","co37636","norming","","","","","","",""
"1721.6799999999348","","","post_reveal_questions","survey-likert","530","1662310","0.0-6.0-6.74","2801947","co37636","norming","","","{""aha"":5}","[0]","../img/tt/1151tt.jpg","",""
"null","<div style=""font-size:60px;""> </div>","null","fixation","html-keyboard-response","531","1662511","0.0-6.0-0.75","2801947","co37636","norming","","","","","","",""
"null","../img/tt/1196tt.jpg","null","mooney1","image-keyboard-response","532","1665519","0.0-6.0-1.75","2801947","co37636","norming","","","","","","",""
"4755.385000000009","","","post_mooney1_questions","survey-likert","533","1670278","0.0-6.0-2.75","2801947","co37636","norming","","","{""curiosity"":5,""confidence"":1}","[0,1]","../img/tt/1196tt.jpg","",""
"3917.7299999999814","","","recognition","survey-text","534","1674198","0.0-6.0-3.75","2801947","co37636","norming","","","{""guess"":""gymnasts""}","","../img/tt/1196tt.jpg","",""
"null","../img/gs/1196gs.jpg","null","reveal","image-keyboard-response","535","1676208","0.0-6.0-4.75","2801947","co37636","norming","","","","","","",""
"null","../img/tt/1196tt.jpg","null","mooney2","image-keyboard-response","536","1678217","0.0-6.0-5.75","2801947","co37636","norming","","","","","","",""
"4681.935000000056","","","post_reveal_questions","survey-likert","537","1682902","0.0-6.0-6.75","2801947","co37636","norming","","","{""aha"":4}","[0]","../img/tt/1196tt.jpg","",""
"null","<div style=""font-size:60px;""> </div>","null","fixation","html-keyboard-response","538","1683104","0.0-6.0-0.76","2801947","co37636","norming","","","","","","",""
"null","../img/tt/1217tt.jpg","null","mooney1","image-keyboard-response","539","1686107","0.0-6.0-1.76","2801947","co37636","norming","","","","","","",""
"4418.340000000084","","","post_mooney1_questions","survey-likert","540","1690527","0.0-6.0-2.76","2801947","co37636","norming","","","{""curiosity"":5,""confidence"":2}","[0,1]","../img/tt/1217tt.jpg","",""
"6341.7050000000745","","","recognition","survey-text","541","1696870","0.0-6.0-3.76","2801947","co37636","norming","","","{""guess"":""basketball players""}","","../img/tt/1217tt.jpg","",""
"null","../img/gs/1217gs.jpg","null","reveal","image-keyboard-response","542","1698878","0.0-6.0-4.76","2801947","co37636","norming","","","","","","",""
"null","../img/tt/1217tt.jpg","null","mooney2","image-keyboard-response","543","1700881","0.0-6.0-5.76","2801947","co37636","norming","","","","","","",""
"1402.2450000001118","","","post_reveal_questions","survey-likert","544","1702286","0.0-6.0-6.76","2801947","co37636","norming","","","{""aha"":5}","[0]","../img/tt/1217tt.jpg","",""
"null","<div style=""font-size:60px;""> </div>","null","fixation","html-keyboard-response","545","1702488","0.0-6.0-0.77","2801947","co37636","norming","","","","","","",""
"null","../img/tt/405tt.jpg","null","mooney1","image-keyboard-response","546","1705491","0.0-6.0-1.77","2801947","co37636","norming","","","","","","",""
"3543.8900000001304","","","post_mooney1_questions","survey-likert","547","1709038","0.0-6.0-2.77","2801947","co37636","norming","","","{""curiosity"":4,""confidence"":3}","[0,1]","../img/tt/405tt.jpg","",""
"2750.100000000093","","","recognition","survey-text","548","1711790","0.0-6.0-3.77","2801947","co37636","norming","","","{""guess"":""koala""}","","../img/tt/405tt.jpg","",""
"null","../img/gs/405gs.jpg","null","reveal","image-keyboard-response","549","1713795","0.0-6.0-4.77","2801947","co37636","norming","","","","","","",""
"null","../img/tt/405tt.jpg","null","mooney2","image-keyboard-response","550","1715800","0.0-6.0-5.77","2801947","co37636","norming","","","","","","",""
