"rt","stimulus","key_press","test_part","trial_type","trial_index","time_elapsed","internal_node_id","totalTime","subject","experiment_name","button_pressed","success","responses","question_order","currentStim","old","correct"
"28045.92000000048","Welcome to the experiment. This is an online experiment so please don't close the tab/window until we say goodbye.  Press any key to begin.","13","instructions","html-keyboard-response","0","28053","0.0-0.0","3188147","co38047","norming","","","","","","",""
"12358.20000000058","<div style='word-wrap: break-word; width: 900px'><h3>Please consider this information carefully before deciding whether to participate in this research</h3><ul style='text-align: left; font-size: .8em;'><li><b>Purpose of the research</b>: To examine how people process images.</li><li><b>What you will do in this research</b>:  Stimuli (images) will be presented on the computer and you will be asked different questions about them.</li><li><b>Time required</b>: Participation will take between 45 and 60 minutes to complete.</li><li><b>Risks</b>:  There are no anticipated risks associated with participating in this study. The effects of participating should be comparable to those you would experience from viewing a computer monitor for 30 minutes and using a mouse or keyboard.</li><li><b>Benefits</b>:  This study provides no benefits to you individually except for the credit. The study provides important information about the nature of perception and learning.</li><li><b>Confidentiality</b>:  Your participation in this study will remain confidential. No personally identifiable information will be associated with your data. Your de-identified data may be shared with other researchers and used in future projects.</li><li><b>Participation and withdrawal</b>:  Your participation in this study is completely voluntary and you may refuse to participate or you may choose to withdraw at any time without penalty.</li><li><b>How to contact the researchers</b>: If you have questions or concerns about your participation or payment, or want to request a summary of research findings, please contact Sander Van de Cruys (KU Leuven), at sander.vandecruys@kuleuven.be.</li></ul><p>The nature and purpose of this research have been sufficiently explained and I agree to participate in this study.  I understand that I am free to withdraw at any time without incurring any penalty.</p><p>Please consent by clicking the button below to continue. Otherwise, please exit the study at this time.</p></div>","","instructions","html-button-response","1","40412","0.0-1.0","3188147","co38047","norming","0","","","","","",""
"","","","instructions","fullscreen","2","46170","0.0-2.0","3188147","co38047","norming","","true","","","","",""
"41200.53000000007","","","sona","survey-html-form","3","87372","0.0-3.0","3188147","co38047","norming","","","[{""name"":""sonaid"",""value"":""38047""},{""name"":""debrief"",""value"":""yes""},{""name"":""datajoin"",""value"":""yes""}]","","","",""
"69910.2350000003","<div style='word-wrap: break-word; width: 900px'><h3>Instructions</h3><p>This experiment will have 3 parts. In the first part you will see a series of distorted images like the one below on the left. As you can see in the righthand image, the distorted images are derived from actual photographs. In what follows, you will <strong>briefly</strong> be presented with <strong>only</strong> the distorted image.</p> <div style='float: left; margin-right: 20px;'><img src='../img/018tt.jpg' height='250' width='250'></img></div><div style='float: right; margin-left: 20px;'><img src='../img/018gs.jpg' height='250' width='250'></img></div><p>Subsequently you will be asked a few questions about the image: One question on how <strong>curious</strong> you are about the solution and one on how <strong>confident</strong> you are that you know the solution.</p>Next, we ask you to make a guess on what is in the image. Note that it is OK to name just the <strong>basic level category</strong>. For example when you see a parrot in the image, 'parrot' will obviously be a correct answer but also correct is 'bird'. However, 'animal' will <strong>not</strong> be counted as a correct response. For the example above, 'rose' would be correct or 'flower', but not 'plant'. When soccer players are depicted, 'soccer', 'football', 'soccer players' will be correct, but not 'humans', 'outdoors', or 'sports'. You do not need to describe the image in full, just name the main object in it <strong>in one or two words</strong>. All images depict objects from one of the following broad level categories: animals, inanimate objects, plants, sports, vehicles, and food. Recognizing means knowing <strong>more</strong> than these broad labels for a given image. But we always encourage you to <strong>make a guess</strong> if you can. Note that you are allowed to use <strong>Dutch and English</strong> in your answers, whatever comes easiest for you.</p><p>Press any key to continue.</p></div>","13","instructions","html-keyboard-response","4","157283","0.0-4.0","3188147","co38047","norming","","","","","","",""
"98639.15999999974","<div style='word-wrap: break-word; width: 900px'><h3>Instructions</h3> <p>Next, the solution image will be revealed to you and you'll be asked to indicate how strong your <strong>aha-experience</strong> was after seeing the solution. This describes the positive feeling of the 'click' you sometimes experience, when the pieces of the 'puzzle' fall together and you suddenly have 'insight' in the image.</p><img src='aha.jpg' height='188' width='250'></img><p>Note that there are no right or wrong answers. We are interested in what <strong>you</strong> see in the image and how <strong>you</strong> feel about it.</p><p>Press any key to start the experiment.</p></div>","13","instructions","html-keyboard-response","5","255929","0.0-5.0","3188147","co38047","norming","","","","","","",""
"null","<div style=""font-size:60px;""> </div>","null","fixation","html-keyboard-response","6","256139","0.0-6.0-0.0","3188147","co38047","norming","","","","","","",""
"null","../img/tt/442tt.jpg","null","mooney1","image-keyboard-response","7","259144","0.0-6.0-1.0","3188147","co38047","norming","","","","","","",""
"12352.354999999981","","","post_mooney1_questions","survey-likert","8","271498","0.0-6.0-2.0","3188147","co38047","norming","","","{""curiosity"":4,""confidence"":1}","[0,1]","../img/tt/442tt.jpg","",""
"6913.185000000347","","","recognition","survey-text","9","278413","0.0-6.0-3.0","3188147","co38047","norming","","","{""guess"":""flower""}","","../img/tt/442tt.jpg","",""
"null","../img/gs/442gs.jpg","null","reveal","image-keyboard-response","10","280420","0.0-6.0-4.0","3188147","co38047","norming","","","","","","",""
"null","../img/tt/442tt.jpg","null","mooney2","image-keyboard-response","11","282427","0.0-6.0-5.0","3188147","co38047","norming","","","","","","",""
"14885.780000000494","","","post_reveal_questions","survey-likert","12","297313","0.0-6.0-6.0","3188147","co38047","norming","","","{""aha"":5}","[0]","../img/tt/442tt.jpg","",""
"null","<div style=""font-size:60px;""> </div>","null","fixation","html-keyboard-response","13","297522","0.0-6.0-0.1","3188147","co38047","norming","","","","","","",""
"null","../img/tt/416tt.jpg","null","mooney1","image-keyboard-response","14","300530","0.0-6.0-1.1","3188147","co38047","norming","","","","","","",""
"10974.414999999688","","","post_mooney1_questions","survey-likert","15","311505","0.0-6.0-2.1","3188147","co38047","norming","","","{""curiosity"":4,""confidence"":4}","[0,1]","../img/tt/416tt.jpg","",""
"3733.6949999998906","","","recognition","survey-text","16","315241","0.0-6.0-3.1","3188147","co38047","norming","","","{""guess"":""chicken""}","","../img/tt/416tt.jpg","",""
"null","../img/gs/416gs.jpg","null","reveal","image-keyboard-response","17","317252","0.0-6.0-4.1","3188147","co38047","norming","","","","","","",""
"null","../img/tt/416tt.jpg","null","mooney2","image-keyboard-response","18","319262","0.0-6.0-5.1","3188147","co38047","norming","","","","","","",""
"9256.765000000072","","","post_reveal_questions","survey-likert","19","328520","0.0-6.0-6.1","3188147","co38047","norming","","","{""aha"":6}","[0]","../img/tt/416tt.jpg","",""
"null","<div style=""font-size:60px;""> </div>","null","fixation","html-keyboard-response","20","328723","0.0-6.0-0.2","3188147","co38047","norming","","","","","","",""
"null","../img/tt/405tt.jpg","null","mooney1","image-keyboard-response","21","331723","0.0-6.0-1.2","3188147","co38047","norming","","","","","","",""
"10299.88000000047","","","post_mooney1_questions","survey-likert","22","342024","0.0-6.0-2.2","3188147","co38047","norming","","","{""curiosity"":1,""confidence"":5}","[0,1]","../img/tt/405tt.jpg","",""
"6997.409999999916","","","recognition","survey-text","23","349024","0.0-6.0-3.2","3188147","co38047","norming","","","{""guess"":""Dog""}","","../img/tt/405tt.jpg","",""
"null","../img/gs/405gs.jpg","null","reveal","image-keyboard-response","24","351031","0.0-6.0-4.2","3188147","co38047","norming","","","","","","",""
"null","../img/tt/405tt.jpg","null","mooney2","image-keyboard-response","25","353035","0.0-6.0-5.2","3188147","co38047","norming","","","","","","",""
"2732.1449999999604","","","post_reveal_questions","survey-likert","26","355768","0.0-6.0-6.2","3188147","co38047","norming","","","{""aha"":4}","[0]","../img/tt/405tt.jpg","",""
"null","<div style=""font-size:60px;""> </div>","null","fixation","html-keyboard-response","27","355973","0.0-6.0-0.3","3188147","co38047","norming","","","","","","",""
"null","../img/tt/1363tt.jpg","null","mooney1","image-keyboard-response","28","358982","0.0-6.0-1.3","3188147","co38047","norming","","","","","","",""
"3976.67999999976","","","post_mooney1_questions","survey-likert","29","362960","0.0-6.0-2.3","3188147","co38047","norming","","","{""curiosity"":6,""confidence"":0}","[0,1]","../img/tt/1363tt.jpg","",""
"9277.640000000247","","","recognition","survey-text","30","372240","0.0-6.0-3.3","3188147","co38047","norming","","","{""guess"":""flower""}","","../img/tt/1363tt.jpg","",""
"null","../img/gs/1363gs.jpg","null","reveal","image-keyboard-response","31","374248","0.0-6.0-4.3","3188147","co38047","norming","","","","","","",""
"null","../img/tt/1363tt.jpg","null","mooney2","image-keyboard-response","32","376250","0.0-6.0-5.3","3188147","co38047","norming","","","","","","",""
"1741.3749999995925","","","post_reveal_questions","survey-likert","33","377985","0.0-6.0-6.3","3188147","co38047","norming","","","{""aha"":0}","[0]","../img/tt/1363tt.jpg","",""
"null","<div style=""font-size:60px;""> </div>","null","fixation","html-keyboard-response","34","378190","0.0-6.0-0.4","3188147","co38047","norming","","","","","","",""
"null","../img/tt/019tt.jpg","null","mooney1","image-keyboard-response","35","381193","0.0-6.0-1.4","3188147","co38047","norming","","","","","","",""
"7622.61999999918","","","post_mooney1_questions","survey-likert","36","388817","0.0-6.0-2.4","3188147","co38047","norming","","","{""curiosity"":4,""confidence"":4}","[0,1]","../img/tt/019tt.jpg","",""
"3397.454999999376","","","recognition","survey-text","37","392217","0.0-6.0-3.4","3188147","co38047","norming","","","{""guess"":""tang""}","","../img/tt/019tt.jpg","",""
"null","../img/gs/019gs.jpg","null","reveal","image-keyboard-response","38","394226","0.0-6.0-4.4","3188147","co38047","norming","","","","","","",""
"null","../img/tt/019tt.jpg","null","mooney2","image-keyboard-response","39","396231","0.0-6.0-5.4","3188147","co38047","norming","","","","","","",""
"12001.1599999998","","","post_reveal_questions","survey-likert","40","408233","0.0-6.0-6.4","3188147","co38047","norming","","","{""aha"":1}","[0]","../img/tt/019tt.jpg","",""
"null","<div style=""font-size:60px;""> </div>","null","fixation","html-keyboard-response","41","408442","0.0-6.0-0.5","3188147","co38047","norming","","","","","","",""
"null","../img/tt/1024tt.jpg","null","mooney1","image-keyboard-response","42","411452","0.0-6.0-1.5","3188147","co38047","norming","","","","","","",""
"21675.615000000107","","","post_mooney1_questions","survey-likert","43","433129","0.0-6.0-2.5","3188147","co38047","norming","","","{""curiosity"":3,""confidence"":1}","[0,1]","../img/tt/1024tt.jpg","",""
"7742.095000000554","","","recognition","survey-text","44","440877","0.0-6.0-3.5","3188147","co38047","norming","","","{""guess"":""Horses""}","","../img/tt/1024tt.jpg","",""
"null","../img/gs/1024gs.jpg","null","reveal","image-keyboard-response","45","442888","0.0-6.0-4.5","3188147","co38047","norming","","","","","","",""
"null","../img/tt/1024tt.jpg","null","mooney2","image-keyboard-response","46","444893","0.0-6.0-5.5","3188147","co38047","norming","","","","","","",""
"2655.2050000000163","","","post_reveal_questions","survey-likert","47","447549","0.0-6.0-6.5","3188147","co38047","norming","","","{""aha"":1}","[0]","../img/tt/1024tt.jpg","",""
"null","<div style=""font-size:60px;""> </div>","null","fixation","html-keyboard-response","48","447758","0.0-6.0-0.6","3188147","co38047","norming","","","","","","",""
"null","../img/tt/559tt.jpg","null","mooney1","image-keyboard-response","49","450765","0.0-6.0-1.6","3188147","co38047","norming","","","","","","",""
"4999.0349999998","","","post_mooney1_questions","survey-likert","50","455765","0.0-6.0-2.6","3188147","co38047","norming","","","{""curiosity"":4,""confidence"":1}","[0,1]","../img/tt/559tt.jpg","",""
"3397.140000000014","","","recognition","survey-text","51","459165","0.0-6.0-3.6","3188147","co38047","norming","","","{""guess"":""books""}","","../img/tt/559tt.jpg","",""
"null","../img/gs/559gs.jpg","null","reveal","image-keyboard-response","52","461172","0.0-6.0-4.6","3188147","co38047","norming","","","","","","",""
"null","../img/tt/559tt.jpg","null","mooney2","image-keyboard-response","53","463173","0.0-6.0-5.6","3188147","co38047","norming","","","","","","",""
"3007.0599999998813","","","post_reveal_questions","survey-likert","54","466181","0.0-6.0-6.6","3188147","co38047","norming","","","{""aha"":2}","[0]","../img/tt/559tt.jpg","",""
"null","<div style=""font-size:60px;""> </div>","null","fixation","html-keyboard-response","55","466388","0.0-6.0-0.7","3188147","co38047","norming","","","","","","",""
"null","../img/tt/1211tt.jpg","null","mooney1","image-keyboard-response","56","469391","0.0-6.0-1.7","3188147","co38047","norming","","","","","","",""
"6990.170000000042","","","post_mooney1_questions","survey-likert","57","476382","0.0-6.0-2.7","3188147","co38047","norming","","","{""curiosity"":3,""confidence"":2}","[0,1]","../img/tt/1211tt.jpg","",""
"1869.0100000003004","","","recognition","survey-text","58","478253","0.0-6.0-3.7","3188147","co38047","norming","","","{""guess"":""water""}","","../img/tt/1211tt.jpg","",""
"null","../img/gs/1211gs.jpg","null","reveal","image-keyboard-response","59","480263","0.0-6.0-4.7","3188147","co38047","norming","","","","","","",""
"null","../img/tt/1211tt.jpg","null","mooney2","image-keyboard-response","60","482271","0.0-6.0-5.7","3188147","co38047","norming","","","","","","",""
"3564.5949999998556","","","post_reveal_questions","survey-likert","61","485837","0.0-6.0-6.7","3188147","co38047","norming","","","{""aha"":3}","[0]","../img/tt/1211tt.jpg","",""
"null","<div style=""font-size:60px;""> </div>","null","fixation","html-keyboard-response","62","486044","0.0-6.0-0.8","3188147","co38047","norming","","","","","","",""
"null","../img/tt/549tt.jpg","null","mooney1","image-keyboard-response","63","489047","0.0-6.0-1.8","3188147","co38047","norming","","","","","","",""
"8916.815000000526","","","post_mooney1_questions","survey-likert","64","497973","0.0-6.0-2.8","3188147","co38047","norming","","","{""curiosity"":5,""confidence"":0}","[0,1]","../img/tt/549tt.jpg","",""
"12429.895000000193","","","recognition","survey-text","65","510404","0.0-6.0-3.8","3188147","co38047","norming","","","{""guess"":""grass""}","","../img/tt/549tt.jpg","",""
"null","../img/gs/549gs.jpg","null","reveal","image-keyboard-response","66","512409","0.0-6.0-4.8","3188147","co38047","norming","","","","","","",""
"null","../img/tt/549tt.jpg","null","mooney2","image-keyboard-response","67","514411","0.0-6.0-5.8","3188147","co38047","norming","","","","","","",""
"2576.5250000004307","","","post_reveal_questions","survey-likert","68","516988","0.0-6.0-6.8","3188147","co38047","norming","","","{""aha"":4}","[0]","../img/tt/549tt.jpg","",""
"null","<div style=""font-size:60px;""> </div>","null","fixation","html-keyboard-response","69","517193","0.0-6.0-0.9","3188147","co38047","norming","","","","","","",""
"null","../img/tt/1270tt.jpg","null","mooney1","image-keyboard-response","70","520200","0.0-6.0-1.9","3188147","co38047","norming","","","","","","",""
"3531.6650000004447","","","post_mooney1_questions","survey-likert","71","523733","0.0-6.0-2.9","3188147","co38047","norming","","","{""curiosity"":4,""confidence"":0}","[0,1]","../img/tt/1270tt.jpg","",""
"2510.129999999772","","","recognition","survey-text","72","526244","0.0-6.0-3.9","3188147","co38047","norming","","","{""guess"":""flower""}","","../img/tt/1270tt.jpg","",""
"null","../img/gs/1270gs.jpg","null","reveal","image-keyboard-response","73","528252","0.0-6.0-4.9","3188147","co38047","norming","","","","","","",""
"null","../img/tt/1270tt.jpg","null","mooney2","image-keyboard-response","74","530256","0.0-6.0-5.9","3188147","co38047","norming","","","","","","",""
"4051.4950000005774","","","post_reveal_questions","survey-likert","75","534309","0.0-6.0-6.9","3188147","co38047","norming","","","{""aha"":1}","[0]","../img/tt/1270tt.jpg","",""
"null","<div style=""font-size:60px;""> </div>","null","fixation","html-keyboard-response","76","534511","0.0-6.0-0.10","3188147","co38047","norming","","","","","","",""
"null","../img/tt/1161tt.jpg","null","mooney1","image-keyboard-response","77","537521","0.0-6.0-1.10","3188147","co38047","norming","","","","","","",""
"5914.70499999926","","","post_mooney1_questions","survey-likert","78","543437","0.0-6.0-2.10","3188147","co38047","norming","","","{""curiosity"":4,""confidence"":4}","[0,1]","../img/tt/1161tt.jpg","",""
"4277.839999999735","","","recognition","survey-text","79","547716","0.0-6.0-3.10","3188147","co38047","norming","","","{""guess"":""mountain""}","","../img/tt/1161tt.jpg","",""
"null","../img/gs/1161gs.jpg","null","reveal","image-keyboard-response","80","549718","0.0-6.0-4.10","3188147","co38047","norming","","","","","","",""
"null","../img/tt/1161tt.jpg","null","mooney2","image-keyboard-response","81","551728","0.0-6.0-5.10","3188147","co38047","norming","","","","","","",""
"4451.254999999888","","","post_reveal_questions","survey-likert","82","556181","0.0-6.0-6.10","3188147","co38047","norming","","","{""aha"":5}","[0]","../img/tt/1161tt.jpg","",""
"null","<div style=""font-size:60px;""> </div>","null","fixation","html-keyboard-response","83","556391","0.0-6.0-0.11","3188147","co38047","norming","","","","","","",""
"null","../img/tt/084tt.jpg","null","mooney1","image-keyboard-response","84","559400","0.0-6.0-1.11","3188147","co38047","norming","","","","","","",""
"5701.404999999795","","","post_mooney1_questions","survey-likert","85","565103","0.0-6.0-2.11","3188147","co38047","norming","","","{""curiosity"":2,""confidence"":6}","[0,1]","../img/tt/084tt.jpg","",""
"2198.0100000000093","","","recognition","survey-text","86","567302","0.0-6.0-3.11","3188147","co38047","norming","","","{""guess"":""bird""}","","../img/tt/084tt.jpg","",""
"null","../img/gs/084gs.jpg","null","reveal","image-keyboard-response","87","569309","0.0-6.0-4.11","3188147","co38047","norming","","","","","","",""
"null","../img/tt/084tt.jpg","null","mooney2","image-keyboard-response","88","571314","0.0-6.0-5.11","3188147","co38047","norming","","","","","","",""
"2179.3649999999907","","","post_reveal_questions","survey-likert","89","573494","0.0-6.0-6.11","3188147","co38047","norming","","","{""aha"":4}","[0]","../img/tt/084tt.jpg","",""
"null","<div style=""font-size:60px;""> </div>","null","fixation","html-keyboard-response","90","573700","0.0-6.0-0.12","3188147","co38047","norming","","","","","","",""
"null","../img/tt/1006tt.jpg","null","mooney1","image-keyboard-response","91","576710","0.0-6.0-1.12","3188147","co38047","norming","","","","","","",""
"4311.2799999999115","","","post_mooney1_questions","survey-likert","92","581023","0.0-6.0-2.12","3188147","co38047","norming","","","{""curiosity"":2,""confidence"":4}","[0,1]","../img/tt/1006tt.jpg","",""
"2566.084999999497","","","recognition","survey-text","93","583590","0.0-6.0-3.12","3188147","co38047","norming","","","{""guess"":""waterfall""}","","../img/tt/1006tt.jpg","",""
"null","../img/gs/1006gs.jpg","null","reveal","image-keyboard-response","94","585594","0.0-6.0-4.12","3188147","co38047","norming","","","","","","",""
"null","../img/tt/1006tt.jpg","null","mooney2","image-keyboard-response","95","587600","0.0-6.0-5.12","3188147","co38047","norming","","","","","","",""
"2820.9949999999953","","","post_reveal_questions","survey-likert","96","590422","0.0-6.0-6.12","3188147","co38047","norming","","","{""aha"":1}","[0]","../img/tt/1006tt.jpg","",""
"null","<div style=""font-size:60px;""> </div>","null","fixation","html-keyboard-response","97","590623","0.0-6.0-0.13","3188147","co38047","norming","","","","","","",""
"null","../img/tt/091tt.jpg","null","mooney1","image-keyboard-response","98","593631","0.0-6.0-1.13","3188147","co38047","norming","","","","","","",""
"10246.804999999702","","","post_mooney1_questions","survey-likert","99","603879","0.0-6.0-2.13","3188147","co38047","norming","","","{""curiosity"":4,""confidence"":1}","[0,1]","../img/tt/091tt.jpg","",""
"3493.8350000001956","","","recognition","survey-text","100","607374","0.0-6.0-3.13","3188147","co38047","norming","","","{""guess"":""""}","","../img/tt/091tt.jpg","",""
"null","../img/gs/091gs.jpg","null","reveal","image-keyboard-response","101","609375","0.0-6.0-4.13","3188147","co38047","norming","","","","","","",""
"null","../img/tt/091tt.jpg","null","mooney2","image-keyboard-response","102","611376","0.0-6.0-5.13","3188147","co38047","norming","","","","","","",""
"3077.769999999902","","","post_reveal_questions","survey-likert","103","614454","0.0-6.0-6.13","3188147","co38047","norming","","","{""aha"":2}","[0]","../img/tt/091tt.jpg","",""
"null","<div style=""font-size:60px;""> </div>","null","fixation","html-keyboard-response","104","614656","0.0-6.0-0.14","3188147","co38047","norming","","","","","","",""
"null","../img/tt/1101tt.jpg","null","mooney1","image-keyboard-response","105","617657","0.0-6.0-1.14","3188147","co38047","norming","","","","","","",""
"12788.695000000182","","","post_mooney1_questions","survey-likert","106","630439","0.0-6.0-2.14","3188147","co38047","norming","","","{""curiosity"":4,""confidence"":4}","[0,1]","../img/tt/1101tt.jpg","",""
"4806.030000000726","","","recognition","survey-text","107","635247","0.0-6.0-3.14","3188147","co38047","norming","","","{""guess"":""sleeping person""}","","../img/tt/1101tt.jpg","",""
"null","../img/gs/1101gs.jpg","null","reveal","image-keyboard-response","108","637248","0.0-6.0-4.14","3188147","co38047","norming","","","","","","",""
"null","../img/tt/1101tt.jpg","null","mooney2","image-keyboard-response","109","639258","0.0-6.0-5.14","3188147","co38047","norming","","","","","","",""
"2619.490000000107","","","post_reveal_questions","survey-likert","110","641879","0.0-6.0-6.14","3188147","co38047","norming","","","{""aha"":4}","[0]","../img/tt/1101tt.jpg","",""
"null","<div style=""font-size:60px;""> </div>","null","fixation","html-keyboard-response","111","642081","0.0-6.0-0.15","3188147","co38047","norming","","","","","","",""
"null","../img/tt/1061tt.jpg","null","mooney1","image-keyboard-response","112","645084","0.0-6.0-1.15","3188147","co38047","norming","","","","","","",""
"5370.015000000363","","","post_mooney1_questions","survey-likert","113","650455","0.0-6.0-2.15","3188147","co38047","norming","","","{""curiosity"":3,""confidence"":3}","[0,1]","../img/tt/1061tt.jpg","",""
"2053.789999999921","","","recognition","survey-text","114","652510","0.0-6.0-3.15","3188147","co38047","norming","","","{""guess"":""soccer""}","","../img/tt/1061tt.jpg","",""
"null","../img/gs/1061gs.jpg","null","reveal","image-keyboard-response","115","654512","0.0-6.0-4.15","3188147","co38047","norming","","","","","","",""
"null","../img/tt/1061tt.jpg","null","mooney2","image-keyboard-response","116","656515","0.0-6.0-5.15","3188147","co38047","norming","","","","","","",""
"2434.8099999997066","","","post_reveal_questions","survey-likert","117","658951","0.0-6.0-6.15","3188147","co38047","norming","","","{""aha"":4}","[0]","../img/tt/1061tt.jpg","",""
"null","<div style=""font-size:60px;""> </div>","null","fixation","html-keyboard-response","118","659159","0.0-6.0-0.16","3188147","co38047","norming","","","","","","",""
"null","../img/tt/1202tt.jpg","null","mooney1","image-keyboard-response","119","662164","0.0-6.0-1.16","3188147","co38047","norming","","","","","","",""
"4297.419999999809","","","post_mooney1_questions","survey-likert","120","666463","0.0-6.0-2.16","3188147","co38047","norming","","","{""curiosity"":5,""confidence"":1}","[0,1]","../img/tt/1202tt.jpg","",""
"2046.009999999078","","","recognition","survey-text","121","668510","0.0-6.0-3.16","3188147","co38047","norming","","","{""guess"":""lion""}","","../img/tt/1202tt.jpg","",""
"null","../img/gs/1202gs.jpg","null","reveal","image-keyboard-response","122","670513","0.0-6.0-4.16","3188147","co38047","norming","","","","","","",""
"null","../img/tt/1202tt.jpg","null","mooney2","image-keyboard-response","123","672516","0.0-6.0-5.16","3188147","co38047","norming","","","","","","",""
"3346.6049999997485","","","post_reveal_questions","survey-likert","124","675863","0.0-6.0-6.16","3188147","co38047","norming","","","{""aha"":1}","[0]","../img/tt/1202tt.jpg","",""
"null","<div style=""font-size:60px;""> </div>","null","fixation","html-keyboard-response","125","676064","0.0-6.0-0.17","3188147","co38047","norming","","","","","","",""
"null","../img/tt/1224tt.jpg","null","mooney1","image-keyboard-response","126","679073","0.0-6.0-1.17","3188147","co38047","norming","","","","","","",""
"8165.089999999502","","","post_mooney1_questions","survey-likert","127","687247","0.0-6.0-2.17","3188147","co38047","norming","","","{""curiosity"":3,""confidence"":0}","[0,1]","../img/tt/1224tt.jpg","",""
"2085.9700000000885","","","recognition","survey-text","128","689335","0.0-6.0-3.17","3188147","co38047","norming","","","{""guess"":""judo""}","","../img/tt/1224tt.jpg","",""
"null","../img/gs/1224gs.jpg","null","reveal","image-keyboard-response","129","691341","0.0-6.0-4.17","3188147","co38047","norming","","","","","","",""
"null","../img/tt/1224tt.jpg","null","mooney2","image-keyboard-response","130","693348","0.0-6.0-5.17","3188147","co38047","norming","","","","","","",""
"3490.0049999996554","","","post_reveal_questions","survey-likert","131","696839","0.0-6.0-6.17","3188147","co38047","norming","","","{""aha"":0}","[0]","../img/tt/1224tt.jpg","",""
"null","<div style=""font-size:60px;""> </div>","null","fixation","html-keyboard-response","132","697047","0.0-6.0-0.18","3188147","co38047","norming","","","","","","",""
"null","../img/tt/598tt.jpg","null","mooney1","image-keyboard-response","133","700057","0.0-6.0-1.18","3188147","co38047","norming","","","","","","",""
"4835.989999999525","","","post_mooney1_questions","survey-likert","134","704895","0.0-6.0-2.18","3188147","co38047","norming","","","{""curiosity"":4,""confidence"":2}","[0,1]","../img/tt/598tt.jpg","",""
"1942.0000000001164","","","recognition","survey-text","135","706839","0.0-6.0-3.18","3188147","co38047","norming","","","{""guess"":""horse""}","","../img/tt/598tt.jpg","",""
"null","../img/gs/598gs.jpg","null","reveal","image-keyboard-response","136","708840","0.0-6.0-4.18","3188147","co38047","norming","","","","","","",""
"null","../img/tt/598tt.jpg","null","mooney2","image-keyboard-response","137","710843","0.0-6.0-5.18","3188147","co38047","norming","","","","","","",""
"2217.859999999753","","","post_reveal_questions","survey-likert","138","713063","0.0-6.0-6.18","3188147","co38047","norming","","","{""aha"":1}","[0]","../img/tt/598tt.jpg","",""
"null","<div style=""font-size:60px;""> </div>","null","fixation","html-keyboard-response","139","713269","0.0-6.0-0.19","3188147","co38047","norming","","","","","","",""
"null","../img/tt/1097tt.jpg","null","mooney1","image-keyboard-response","140","716271","0.0-6.0-1.19","3188147","co38047","norming","","","","","","",""
"6558.6849999999395","","","post_mooney1_questions","survey-likert","141","722831","0.0-6.0-2.19","3188147","co38047","norming","","","{""curiosity"":0,""confidence"":6}","[0,1]","../img/tt/1097tt.jpg","",""
"2789.819999999949","","","recognition","survey-text","142","725623","0.0-6.0-3.19","3188147","co38047","norming","","","{""guess"":""surfing""}","","../img/tt/1097tt.jpg","",""
"null","../img/gs/1097gs.jpg","null","reveal","image-keyboard-response","143","727633","0.0-6.0-4.19","3188147","co38047","norming","","","","","","",""
"null","../img/tt/1097tt.jpg","null","mooney2","image-keyboard-response","144","729640","0.0-6.0-5.19","3188147","co38047","norming","","","","","","",""
"4206.07500000007","","","post_reveal_questions","survey-likert","145","733847","0.0-6.0-6.19","3188147","co38047","norming","","","{""aha"":4}","[0]","../img/tt/1097tt.jpg","",""
"null","<div style=""font-size:60px;""> </div>","null","fixation","html-keyboard-response","146","734056","0.0-6.0-0.20","3188147","co38047","norming","","","","","","",""
"null","../img/tt/123tt.jpg","null","mooney1","image-keyboard-response","147","737065","0.0-6.0-1.20","3188147","co38047","norming","","","","","","",""
"3892.8050000004005","","","post_mooney1_questions","survey-likert","148","740959","0.0-6.0-2.20","3188147","co38047","norming","","","{""curiosity"":5,""confidence"":2}","[0,1]","../img/tt/123tt.jpg","",""
"2805.8849999997765","","","recognition","survey-text","149","743767","0.0-6.0-3.20","3188147","co38047","norming","","","{""guess"":""computer""}","","../img/tt/123tt.jpg","",""
"null","../img/gs/123gs.jpg","null","reveal","image-keyboard-response","150","745768","0.0-6.0-4.20","3188147","co38047","norming","","","","","","",""
"null","../img/tt/123tt.jpg","null","mooney2","image-keyboard-response","151","747775","0.0-6.0-5.20","3188147","co38047","norming","","","","","","",""
"2064.240000000689","","","post_reveal_questions","survey-likert","152","749841","0.0-6.0-6.20","3188147","co38047","norming","","","{""aha"":2}","[0]","../img/tt/123tt.jpg","",""
"null","<div style=""font-size:60px;""> </div>","null","fixation","html-keyboard-response","153","750048","0.0-6.0-0.21","3188147","co38047","norming","","","","","","",""
"null","../img/tt/1181tt.jpg","null","mooney1","image-keyboard-response","154","753058","0.0-6.0-1.21","3188147","co38047","norming","","","","","","",""
"10573.994999999763","","","post_mooney1_questions","survey-likert","155","763633","0.0-6.0-2.21","3188147","co38047","norming","","","{""curiosity"":4,""confidence"":2}","[0,1]","../img/tt/1181tt.jpg","",""
"2437.820000000065","","","recognition","survey-text","156","766073","0.0-6.0-3.21","3188147","co38047","norming","","","{""guess"":""train""}","","../img/tt/1181tt.jpg","",""
"null","../img/gs/1181gs.jpg","null","reveal","image-keyboard-response","157","768078","0.0-6.0-4.21","3188147","co38047","norming","","","","","","",""
"null","../img/tt/1181tt.jpg","null","mooney2","image-keyboard-response","158","770081","0.0-6.0-5.21","3188147","co38047","norming","","","","","","",""
"4342.714999999735","","","post_reveal_questions","survey-likert","159","774425","0.0-6.0-6.21","3188147","co38047","norming","","","{""aha"":5}","[0]","../img/tt/1181tt.jpg","",""
"null","<div style=""font-size:60px;""> </div>","null","fixation","html-keyboard-response","160","774627","0.0-6.0-0.22","3188147","co38047","norming","","","","","","",""
"null","../img/tt/296tt.jpg","null","mooney1","image-keyboard-response","161","777630","0.0-6.0-1.22","3188147","co38047","norming","","","","","","",""
"11137.204999999958","","","post_mooney1_questions","survey-likert","162","788769","0.0-6.0-2.22","3188147","co38047","norming","","","{""curiosity"":1,""confidence"":2}","[0,1]","../img/tt/296tt.jpg","",""
"3142.50999999966","","","recognition","survey-text","163","791913","0.0-6.0-3.22","3188147","co38047","norming","","","{""guess"":""zetel""}","","../img/tt/296tt.jpg","",""
"null","../img/gs/296gs.jpg","null","reveal","image-keyboard-response","164","793921","0.0-6.0-4.22","3188147","co38047","norming","","","","","","",""
"null","../img/tt/296tt.jpg","null","mooney2","image-keyboard-response","165","795923","0.0-6.0-5.22","3188147","co38047","norming","","","","","","",""
"2269.0350000002654","","","post_reveal_questions","survey-likert","166","798193","0.0-6.0-6.22","3188147","co38047","norming","","","{""aha"":4}","[0]","../img/tt/296tt.jpg","",""
"null","<div style=""font-size:60px;""> </div>","null","fixation","html-keyboard-response","167","798395","0.0-6.0-0.23","3188147","co38047","norming","","","","","","",""
"null","../img/tt/082tt.jpg","null","mooney1","image-keyboard-response","168","801404","0.0-6.0-1.23","3188147","co38047","norming","","","","","","",""
"7210.079999999842","","","post_mooney1_questions","survey-likert","169","808613","0.0-6.0-2.23","3188147","co38047","norming","","","{""curiosity"":1,""confidence"":6}","[0,1]","../img/tt/082tt.jpg","",""
"2606.1650000001537","","","recognition","survey-text","170","811221","0.0-6.0-3.23","3188147","co38047","norming","","","{""guess"":""parrot""}","","../img/tt/082tt.jpg","",""
"null","../img/gs/082gs.jpg","null","reveal","image-keyboard-response","171","813229","0.0-6.0-4.23","3188147","co38047","norming","","","","","","",""
"null","../img/tt/082tt.jpg","null","mooney2","image-keyboard-response","172","815233","0.0-6.0-5.23","3188147","co38047","norming","","","","","","",""
"3345.765000000014","","","post_reveal_questions","survey-likert","173","818581","0.0-6.0-6.23","3188147","co38047","norming","","","{""aha"":3}","[0]","../img/tt/082tt.jpg","",""
"null","<div style=""font-size:60px;""> </div>","null","fixation","html-keyboard-response","174","818785","0.0-6.0-0.24","3188147","co38047","norming","","","","","","",""
"null","../img/tt/064tt.jpg","null","mooney1","image-keyboard-response","175","821789","0.0-6.0-1.24","3188147","co38047","norming","","","","","","",""
"4317.689999999828","","","post_mooney1_questions","survey-likert","176","826109","0.0-6.0-2.24","3188147","co38047","norming","","","{""curiosity"":3,""confidence"":5}","[0,1]","../img/tt/064tt.jpg","",""
"1846.1299999998882","","","recognition","survey-text","177","827956","0.0-6.0-3.24","3188147","co38047","norming","","","{""guess"":""snake""}","","../img/tt/064tt.jpg","",""
"null","../img/gs/064gs.jpg","null","reveal","image-keyboard-response","178","829962","0.0-6.0-4.24","3188147","co38047","norming","","","","","","",""
"null","../img/tt/064tt.jpg","null","mooney2","image-keyboard-response","179","831965","0.0-6.0-5.24","3188147","co38047","norming","","","","","","",""
"5214.080000000657","","","post_reveal_questions","survey-likert","180","837181","0.0-6.0-6.24","3188147","co38047","norming","","","{""aha"":4}","[0]","../img/tt/064tt.jpg","",""
"null","<div style=""font-size:60px;""> </div>","null","fixation","html-keyboard-response","181","837391","0.0-6.0-0.25","3188147","co38047","norming","","","","","","",""
"null","../img/tt/438tt.jpg","null","mooney1","image-keyboard-response","182","840394","0.0-6.0-1.25","3188147","co38047","norming","","","","","","",""
"7472.055000000284","","","post_mooney1_questions","survey-likert","183","847869","0.0-6.0-2.25","3188147","co38047","norming","","","{""curiosity"":2,""confidence"":4}","[0,1]","../img/tt/438tt.jpg","",""
"8581.925000000396","","","recognition","survey-text","184","856453","0.0-6.0-3.25","3188147","co38047","norming","","","{""guess"":""vlinder""}","","../img/tt/438tt.jpg","",""
"null","../img/gs/438gs.jpg","null","reveal","image-keyboard-response","185","858464","0.0-6.0-4.25","3188147","co38047","norming","","","","","","",""
"null","../img/tt/438tt.jpg","null","mooney2","image-keyboard-response","186","860470","0.0-6.0-5.25","3188147","co38047","norming","","","","","","",""
"4972.069999999832","","","post_reveal_questions","survey-likert","187","865445","0.0-6.0-6.25","3188147","co38047","norming","","","{""aha"":2}","[0]","../img/tt/438tt.jpg","",""
"null","<div style=""font-size:60px;""> </div>","null","fixation","html-keyboard-response","188","865648","0.0-6.0-0.26","3188147","co38047","norming","","","","","","",""
"null","../img/tt/1126tt.jpg","null","mooney1","image-keyboard-response","189","868660","0.0-6.0-1.26","3188147","co38047","norming","","","","","","",""
"13637.125000000116","","","post_mooney1_questions","survey-likert","190","882298","0.0-6.0-2.26","3188147","co38047","norming","","","{""curiosity"":4,""confidence"":6}","[0,1]","../img/tt/1126tt.jpg","",""
"9677.929999999818","","","recognition","survey-text","191","891978","0.0-6.0-3.26","3188147","co38047","norming","","","{""guess"":""klimmen""}","","../img/tt/1126tt.jpg","",""
"null","../img/gs/1126gs.jpg","null","reveal","image-keyboard-response","192","893980","0.0-6.0-4.26","3188147","co38047","norming","","","","","","",""
"null","../img/tt/1126tt.jpg","null","mooney2","image-keyboard-response","193","895983","0.0-6.0-5.26","3188147","co38047","norming","","","","","","",""
"2961.7950000002747","","","post_reveal_questions","survey-likert","194","898946","0.0-6.0-6.26","3188147","co38047","norming","","","{""aha"":4}","[0]","../img/tt/1126tt.jpg","",""
"null","<div style=""font-size:60px;""> </div>","null","fixation","html-keyboard-response","195","899153","0.0-6.0-0.27","3188147","co38047","norming","","","","","","",""
"null","../img/tt/1048tt.jpg","null","mooney1","image-keyboard-response","196","902160","0.0-6.0-1.27","3188147","co38047","norming","","","","","","",""
"6424.755000000005","","","post_mooney1_questions","survey-likert","197","908586","0.0-6.0-2.27","3188147","co38047","norming","","","{""curiosity"":2,""confidence"":0}","[0,1]","../img/tt/1048tt.jpg","",""
"2702.0449999999255","","","recognition","survey-text","198","911290","0.0-6.0-3.27","3188147","co38047","norming","","","{""guess"":""Waterfall""}","","../img/tt/1048tt.jpg","",""
"null","../img/gs/1048gs.jpg","null","reveal","image-keyboard-response","199","913292","0.0-6.0-4.27","3188147","co38047","norming","","","","","","",""
"null","../img/tt/1048tt.jpg","null","mooney2","image-keyboard-response","200","915296","0.0-6.0-5.27","3188147","co38047","norming","","","","","","",""
"2873.050000000163","","","post_reveal_questions","survey-likert","201","918170","0.0-6.0-6.27","3188147","co38047","norming","","","{""aha"":0}","[0]","../img/tt/1048tt.jpg","",""
"null","<div style=""font-size:60px;""> </div>","null","fixation","html-keyboard-response","202","918378","0.0-6.0-0.28","3188147","co38047","norming","","","","","","",""
"null","../img/tt/1262tt.jpg","null","mooney1","image-keyboard-response","203","921381","0.0-6.0-1.28","3188147","co38047","norming","","","","","","",""
"6820.040000000503","","","post_mooney1_questions","survey-likert","204","928202","0.0-6.0-2.28","3188147","co38047","norming","","","{""curiosity"":2,""confidence"":1}","[0,1]","../img/tt/1262tt.jpg","",""
"1773.9249999994645","","","recognition","survey-text","205","929972","0.0-6.0-3.28","3188147","co38047","norming","","","{""guess"":""bird""}","","../img/tt/1262tt.jpg","",""
"null","../img/gs/1262gs.jpg","null","reveal","image-keyboard-response","206","931973","0.0-6.0-4.28","3188147","co38047","norming","","","","","","",""
"null","../img/tt/1262tt.jpg","null","mooney2","image-keyboard-response","207","933983","0.0-6.0-5.28","3188147","co38047","norming","","","","","","",""
"2803.149999999674","","","post_reveal_questions","survey-likert","208","936788","0.0-6.0-6.28","3188147","co38047","norming","","","{""aha"":1}","[0]","../img/tt/1262tt.jpg","",""
"null","<div style=""font-size:60px;""> </div>","null","fixation","html-keyboard-response","209","936990","0.0-6.0-0.29","3188147","co38047","norming","","","","","","",""
"null","../img/tt/1154tt.jpg","null","mooney1","image-keyboard-response","210","939998","0.0-6.0-1.29","3188147","co38047","norming","","","","","","",""
"5492.9400000000605","","","post_mooney1_questions","survey-likert","211","945492","0.0-6.0-2.29","3188147","co38047","norming","","","{""curiosity"":2,""confidence"":6}","[0,1]","../img/tt/1154tt.jpg","",""
"4669.970000000903","","","recognition","survey-text","212","950164","0.0-6.0-3.29","3188147","co38047","norming","","","{""guess"":""kajakken""}","","../img/tt/1154tt.jpg","",""
"null","../img/gs/1154gs.jpg","null","reveal","image-keyboard-response","213","952166","0.0-6.0-4.29","3188147","co38047","norming","","","","","","",""
"null","../img/tt/1154tt.jpg","null","mooney2","image-keyboard-response","214","954169","0.0-6.0-5.29","3188147","co38047","norming","","","","","","",""
"4415.875000000582","","","post_reveal_questions","survey-likert","215","958588","0.0-6.0-6.29","3188147","co38047","norming","","","{""aha"":3}","[0]","../img/tt/1154tt.jpg","",""
"null","<div style=""font-size:60px;""> </div>","null","fixation","html-keyboard-response","216","958799","0.0-6.0-0.30","3188147","co38047","norming","","","","","","",""
"null","../img/tt/456tt.jpg","null","mooney1","image-keyboard-response","217","961809","0.0-6.0-1.30","3188147","co38047","norming","","","","","","",""
"5056.709999999846","","","post_mooney1_questions","survey-likert","218","966868","0.0-6.0-2.30","3188147","co38047","norming","","","{""curiosity"":5,""confidence"":0}","[0,1]","../img/tt/456tt.jpg","",""
"5053.930000000051","","","recognition","survey-text","219","971924","0.0-6.0-3.30","3188147","co38047","norming","","","{""guess"":""tiger""}","","../img/tt/456tt.jpg","",""
"null","../img/gs/456gs.jpg","null","reveal","image-keyboard-response","220","973932","0.0-6.0-4.30","3188147","co38047","norming","","","","","","",""
"null","../img/tt/456tt.jpg","null","mooney2","image-keyboard-response","221","975941","0.0-6.0-5.30","3188147","co38047","norming","","","","","","",""
"3460.0350000000326","","","post_reveal_questions","survey-likert","222","979404","0.0-6.0-6.30","3188147","co38047","norming","","","{""aha"":0}","[0]","../img/tt/456tt.jpg","",""
"null","<div style=""font-size:60px;""> </div>","null","fixation","html-keyboard-response","223","979606","0.0-6.0-0.31","3188147","co38047","norming","","","","","","",""
"null","../img/tt/1188tt.jpg","null","mooney1","image-keyboard-response","224","982607","0.0-6.0-1.31","3188147","co38047","norming","","","","","","",""
"4074.3950000004843","","","post_mooney1_questions","survey-likert","225","986684","0.0-6.0-2.31","3188147","co38047","norming","","","{""curiosity"":0,""confidence"":6}","[0,1]","../img/tt/1188tt.jpg","",""
"12182.139999999898","","","recognition","survey-text","226","998875","0.0-6.0-3.31","3188147","co38047","norming","","","{""guess"":""wielrenner""}","","../img/tt/1188tt.jpg","",""
"null","../img/gs/1188gs.jpg","null","reveal","image-keyboard-response","227","1000883","0.0-6.0-4.31","3188147","co38047","norming","","","","","","",""
"null","../img/tt/1188tt.jpg","null","mooney2","image-keyboard-response","228","1002891","0.0-6.0-5.31","3188147","co38047","norming","","","","","","",""
"2989.010000000242","","","post_reveal_questions","survey-likert","229","1005883","0.0-6.0-6.31","3188147","co38047","norming","","","{""aha"":2}","[0]","../img/tt/1188tt.jpg","",""
"null","<div style=""font-size:60px;""> </div>","null","fixation","html-keyboard-response","230","1006085","0.0-6.0-0.32","3188147","co38047","norming","","","","","","",""
"null","../img/tt/1205tt.jpg","null","mooney1","image-keyboard-response","231","1009094","0.0-6.0-1.32","3188147","co38047","norming","","","","","","",""
"4930.980000000098","","","post_mooney1_questions","survey-likert","232","1014027","0.0-6.0-2.32","3188147","co38047","norming","","","{""curiosity"":4,""confidence"":0}","[0,1]","../img/tt/1205tt.jpg","",""
"1134.090000000433","","","recognition","survey-text","233","1015163","0.0-6.0-3.32","3188147","co38047","norming","","","{""guess"":""""}","","../img/tt/1205tt.jpg","",""
"null","../img/gs/1205gs.jpg","null","reveal","image-keyboard-response","234","1017169","0.0-6.0-4.32","3188147","co38047","norming","","","","","","",""
"null","../img/tt/1205tt.jpg","null","mooney2","image-keyboard-response","235","1019178","0.0-6.0-5.32","3188147","co38047","norming","","","","","","",""
"3846.410000000149","","","post_reveal_questions","survey-likert","236","1023027","0.0-6.0-6.32","3188147","co38047","norming","","","{""aha"":1}","[0]","../img/tt/1205tt.jpg","",""
"null","<div style=""font-size:60px;""> </div>","null","fixation","html-keyboard-response","237","1023229","0.0-6.0-0.33","3188147","co38047","norming","","","","","","",""
"null","../img/tt/001tt.jpg","null","mooney1","image-keyboard-response","238","1026238","0.0-6.0-1.33","3188147","co38047","norming","","","","","","",""
"4442.149999999907","","","post_mooney1_questions","survey-likert","239","1030683","0.0-6.0-2.33","3188147","co38047","norming","","","{""curiosity"":4,""confidence"":1}","[0,1]","../img/tt/001tt.jpg","",""
"2397.794999999809","","","recognition","survey-text","240","1033083","0.0-6.0-3.33","3188147","co38047","norming","","","{""guess"":""cow""}","","../img/tt/001tt.jpg","",""
"null","../img/gs/001gs.jpg","null","reveal","image-keyboard-response","241","1035084","0.0-6.0-4.33","3188147","co38047","norming","","","","","","",""
"null","../img/tt/001tt.jpg","null","mooney2","image-keyboard-response","242","1037088","0.0-6.0-5.33","3188147","co38047","norming","","","","","","",""
"3625.1150000008056","","","post_reveal_questions","survey-likert","243","1040715","0.0-6.0-6.33","3188147","co38047","norming","","","{""aha"":2}","[0]","../img/tt/001tt.jpg","",""
"null","<div style=""font-size:60px;""> </div>","null","fixation","html-keyboard-response","244","1040925","0.0-6.0-0.34","3188147","co38047","norming","","","","","","",""
"null","../img/tt/507tt.jpg","null","mooney1","image-keyboard-response","245","1043937","0.0-6.0-1.34","3188147","co38047","norming","","","","","","",""
"5454.320000000764","","","post_mooney1_questions","survey-likert","246","1049390","0.0-6.0-2.34","3188147","co38047","norming","","","{""curiosity"":3,""confidence"":1}","[0,1]","../img/tt/507tt.jpg","",""
"2134.0950000004377","","","recognition","survey-text","247","1051526","0.0-6.0-3.34","3188147","co38047","norming","","","{""guess"":""party""}","","../img/tt/507tt.jpg","",""
"null","../img/gs/507gs.jpg","null","reveal","image-keyboard-response","248","1053528","0.0-6.0-4.34","3188147","co38047","norming","","","","","","",""
"null","../img/tt/507tt.jpg","null","mooney2","image-keyboard-response","249","1055537","0.0-6.0-5.34","3188147","co38047","norming","","","","","","",""
"4466.185000000289","","","post_reveal_questions","survey-likert","250","1060006","0.0-6.0-6.34","3188147","co38047","norming","","","{""aha"":1}","[0]","../img/tt/507tt.jpg","",""
"null","<div style=""font-size:60px;""> </div>","null","fixation","html-keyboard-response","251","1060214","0.0-6.0-0.35","3188147","co38047","norming","","","","","","",""
"null","../img/tt/436tt.jpg","null","mooney1","image-keyboard-response","252","1063222","0.0-6.0-1.35","3188147","co38047","norming","","","","","","",""
"7757.184999999357","","","post_mooney1_questions","survey-likert","253","1070982","0.0-6.0-2.35","3188147","co38047","norming","","","{""curiosity"":4,""confidence"":0}","[0,1]","../img/tt/436tt.jpg","",""
"2206.3950000002515","","","recognition","survey-text","254","1073190","0.0-6.0-3.35","3188147","co38047","norming","","","{""guess"":""flower""}","","../img/tt/436tt.jpg","",""
"null","../img/gs/436gs.jpg","null","reveal","image-keyboard-response","255","1075192","0.0-6.0-4.35","3188147","co38047","norming","","","","","","",""
"null","../img/tt/436tt.jpg","null","mooney2","image-keyboard-response","256","1077198","0.0-6.0-5.35","3188147","co38047","norming","","","","","","",""
"2469.1149999999907","","","post_reveal_questions","survey-likert","257","1079670","0.0-6.0-6.35","3188147","co38047","norming","","","{""aha"":0}","[0]","../img/tt/436tt.jpg","",""
"null","<div style=""font-size:60px;""> </div>","null","fixation","html-keyboard-response","258","1079874","0.0-6.0-0.36","3188147","co38047","norming","","","","","","",""
"null","../img/tt/380tt.jpg","null","mooney1","image-keyboard-response","259","1082885","0.0-6.0-1.36","3188147","co38047","norming","","","","","","",""
"4637.560000000056","","","post_mooney1_questions","survey-likert","260","1087526","0.0-6.0-2.36","3188147","co38047","norming","","","{""curiosity"":4,""confidence"":3}","[0,1]","../img/tt/380tt.jpg","",""
"9774.110000000102","","","recognition","survey-text","261","1097302","0.0-6.0-3.36","3188147","co38047","norming","","","{""guess"":""bear""}","","../img/tt/380tt.jpg","",""
"null","../img/gs/380gs.jpg","null","reveal","image-keyboard-response","262","1099307","0.0-6.0-4.36","3188147","co38047","norming","","","","","","",""
"null","../img/tt/380tt.jpg","null","mooney2","image-keyboard-response","263","1101315","0.0-6.0-5.36","3188147","co38047","norming","","","","","","",""
"4705.91999999946","","","post_reveal_questions","survey-likert","264","1106022","0.0-6.0-6.36","3188147","co38047","norming","","","{""aha"":0}","[0]","../img/tt/380tt.jpg","",""
"null","<div style=""font-size:60px;""> </div>","null","fixation","html-keyboard-response","265","1106233","0.0-6.0-0.37","3188147","co38047","norming","","","","","","",""
"null","../img/tt/078tt.jpg","null","mooney1","image-keyboard-response","266","1109235","0.0-6.0-1.37","3188147","co38047","norming","","","","","","",""
"4368.2849999994505","","","post_mooney1_questions","survey-likert","267","1113611","0.0-6.0-2.37","3188147","co38047","norming","","","{""curiosity"":2,""confidence"":3}","[0,1]","../img/tt/078tt.jpg","",""
"4366.129999999423","","","recognition","survey-text","268","1117979","0.0-6.0-3.37","3188147","co38047","norming","","","{""guess"":""grapes""}","","../img/tt/078tt.jpg","",""
"null","../img/gs/078gs.jpg","null","reveal","image-keyboard-response","269","1119982","0.0-6.0-4.37","3188147","co38047","norming","","","","","","",""
"null","../img/tt/078tt.jpg","null","mooney2","image-keyboard-response","270","1121988","0.0-6.0-5.37","3188147","co38047","norming","","","","","","",""
"2748.9700000004377","","","post_reveal_questions","survey-likert","271","1124739","0.0-6.0-6.37","3188147","co38047","norming","","","{""aha"":4}","[0]","../img/tt/078tt.jpg","",""
"null","<div style=""font-size:60px;""> </div>","null","fixation","html-keyboard-response","272","1124950","0.0-6.0-0.38","3188147","co38047","norming","","","","","","",""
"null","../img/tt/1107tt.jpg","null","mooney1","image-keyboard-response","273","1127963","0.0-6.0-1.38","3188147","co38047","norming","","","","","","",""
"6965.709999999497","","","post_mooney1_questions","survey-likert","274","1134931","0.0-6.0-2.38","3188147","co38047","norming","","","{""curiosity"":1,""confidence"":6}","[0,1]","../img/tt/1107tt.jpg","",""
"2198.035000000382","","","recognition","survey-text","275","1137131","0.0-6.0-3.38","3188147","co38047","norming","","","{""guess"":""cat""}","","../img/tt/1107tt.jpg","",""
"null","../img/gs/1107gs.jpg","null","reveal","image-keyboard-response","276","1139139","0.0-6.0-4.38","3188147","co38047","norming","","","","","","",""
"null","../img/tt/1107tt.jpg","null","mooney2","image-keyboard-response","277","1141141","0.0-6.0-5.38","3188147","co38047","norming","","","","","","",""
"2843.6200000005774","","","post_reveal_questions","survey-likert","278","1143987","0.0-6.0-6.38","3188147","co38047","norming","","","{""aha"":2}","[0]","../img/tt/1107tt.jpg","",""
"null","<div style=""font-size:60px;""> </div>","null","fixation","html-keyboard-response","279","1144190","0.0-6.0-0.39","3188147","co38047","norming","","","","","","",""
"null","../img/tt/076tt.jpg","null","mooney1","image-keyboard-response","280","1147201","0.0-6.0-1.39","3188147","co38047","norming","","","","","","",""
"12239.125000000233","","","post_mooney1_questions","survey-likert","281","1159443","0.0-6.0-2.39","3188147","co38047","norming","","","{""curiosity"":2,""confidence"":6}","[0,1]","../img/tt/076tt.jpg","",""
"25677.780000000028","","","recognition","survey-text","282","1185123","0.0-6.0-3.39","3188147","co38047","norming","","","{""guess"":""skates ""}","","../img/tt/076tt.jpg","",""
"null","../img/gs/076gs.jpg","null","reveal","image-keyboard-response","283","1187127","0.0-6.0-4.39","3188147","co38047","norming","","","","","","",""
"null","../img/tt/076tt.jpg","null","mooney2","image-keyboard-response","284","1189132","0.0-6.0-5.39","3188147","co38047","norming","","","","","","",""
"1941.2000000001863","","","post_reveal_questions","survey-likert","285","1191075","0.0-6.0-6.39","3188147","co38047","norming","","","{""aha"":3}","[0]","../img/tt/076tt.jpg","",""
"null","<div style=""font-size:60px;""> </div>","null","fixation","html-keyboard-response","286","1191278","0.0-6.0-0.40","3188147","co38047","norming","","","","","","",""
"null","../img/tt/1247tt.jpg","null","mooney1","image-keyboard-response","287","1194283","0.0-6.0-1.40","3188147","co38047","norming","","","","","","",""
"4405.700000000186","","","post_mooney1_questions","survey-likert","288","1198692","0.0-6.0-2.40","3188147","co38047","norming","","","{""curiosity"":5,""confidence"":2}","[0,1]","../img/tt/1247tt.jpg","",""
"3125.465000000084","","","recognition","survey-text","289","1201819","0.0-6.0-3.40","3188147","co38047","norming","","","{""guess"":""lion""}","","../img/tt/1247tt.jpg","",""
"null","../img/gs/1247gs.jpg","null","reveal","image-keyboard-response","290","1203828","0.0-6.0-4.40","3188147","co38047","norming","","","","","","",""
"null","../img/tt/1247tt.jpg","null","mooney2","image-keyboard-response","291","1205838","0.0-6.0-5.40","3188147","co38047","norming","","","","","","",""
"3523.0750000001863","","","post_reveal_questions","survey-likert","292","1209363","0.0-6.0-6.40","3188147","co38047","norming","","","{""aha"":4}","[0]","../img/tt/1247tt.jpg","",""
"null","<div style=""font-size:60px;""> </div>","null","fixation","html-keyboard-response","293","1209571","0.0-6.0-0.41","3188147","co38047","norming","","","","","","",""
"null","../img/tt/046tt.jpg","null","mooney1","image-keyboard-response","294","1212574","0.0-6.0-1.41","3188147","co38047","norming","","","","","","",""
"3874.2400000002235","","","post_mooney1_questions","survey-likert","295","1216451","0.0-6.0-2.41","3188147","co38047","norming","","","{""curiosity"":1,""confidence"":6}","[0,1]","../img/tt/046tt.jpg","",""
"1574.3050000001676","","","recognition","survey-text","296","1218027","0.0-6.0-3.41","3188147","co38047","norming","","","{""guess"":""dog""}","","../img/tt/046tt.jpg","",""
"null","../img/gs/046gs.jpg","null","reveal","image-keyboard-response","297","1220036","0.0-6.0-4.41","3188147","co38047","norming","","","","","","",""
"null","../img/tt/046tt.jpg","null","mooney2","image-keyboard-response","298","1222047","0.0-6.0-5.41","3188147","co38047","norming","","","","","","",""
"3545.204999999376","","","post_reveal_questions","survey-likert","299","1225595","0.0-6.0-6.41","3188147","co38047","norming","","","{""aha"":2}","[0]","../img/tt/046tt.jpg","",""
"null","<div style=""font-size:60px;""> </div>","null","fixation","html-keyboard-response","300","1225803","0.0-6.0-0.42","3188147","co38047","norming","","","","","","",""
"null","../img/tt/1278tt.jpg","null","mooney1","image-keyboard-response","301","1228814","0.0-6.0-1.42","3188147","co38047","norming","","","","","","",""
"5411.975000000093","","","post_mooney1_questions","survey-likert","302","1234228","0.0-6.0-2.42","3188147","co38047","norming","","","{""curiosity"":4,""confidence"":1}","[0,1]","../img/tt/1278tt.jpg","",""
"3430.0750000001863","","","recognition","survey-text","303","1237659","0.0-6.0-3.42","3188147","co38047","norming","","","{""guess"":""dog""}","","../img/tt/1278tt.jpg","",""
"null","../img/gs/1278gs.jpg","null","reveal","image-keyboard-response","304","1239665","0.0-6.0-4.42","3188147","co38047","norming","","","","","","",""
"null","../img/tt/1278tt.jpg","null","mooney2","image-keyboard-response","305","1241675","0.0-6.0-5.42","3188147","co38047","norming","","","","","","",""
"6067.134999999311","","","post_reveal_questions","survey-likert","306","1247748","0.0-6.0-6.42","3188147","co38047","norming","","","{""aha"":0}","[0]","../img/tt/1278tt.jpg","",""
"null","<div style=""font-size:60px;""> </div>","null","fixation","html-keyboard-response","307","1247949","0.0-6.0-0.43","3188147","co38047","norming","","","","","","",""
"null","../img/tt/1070tt.jpg","null","mooney1","image-keyboard-response","308","1250956","0.0-6.0-1.43","3188147","co38047","norming","","","","","","",""
"5683.995000000345","","","post_mooney1_questions","survey-likert","309","1256644","0.0-6.0-2.43","3188147","co38047","norming","","","{""curiosity"":4,""confidence"":1}","[0,1]","../img/tt/1070tt.jpg","",""
"4726.230000000214","","","recognition","survey-text","310","1261372","0.0-6.0-3.43","3188147","co38047","norming","","","{""guess"":""hotdog""}","","../img/tt/1070tt.jpg","",""
"null","../img/gs/1070gs.jpg","null","reveal","image-keyboard-response","311","1263378","0.0-6.0-4.43","3188147","co38047","norming","","","","","","",""
"null","../img/tt/1070tt.jpg","null","mooney2","image-keyboard-response","312","1265381","0.0-6.0-5.43","3188147","co38047","norming","","","","","","",""
"3188.2249999998603","","","post_reveal_questions","survey-likert","313","1268571","0.0-6.0-6.43","3188147","co38047","norming","","","{""aha"":2}","[0]","../img/tt/1070tt.jpg","",""
"null","<div style=""font-size:60px;""> </div>","null","fixation","html-keyboard-response","314","1268779","0.0-6.0-0.44","3188147","co38047","norming","","","","","","",""
"null","../img/tt/1043tt.jpg","null","mooney1","image-keyboard-response","315","1271787","0.0-6.0-1.44","3188147","co38047","norming","","","","","","",""
"5765.330000000307","","","post_mooney1_questions","survey-likert","316","1277556","0.0-6.0-2.44","3188147","co38047","norming","","","{""curiosity"":3,""confidence"":0}","[0,1]","../img/tt/1043tt.jpg","",""
"709.9699999999721","","","recognition","survey-text","317","1278267","0.0-6.0-3.44","3188147","co38047","norming","","","{""guess"":""""}","","../img/tt/1043tt.jpg","",""
"null","../img/gs/1043gs.jpg","null","reveal","image-keyboard-response","318","1280274","0.0-6.0-4.44","3188147","co38047","norming","","","","","","",""
"null","../img/tt/1043tt.jpg","null","mooney2","image-keyboard-response","319","1282279","0.0-6.0-5.44","3188147","co38047","norming","","","","","","",""
"5809.664999999804","","","post_reveal_questions","survey-likert","320","1288091","0.0-6.0-6.44","3188147","co38047","norming","","","{""aha"":6}","[0]","../img/tt/1043tt.jpg","",""
"null","<div style=""font-size:60px;""> </div>","null","fixation","html-keyboard-response","321","1288298","0.0-6.0-0.45","3188147","co38047","norming","","","","","","",""
"null","../img/tt/1250tt.jpg","null","mooney1","image-keyboard-response","322","1291303","0.0-6.0-1.45","3188147","co38047","norming","","","","","","",""
"5160.77500000014","","","post_mooney1_questions","survey-likert","323","1296465","0.0-6.0-2.45","3188147","co38047","norming","","","{""curiosity"":2,""confidence"":3}","[0,1]","../img/tt/1250tt.jpg","",""
"1734.0750000001863","","","recognition","survey-text","324","1298201","0.0-6.0-3.45","3188147","co38047","norming","","","{""guess"":""sea""}","","../img/tt/1250tt.jpg","",""
"null","../img/gs/1250gs.jpg","null","reveal","image-keyboard-response","325","1300202","0.0-6.0-4.45","3188147","co38047","norming","","","","","","",""
"null","../img/tt/1250tt.jpg","null","mooney2","image-keyboard-response","326","1302205","0.0-6.0-5.45","3188147","co38047","norming","","","","","","",""
"4144.6150000002235","","","post_reveal_questions","survey-likert","327","1306353","0.0-6.0-6.45","3188147","co38047","norming","","","{""aha"":5}","[0]","../img/tt/1250tt.jpg","",""
"null","<div style=""font-size:60px;""> </div>","null","fixation","html-keyboard-response","328","1306564","0.0-6.0-0.46","3188147","co38047","norming","","","","","","",""
"null","../img/tt/1290tt.jpg","null","mooney1","image-keyboard-response","329","1309573","0.0-6.0-1.46","3188147","co38047","norming","","","","","","",""
"9919.560000000289","","","post_mooney1_questions","survey-likert","330","1319497","0.0-6.0-2.46","3188147","co38047","norming","","","{""curiosity"":3,""confidence"":0}","[0,1]","../img/tt/1290tt.jpg","",""
"4174.334999999497","","","recognition","survey-text","331","1323673","0.0-6.0-3.46","3188147","co38047","norming","","","{""guess"":""fish""}","","../img/tt/1290tt.jpg","",""
"null","../img/gs/1290gs.jpg","null","reveal","image-keyboard-response","332","1325682","0.0-6.0-4.46","3188147","co38047","norming","","","","","","",""
"null","../img/tt/1290tt.jpg","null","mooney2","image-keyboard-response","333","1327691","0.0-6.0-5.46","3188147","co38047","norming","","","","","","",""
"4395.129999999888","","","post_reveal_questions","survey-likert","334","1332089","0.0-6.0-6.46","3188147","co38047","norming","","","{""aha"":4}","[0]","../img/tt/1290tt.jpg","",""
"null","<div style=""font-size:60px;""> </div>","null","fixation","html-keyboard-response","335","1332298","0.0-6.0-0.47","3188147","co38047","norming","","","","","","",""
"null","../img/tt/1255tt.jpg","null","mooney1","image-keyboard-response","336","1335307","0.0-6.0-1.47","3188147","co38047","norming","","","","","","",""
"4962.524999999907","","","post_mooney1_questions","survey-likert","337","1340273","0.0-6.0-2.47","3188147","co38047","norming","","","{""curiosity"":4,""confidence"":1}","[0,1]","../img/tt/1255tt.jpg","",""
"3397.6550000007264","","","recognition","survey-text","338","1343673","0.0-6.0-3.47","3188147","co38047","norming","","","{""guess"":""crocodile""}","","../img/tt/1255tt.jpg","",""
"null","../img/gs/1255gs.jpg","null","reveal","image-keyboard-response","339","1345681","0.0-6.0-4.47","3188147","co38047","norming","","","","","","",""
"null","../img/tt/1255tt.jpg","null","mooney2","image-keyboard-response","340","1347690","0.0-6.0-5.47","3188147","co38047","norming","","","","","","",""
"5564.169999999693","","","post_reveal_questions","survey-likert","341","1353257","0.0-6.0-6.47","3188147","co38047","norming","","","{""aha"":4}","[0]","../img/tt/1255tt.jpg","",""
"null","<div style=""font-size:60px;""> </div>","null","fixation","html-keyboard-response","342","1353467","0.0-6.0-0.48","3188147","co38047","norming","","","","","","",""
"null","../img/tt/1148tt.jpg","null","mooney1","image-keyboard-response","343","1356480","0.0-6.0-1.48","3188147","co38047","norming","","","","","","",""
"4389.869999999879","","","post_mooney1_questions","survey-likert","344","1360872","0.0-6.0-2.48","3188147","co38047","norming","","","{""curiosity"":2,""confidence"":4}","[0,1]","../img/tt/1148tt.jpg","",""
"2582.0849999999627","","","recognition","survey-text","345","1363456","0.0-6.0-3.48","3188147","co38047","norming","","","{""guess"":""chicken""}","","../img/tt/1148tt.jpg","",""
"null","../img/gs/1148gs.jpg","null","reveal","image-keyboard-response","346","1365457","0.0-6.0-4.48","3188147","co38047","norming","","","","","","",""
"null","../img/tt/1148tt.jpg","null","mooney2","image-keyboard-response","347","1367466","0.0-6.0-5.48","3188147","co38047","norming","","","","","","",""
"3474.91999999946","","","post_reveal_questions","survey-likert","348","1370943","0.0-6.0-6.48","3188147","co38047","norming","","","{""aha"":2}","[0]","../img/tt/1148tt.jpg","",""
"null","<div style=""font-size:60px;""> </div>","null","fixation","html-keyboard-response","349","1371149","0.0-6.0-0.49","3188147","co38047","norming","","","","","","",""
"null","../img/tt/063tt.jpg","null","mooney1","image-keyboard-response","350","1374152","0.0-6.0-1.49","3188147","co38047","norming","","","","","","",""
"6556.980000000214","","","post_mooney1_questions","survey-likert","351","1380712","0.0-6.0-2.49","3188147","co38047","norming","","","{""curiosity"":1,""confidence"":6}","[0,1]","../img/tt/063tt.jpg","",""
"4518.0550000004005","","","recognition","survey-text","352","1385232","0.0-6.0-3.49","3188147","co38047","norming","","","{""guess"":""accordeon""}","","../img/tt/063tt.jpg","",""
"null","../img/gs/063gs.jpg","null","reveal","image-keyboard-response","353","1387235","0.0-6.0-4.49","3188147","co38047","norming","","","","","","",""
"null","../img/tt/063tt.jpg","null","mooney2","image-keyboard-response","354","1389240","0.0-6.0-5.49","3188147","co38047","norming","","","","","","",""
"9061.27500000014","","","post_reveal_questions","survey-likert","355","1398304","0.0-6.0-6.49","3188147","co38047","norming","","","{""aha"":6}","[0]","../img/tt/063tt.jpg","",""
"null","<div style=""font-size:60px;""> </div>","null","fixation","html-keyboard-response","356","1398508","0.0-6.0-0.50","3188147","co38047","norming","","","","","","",""
"null","../img/tt/307tt.jpg","null","mooney1","image-keyboard-response","357","1401518","0.0-6.0-1.50","3188147","co38047","norming","","","","","","",""
"6358.155000000028","","","post_mooney1_questions","survey-likert","358","1407880","0.0-6.0-2.50","3188147","co38047","norming","","","{""curiosity"":2,""confidence"":1}","[0,1]","../img/tt/307tt.jpg","",""
"1782.0250000006054","","","recognition","survey-text","359","1409664","0.0-6.0-3.50","3188147","co38047","norming","","","{""guess"":""shoe""}","","../img/tt/307tt.jpg","",""
"null","../img/gs/307gs.jpg","null","reveal","image-keyboard-response","360","1411672","0.0-6.0-4.50","3188147","co38047","norming","","","","","","",""
"null","../img/tt/307tt.jpg","null","mooney2","image-keyboard-response","361","1413682","0.0-6.0-5.50","3188147","co38047","norming","","","","","","",""
"3570.265000000363","","","post_reveal_questions","survey-likert","362","1417250","0.0-6.0-6.50","3188147","co38047","norming","","","{""aha"":4}","[0]","../img/tt/307tt.jpg","",""
"null","<div style=""font-size:60px;""> </div>","null","fixation","html-keyboard-response","363","1417454","0.0-6.0-0.51","3188147","co38047","norming","","","","","","",""
"null","../img/tt/1217tt.jpg","null","mooney1","image-keyboard-response","364","1420462","0.0-6.0-1.51","3188147","co38047","norming","","","","","","",""
"7679.870000000112","","","post_mooney1_questions","survey-likert","365","1428146","0.0-6.0-2.51","3188147","co38047","norming","","","{""curiosity"":4,""confidence"":2}","[0,1]","../img/tt/1217tt.jpg","",""
"2070.2099999999627","","","recognition","survey-text","366","1430218","0.0-6.0-3.51","3188147","co38047","norming","","","{""guess"":""sheep""}","","../img/tt/1217tt.jpg","",""
"null","../img/gs/1217gs.jpg","null","reveal","image-keyboard-response","367","1432222","0.0-6.0-4.51","3188147","co38047","norming","","","","","","",""
"null","../img/tt/1217tt.jpg","null","mooney2","image-keyboard-response","368","1434225","0.0-6.0-5.51","3188147","co38047","norming","","","","","","",""
"4398.459999999497","","","post_reveal_questions","survey-likert","369","1438626","0.0-6.0-6.51","3188147","co38047","norming","","","{""aha"":2}","[0]","../img/tt/1217tt.jpg","",""
"null","<div style=""font-size:60px;""> </div>","null","fixation","html-keyboard-response","370","1438831","0.0-6.0-0.52","3188147","co38047","norming","","","","","","",""
"null","../img/tt/1127tt.jpg","null","mooney1","image-keyboard-response","371","1441832","0.0-6.0-1.52","3188147","co38047","norming","","","","","","",""
"6086.594999999739","","","post_mooney1_questions","survey-likert","372","1447923","0.0-6.0-2.52","3188147","co38047","norming","","","{""curiosity"":2,""confidence"":3}","[0,1]","../img/tt/1127tt.jpg","",""
"2181.6500000003725","","","recognition","survey-text","373","1450106","0.0-6.0-3.52","3188147","co38047","norming","","","{""guess"":""school""}","","../img/tt/1127tt.jpg","",""
"null","../img/gs/1127gs.jpg","null","reveal","image-keyboard-response","374","1452108","0.0-6.0-4.52","3188147","co38047","norming","","","","","","",""
"null","../img/tt/1127tt.jpg","null","mooney2","image-keyboard-response","375","1454110","0.0-6.0-5.52","3188147","co38047","norming","","","","","","",""
"3088.864999999758","","","post_reveal_questions","survey-likert","376","1457202","0.0-6.0-6.52","3188147","co38047","norming","","","{""aha"":4}","[0]","../img/tt/1127tt.jpg","",""
"null","<div style=""font-size:60px;""> </div>","null","fixation","html-keyboard-response","377","1457404","0.0-6.0-0.53","3188147","co38047","norming","","","","","","",""
"null","../img/tt/522tt.jpg","null","mooney1","image-keyboard-response","378","1460407","0.0-6.0-1.53","3188147","co38047","norming","","","","","","",""
"4839.5099999997765","","","post_mooney1_questions","survey-likert","379","1465250","0.0-6.0-2.53","3188147","co38047","norming","","","{""curiosity"":4,""confidence"":0}","[0,1]","../img/tt/522tt.jpg","",""
"7077.769999999786","","","recognition","survey-text","380","1472330","0.0-6.0-3.53","3188147","co38047","norming","","","{""guess"":""beard""}","","../img/tt/522tt.jpg","",""
"null","../img/gs/522gs.jpg","null","reveal","image-keyboard-response","381","1474340","0.0-6.0-4.53","3188147","co38047","norming","","","","","","",""
"null","../img/tt/522tt.jpg","null","mooney2","image-keyboard-response","382","1476343","0.0-6.0-5.53","3188147","co38047","norming","","","","","","",""
"3688.6500000001397","","","post_reveal_questions","survey-likert","383","1480041","0.0-6.0-6.53","3188147","co38047","norming","","","{""aha"":6}","[0]","../img/tt/522tt.jpg","",""
"null","<div style=""font-size:60px;""> </div>","null","fixation","html-keyboard-response","384","1480246","0.0-6.0-0.54","3188147","co38047","norming","","","","","","",""
"null","../img/tt/358tt.jpg","null","mooney1","image-keyboard-response","385","1483257","0.0-6.0-1.54","3188147","co38047","norming","","","","","","",""
"4669.4399999994785","","","post_mooney1_questions","survey-likert","386","1487930","0.0-6.0-2.54","3188147","co38047","norming","","","{""curiosity"":1,""confidence"":4}","[0,1]","../img/tt/358tt.jpg","",""
"1750.369999999646","","","recognition","survey-text","387","1489682","0.0-6.0-3.54","3188147","co38047","norming","","","{""guess"":""dog""}","","../img/tt/358tt.jpg","",""
"null","../img/gs/358gs.jpg","null","reveal","image-keyboard-response","388","1491688","0.0-6.0-4.54","3188147","co38047","norming","","","","","","",""
"null","../img/tt/358tt.jpg","null","mooney2","image-keyboard-response","389","1493699","0.0-6.0-5.54","3188147","co38047","norming","","","","","","",""
"3931.8799999998882","","","post_reveal_questions","survey-likert","390","1497634","0.0-6.0-6.54","3188147","co38047","norming","","","{""aha"":2}","[0]","../img/tt/358tt.jpg","",""
"null","<div style=""font-size:60px;""> </div>","null","fixation","html-keyboard-response","391","1497839","0.0-6.0-0.55","3188147","co38047","norming","","","","","","",""
"null","../img/tt/1268tt.jpg","null","mooney1","image-keyboard-response","392","1500844","0.0-6.0-1.55","3188147","co38047","norming","","","","","","",""
"6091.059999999823","","","post_mooney1_questions","survey-likert","393","1506938","0.0-6.0-2.55","3188147","co38047","norming","","","{""curiosity"":3,""confidence"":1}","[0,1]","../img/tt/1268tt.jpg","",""
"2069.774999999907","","","recognition","survey-text","394","1509009","0.0-6.0-3.55","3188147","co38047","norming","","","{""guess"":""flower""}","","../img/tt/1268tt.jpg","",""
"null","../img/gs/1268gs.jpg","null","reveal","image-keyboard-response","395","1511012","0.0-6.0-4.55","3188147","co38047","norming","","","","","","",""
"null","../img/tt/1268tt.jpg","null","mooney2","image-keyboard-response","396","1513017","0.0-6.0-5.55","3188147","co38047","norming","","","","","","",""
"2559.1999999994878","","","post_reveal_questions","survey-likert","397","1515578","0.0-6.0-6.55","3188147","co38047","norming","","","{""aha"":3}","[0]","../img/tt/1268tt.jpg","",""
"null","<div style=""font-size:60px;""> </div>","null","fixation","html-keyboard-response","398","1515781","0.0-6.0-0.56","3188147","co38047","norming","","","","","","",""
"null","../img/tt/1279tt.jpg","null","mooney1","image-keyboard-response","399","1518787","0.0-6.0-1.56","3188147","co38047","norming","","","","","","",""
"5547.290000000503","","","post_mooney1_questions","survey-likert","400","1524338","0.0-6.0-2.56","3188147","co38047","norming","","","{""curiosity"":2,""confidence"":2}","[0,1]","../img/tt/1279tt.jpg","",""
"1821.5300000002608","","","recognition","survey-text","401","1526161","0.0-6.0-3.56","3188147","co38047","norming","","","{""guess"":""goat""}","","../img/tt/1279tt.jpg","",""
"null","../img/gs/1279gs.jpg","null","reveal","image-keyboard-response","402","1528166","0.0-6.0-4.56","3188147","co38047","norming","","","","","","",""
"null","../img/tt/1279tt.jpg","null","mooney2","image-keyboard-response","403","1530169","0.0-6.0-5.56","3188147","co38047","norming","","","","","","",""
"3741.350000000326","","","post_reveal_questions","survey-likert","404","1533914","0.0-6.0-6.56","3188147","co38047","norming","","","{""aha"":5}","[0]","../img/tt/1279tt.jpg","",""
"null","<div style=""font-size:60px;""> </div>","null","fixation","html-keyboard-response","405","1534118","0.0-6.0-0.57","3188147","co38047","norming","","","","","","",""
"null","../img/tt/1128tt.jpg","null","mooney1","image-keyboard-response","406","1537121","0.0-6.0-1.57","3188147","co38047","norming","","","","","","",""
"5895.1349999997765","","","post_mooney1_questions","survey-likert","407","1543012","0.0-6.0-2.57","3188147","co38047","norming","","","{""curiosity"":2,""confidence"":3}","[0,1]","../img/tt/1128tt.jpg","",""
"2486.1599999994505","","","recognition","survey-text","408","1545500","0.0-6.0-3.57","3188147","co38047","norming","","","{""guess"":""monkey""}","","../img/tt/1128tt.jpg","",""
"null","../img/gs/1128gs.jpg","null","reveal","image-keyboard-response","409","1547503","0.0-6.0-4.57","3188147","co38047","norming","","","","","","",""
"null","../img/tt/1128tt.jpg","null","mooney2","image-keyboard-response","410","1549515","0.0-6.0-5.57","3188147","co38047","norming","","","","","","",""
"5782.515000000829","","","post_reveal_questions","survey-likert","411","1555300","0.0-6.0-6.57","3188147","co38047","norming","","","{""aha"":2}","[0]","../img/tt/1128tt.jpg","",""
"null","<div style=""font-size:60px;""> </div>","null","fixation","html-keyboard-response","412","1555507","0.0-6.0-0.58","3188147","co38047","norming","","","","","","",""
"null","../img/tt/081tt.jpg","null","mooney1","image-keyboard-response","413","1558512","0.0-6.0-1.58","3188147","co38047","norming","","","","","","",""
"5040.915000000503","","","post_mooney1_questions","survey-likert","414","1563556","0.0-6.0-2.58","3188147","co38047","norming","","","{""curiosity"":1,""confidence"":5}","[0,1]","../img/tt/081tt.jpg","",""
"2741.9250000002794","","","recognition","survey-text","415","1566300","0.0-6.0-3.58","3188147","co38047","norming","","","{""guess"":""frog""}","","../img/tt/081tt.jpg","",""
"null","../img/gs/081gs.jpg","null","reveal","image-keyboard-response","416","1568307","0.0-6.0-4.58","3188147","co38047","norming","","","","","","",""
"null","../img/tt/081tt.jpg","null","mooney2","image-keyboard-response","417","1570309","0.0-6.0-5.58","3188147","co38047","norming","","","","","","",""
"3740.6049999999814","","","post_reveal_questions","survey-likert","418","1574052","0.0-6.0-6.58","3188147","co38047","norming","","","{""aha"":5}","[0]","../img/tt/081tt.jpg","",""
"null","<div style=""font-size:60px;""> </div>","null","fixation","html-keyboard-response","419","1574261","0.0-6.0-0.59","3188147","co38047","norming","","","","","","",""
"null","../img/tt/036tt.jpg","null","mooney1","image-keyboard-response","420","1577269","0.0-6.0-1.59","3188147","co38047","norming","","","","","","",""
"7531.5","","","post_mooney1_questions","survey-likert","421","1584804","0.0-6.0-2.59","3188147","co38047","norming","","","{""curiosity"":3,""confidence"":0}","[0,1]","../img/tt/036tt.jpg","",""
"6854.030000000261","","","recognition","survey-text","422","1591660","0.0-6.0-3.59","3188147","co38047","norming","","","{""guess"":""roots tree""}","","../img/tt/036tt.jpg","",""
"null","../img/gs/036gs.jpg","null","reveal","image-keyboard-response","423","1593666","0.0-6.0-4.59","3188147","co38047","norming","","","","","","",""
"null","../img/tt/036tt.jpg","null","mooney2","image-keyboard-response","424","1595676","0.0-6.0-5.59","3188147","co38047","norming","","","","","","",""
"5525.784999999916","","","post_reveal_questions","survey-likert","425","1601206","0.0-6.0-6.59","3188147","co38047","norming","","","{""aha"":6}","[0]","../img/tt/036tt.jpg","",""
"null","<div style=""font-size:60px;""> </div>","null","fixation","html-keyboard-response","426","1601410","0.0-6.0-0.60","3188147","co38047","norming","","","","","","",""
"null","../img/tt/1175tt.jpg","null","mooney1","image-keyboard-response","427","1604416","0.0-6.0-1.60","3188147","co38047","norming","","","","","","",""
"4833.905000000261","","","post_mooney1_questions","survey-likert","428","1609254","0.0-6.0-2.60","3188147","co38047","norming","","","{""curiosity"":4,""confidence"":1}","[0,1]","../img/tt/1175tt.jpg","",""
"9461.999999999534","","","recognition","survey-text","429","1618718","0.0-6.0-3.60","3188147","co38047","norming","","","{""guess"":""crowded room""}","","../img/tt/1175tt.jpg","",""
"null","../img/gs/1175gs.jpg","null","reveal","image-keyboard-response","430","1620719","0.0-6.0-4.60","3188147","co38047","norming","","","","","","",""
"null","../img/tt/1175tt.jpg","null","mooney2","image-keyboard-response","431","1622727","0.0-6.0-5.60","3188147","co38047","norming","","","","","","",""
"3387.8100000002887","","","post_reveal_questions","survey-likert","432","1626118","0.0-6.0-6.60","3188147","co38047","norming","","","{""aha"":6}","[0]","../img/tt/1175tt.jpg","",""
"null","<div style=""font-size:60px;""> </div>","null","fixation","html-keyboard-response","433","1626319","0.0-6.0-0.61","3188147","co38047","norming","","","","","","",""
"null","../img/tt/1251tt.jpg","null","mooney1","image-keyboard-response","434","1629325","0.0-6.0-1.61","3188147","co38047","norming","","","","","","",""
"3469.9600000004284","","","post_mooney1_questions","survey-likert","435","1632798","0.0-6.0-2.61","3188147","co38047","norming","","","{""curiosity"":2,""confidence"":5}","[0,1]","../img/tt/1251tt.jpg","",""
"1998.2750000008382","","","recognition","survey-text","436","1634798","0.0-6.0-3.61","3188147","co38047","norming","","","{""guess"":""bear""}","","../img/tt/1251tt.jpg","",""
"null","../img/gs/1251gs.jpg","null","reveal","image-keyboard-response","437","1636800","0.0-6.0-4.61","3188147","co38047","norming","","","","","","",""
"null","../img/tt/1251tt.jpg","null","mooney2","image-keyboard-response","438","1638811","0.0-6.0-5.61","3188147","co38047","norming","","","","","","",""
"4143.914999999804","","","post_reveal_questions","survey-likert","439","1642957","0.0-6.0-6.61","3188147","co38047","norming","","","{""aha"":3}","[0]","../img/tt/1251tt.jpg","",""
"null","<div style=""font-size:60px;""> </div>","null","fixation","html-keyboard-response","440","1643161","0.0-6.0-0.62","3188147","co38047","norming","","","","","","",""
"null","../img/tt/1086tt.jpg","null","mooney1","image-keyboard-response","441","1646163","0.0-6.0-1.62","3188147","co38047","norming","","","","","","",""
"4606.815000000177","","","post_mooney1_questions","survey-likert","442","1650774","0.0-6.0-2.62","3188147","co38047","norming","","","{""curiosity"":2,""confidence"":6}","[0,1]","../img/tt/1086tt.jpg","",""
"3190.1299999998882","","","recognition","survey-text","443","1653966","0.0-6.0-3.62","3188147","co38047","norming","","","{""guess"":""huski""}","","../img/tt/1086tt.jpg","",""
"null","../img/gs/1086gs.jpg","null","reveal","image-keyboard-response","444","1655973","0.0-6.0-4.62","3188147","co38047","norming","","","","","","",""
"null","../img/tt/1086tt.jpg","null","mooney2","image-keyboard-response","445","1657982","0.0-6.0-5.62","3188147","co38047","norming","","","","","","",""
"2597.314999999944","","","post_reveal_questions","survey-likert","446","1660582","0.0-6.0-6.62","3188147","co38047","norming","","","{""aha"":4}","[0]","../img/tt/1086tt.jpg","",""
"null","<div style=""font-size:60px;""> </div>","null","fixation","html-keyboard-response","447","1660783","0.0-6.0-0.63","3188147","co38047","norming","","","","","","",""
"null","../img/tt/1235tt.jpg","null","mooney1","image-keyboard-response","448","1663805","0.0-6.0-1.63","3188147","co38047","norming","","","","","","",""
"3390.1200000001118","","","post_mooney1_questions","survey-likert","449","1667199","0.0-6.0-2.63","3188147","co38047","norming","","","{""curiosity"":2,""confidence"":3}","[0,1]","../img/tt/1235tt.jpg","",""
"4150.074999999488","","","recognition","survey-text","450","1671351","0.0-6.0-3.63","3188147","co38047","norming","","","{""guess"":""horses""}","","../img/tt/1235tt.jpg","",""
"null","../img/gs/1235gs.jpg","null","reveal","image-keyboard-response","451","1673353","0.0-6.0-4.63","3188147","co38047","norming","","","","","","",""
"null","../img/tt/1235tt.jpg","null","mooney2","image-keyboard-response","452","1675355","0.0-6.0-5.63","3188147","co38047","norming","","","","","","",""
"6585.290000000037","","","post_reveal_questions","survey-likert","453","1681943","0.0-6.0-6.63","3188147","co38047","norming","","","{""aha"":2}","[0]","../img/tt/1235tt.jpg","",""
"null","<div style=""font-size:60px;""> </div>","null","fixation","html-keyboard-response","454","1682147","0.0-6.0-0.64","3188147","co38047","norming","","","","","","",""
"null","../img/tt/010tt.jpg","null","mooney1","image-keyboard-response","455","1685152","0.0-6.0-1.64","3188147","co38047","norming","","","","","","",""
"6549.129999999423","","","post_mooney1_questions","survey-likert","456","1691703","0.0-6.0-2.64","3188147","co38047","norming","","","{""curiosity"":2,""confidence"":0}","[0,1]","../img/tt/010tt.jpg","",""
"13901.904999999795","","","recognition","survey-text","457","1705606","0.0-6.0-3.64","3188147","co38047","norming","","","{""guess"":""winner""}","","../img/tt/010tt.jpg","",""
"null","../img/gs/010gs.jpg","null","reveal","image-keyboard-response","458","1707609","0.0-6.0-4.64","3188147","co38047","norming","","","","","","",""
"null","../img/tt/010tt.jpg","null","mooney2","image-keyboard-response","459","1709615","0.0-6.0-5.64","3188147","co38047","norming","","","","","","",""
"3877.1699999996927","","","post_reveal_questions","survey-likert","460","1713495","0.0-6.0-6.64","3188147","co38047","norming","","","{""aha"":2}","[0]","../img/tt/010tt.jpg","",""
"null","<div style=""font-size:60px;""> </div>","null","fixation","html-keyboard-response","461","1713697","0.0-6.0-0.65","3188147","co38047","norming","","","","","","",""
"null","../img/tt/052tt.jpg","null","mooney1","image-keyboard-response","462","1716703","0.0-6.0-1.65","3188147","co38047","norming","","","","","","",""
"4587.6500000003725","","","post_mooney1_questions","survey-likert","463","1721295","0.0-6.0-2.65","3188147","co38047","norming","","","{""curiosity"":2,""confidence"":1}","[0,1]","../img/tt/052tt.jpg","",""
"3542.1850000002887","","","recognition","survey-text","464","1724837","0.0-6.0-3.65","3188147","co38047","norming","","","{""guess"":""drums ""}","","../img/tt/052tt.jpg","",""
"null","../img/gs/052gs.jpg","null","reveal","image-keyboard-response","465","1726846","0.0-6.0-4.65","3188147","co38047","norming","","","","","","",""
"null","../img/tt/052tt.jpg","null","mooney2","image-keyboard-response","466","1728850","0.0-6.0-5.65","3188147","co38047","norming","","","","","","",""
"4408.20999999973","","","post_reveal_questions","survey-likert","467","1733261","0.0-6.0-6.65","3188147","co38047","norming","","","{""aha"":5}","[0]","../img/tt/052tt.jpg","",""
"null","<div style=""font-size:60px;""> </div>","null","fixation","html-keyboard-response","468","1733472","0.0-6.0-0.66","3188147","co38047","norming","","","","","","",""
"null","../img/tt/1272tt.jpg","null","mooney1","image-keyboard-response","469","1736483","0.0-6.0-1.66","3188147","co38047","norming","","","","","","",""
"4758.889999998966","","","post_mooney1_questions","survey-likert","470","1741245","0.0-6.0-2.66","3188147","co38047","norming","","","{""curiosity"":2,""confidence"":4}","[0,1]","../img/tt/1272tt.jpg","",""
"3862.255000000121","","","recognition","survey-text","471","1745109","0.0-6.0-3.66","3188147","co38047","norming","","","{""guess"":""crocodile ""}","","../img/tt/1272tt.jpg","",""
"null","../img/gs/1272gs.jpg","null","reveal","image-keyboard-response","472","1747118","0.0-6.0-4.66","3188147","co38047","norming","","","","","","",""
"null","../img/tt/1272tt.jpg","null","mooney2","image-keyboard-response","473","1749127","0.0-6.0-5.66","3188147","co38047","norming","","","","","","",""
"3677.2099999999627","","","post_reveal_questions","survey-likert","474","1752805","0.0-6.0-6.66","3188147","co38047","norming","","","{""aha"":4}","[0]","../img/tt/1272tt.jpg","",""
"null","<div style=""font-size:60px;""> </div>","null","fixation","html-keyboard-response","475","1753011","0.0-6.0-0.67","3188147","co38047","norming","","","","","","",""
"null","../img/tt/1241tt.jpg","null","mooney1","image-keyboard-response","476","1756013","0.0-6.0-1.67","3188147","co38047","norming","","","","","","",""
"7668.594999999972","","","post_mooney1_questions","survey-likert","477","1763685","0.0-6.0-2.67","3188147","co38047","norming","","","{""curiosity"":3,""confidence"":4}","[0,1]","../img/tt/1241tt.jpg","",""
"2830.1999999994878","","","recognition","survey-text","478","1766517","0.0-6.0-3.67","3188147","co38047","norming","","","{""guess"":""cat""}","","../img/tt/1241tt.jpg","",""
"null","../img/gs/1241gs.jpg","null","reveal","image-keyboard-response","479","1768520","0.0-6.0-4.67","3188147","co38047","norming","","","","","","",""
"null","../img/tt/1241tt.jpg","null","mooney2","image-keyboard-response","480","1770522","0.0-6.0-5.67","3188147","co38047","norming","","","","","","",""
"3336.339999999851","","","post_reveal_questions","survey-likert","481","1773861","0.0-6.0-6.67","3188147","co38047","norming","","","{""aha"":4}","[0]","../img/tt/1241tt.jpg","",""
"null","<div style=""font-size:60px;""> </div>","null","fixation","html-keyboard-response","482","1774068","0.0-6.0-0.68","3188147","co38047","norming","","","","","","",""
"null","../img/tt/517tt.jpg","null","mooney1","image-keyboard-response","483","1777072","0.0-6.0-1.68","3188147","co38047","norming","","","","","","",""
"9091.755000000587","","","post_mooney1_questions","survey-likert","484","1786167","0.0-6.0-2.68","3188147","co38047","norming","","","{""curiosity"":1,""confidence"":5}","[0,1]","../img/tt/517tt.jpg","",""
"3342.0200000000186","","","recognition","survey-text","485","1789511","0.0-6.0-3.68","3188147","co38047","norming","","","{""guess"":""panda""}","","../img/tt/517tt.jpg","",""
"null","../img/gs/517gs.jpg","null","reveal","image-keyboard-response","486","1791513","0.0-6.0-4.68","3188147","co38047","norming","","","","","","",""
"null","../img/tt/517tt.jpg","null","mooney2","image-keyboard-response","487","1793521","0.0-6.0-5.68","3188147","co38047","norming","","","","","","",""
"3314.940000000177","","","post_reveal_questions","survey-likert","488","1796839","0.0-6.0-6.68","3188147","co38047","norming","","","{""aha"":5}","[0]","../img/tt/517tt.jpg","",""
"null","<div style=""font-size:60px;""> </div>","null","fixation","html-keyboard-response","489","1797043","0.0-6.0-0.69","3188147","co38047","norming","","","","","","",""
"null","../img/tt/315tt.jpg","null","mooney1","image-keyboard-response","490","1800049","0.0-6.0-1.69","3188147","co38047","norming","","","","","","",""
"6402.465000000084","","","post_mooney1_questions","survey-likert","491","1806455","0.0-6.0-2.69","3188147","co38047","norming","","","{""curiosity"":6,""confidence"":0}","[0,1]","../img/tt/315tt.jpg","",""
"3598.030000000028","","","recognition","survey-text","492","1810055","0.0-6.0-3.69","3188147","co38047","norming","","","{""guess"":""bird""}","","../img/tt/315tt.jpg","",""
"null","../img/gs/315gs.jpg","null","reveal","image-keyboard-response","493","1812064","0.0-6.0-4.69","3188147","co38047","norming","","","","","","",""
"null","../img/tt/315tt.jpg","null","mooney2","image-keyboard-response","494","1814072","0.0-6.0-5.69","3188147","co38047","norming","","","","","","",""
"3731.2000000001863","","","post_reveal_questions","survey-likert","495","1817807","0.0-6.0-6.69","3188147","co38047","norming","","","{""aha"":4}","[0]","../img/tt/315tt.jpg","",""
"null","<div style=""font-size:60px;""> </div>","null","fixation","html-keyboard-response","496","1818012","0.0-6.0-0.70","3188147","co38047","norming","","","","","","",""
"null","../img/tt/1239tt.jpg","null","mooney1","image-keyboard-response","497","1821021","0.0-6.0-1.70","3188147","co38047","norming","","","","","","",""
"3248.744999999879","","","post_mooney1_questions","survey-likert","498","1824271","0.0-6.0-2.70","3188147","co38047","norming","","","{""curiosity"":0,""confidence"":6}","[0,1]","../img/tt/1239tt.jpg","",""
"1798.0049999996554","","","recognition","survey-text","499","1826071","0.0-6.0-3.70","3188147","co38047","norming","","","{""guess"":""dog""}","","../img/tt/1239tt.jpg","",""
"null","../img/gs/1239gs.jpg","null","reveal","image-keyboard-response","500","1828079","0.0-6.0-4.70","3188147","co38047","norming","","","","","","",""
"null","../img/tt/1239tt.jpg","null","mooney2","image-keyboard-response","501","1830089","0.0-6.0-5.70","3188147","co38047","norming","","","","","","",""
"3907.2100000001956","","","post_reveal_questions","survey-likert","502","1833999","0.0-6.0-6.70","3188147","co38047","norming","","","{""aha"":4}","[0]","../img/tt/1239tt.jpg","",""
"null","<div style=""font-size:60px;""> </div>","null","fixation","html-keyboard-response","503","1834204","0.0-6.0-0.71","3188147","co38047","norming","","","","","","",""
"null","../img/tt/1063tt.jpg","null","mooney1","image-keyboard-response","504","1837209","0.0-6.0-1.71","3188147","co38047","norming","","","","","","",""
"5178.809999999357","","","post_mooney1_questions","survey-likert","505","1842391","0.0-6.0-2.71","3188147","co38047","norming","","","{""curiosity"":2,""confidence"":3}","[0,1]","../img/tt/1063tt.jpg","",""
"2958.044999999227","","","recognition","survey-text","506","1845344","0.0-6.0-3.71","3188147","co38047","norming","","","{""guess"":""monkey""}","","../img/tt/1063tt.jpg","",""
"null","../img/gs/1063gs.jpg","null","reveal","image-keyboard-response","507","1847351","0.0-6.0-4.71","3188147","co38047","norming","","","","","","",""
"null","../img/tt/1063tt.jpg","null","mooney2","image-keyboard-response","508","1849360","0.0-6.0-5.71","3188147","co38047","norming","","","","","","",""
"2757.1100000003353","","","post_reveal_questions","survey-likert","509","1852120","0.0-6.0-6.71","3188147","co38047","norming","","","{""aha"":6}","[0]","../img/tt/1063tt.jpg","",""
"null","<div style=""font-size:60px;""> </div>","null","fixation","html-keyboard-response","510","1852323","0.0-6.0-0.72","3188147","co38047","norming","","","","","","",""
"null","../img/tt/1190tt.jpg","null","mooney1","image-keyboard-response","511","1855326","0.0-6.0-1.72","3188147","co38047","norming","","","","","","",""
"9014.275000000373","","","post_mooney1_questions","survey-likert","512","1864344","0.0-6.0-2.72","3188147","co38047","norming","","","{""curiosity"":4,""confidence"":1}","[0,1]","../img/tt/1190tt.jpg","",""
"1878.1150000004563","","","recognition","survey-text","513","1866224","0.0-6.0-3.72","3188147","co38047","norming","","","{""guess"":""woods""}","","../img/tt/1190tt.jpg","",""
"null","../img/gs/1190gs.jpg","null","reveal","image-keyboard-response","514","1868228","0.0-6.0-4.72","3188147","co38047","norming","","","","","","",""
"null","../img/tt/1190tt.jpg","null","mooney2","image-keyboard-response","515","1870236","0.0-6.0-5.72","3188147","co38047","norming","","","","","","",""
"3568.8450000006706","","","post_reveal_questions","survey-likert","516","1873808","0.0-6.0-6.72","3188147","co38047","norming","","","{""aha"":3}","[0]","../img/tt/1190tt.jpg","",""
"null","<div style=""font-size:60px;""> </div>","null","fixation","html-keyboard-response","517","1874010","0.0-6.0-0.73","3188147","co38047","norming","","","","","","",""
"null","../img/tt/079tt.jpg","null","mooney1","image-keyboard-response","518","1877019","0.0-6.0-1.73","3188147","co38047","norming","","","","","","",""
"5220.129999999655","","","post_mooney1_questions","survey-likert","519","1882240","0.0-6.0-2.73","3188147","co38047","norming","","","{""curiosity"":2,""confidence"":4}","[0,1]","../img/tt/079tt.jpg","",""
"2909.869999999646","","","recognition","survey-text","520","1885152","0.0-6.0-3.73","3188147","co38047","norming","","","{""guess"":""waterfall""}","","../img/tt/079tt.jpg","",""
"null","../img/gs/079gs.jpg","null","reveal","image-keyboard-response","521","1887157","0.0-6.0-4.73","3188147","co38047","norming","","","","","","",""
"null","../img/tt/079tt.jpg","null","mooney2","image-keyboard-response","522","1889165","0.0-6.0-5.73","3188147","co38047","norming","","","","","","",""
"2024.8049999999348","","","post_reveal_questions","survey-likert","523","1891192","0.0-6.0-6.73","3188147","co38047","norming","","","{""aha"":0}","[0]","../img/tt/079tt.jpg","",""
"null","<div style=""font-size:60px;""> </div>","null","fixation","html-keyboard-response","524","1891402","0.0-6.0-0.74","3188147","co38047","norming","","","","","","",""
"null","../img/tt/126tt.jpg","null","mooney1","image-keyboard-response","525","1894410","0.0-6.0-1.74","3188147","co38047","norming","","","","","","",""
"3785.8549999999814","","","post_mooney1_questions","survey-likert","526","1898200","0.0-6.0-2.74","3188147","co38047","norming","","","{""curiosity"":1,""confidence"":6}","[0,1]","../img/tt/126tt.jpg","",""
"1750.3749999995343","","","recognition","survey-text","527","1899952","0.0-6.0-3.74","3188147","co38047","norming","","","{""guess"":""cow""}","","../img/tt/126tt.jpg","",""
"null","../img/gs/126gs.jpg","null","reveal","image-keyboard-response","528","1901960","0.0-6.0-4.74","3188147","co38047","norming","","","","","","",""
"null","../img/tt/126tt.jpg","null","mooney2","image-keyboard-response","529","1903971","0.0-6.0-5.74","3188147","co38047","norming","","","","","","",""
"1913.8149999999441","","","post_reveal_questions","survey-likert","530","1905891","0.0-6.0-6.74","3188147","co38047","norming","","","{""aha"":3}","[0]","../img/tt/126tt.jpg","",""
"null","<div style=""font-size:60px;""> </div>","null","fixation","html-keyboard-response","531","1906092","0.0-6.0-0.75","3188147","co38047","norming","","","","","","",""
"null","../img/tt/053tt.jpg","null","mooney1","image-keyboard-response","532","1909106","0.0-6.0-1.75","3188147","co38047","norming","","","","","","",""
"5127.714999999618","","","post_mooney1_questions","survey-likert","533","1914235","0.0-6.0-2.75","3188147","co38047","norming","","","{""curiosity"":0,""confidence"":6}","[0,1]","../img/tt/053tt.jpg","",""
"2550.2150000003166","","","recognition","survey-text","534","1916787","0.0-6.0-3.75","3188147","co38047","norming","","","{""guess"":""kajak""}","","../img/tt/053tt.jpg","",""
"null","../img/gs/053gs.jpg","null","reveal","image-keyboard-response","535","1918797","0.0-6.0-4.75","3188147","co38047","norming","","","","","","",""
"null","../img/tt/053tt.jpg","null","mooney2","image-keyboard-response","536","1920799","0.0-6.0-5.75","3188147","co38047","norming","","","","","","",""
"2553.1750000000466","","","post_reveal_questions","survey-likert","537","1923355","0.0-6.0-6.75","3188147","co38047","norming","","","{""aha"":2}","[0]","../img/tt/053tt.jpg","",""
"null","<div style=""font-size:60px;""> </div>","null","fixation","html-keyboard-response","538","1923556","0.0-6.0-0.76","3188147","co38047","norming","","","","","","",""
"null","../img/tt/189tt.jpg","null","mooney1","image-keyboard-response","539","1926563","0.0-6.0-1.76","3188147","co38047","norming","","","","","","",""
"4203.779999999795","","","post_mooney1_questions","survey-likert","540","1930771","0.0-6.0-2.76","3188147","co38047","norming","","","{""curiosity"":4,""confidence"":2}","[0,1]","../img/tt/189tt.jpg","",""
"6077.98499999987","","","recognition","survey-text","541","1936851","0.0-6.0-3.76","3188147","co38047","norming","","","{""guess"":""skateboard ""}","","../img/tt/189tt.jpg","",""
"null","../img/gs/189gs.jpg","null","reveal","image-keyboard-response","542","1938856","0.0-6.0-4.76","3188147","co38047","norming","","","","","","",""
"null","../img/tt/189tt.jpg","null","mooney2","image-keyboard-response","543","1940858","0.0-6.0-5.76","3188147","co38047","norming","","","","","","",""
"3005.8100000005215","","","post_reveal_questions","survey-likert","544","1943867","0.0-6.0-6.76","3188147","co38047","norming","","","{""aha"":3}","[0]","../img/tt/189tt.jpg","",""
"null","<div style=""font-size:60px;""> </div>","null","fixation","html-keyboard-response","545","1944068","0.0-6.0-0.77","3188147","co38047","norming","","","","","","",""
"null","../img/tt/1066tt.jpg","null","mooney1","image-keyboard-response","546","1947072","0.0-6.0-1.77","3188147","co38047","norming","","","","","","",""
"4681.375","","","post_mooney1_questions","survey-likert","547","1951755","0.0-6.0-2.77","3188147","co38047","norming","","","{""curiosity"":4,""confidence"":1}","[0,1]","../img/tt/1066tt.jpg","",""
"9606.069999999832","","","recognition","survey-text","548","1961363","0.0-6.0-3.77","3188147","co38047","norming","","","{""guess"":""""}","","../img/tt/1066tt.jpg","",""
"null","../img/gs/1066gs.jpg","null","reveal","image-keyboard-response","549","1963372","0.0-6.0-4.77","3188147","co38047","norming","","","","","","",""
"null","../img/tt/1066tt.jpg","null","mooney2","image-keyboard-response","550","1965384","0.0-6.0-5.77","3188147","co38047","norming","","","","","","",""
"5583.059999999823","","","post_reveal_questions","survey-likert","551","1970977","0.0-6.0-6.77","3188147","co38047","norming","","","{""aha"":2}","[0]","../img/tt/1066tt.jpg","",""
