"rt","stimulus","key_press","test_part","trial_type","trial_index","time_elapsed","internal_node_id","totalTime","subject","experiment_name","button_pressed","success","responses","question_order","currentStim","old","correct"
"10680.45499999971","Welcome to the experiment. This is an online experiment so please don't close the tab/window until we say goodbye.  Press any key to begin.","32","instructions","html-keyboard-response","0","10696","0.0-0.0","2900884","co38137","norming","","","","","","",""
"22360.455","<div style='word-wrap: break-word; width: 900px'><h3>Please consider this information carefully before deciding whether to participate in this research</h3><ul style='text-align: left; font-size: .8em;'><li><b>Purpose of the research</b>: To examine how people process images.</li><li><b>What you will do in this research</b>:  Stimuli (images) will be presented on the computer and you will be asked different questions about them.</li><li><b>Time required</b>: Participation will take between 45 and 60 minutes to complete.</li><li><b>Risks</b>:  There are no anticipated risks associated with participating in this study. The effects of participating should be comparable to those you would experience from viewing a computer monitor for 30 minutes and using a mouse or keyboard.</li><li><b>Benefits</b>:  This study provides no benefits to you individually except for the credit. The study provides important information about the nature of perception and learning.</li><li><b>Confidentiality</b>:  Your participation in this study will remain confidential. No personally identifiable information will be associated with your data. Your de-identified data may be shared with other researchers and used in future projects.</li><li><b>Participation and withdrawal</b>:  Your participation in this study is completely voluntary and you may refuse to participate or you may choose to withdraw at any time without penalty.</li><li><b>How to contact the researchers</b>: If you have questions or concerns about your participation or payment, or want to request a summary of research findings, please contact Sander Van de Cruys (KU Leuven), at sander.vandecruys@kuleuven.be.</li></ul><p>The nature and purpose of this research have been sufficiently explained and I agree to participate in this study.  I understand that I am free to withdraw at any time without incurring any penalty.</p><p>Please consent by clicking the button below to continue. Otherwise, please exit the study at this time.</p></div>","","instructions","html-button-response","1","33060","0.0-1.0","2900884","co38137","norming","0","","","","","",""
"","","","instructions","fullscreen","2","47397","0.0-2.0","2900884","co38137","norming","","true","","","","",""
"26397.26999999948","","","sona","survey-html-form","3","73799","0.0-3.0","2900884","co38137","norming","","","[{""name"":""sonaid"",""value"":""38137""},{""name"":""debrief"",""value"":""yes""},{""name"":""datajoin"",""value"":""yes""}]","","","",""
"76555.69000000106","<div style='word-wrap: break-word; width: 900px'><h3>Instructions</h3><p>This experiment will have 3 parts. In the first part you will see a series of distorted images like the one below on the left. As you can see in the righthand image, the distorted images are derived from actual photographs. In what follows, you will <strong>briefly</strong> be presented with <strong>only</strong> the distorted image.</p> <div style='float: left; margin-right: 20px;'><img src='../img/018tt.jpg' height='250' width='250'></img></div><div style='float: right; margin-left: 20px;'><img src='../img/018gs.jpg' height='250' width='250'></img></div><p>Subsequently you will be asked a few questions about the image: One question on how <strong>curious</strong> you are about the solution and one on how <strong>confident</strong> you are that you know the solution.</p>Next, we ask you to make a guess on what is in the image. Note that it is OK to name just the <strong>basic level category</strong>. For example when you see a parrot in the image, 'parrot' will obviously be a correct answer but also correct is 'bird'. However, 'animal' will <strong>not</strong> be counted as a correct response. For the example above, 'rose' would be correct or 'flower', but not 'plant'. When soccer players are depicted, 'soccer', 'football', 'soccer players' will be correct, but not 'humans', 'outdoors', or 'sports'. You do not need to describe the image in full, just name the main object in it <strong>in one or two words</strong>. All images depict objects from one of the following broad level categories: animals, inanimate objects, plants, sports, vehicles, and food. Recognizing means knowing <strong>more</strong> than these broad labels for a given image. But we always encourage you to <strong>make a guess</strong> if you can. Note that you are allowed to use <strong>Dutch and English</strong> in your answers, whatever comes easiest for you.</p><p>Press any key to continue.</p></div>","32","instructions","html-keyboard-response","4","150357","0.0-4.0","2900884","co38137","norming","","","","","","",""
"101453.8649999995","<div style='word-wrap: break-word; width: 900px'><h3>Instructions</h3> <p>Next, the solution image will be revealed to you and you'll be asked to indicate how strong your <strong>aha-experience</strong> was after seeing the solution. This describes the positive feeling of the 'click' you sometimes experience, when the pieces of the 'puzzle' fall together and you suddenly have 'insight' in the image.</p><img src='aha.jpg' height='188' width='250'></img><p>Note that there are no right or wrong answers. We are interested in what <strong>you</strong> see in the image and how <strong>you</strong> feel about it.</p><p>Press any key to start the experiment.</p></div>","32","instructions","html-keyboard-response","5","251816","0.0-5.0","2900884","co38137","norming","","","","","","",""
"null","<div style=""font-size:60px;""> </div>","null","fixation","html-keyboard-response","6","252024","0.0-6.0-0.0","2900884","co38137","norming","","","","","","",""
"null","../img/tt/1148tt.jpg","null","mooney1","image-keyboard-response","7","255030","0.0-6.0-1.0","2900884","co38137","norming","","","","","","",""
"13221.859999999637","","","post_mooney1_questions","survey-likert","8","268256","0.0-6.0-2.0","2900884","co38137","norming","","","{""curiosity"":5,""confidence"":0}","[0,1]","../img/tt/1148tt.jpg","",""
"8885.599999999627","","","recognition","survey-text","9","277143","0.0-6.0-3.0","2900884","co38137","norming","","","{""guess"":""""}","","../img/tt/1148tt.jpg","",""
"null","../img/gs/1148gs.jpg","null","reveal","image-keyboard-response","10","279149","0.0-6.0-4.0","2900884","co38137","norming","","","","","","",""
"null","../img/tt/1148tt.jpg","null","mooney2","image-keyboard-response","11","281158","0.0-6.0-5.0","2900884","co38137","norming","","","","","","",""
"4975.224999998347","","","post_reveal_questions","survey-likert","12","286135","0.0-6.0-6.0","2900884","co38137","norming","","","{""aha"":5}","[0]","../img/tt/1148tt.jpg","",""
"null","<div style=""font-size:60px;""> </div>","null","fixation","html-keyboard-response","13","286342","0.0-6.0-0.1","2900884","co38137","norming","","","","","","",""
"null","../img/tt/1270tt.jpg","null","mooney1","image-keyboard-response","14","289349","0.0-6.0-1.1","2900884","co38137","norming","","","","","","",""
"6057.5449999996345","","","post_mooney1_questions","survey-likert","15","295407","0.0-6.0-2.1","2900884","co38137","norming","","","{""curiosity"":5,""confidence"":0}","[0,1]","../img/tt/1270tt.jpg","",""
"1446.1250000004075","","","recognition","survey-text","16","296855","0.0-6.0-3.1","2900884","co38137","norming","","","{""guess"":""""}","","../img/tt/1270tt.jpg","",""
"null","../img/gs/1270gs.jpg","null","reveal","image-keyboard-response","17","298858","0.0-6.0-4.1","2900884","co38137","norming","","","","","","",""
"null","../img/tt/1270tt.jpg","null","mooney2","image-keyboard-response","18","300859","0.0-6.0-5.1","2900884","co38137","norming","","","","","","",""
"3465.7399999996414","","","post_reveal_questions","survey-likert","19","304327","0.0-6.0-6.1","2900884","co38137","norming","","","{""aha"":6}","[0]","../img/tt/1270tt.jpg","",""
"null","<div style=""font-size:60px;""> </div>","null","fixation","html-keyboard-response","20","304529","0.0-6.0-0.2","2900884","co38137","norming","","","","","","",""
"null","../img/tt/353tt.jpg","null","mooney1","image-keyboard-response","21","307541","0.0-6.0-1.2","2900884","co38137","norming","","","","","","",""
"5207.61499999935","","","post_mooney1_questions","survey-likert","22","312751","0.0-6.0-2.2","2900884","co38137","norming","","","{""curiosity"":4,""confidence"":1}","[0,1]","../img/tt/353tt.jpg","",""
"8350.08999999991","","","recognition","survey-text","23","321102","0.0-6.0-3.2","2900884","co38137","norming","","","{""guess"":""vis""}","","../img/tt/353tt.jpg","",""
"null","../img/gs/353gs.jpg","null","reveal","image-keyboard-response","24","323112","0.0-6.0-4.2","2900884","co38137","norming","","","","","","",""
"null","../img/tt/353tt.jpg","null","mooney2","image-keyboard-response","25","325116","0.0-6.0-5.2","2900884","co38137","norming","","","","","","",""
"2655.9099999995087","","","post_reveal_questions","survey-likert","26","327774","0.0-6.0-6.2","2900884","co38137","norming","","","{""aha"":3}","[0]","../img/tt/353tt.jpg","",""
"null","<div style=""font-size:60px;""> </div>","null","fixation","html-keyboard-response","27","327976","0.0-6.0-0.3","2900884","co38137","norming","","","","","","",""
"null","../img/tt/091tt.jpg","null","mooney1","image-keyboard-response","28","330983","0.0-6.0-1.3","2900884","co38137","norming","","","","","","",""
"5140.684999998484","","","post_mooney1_questions","survey-likert","29","336127","0.0-6.0-2.3","2900884","co38137","norming","","","{""curiosity"":3,""confidence"":1}","[0,1]","../img/tt/091tt.jpg","",""
"2998.344999999972","","","recognition","survey-text","30","339127","0.0-6.0-3.3","2900884","co38137","norming","","","{""guess"":""vogel""}","","../img/tt/091tt.jpg","",""
"null","../img/gs/091gs.jpg","null","reveal","image-keyboard-response","31","341132","0.0-6.0-4.3","2900884","co38137","norming","","","","","","",""
"null","../img/tt/091tt.jpg","null","mooney2","image-keyboard-response","32","343134","0.0-6.0-5.3","2900884","co38137","norming","","","","","","",""
"2703.354999999632","","","post_reveal_questions","survey-likert","33","345839","0.0-6.0-6.3","2900884","co38137","norming","","","{""aha"":4}","[0]","../img/tt/091tt.jpg","",""
"null","<div style=""font-size:60px;""> </div>","null","fixation","html-keyboard-response","34","346049","0.0-6.0-0.4","2900884","co38137","norming","","","","","","",""
"null","../img/tt/046tt.jpg","null","mooney1","image-keyboard-response","35","349056","0.0-6.0-1.4","2900884","co38137","norming","","","","","","",""
"4828.4700000003795","","","post_mooney1_questions","survey-likert","36","353887","0.0-6.0-2.4","2900884","co38137","norming","","","{""curiosity"":2,""confidence"":4}","[0,1]","../img/tt/046tt.jpg","",""
"2406.0150000004796","","","recognition","survey-text","37","356295","0.0-6.0-3.4","2900884","co38137","norming","","","{""guess"":""hond""}","","../img/tt/046tt.jpg","",""
"null","../img/gs/046gs.jpg","null","reveal","image-keyboard-response","38","358298","0.0-6.0-4.4","2900884","co38137","norming","","","","","","",""
"null","../img/tt/046tt.jpg","null","mooney2","image-keyboard-response","39","360313","0.0-6.0-5.4","2900884","co38137","norming","","","","","","",""
"3979.319999998552","","","post_reveal_questions","survey-likert","40","364295","0.0-6.0-6.4","2900884","co38137","norming","","","{""aha"":0}","[0]","../img/tt/046tt.jpg","",""
"null","<div style=""font-size:60px;""> </div>","null","fixation","html-keyboard-response","41","364496","0.0-6.0-0.5","2900884","co38137","norming","","","","","","",""
"null","../img/tt/1283tt.jpg","null","mooney1","image-keyboard-response","42","367499","0.0-6.0-1.5","2900884","co38137","norming","","","","","","",""
"6321.410000000498","","","post_mooney1_questions","survey-likert","43","373827","0.0-6.0-2.5","2900884","co38137","norming","","","{""curiosity"":5,""confidence"":0}","[0,1]","../img/tt/1283tt.jpg","",""
"1462.1200000001118","","","recognition","survey-text","44","375291","0.0-6.0-3.5","2900884","co38137","norming","","","{""guess"":""""}","","../img/tt/1283tt.jpg","",""
"null","../img/gs/1283gs.jpg","null","reveal","image-keyboard-response","45","377292","0.0-6.0-4.5","2900884","co38137","norming","","","","","","",""
"null","../img/tt/1283tt.jpg","null","mooney2","image-keyboard-response","46","379303","0.0-6.0-5.5","2900884","co38137","norming","","","","","","",""
"2154.010000000184","","","post_reveal_questions","survey-likert","47","381459","0.0-6.0-6.5","2900884","co38137","norming","","","{""aha"":5}","[0]","../img/tt/1283tt.jpg","",""
"null","<div style=""font-size:60px;""> </div>","null","fixation","html-keyboard-response","48","381665","0.0-6.0-0.6","2900884","co38137","norming","","","","","","",""
"null","../img/tt/112tt.jpg","null","mooney1","image-keyboard-response","49","384668","0.0-6.0-1.6","2900884","co38137","norming","","","","","","",""
"8531.849999999395","","","post_mooney1_questions","survey-likert","50","393203","0.0-6.0-2.6","2900884","co38137","norming","","","{""curiosity"":5,""confidence"":0}","[0,1]","../img/tt/112tt.jpg","",""
"1710.1149999998743","","","recognition","survey-text","51","394915","0.0-6.0-3.6","2900884","co38137","norming","","","{""guess"":""""}","","../img/tt/112tt.jpg","",""
"null","../img/gs/112gs.jpg","null","reveal","image-keyboard-response","52","396922","0.0-6.0-4.6","2900884","co38137","norming","","","","","","",""
"null","../img/tt/112tt.jpg","null","mooney2","image-keyboard-response","53","398926","0.0-6.0-5.6","2900884","co38137","norming","","","","","","",""
"2649.9799999982934","","","post_reveal_questions","survey-likert","54","401579","0.0-6.0-6.6","2900884","co38137","norming","","","{""aha"":6}","[0]","../img/tt/112tt.jpg","",""
"null","<div style=""font-size:60px;""> </div>","null","fixation","html-keyboard-response","55","401780","0.0-6.0-0.7","2900884","co38137","norming","","","","","","",""
"null","../img/tt/1309tt.jpg","null","mooney1","image-keyboard-response","56","404790","0.0-6.0-1.7","2900884","co38137","norming","","","","","","",""
"6209.725000000617","","","post_mooney1_questions","survey-likert","57","411003","0.0-6.0-2.7","2900884","co38137","norming","","","{""curiosity"":5,""confidence"":1}","[0,1]","../img/tt/1309tt.jpg","",""
"2622.180000000284","","","recognition","survey-text","58","413627","0.0-6.0-3.7","2900884","co38137","norming","","","{""guess"":""bos""}","","../img/tt/1309tt.jpg","",""
"null","../img/gs/1309gs.jpg","null","reveal","image-keyboard-response","59","415636","0.0-6.0-4.7","2900884","co38137","norming","","","","","","",""
"null","../img/tt/1309tt.jpg","null","mooney2","image-keyboard-response","60","417645","0.0-6.0-5.7","2900884","co38137","norming","","","","","","",""
"4716.120000000927","","","post_reveal_questions","survey-likert","61","422363","0.0-6.0-6.7","2900884","co38137","norming","","","{""aha"":2}","[0]","../img/tt/1309tt.jpg","",""
"null","<div style=""font-size:60px;""> </div>","null","fixation","html-keyboard-response","62","422564","0.0-6.0-0.8","2900884","co38137","norming","","","","","","",""
"null","../img/tt/1278tt.jpg","null","mooney1","image-keyboard-response","63","425576","0.0-6.0-1.8","2900884","co38137","norming","","","","","","",""
"7271.85499999905","","","post_mooney1_questions","survey-likert","64","432851","0.0-6.0-2.8","2900884","co38137","norming","","","{""curiosity"":4,""confidence"":0}","[0,1]","../img/tt/1278tt.jpg","",""
"1198.0650000005262","","","recognition","survey-text","65","434044","0.0-6.0-3.8","2900884","co38137","norming","","","{""guess"":""""}","","../img/tt/1278tt.jpg","",""
"null","../img/gs/1278gs.jpg","null","reveal","image-keyboard-response","66","436051","0.0-6.0-4.8","2900884","co38137","norming","","","","","","",""
"null","../img/tt/1278tt.jpg","null","mooney2","image-keyboard-response","67","438061","0.0-6.0-5.8","2900884","co38137","norming","","","","","","",""
"3012.445000000298","","","post_reveal_questions","survey-likert","68","441076","0.0-6.0-6.8","2900884","co38137","norming","","","{""aha"":6}","[0]","../img/tt/1278tt.jpg","",""
"null","<div style=""font-size:60px;""> </div>","null","fixation","html-keyboard-response","69","441281","0.0-6.0-0.9","2900884","co38137","norming","","","","","","",""
"null","../img/tt/1046tt.jpg","null","mooney1","image-keyboard-response","70","444285","0.0-6.0-1.9","2900884","co38137","norming","","","","","","",""
"8164.505000000645","","","post_mooney1_questions","survey-likert","71","452452","0.0-6.0-2.9","2900884","co38137","norming","","","{""curiosity"":6,""confidence"":0}","[0,1]","../img/tt/1046tt.jpg","",""
"893.8450000004959","","","recognition","survey-text","72","453348","0.0-6.0-3.9","2900884","co38137","norming","","","{""guess"":""""}","","../img/tt/1046tt.jpg","",""
"null","../img/gs/1046gs.jpg","null","reveal","image-keyboard-response","73","455353","0.0-6.0-4.9","2900884","co38137","norming","","","","","","",""
"null","../img/tt/1046tt.jpg","null","mooney2","image-keyboard-response","74","457363","0.0-6.0-5.9","2900884","co38137","norming","","","","","","",""
"2400.245000000694","","","post_reveal_questions","survey-likert","75","459764","0.0-6.0-6.9","2900884","co38137","norming","","","{""aha"":6}","[0]","../img/tt/1046tt.jpg","",""
"null","<div style=""font-size:60px;""> </div>","null","fixation","html-keyboard-response","76","459966","0.0-6.0-0.10","2900884","co38137","norming","","","","","","",""
"null","../img/tt/052tt.jpg","null","mooney1","image-keyboard-response","77","462971","0.0-6.0-1.10","2900884","co38137","norming","","","","","","",""
"8518.840000000608","","","post_mooney1_questions","survey-likert","78","471493","0.0-6.0-2.10","2900884","co38137","norming","","","{""curiosity"":5,""confidence"":1}","[0,1]","../img/tt/052tt.jpg","",""
"2685.9299999996438","","","recognition","survey-text","79","474180","0.0-6.0-3.10","2900884","co38137","norming","","","{""guess"":""riem""}","","../img/tt/052tt.jpg","",""
"null","../img/gs/052gs.jpg","null","reveal","image-keyboard-response","80","476190","0.0-6.0-4.10","2900884","co38137","norming","","","","","","",""
"null","../img/tt/052tt.jpg","null","mooney2","image-keyboard-response","81","478198","0.0-6.0-5.10","2900884","co38137","norming","","","","","","",""
"2411.4450000015786","","","post_reveal_questions","survey-likert","82","480612","0.0-6.0-6.10","2900884","co38137","norming","","","{""aha"":3}","[0]","../img/tt/052tt.jpg","",""
"null","<div style=""font-size:60px;""> </div>","null","fixation","html-keyboard-response","83","480819","0.0-6.0-0.11","2900884","co38137","norming","","","","","","",""
"null","../img/tt/111tt.jpg","null","mooney1","image-keyboard-response","84","483826","0.0-6.0-1.11","2900884","co38137","norming","","","","","","",""
"8911.919999998645","","","post_mooney1_questions","survey-likert","85","492740","0.0-6.0-2.11","2900884","co38137","norming","","","{""curiosity"":4,""confidence"":1}","[0,1]","../img/tt/111tt.jpg","",""
"3230.12000000017","","","recognition","survey-text","86","495975","0.0-6.0-3.11","2900884","co38137","norming","","","{""guess"":""insect""}","","../img/tt/111tt.jpg","",""
"null","../img/gs/111gs.jpg","null","reveal","image-keyboard-response","87","497980","0.0-6.0-4.11","2900884","co38137","norming","","","","","","",""
"null","../img/tt/111tt.jpg","null","mooney2","image-keyboard-response","88","499982","0.0-6.0-5.11","2900884","co38137","norming","","","","","","",""
"2383.6250000004075","","","post_reveal_questions","survey-likert","89","502367","0.0-6.0-6.11","2900884","co38137","norming","","","{""aha"":6}","[0]","../img/tt/111tt.jpg","",""
"null","<div style=""font-size:60px;""> </div>","null","fixation","html-keyboard-response","90","502574","0.0-6.0-0.12","2900884","co38137","norming","","","","","","",""
"null","../img/tt/378tt.jpg","null","mooney1","image-keyboard-response","91","505577","0.0-6.0-1.12","2900884","co38137","norming","","","","","","",""
"7683.150000000722","","","post_mooney1_questions","survey-likert","92","513263","0.0-6.0-2.12","2900884","co38137","norming","","","{""curiosity"":5,""confidence"":0}","[0,1]","../img/tt/378tt.jpg","",""
"5774.0900000008405","","","recognition","survey-text","93","519039","0.0-6.0-3.12","2900884","co38137","norming","","","{""guess"":""""}","","../img/tt/378tt.jpg","",""
"null","../img/gs/378gs.jpg","null","reveal","image-keyboard-response","94","521048","0.0-6.0-4.12","2900884","co38137","norming","","","","","","",""
"null","../img/tt/378tt.jpg","null","mooney2","image-keyboard-response","95","523058","0.0-6.0-5.12","2900884","co38137","norming","","","","","","",""
"2915.2150000008987","","","post_reveal_questions","survey-likert","96","525975","0.0-6.0-6.12","2900884","co38137","norming","","","{""aha"":5}","[0]","../img/tt/378tt.jpg","",""
"null","<div style=""font-size:60px;""> </div>","null","fixation","html-keyboard-response","97","526177","0.0-6.0-0.13","2900884","co38137","norming","","","","","","",""
"null","../img/tt/1078tt.jpg","null","mooney1","image-keyboard-response","98","529186","0.0-6.0-1.13","2900884","co38137","norming","","","","","","",""
"6889.8950000002515","","","post_mooney1_questions","survey-likert","99","536079","0.0-6.0-2.13","2900884","co38137","norming","","","{""curiosity"":3,""confidence"":2}","[0,1]","../img/tt/1078tt.jpg","",""
"4662.084999999963","","","recognition","survey-text","100","540743","0.0-6.0-3.13","2900884","co38137","norming","","","{""guess"":""voetbalspeler""}","","../img/tt/1078tt.jpg","",""
"null","../img/gs/1078gs.jpg","null","reveal","image-keyboard-response","101","542750","0.0-6.0-4.13","2900884","co38137","norming","","","","","","",""
"null","../img/tt/1078tt.jpg","null","mooney2","image-keyboard-response","102","544758","0.0-6.0-5.13","2900884","co38137","norming","","","","","","",""
"3047.1450000004843","","","post_reveal_questions","survey-likert","103","547807","0.0-6.0-6.13","2900884","co38137","norming","","","{""aha"":4}","[0]","../img/tt/1078tt.jpg","",""
"null","<div style=""font-size:60px;""> </div>","null","fixation","html-keyboard-response","104","548016","0.0-6.0-0.14","2900884","co38137","norming","","","","","","",""
"null","../img/tt/044tt.jpg","null","mooney1","image-keyboard-response","105","551020","0.0-6.0-1.14","2900884","co38137","norming","","","","","","",""
"7288.870000000345","","","post_mooney1_questions","survey-likert","106","558316","0.0-6.0-2.14","2900884","co38137","norming","","","{""curiosity"":4,""confidence"":1}","[0,1]","../img/tt/044tt.jpg","",""
"2814.20500000054","","","recognition","survey-text","107","561132","0.0-6.0-3.14","2900884","co38137","norming","","","{""guess"":""zetel""}","","../img/tt/044tt.jpg","",""
"null","../img/gs/044gs.jpg","null","reveal","image-keyboard-response","108","563133","0.0-6.0-4.14","2900884","co38137","norming","","","","","","",""
"null","../img/tt/044tt.jpg","null","mooney2","image-keyboard-response","109","565144","0.0-6.0-5.14","2900884","co38137","norming","","","","","","",""
"1602.3349999996135","","","post_reveal_questions","survey-likert","110","566748","0.0-6.0-6.14","2900884","co38137","norming","","","{""aha"":6}","[0]","../img/tt/044tt.jpg","",""
"null","<div style=""font-size:60px;""> </div>","null","fixation","html-keyboard-response","111","566949","0.0-6.0-0.15","2900884","co38137","norming","","","","","","",""
"null","../img/tt/318tt.jpg","null","mooney1","image-keyboard-response","112","569954","0.0-6.0-1.15","2900884","co38137","norming","","","","","","",""
"5983.414999998873","","","post_mooney1_questions","survey-likert","113","575940","0.0-6.0-2.15","2900884","co38137","norming","","","{""curiosity"":3,""confidence"":2}","[0,1]","../img/tt/318tt.jpg","",""
"9357.485000000452","","","recognition","survey-text","114","585300","0.0-6.0-3.15","2900884","co38137","norming","","","{""guess"":""binnenkant auto""}","","../img/tt/318tt.jpg","",""
"null","../img/gs/318gs.jpg","null","reveal","image-keyboard-response","115","587301","0.0-6.0-4.15","2900884","co38137","norming","","","","","","",""
"null","../img/tt/318tt.jpg","null","mooney2","image-keyboard-response","116","589306","0.0-6.0-5.15","2900884","co38137","norming","","","","","","",""
"2647.365000000689","","","post_reveal_questions","survey-likert","117","591956","0.0-6.0-6.15","2900884","co38137","norming","","","{""aha"":1}","[0]","../img/tt/318tt.jpg","",""
"null","<div style=""font-size:60px;""> </div>","null","fixation","html-keyboard-response","118","592157","0.0-6.0-0.16","2900884","co38137","norming","","","","","","",""
"null","../img/tt/1181tt.jpg","null","mooney1","image-keyboard-response","119","595164","0.0-6.0-1.16","2900884","co38137","norming","","","","","","",""
"4773.079999999027","","","post_mooney1_questions","survey-likert","120","599940","0.0-6.0-2.16","2900884","co38137","norming","","","{""curiosity"":3,""confidence"":1}","[0,1]","../img/tt/1181tt.jpg","",""
"7445.804999999353","","","recognition","survey-text","121","607387","0.0-6.0-3.16","2900884","co38137","norming","","","{""guess"":""zanger""}","","../img/tt/1181tt.jpg","",""
"null","../img/gs/1181gs.jpg","null","reveal","image-keyboard-response","122","609394","0.0-6.0-4.16","2900884","co38137","norming","","","","","","",""
"null","../img/tt/1181tt.jpg","null","mooney2","image-keyboard-response","123","611398","0.0-6.0-5.16","2900884","co38137","norming","","","","","","",""
"2093.140000000829","","","post_reveal_questions","survey-likert","124","613492","0.0-6.0-6.16","2900884","co38137","norming","","","{""aha"":4}","[0]","../img/tt/1181tt.jpg","",""
"null","<div style=""font-size:60px;""> </div>","null","fixation","html-keyboard-response","125","613701","0.0-6.0-0.17","2900884","co38137","norming","","","","","","",""
"null","../img/tt/1353tt.jpg","null","mooney1","image-keyboard-response","126","616711","0.0-6.0-1.17","2900884","co38137","norming","","","","","","",""
"7180.435000000172","","","post_mooney1_questions","survey-likert","127","623894","0.0-6.0-2.17","2900884","co38137","norming","","","{""curiosity"":4,""confidence"":1}","[0,1]","../img/tt/1353tt.jpg","",""
"2470.1649999987567","","","recognition","survey-text","128","626366","0.0-6.0-3.17","2900884","co38137","norming","","","{""guess"":""schoen""}","","../img/tt/1353tt.jpg","",""
"null","../img/gs/1353gs.jpg","null","reveal","image-keyboard-response","129","628373","0.0-6.0-4.17","2900884","co38137","norming","","","","","","",""
"null","../img/tt/1353tt.jpg","null","mooney2","image-keyboard-response","130","630375","0.0-6.0-5.17","2900884","co38137","norming","","","","","","",""
"2644.430000000284","","","post_reveal_questions","survey-likert","131","633022","0.0-6.0-6.17","2900884","co38137","norming","","","{""aha"":4}","[0]","../img/tt/1353tt.jpg","",""
"null","<div style=""font-size:60px;""> </div>","null","fixation","html-keyboard-response","132","633229","0.0-6.0-0.18","2900884","co38137","norming","","","","","","",""
"null","../img/tt/1089tt.jpg","null","mooney1","image-keyboard-response","133","636238","0.0-6.0-1.18","2900884","co38137","norming","","","","","","",""
"4325.36499999871","","","post_mooney1_questions","survey-likert","134","640566","0.0-6.0-2.18","2900884","co38137","norming","","","{""curiosity"":4,""confidence"":0}","[0,1]","../img/tt/1089tt.jpg","",""
"1061.845000000205","","","recognition","survey-text","135","641629","0.0-6.0-3.18","2900884","co38137","norming","","","{""guess"":""""}","","../img/tt/1089tt.jpg","",""
"null","../img/gs/1089gs.jpg","null","reveal","image-keyboard-response","136","643638","0.0-6.0-4.18","2900884","co38137","norming","","","","","","",""
"null","../img/tt/1089tt.jpg","null","mooney2","image-keyboard-response","137","645641","0.0-6.0-5.18","2900884","co38137","norming","","","","","","",""
"4186.65000000142","","","post_reveal_questions","survey-likert","138","649830","0.0-6.0-6.18","2900884","co38137","norming","","","{""aha"":6}","[0]","../img/tt/1089tt.jpg","",""
"null","<div style=""font-size:60px;""> </div>","null","fixation","html-keyboard-response","139","650031","0.0-6.0-0.19","2900884","co38137","norming","","","","","","",""
"null","../img/tt/1107tt.jpg","null","mooney1","image-keyboard-response","140","653033","0.0-6.0-1.19","2900884","co38137","norming","","","","","","",""
"5849.724999999977","","","post_mooney1_questions","survey-likert","141","658886","0.0-6.0-2.19","2900884","co38137","norming","","","{""curiosity"":2,""confidence"":4}","[0,1]","../img/tt/1107tt.jpg","",""
"2941.9199999993434","","","recognition","survey-text","142","661830","0.0-6.0-3.19","2900884","co38137","norming","","","{""guess"":""kat""}","","../img/tt/1107tt.jpg","",""
"null","../img/gs/1107gs.jpg","null","reveal","image-keyboard-response","143","663838","0.0-6.0-4.19","2900884","co38137","norming","","","","","","",""
"null","../img/tt/1107tt.jpg","null","mooney2","image-keyboard-response","144","665840","0.0-6.0-5.19","2900884","co38137","norming","","","","","","",""
"3779.5850000001956","","","post_reveal_questions","survey-likert","145","669622","0.0-6.0-6.19","2900884","co38137","norming","","","{""aha"":0}","[0]","../img/tt/1107tt.jpg","",""
"null","<div style=""font-size:60px;""> </div>","null","fixation","html-keyboard-response","146","669832","0.0-6.0-0.20","2900884","co38137","norming","","","","","","",""
"null","../img/tt/1234tt.jpg","null","mooney1","image-keyboard-response","147","672839","0.0-6.0-1.20","2900884","co38137","norming","","","","","","",""
"5571.639999998268","","","post_mooney1_questions","survey-likert","148","678415","0.0-6.0-2.20","2900884","co38137","norming","","","{""curiosity"":2,""confidence"":2}","[0,1]","../img/tt/1234tt.jpg","",""
"2509.98000000068","","","recognition","survey-text","149","680926","0.0-6.0-3.20","2900884","co38137","norming","","","{""guess"":""surfer""}","","../img/tt/1234tt.jpg","",""
"null","../img/gs/1234gs.jpg","null","reveal","image-keyboard-response","150","682933","0.0-6.0-4.20","2900884","co38137","norming","","","","","","",""
"null","../img/tt/1234tt.jpg","null","mooney2","image-keyboard-response","151","684935","0.0-6.0-5.20","2900884","co38137","norming","","","","","","",""
"3477.0050000005867","","","post_reveal_questions","survey-likert","152","688414","0.0-6.0-6.20","2900884","co38137","norming","","","{""aha"":3}","[0]","../img/tt/1234tt.jpg","",""
"null","<div style=""font-size:60px;""> </div>","null","fixation","html-keyboard-response","153","688615","0.0-6.0-0.21","2900884","co38137","norming","","","","","","",""
"null","../img/tt/094tt.jpg","null","mooney1","image-keyboard-response","154","691628","0.0-6.0-1.21","2900884","co38137","norming","","","","","","",""
"5327.815000000643","","","post_mooney1_questions","survey-likert","155","696959","0.0-6.0-2.21","2900884","co38137","norming","","","{""curiosity"":3,""confidence"":2}","[0,1]","../img/tt/094tt.jpg","",""
"2654.2950000002747","","","recognition","survey-text","156","699614","0.0-6.0-3.21","2900884","co38137","norming","","","{""guess"":""wolf""}","","../img/tt/094tt.jpg","",""
"null","../img/gs/094gs.jpg","null","reveal","image-keyboard-response","157","701622","0.0-6.0-4.21","2900884","co38137","norming","","","","","","",""
"null","../img/tt/094tt.jpg","null","mooney2","image-keyboard-response","158","703625","0.0-6.0-5.21","2900884","co38137","norming","","","","","","",""
"3043.0950000009034","","","post_reveal_questions","survey-likert","159","706670","0.0-6.0-6.21","2900884","co38137","norming","","","{""aha"":2}","[0]","../img/tt/094tt.jpg","",""
"null","<div style=""font-size:60px;""> </div>","null","fixation","html-keyboard-response","160","706879","0.0-6.0-0.22","2900884","co38137","norming","","","","","","",""
"null","../img/tt/020tt.jpg","null","mooney1","image-keyboard-response","161","709887","0.0-6.0-1.22","2900884","co38137","norming","","","","","","",""
"17460.24500000011","","","post_mooney1_questions","survey-likert","162","727350","0.0-6.0-2.22","2900884","co38137","norming","","","{""curiosity"":3,""confidence"":1}","[0,1]","../img/tt/020tt.jpg","",""
"4918.234999999171","","","recognition","survey-text","163","732270","0.0-6.0-3.22","2900884","co38137","norming","","","{""guess"":""persoon""}","","../img/tt/020tt.jpg","",""
"null","../img/gs/020gs.jpg","null","reveal","image-keyboard-response","164","734280","0.0-6.0-4.22","2900884","co38137","norming","","","","","","",""
"null","../img/tt/020tt.jpg","null","mooney2","image-keyboard-response","165","736284","0.0-6.0-5.22","2900884","co38137","norming","","","","","","",""
"2391.6449999996694","","","post_reveal_questions","survey-likert","166","738675","0.0-6.0-6.22","2900884","co38137","norming","","","{""aha"":4}","[0]","../img/tt/020tt.jpg","",""
"null","<div style=""font-size:60px;""> </div>","null","fixation","html-keyboard-response","167","738881","0.0-6.0-0.23","2900884","co38137","norming","","","","","","",""
"null","../img/tt/1255tt.jpg","null","mooney1","image-keyboard-response","168","741885","0.0-6.0-1.23","2900884","co38137","norming","","","","","","",""
"7675.149999999092","","","post_mooney1_questions","survey-likert","169","749563","0.0-6.0-2.23","2900884","co38137","norming","","","{""curiosity"":4,""confidence"":1}","[0,1]","../img/tt/1255tt.jpg","",""
"3390.235000000801","","","recognition","survey-text","170","752955","0.0-6.0-3.23","2900884","co38137","norming","","","{""guess"":""kangeroo""}","","../img/tt/1255tt.jpg","",""
"null","../img/gs/1255gs.jpg","null","reveal","image-keyboard-response","171","754961","0.0-6.0-4.23","2900884","co38137","norming","","","","","","",""
"null","../img/tt/1255tt.jpg","null","mooney2","image-keyboard-response","172","756971","0.0-6.0-5.23","2900884","co38137","norming","","","","","","",""
"4493.4799999991665","","","post_reveal_questions","survey-likert","173","761467","0.0-6.0-6.23","2900884","co38137","norming","","","{""aha"":3}","[0]","../img/tt/1255tt.jpg","",""
"null","<div style=""font-size:60px;""> </div>","null","fixation","html-keyboard-response","174","761669","0.0-6.0-0.24","2900884","co38137","norming","","","","","","",""
"null","../img/tt/1243tt.jpg","null","mooney1","image-keyboard-response","175","764677","0.0-6.0-1.24","2900884","co38137","norming","","","","","","",""
"8290.320000000065","","","post_mooney1_questions","survey-likert","176","772971","0.0-6.0-2.24","2900884","co38137","norming","","","{""curiosity"":5,""confidence"":1}","[0,1]","../img/tt/1243tt.jpg","",""
"10094.275000001304","","","recognition","survey-text","177","783067","0.0-6.0-3.24","2900884","co38137","norming","","","{""guess"":""hond""}","","../img/tt/1243tt.jpg","",""
"null","../img/gs/1243gs.jpg","null","reveal","image-keyboard-response","178","785076","0.0-6.0-4.24","2900884","co38137","norming","","","","","","",""
"null","../img/tt/1243tt.jpg","null","mooney2","image-keyboard-response","179","787077","0.0-6.0-5.24","2900884","co38137","norming","","","","","","",""
"2731.4750000004424","","","post_reveal_questions","survey-likert","180","789811","0.0-6.0-6.24","2900884","co38137","norming","","","{""aha"":6}","[0]","../img/tt/1243tt.jpg","",""
"null","<div style=""font-size:60px;""> </div>","null","fixation","html-keyboard-response","181","790018","0.0-6.0-0.25","2900884","co38137","norming","","","","","","",""
"null","../img/tt/124tt.jpg","null","mooney1","image-keyboard-response","182","793022","0.0-6.0-1.25","2900884","co38137","norming","","","","","","",""
"5738.429999999469","","","post_mooney1_questions","survey-likert","183","798767","0.0-6.0-2.25","2900884","co38137","norming","","","{""curiosity"":0,""confidence"":6}","[0,1]","../img/tt/124tt.jpg","",""
"4542.045000000158","","","recognition","survey-text","184","803311","0.0-6.0-3.25","2900884","co38137","norming","","","{""guess"":""gorilla""}","","../img/tt/124tt.jpg","",""
"null","../img/gs/124gs.jpg","null","reveal","image-keyboard-response","185","805314","0.0-6.0-4.25","2900884","co38137","norming","","","","","","",""
"null","../img/tt/124tt.jpg","null","mooney2","image-keyboard-response","186","807318","0.0-6.0-5.25","2900884","co38137","norming","","","","","","",""
"2374.5899999995017","","","post_reveal_questions","survey-likert","187","809695","0.0-6.0-6.25","2900884","co38137","norming","","","{""aha"":0}","[0]","../img/tt/124tt.jpg","",""
"null","<div style=""font-size:60px;""> </div>","null","fixation","html-keyboard-response","188","809900","0.0-6.0-0.26","2900884","co38137","norming","","","","","","",""
"null","../img/tt/121tt.jpg","null","mooney1","image-keyboard-response","189","812905","0.0-6.0-1.26","2900884","co38137","norming","","","","","","",""
"4843.244999999995","","","post_mooney1_questions","survey-likert","190","817751","0.0-6.0-2.26","2900884","co38137","norming","","","{""curiosity"":3,""confidence"":2}","[0,1]","../img/tt/121tt.jpg","",""
"2819.6349999997765","","","recognition","survey-text","191","820575","0.0-6.0-3.26","2900884","co38137","norming","","","{""guess"":""vogel""}","","../img/tt/121tt.jpg","",""
"null","../img/gs/121gs.jpg","null","reveal","image-keyboard-response","192","822585","0.0-6.0-4.26","2900884","co38137","norming","","","","","","",""
"null","../img/tt/121tt.jpg","null","mooney2","image-keyboard-response","193","824593","0.0-6.0-5.26","2900884","co38137","norming","","","","","","",""
"2483.2449999995297","","","post_reveal_questions","survey-likert","194","827079","0.0-6.0-6.26","2900884","co38137","norming","","","{""aha"":5}","[0]","../img/tt/121tt.jpg","",""
"null","<div style=""font-size:60px;""> </div>","null","fixation","html-keyboard-response","195","827288","0.0-6.0-0.27","2900884","co38137","norming","","","","","","",""
"null","../img/tt/1173tt.jpg","null","mooney1","image-keyboard-response","196","830296","0.0-6.0-1.27","2900884","co38137","norming","","","","","","",""
"4971.7950000013225","","","post_mooney1_questions","survey-likert","197","835271","0.0-6.0-2.27","2900884","co38137","norming","","","{""curiosity"":2,""confidence"":4}","[0,1]","../img/tt/1173tt.jpg","",""
"8198.119999999064","","","recognition","survey-text","198","843471","0.0-6.0-3.27","2900884","co38137","norming","","","{""guess"":""voetbalspeler""}","","../img/tt/1173tt.jpg","",""
"null","../img/gs/1173gs.jpg","null","reveal","image-keyboard-response","199","845481","0.0-6.0-4.27","2900884","co38137","norming","","","","","","",""
"null","../img/tt/1173tt.jpg","null","mooney2","image-keyboard-response","200","847490","0.0-6.0-5.27","2900884","co38137","norming","","","","","","",""
"4195.549999998533","","","post_reveal_questions","survey-likert","201","851687","0.0-6.0-6.27","2900884","co38137","norming","","","{""aha"":2}","[0]","../img/tt/1173tt.jpg","",""
"null","<div style=""font-size:60px;""> </div>","null","fixation","html-keyboard-response","202","851889","0.0-6.0-0.28","2900884","co38137","norming","","","","","","",""
"null","../img/tt/1069tt.jpg","null","mooney1","image-keyboard-response","203","854896","0.0-6.0-1.28","2900884","co38137","norming","","","","","","",""
"3812.809999999474","","","post_mooney1_questions","survey-likert","204","858706","0.0-6.0-2.28","2900884","co38137","norming","","","{""curiosity"":6,""confidence"":0}","[0,1]","../img/tt/1069tt.jpg","",""
"774.0250000006054","","","recognition","survey-text","205","859482","0.0-6.0-3.28","2900884","co38137","norming","","","{""guess"":""""}","","../img/tt/1069tt.jpg","",""
"null","../img/gs/1069gs.jpg","null","reveal","image-keyboard-response","206","861492","0.0-6.0-4.28","2900884","co38137","norming","","","","","","",""
"null","../img/tt/1069tt.jpg","null","mooney2","image-keyboard-response","207","863500","0.0-6.0-5.28","2900884","co38137","norming","","","","","","",""
"4837.044999998412","","","post_reveal_questions","survey-likert","208","868338","0.0-6.0-6.28","2900884","co38137","norming","","","{""aha"":5}","[0]","../img/tt/1069tt.jpg","",""
"null","<div style=""font-size:60px;""> </div>","null","fixation","html-keyboard-response","209","868540","0.0-6.0-0.29","2900884","co38137","norming","","","","","","",""
"null","../img/tt/194tt.jpg","null","mooney1","image-keyboard-response","210","871544","0.0-6.0-1.29","2900884","co38137","norming","","","","","","",""
"12983.720000000205","","","post_mooney1_questions","survey-likert","211","884530","0.0-6.0-2.29","2900884","co38137","norming","","","{""curiosity"":0,""confidence"":6}","[0,1]","../img/tt/194tt.jpg","",""
"9405.945000000414","","","recognition","survey-text","212","893938","0.0-6.0-3.29","2900884","co38137","norming","","","{""guess"":""harpspeelster""}","","../img/tt/194tt.jpg","",""
"null","../img/gs/194gs.jpg","null","reveal","image-keyboard-response","213","895943","0.0-6.0-4.29","2900884","co38137","norming","","","","","","",""
"null","../img/tt/194tt.jpg","null","mooney2","image-keyboard-response","214","897951","0.0-6.0-5.29","2900884","co38137","norming","","","","","","",""
"2840.549999998999","","","post_reveal_questions","survey-likert","215","900794","0.0-6.0-6.29","2900884","co38137","norming","","","{""aha"":0}","[0]","../img/tt/194tt.jpg","",""
"null","<div style=""font-size:60px;""> </div>","null","fixation","html-keyboard-response","216","900996","0.0-6.0-0.30","2900884","co38137","norming","","","","","","",""
"null","../img/tt/1247tt.jpg","null","mooney1","image-keyboard-response","217","904001","0.0-6.0-1.30","2900884","co38137","norming","","","","","","",""
"6591.304999999935","","","post_mooney1_questions","survey-likert","218","910594","0.0-6.0-2.30","2900884","co38137","norming","","","{""curiosity"":1,""confidence"":5}","[0,1]","../img/tt/1247tt.jpg","",""
"2486.170000000042","","","recognition","survey-text","219","913082","0.0-6.0-3.30","2900884","co38137","norming","","","{""guess"":""kat""}","","../img/tt/1247tt.jpg","",""
"null","../img/gs/1247gs.jpg","null","reveal","image-keyboard-response","220","915084","0.0-6.0-4.30","2900884","co38137","norming","","","","","","",""
"null","../img/tt/1247tt.jpg","null","mooney2","image-keyboard-response","221","917086","0.0-6.0-5.30","2900884","co38137","norming","","","","","","",""
"3067.0499999996973","","","post_reveal_questions","survey-likert","222","920151","0.0-6.0-6.30","2900884","co38137","norming","","","{""aha"":1}","[0]","../img/tt/1247tt.jpg","",""
"null","<div style=""font-size:60px;""> </div>","null","fixation","html-keyboard-response","223","920356","0.0-6.0-0.31","2900884","co38137","norming","","","","","","",""
"null","../img/tt/1004tt.jpg","null","mooney1","image-keyboard-response","224","923363","0.0-6.0-1.31","2900884","co38137","norming","","","","","","",""
"4243.274999998859","","","post_mooney1_questions","survey-likert","225","927607","0.0-6.0-2.31","2900884","co38137","norming","","","{""curiosity"":4,""confidence"":3}","[0,1]","../img/tt/1004tt.jpg","",""
"3294.384999999311","","","recognition","survey-text","226","930903","0.0-6.0-3.31","2900884","co38137","norming","","","{""guess"":""olifant""}","","../img/tt/1004tt.jpg","",""
"null","../img/gs/1004gs.jpg","null","reveal","image-keyboard-response","227","932913","0.0-6.0-4.31","2900884","co38137","norming","","","","","","",""
"null","../img/tt/1004tt.jpg","null","mooney2","image-keyboard-response","228","934922","0.0-6.0-5.31","2900884","co38137","norming","","","","","","",""
"2642.2250000013737","","","post_reveal_questions","survey-likert","229","937567","0.0-6.0-6.31","2900884","co38137","norming","","","{""aha"":1}","[0]","../img/tt/1004tt.jpg","",""
"null","<div style=""font-size:60px;""> </div>","null","fixation","html-keyboard-response","230","937773","0.0-6.0-0.32","2900884","co38137","norming","","","","","","",""
"null","../img/tt/435tt.jpg","null","mooney1","image-keyboard-response","231","940783","0.0-6.0-1.32","2900884","co38137","norming","","","","","","",""
"3909.5850000012433","","","post_mooney1_questions","survey-likert","232","944695","0.0-6.0-2.32","2900884","co38137","norming","","","{""curiosity"":2,""confidence"":4}","[0,1]","../img/tt/435tt.jpg","",""
"5357.939999999828","","","recognition","survey-text","233","950055","0.0-6.0-3.32","2900884","co38137","norming","","","{""guess"":""pooltafel""}","","../img/tt/435tt.jpg","",""
"null","../img/gs/435gs.jpg","null","reveal","image-keyboard-response","234","952056","0.0-6.0-4.32","2900884","co38137","norming","","","","","","",""
"null","../img/tt/435tt.jpg","null","mooney2","image-keyboard-response","235","954060","0.0-6.0-5.32","2900884","co38137","norming","","","","","","",""
"5128.629999999306","","","post_reveal_questions","survey-likert","236","959191","0.0-6.0-6.32","2900884","co38137","norming","","","{""aha"":0}","[0]","../img/tt/435tt.jpg","",""
"null","<div style=""font-size:60px;""> </div>","null","fixation","html-keyboard-response","237","959393","0.0-6.0-0.33","2900884","co38137","norming","","","","","","",""
"null","../img/tt/1171tt.jpg","null","mooney1","image-keyboard-response","238","962403","0.0-6.0-1.33","2900884","co38137","norming","","","","","","",""
"5681.400000001304","","","post_mooney1_questions","survey-likert","239","968087","0.0-6.0-2.33","2900884","co38137","norming","","","{""curiosity"":5,""confidence"":1}","[0,1]","../img/tt/1171tt.jpg","",""
"2526.1100000006845","","","recognition","survey-text","240","970615","0.0-6.0-3.33","2900884","co38137","norming","","","{""guess"":""persoon""}","","../img/tt/1171tt.jpg","",""
"null","../img/gs/1171gs.jpg","null","reveal","image-keyboard-response","241","972625","0.0-6.0-4.33","2900884","co38137","norming","","","","","","",""
"null","../img/tt/1171tt.jpg","null","mooney2","image-keyboard-response","242","974633","0.0-6.0-5.33","2900884","co38137","norming","","","","","","",""
"3227.1750000000466","","","post_reveal_questions","survey-likert","243","977863","0.0-6.0-6.33","2900884","co38137","norming","","","{""aha"":4}","[0]","../img/tt/1171tt.jpg","",""
"null","<div style=""font-size:60px;""> </div>","null","fixation","html-keyboard-response","244","978065","0.0-6.0-0.34","2900884","co38137","norming","","","","","","",""
"null","../img/tt/1272tt.jpg","null","mooney1","image-keyboard-response","245","981083","0.0-6.0-1.34","2900884","co38137","norming","","","","","","",""
"5628.160000000265","","","post_mooney1_questions","survey-likert","246","986715","0.0-6.0-2.34","2900884","co38137","norming","","","{""curiosity"":2,""confidence"":3}","[0,1]","../img/tt/1272tt.jpg","",""
"1702.0300000003772","","","recognition","survey-text","247","988418","0.0-6.0-3.34","2900884","co38137","norming","","","{""guess"":""beer""}","","../img/tt/1272tt.jpg","",""
"null","../img/gs/1272gs.jpg","null","reveal","image-keyboard-response","248","990427","0.0-6.0-4.34","2900884","co38137","norming","","","","","","",""
"null","../img/tt/1272tt.jpg","null","mooney2","image-keyboard-response","249","992429","0.0-6.0-5.34","2900884","co38137","norming","","","","","","",""
"2218.9649999999674","","","post_reveal_questions","survey-likert","250","994650","0.0-6.0-6.34","2900884","co38137","norming","","","{""aha"":4}","[0]","../img/tt/1272tt.jpg","",""
"null","<div style=""font-size:60px;""> </div>","null","fixation","html-keyboard-response","251","994856","0.0-6.0-0.35","2900884","co38137","norming","","","","","","",""
"null","../img/tt/001tt.jpg","null","mooney1","image-keyboard-response","252","997868","0.0-6.0-1.35","2900884","co38137","norming","","","","","","",""
"6019.474999999162","","","post_mooney1_questions","survey-likert","253","1003890","0.0-6.0-2.35","2900884","co38137","norming","","","{""curiosity"":5,""confidence"":0}","[0,1]","../img/tt/001tt.jpg","",""
"1150.0849999992643","","","recognition","survey-text","254","1005042","0.0-6.0-3.35","2900884","co38137","norming","","","{""guess"":""""}","","../img/tt/001tt.jpg","",""
"null","../img/gs/001gs.jpg","null","reveal","image-keyboard-response","255","1007043","0.0-6.0-4.35","2900884","co38137","norming","","","","","","",""
"null","../img/tt/001tt.jpg","null","mooney2","image-keyboard-response","256","1009052","0.0-6.0-5.35","2900884","co38137","norming","","","","","","",""
"2492.1849999991246","","","post_reveal_questions","survey-likert","257","1011546","0.0-6.0-6.35","2900884","co38137","norming","","","{""aha"":5}","[0]","../img/tt/001tt.jpg","",""
"null","<div style=""font-size:60px;""> </div>","null","fixation","html-keyboard-response","258","1011750","0.0-6.0-0.36","2900884","co38137","norming","","","","","","",""
"null","../img/tt/1200tt.jpg","null","mooney1","image-keyboard-response","259","1014753","0.0-6.0-1.36","2900884","co38137","norming","","","","","","",""
"3807.0050000005867","","","post_mooney1_questions","survey-likert","260","1018563","0.0-6.0-2.36","2900884","co38137","norming","","","{""curiosity"":3,""confidence"":4}","[0,1]","../img/tt/1200tt.jpg","",""
"8294.094999999274","","","recognition","survey-text","261","1026858","0.0-6.0-3.36","2900884","co38137","norming","","","{""guess"":""roeiboot""}","","../img/tt/1200tt.jpg","",""
"null","../img/gs/1200gs.jpg","null","reveal","image-keyboard-response","262","1028865","0.0-6.0-4.36","2900884","co38137","norming","","","","","","",""
"null","../img/tt/1200tt.jpg","null","mooney2","image-keyboard-response","263","1030867","0.0-6.0-5.36","2900884","co38137","norming","","","","","","",""
"2045.1500000017695","","","post_reveal_questions","survey-likert","264","1032914","0.0-6.0-6.36","2900884","co38137","norming","","","{""aha"":0}","[0]","../img/tt/1200tt.jpg","",""
"null","<div style=""font-size:60px;""> </div>","null","fixation","html-keyboard-response","265","1033120","0.0-6.0-0.37","2900884","co38137","norming","","","","","","",""
"null","../img/tt/079tt.jpg","null","mooney1","image-keyboard-response","266","1036128","0.0-6.0-1.37","2900884","co38137","norming","","","","","","",""
"5039.464999999851","","","post_mooney1_questions","survey-likert","267","1041172","0.0-6.0-2.37","2900884","co38137","norming","","","{""curiosity"":1,""confidence"":5}","[0,1]","../img/tt/079tt.jpg","",""
"2126.1049999993993","","","recognition","survey-text","268","1043300","0.0-6.0-3.37","2900884","co38137","norming","","","{""guess"":""beer""}","","../img/tt/079tt.jpg","",""
"null","../img/gs/079gs.jpg","null","reveal","image-keyboard-response","269","1045305","0.0-6.0-4.37","2900884","co38137","norming","","","","","","",""
"null","../img/tt/079tt.jpg","null","mooney2","image-keyboard-response","270","1047308","0.0-6.0-5.37","2900884","co38137","norming","","","","","","",""
"2140.384999998845","","","post_reveal_questions","survey-likert","271","1049451","0.0-6.0-6.37","2900884","co38137","norming","","","{""aha"":0}","[0]","../img/tt/079tt.jpg","",""
"null","<div style=""font-size:60px;""> </div>","null","fixation","html-keyboard-response","272","1049655","0.0-6.0-0.38","2900884","co38137","norming","","","","","","",""
"null","../img/tt/358tt.jpg","null","mooney1","image-keyboard-response","273","1052662","0.0-6.0-1.38","2900884","co38137","norming","","","","","","",""
"4264.605000000447","","","post_mooney1_questions","survey-likert","274","1056932","0.0-6.0-2.38","2900884","co38137","norming","","","{""curiosity"":6,""confidence"":0}","[0,1]","../img/tt/358tt.jpg","",""
"2749.9950000001118","","","recognition","survey-text","275","1059684","0.0-6.0-3.38","2900884","co38137","norming","","","{""guess"":""""}","","../img/tt/358tt.jpg","",""
"null","../img/gs/358gs.jpg","null","reveal","image-keyboard-response","276","1061692","0.0-6.0-4.38","2900884","co38137","norming","","","","","","",""
"null","../img/tt/358tt.jpg","null","mooney2","image-keyboard-response","277","1063696","0.0-6.0-5.38","2900884","co38137","norming","","","","","","",""
"3024.559999999823","","","post_reveal_questions","survey-likert","278","1066723","0.0-6.0-6.38","2900884","co38137","norming","","","{""aha"":6}","[0]","../img/tt/358tt.jpg","",""
"null","<div style=""font-size:60px;""> </div>","null","fixation","html-keyboard-response","279","1066928","0.0-6.0-0.39","2900884","co38137","norming","","","","","","",""
"null","../img/tt/135tt.jpg","null","mooney1","image-keyboard-response","280","1069936","0.0-6.0-1.39","2900884","co38137","norming","","","","","","",""
"4520.939999998547","","","post_mooney1_questions","survey-likert","281","1074460","0.0-6.0-2.39","2900884","co38137","norming","","","{""curiosity"":0,""confidence"":6}","[0,1]","../img/tt/135tt.jpg","",""
"6925.799999999115","","","recognition","survey-text","282","1081387","0.0-6.0-3.39","2900884","co38137","norming","","","{""guess"":""wc bril""}","","../img/tt/135tt.jpg","",""
"null","../img/gs/135gs.jpg","null","reveal","image-keyboard-response","283","1083394","0.0-6.0-4.39","2900884","co38137","norming","","","","","","",""
"null","../img/tt/135tt.jpg","null","mooney2","image-keyboard-response","284","1085396","0.0-6.0-5.39","2900884","co38137","norming","","","","","","",""
"2581.140000000363","","","post_reveal_questions","survey-likert","285","1087980","0.0-6.0-6.39","2900884","co38137","norming","","","{""aha"":0}","[0]","../img/tt/135tt.jpg","",""
"null","<div style=""font-size:60px;""> </div>","null","fixation","html-keyboard-response","286","1088183","0.0-6.0-0.40","2900884","co38137","norming","","","","","","",""
"null","../img/tt/1262tt.jpg","null","mooney1","image-keyboard-response","287","1091194","0.0-6.0-1.40","2900884","co38137","norming","","","","","","",""
"5327.110000000102","","","post_mooney1_questions","survey-likert","288","1096524","0.0-6.0-2.40","2900884","co38137","norming","","","{""curiosity"":2,""confidence"":3}","[0,1]","../img/tt/1262tt.jpg","",""
"2661.804999999702","","","recognition","survey-text","289","1099187","0.0-6.0-3.40","2900884","co38137","norming","","","{""guess"":""vogel""}","","../img/tt/1262tt.jpg","",""
"null","../img/gs/1262gs.jpg","null","reveal","image-keyboard-response","290","1101197","0.0-6.0-4.40","2900884","co38137","norming","","","","","","",""
"null","../img/tt/1262tt.jpg","null","mooney2","image-keyboard-response","291","1103201","0.0-6.0-5.40","2900884","co38137","norming","","","","","","",""
"1851.9950000008103","","","post_reveal_questions","survey-likert","292","1105054","0.0-6.0-6.40","2900884","co38137","norming","","","{""aha"":4}","[0]","../img/tt/1262tt.jpg","",""
"null","<div style=""font-size:60px;""> </div>","null","fixation","html-keyboard-response","293","1105262","0.0-6.0-0.41","2900884","co38137","norming","","","","","","",""
"null","../img/tt/1250tt.jpg","null","mooney1","image-keyboard-response","294","1108272","0.0-6.0-1.41","2900884","co38137","norming","","","","","","",""
"5091.3900000012945","","","post_mooney1_questions","survey-likert","295","1113366","0.0-6.0-2.41","2900884","co38137","norming","","","{""curiosity"":2,""confidence"":2}","[0,1]","../img/tt/1250tt.jpg","",""
"1598.1200000003446","","","recognition","survey-text","296","1114966","0.0-6.0-3.41","2900884","co38137","norming","","","{""guess"":""beer""}","","../img/tt/1250tt.jpg","",""
"null","../img/gs/1250gs.jpg","null","reveal","image-keyboard-response","297","1116973","0.0-6.0-4.41","2900884","co38137","norming","","","","","","",""
"null","../img/tt/1250tt.jpg","null","mooney2","image-keyboard-response","298","1118984","0.0-6.0-5.41","2900884","co38137","norming","","","","","","",""
"2395.1650000000373","","","post_reveal_questions","survey-likert","299","1121382","0.0-6.0-6.41","2900884","co38137","norming","","","{""aha"":1}","[0]","../img/tt/1250tt.jpg","",""
"null","<div style=""font-size:60px;""> </div>","null","fixation","html-keyboard-response","300","1121585","0.0-6.0-0.42","2900884","co38137","norming","","","","","","",""
"null","../img/tt/1366tt.jpg","null","mooney1","image-keyboard-response","301","1124590","0.0-6.0-1.42","2900884","co38137","norming","","","","","","",""
"6149.240000000456","","","post_mooney1_questions","survey-likert","302","1130742","0.0-6.0-2.42","2900884","co38137","norming","","","{""curiosity"":4,""confidence"":1}","[0,1]","../img/tt/1366tt.jpg","",""
"6093.8649999988265","","","recognition","survey-text","303","1136838","0.0-6.0-3.42","2900884","co38137","norming","","","{""guess"":""burrito""}","","../img/tt/1366tt.jpg","",""
"null","../img/gs/1366gs.jpg","null","reveal","image-keyboard-response","304","1138844","0.0-6.0-4.42","2900884","co38137","norming","","","","","","",""
"null","../img/tt/1366tt.jpg","null","mooney2","image-keyboard-response","305","1140855","0.0-6.0-5.42","2900884","co38137","norming","","","","","","",""
"2760.5949999997392","","","post_reveal_questions","survey-likert","306","1143622","0.0-6.0-6.42","2900884","co38137","norming","","","{""aha"":1}","[0]","../img/tt/1366tt.jpg","",""
"null","<div style=""font-size:60px;""> </div>","null","fixation","html-keyboard-response","307","1143824","0.0-6.0-0.43","2900884","co38137","norming","","","","","","",""
"null","../img/tt/552tt.jpg","null","mooney1","image-keyboard-response","308","1146835","0.0-6.0-1.43","2900884","co38137","norming","","","","","","",""
"3936.325000000652","","","post_mooney1_questions","survey-likert","309","1150774","0.0-6.0-2.43","2900884","co38137","norming","","","{""curiosity"":1,""confidence"":5}","[0,1]","../img/tt/552tt.jpg","",""
"4637.924999999115","","","recognition","survey-text","310","1155414","0.0-6.0-3.43","2900884","co38137","norming","","","{""guess"":""stinkdier""}","","../img/tt/552tt.jpg","",""
"null","../img/gs/552gs.jpg","null","reveal","image-keyboard-response","311","1157418","0.0-6.0-4.43","2900884","co38137","norming","","","","","","",""
"null","../img/tt/552tt.jpg","null","mooney2","image-keyboard-response","312","1159420","0.0-6.0-5.43","2900884","co38137","norming","","","","","","",""
"1158.9299999994691","","","post_reveal_questions","survey-likert","313","1160582","0.0-6.0-6.43","2900884","co38137","norming","","","{""aha"":0}","[0]","../img/tt/552tt.jpg","",""
"null","<div style=""font-size:60px;""> </div>","null","fixation","html-keyboard-response","314","1160791","0.0-6.0-0.44","2900884","co38137","norming","","","","","","",""
"null","../img/tt/1040tt.jpg","null","mooney1","image-keyboard-response","315","1163800","0.0-6.0-1.44","2900884","co38137","norming","","","","","","",""
"5699.399999999441","","","post_mooney1_questions","survey-likert","316","1169504","0.0-6.0-2.44","2900884","co38137","norming","","","{""curiosity"":2,""confidence"":3}","[0,1]","../img/tt/1040tt.jpg","",""
"3749.9149999984074","","","recognition","survey-text","317","1173256","0.0-6.0-3.44","2900884","co38137","norming","","","{""guess"":""krokodil""}","","../img/tt/1040tt.jpg","",""
"null","../img/gs/1040gs.jpg","null","reveal","image-keyboard-response","318","1175265","0.0-6.0-4.44","2900884","co38137","norming","","","","","","",""
"null","../img/tt/1040tt.jpg","null","mooney2","image-keyboard-response","319","1177268","0.0-6.0-5.44","2900884","co38137","norming","","","","","","",""
"2137.204999999143","","","post_reveal_questions","survey-likert","320","1179408","0.0-6.0-6.44","2900884","co38137","norming","","","{""aha"":5}","[0]","../img/tt/1040tt.jpg","",""
"null","<div style=""font-size:60px;""> </div>","null","fixation","html-keyboard-response","321","1179610","0.0-6.0-0.45","2900884","co38137","norming","","","","","","",""
"null","../img/tt/032tt.jpg","null","mooney1","image-keyboard-response","322","1182622","0.0-6.0-1.45","2900884","co38137","norming","","","","","","",""
"3399.1550000009593","","","post_mooney1_questions","survey-likert","323","1186024","0.0-6.0-2.45","2900884","co38137","norming","","","{""curiosity"":4,""confidence"":3}","[0,1]","../img/tt/032tt.jpg","",""
"3949.7749999992084","","","recognition","survey-text","324","1189976","0.0-6.0-3.45","2900884","co38137","norming","","","{""guess"":""vogelbekdier""}","","../img/tt/032tt.jpg","",""
"null","../img/gs/032gs.jpg","null","reveal","image-keyboard-response","325","1191982","0.0-6.0-4.45","2900884","co38137","norming","","","","","","",""
"null","../img/tt/032tt.jpg","null","mooney2","image-keyboard-response","326","1193992","0.0-6.0-5.45","2900884","co38137","norming","","","","","","",""
"1909.325000000419","","","post_reveal_questions","survey-likert","327","1195904","0.0-6.0-6.45","2900884","co38137","norming","","","{""aha"":6}","[0]","../img/tt/032tt.jpg","",""
"null","<div style=""font-size:60px;""> </div>","null","fixation","html-keyboard-response","328","1196107","0.0-6.0-0.46","2900884","co38137","norming","","","","","","",""
"null","../img/tt/036tt.jpg","null","mooney1","image-keyboard-response","329","1199111","0.0-6.0-1.46","2900884","co38137","norming","","","","","","",""
"4189.680000001332","","","post_mooney1_questions","survey-likert","330","1203304","0.0-6.0-2.46","2900884","co38137","norming","","","{""curiosity"":3,""confidence"":2}","[0,1]","../img/tt/036tt.jpg","",""
"2717.9300000006333","","","recognition","survey-text","331","1206024","0.0-6.0-3.46","2900884","co38137","norming","","","{""guess"":""bliksem""}","","../img/tt/036tt.jpg","",""
"null","../img/gs/036gs.jpg","null","reveal","image-keyboard-response","332","1208029","0.0-6.0-4.46","2900884","co38137","norming","","","","","","",""
"null","../img/tt/036tt.jpg","null","mooney2","image-keyboard-response","333","1210031","0.0-6.0-5.46","2900884","co38137","norming","","","","","","",""
"1525.994999999879","","","post_reveal_questions","survey-likert","334","1211560","0.0-6.0-6.46","2900884","co38137","norming","","","{""aha"":0}","[0]","../img/tt/036tt.jpg","",""
"null","<div style=""font-size:60px;""> </div>","null","fixation","html-keyboard-response","335","1211769","0.0-6.0-0.47","2900884","co38137","norming","","","","","","",""
"null","../img/tt/078tt.jpg","null","mooney1","image-keyboard-response","336","1214778","0.0-6.0-1.47","2900884","co38137","norming","","","","","","",""
"3730.6200000003446","","","post_mooney1_questions","survey-likert","337","1218512","0.0-6.0-2.47","2900884","co38137","norming","","","{""curiosity"":6,""confidence"":0}","[0,1]","../img/tt/078tt.jpg","",""
"693.8099999988917","","","recognition","survey-text","338","1219208","0.0-6.0-3.47","2900884","co38137","norming","","","{""guess"":""""}","","../img/tt/078tt.jpg","",""
"null","../img/gs/078gs.jpg","null","reveal","image-keyboard-response","339","1221214","0.0-6.0-4.47","2900884","co38137","norming","","","","","","",""
"null","../img/tt/078tt.jpg","null","mooney2","image-keyboard-response","340","1223218","0.0-6.0-5.47","2900884","co38137","norming","","","","","","",""
"2346.644999999553","","","post_reveal_questions","survey-likert","341","1225562","0.0-6.0-6.47","2900884","co38137","norming","","","{""aha"":6}","[0]","../img/tt/078tt.jpg","",""
"null","<div style=""font-size:60px;""> </div>","null","fixation","html-keyboard-response","342","1225770","0.0-6.0-0.48","2900884","co38137","norming","","","","","","",""
"null","../img/tt/412tt.jpg","null","mooney1","image-keyboard-response","343","1228774","0.0-6.0-1.48","2900884","co38137","norming","","","","","","",""
"5704.6149999988265","","","post_mooney1_questions","survey-likert","344","1234482","0.0-6.0-2.48","2900884","co38137","norming","","","{""curiosity"":4,""confidence"":1}","[0,1]","../img/tt/412tt.jpg","",""
"2766.195000000298","","","recognition","survey-text","345","1237250","0.0-6.0-3.48","2900884","co38137","norming","","","{""guess"":""parfum""}","","../img/tt/412tt.jpg","",""
"null","../img/gs/412gs.jpg","null","reveal","image-keyboard-response","346","1239255","0.0-6.0-4.48","2900884","co38137","norming","","","","","","",""
"null","../img/tt/412tt.jpg","null","mooney2","image-keyboard-response","347","1241264","0.0-6.0-5.48","2900884","co38137","norming","","","","","","",""
"1759.2800000002608","","","post_reveal_questions","survey-likert","348","1243026","0.0-6.0-6.48","2900884","co38137","norming","","","{""aha"":4}","[0]","../img/tt/412tt.jpg","",""
"null","<div style=""font-size:60px;""> </div>","null","fixation","html-keyboard-response","349","1243227","0.0-6.0-0.49","2900884","co38137","norming","","","","","","",""
"null","../img/tt/1096tt.jpg","null","mooney1","image-keyboard-response","350","1246237","0.0-6.0-1.49","2900884","co38137","norming","","","","","","",""
"6609.140000000596","","","post_mooney1_questions","survey-likert","351","1252850","0.0-6.0-2.49","2900884","co38137","norming","","","{""curiosity"":4,""confidence"":1}","[0,1]","../img/tt/1096tt.jpg","",""
"5198.000000000466","","","recognition","survey-text","352","1258050","0.0-6.0-3.49","2900884","co38137","norming","","","{""guess"":""barman""}","","../img/tt/1096tt.jpg","",""
"null","../img/gs/1096gs.jpg","null","reveal","image-keyboard-response","353","1260060","0.0-6.0-4.49","2900884","co38137","norming","","","","","","",""
"null","../img/tt/1096tt.jpg","null","mooney2","image-keyboard-response","354","1262063","0.0-6.0-5.49","2900884","co38137","norming","","","","","","",""
"2039.8700000003446","","","post_reveal_questions","survey-likert","355","1264106","0.0-6.0-6.49","2900884","co38137","norming","","","{""aha"":6}","[0]","../img/tt/1096tt.jpg","",""
"null","<div style=""font-size:60px;""> </div>","null","fixation","html-keyboard-response","356","1264315","0.0-6.0-0.50","2900884","co38137","norming","","","","","","",""
"null","../img/tt/1241tt.jpg","null","mooney1","image-keyboard-response","357","1267321","0.0-6.0-1.50","2900884","co38137","norming","","","","","","",""
"4221.219999999274","","","post_mooney1_questions","survey-likert","358","1271546","0.0-6.0-2.50","2900884","co38137","norming","","","{""curiosity"":5,""confidence"":0}","[0,1]","../img/tt/1241tt.jpg","",""
"614.1600000010803","","","recognition","survey-text","359","1272162","0.0-6.0-3.50","2900884","co38137","norming","","","{""guess"":""""}","","../img/tt/1241tt.jpg","",""
"null","../img/gs/1241gs.jpg","null","reveal","image-keyboard-response","360","1274167","0.0-6.0-4.50","2900884","co38137","norming","","","","","","",""
"null","../img/tt/1241tt.jpg","null","mooney2","image-keyboard-response","361","1276169","0.0-6.0-5.50","2900884","co38137","norming","","","","","","",""
"3134.400000000838","","","post_reveal_questions","survey-likert","362","1279306","0.0-6.0-6.50","2900884","co38137","norming","","","{""aha"":4}","[0]","../img/tt/1241tt.jpg","",""
"null","<div style=""font-size:60px;""> </div>","null","fixation","html-keyboard-response","363","1279513","0.0-6.0-0.51","2900884","co38137","norming","","","","","","",""
"null","../img/tt/534tt.jpg","null","mooney1","image-keyboard-response","364","1282520","0.0-6.0-1.51","2900884","co38137","norming","","","","","","",""
"5669.990000000456","","","post_mooney1_questions","survey-likert","365","1288201","0.0-6.0-2.51","2900884","co38137","norming","","","{""curiosity"":3,""confidence"":2}","[0,1]","../img/tt/534tt.jpg","",""
"2157.9250000012107","","","recognition","survey-text","366","1290361","0.0-6.0-3.51","2900884","co38137","norming","","","{""guess"":""bomen""}","","../img/tt/534tt.jpg","",""
"null","../img/gs/534gs.jpg","null","reveal","image-keyboard-response","367","1292368","0.0-6.0-4.51","2900884","co38137","norming","","","","","","",""
"null","../img/tt/534tt.jpg","null","mooney2","image-keyboard-response","368","1294369","0.0-6.0-5.51","2900884","co38137","norming","","","","","","",""
"1174.8449999995064","","","post_reveal_questions","survey-likert","369","1295545","0.0-6.0-6.51","2900884","co38137","norming","","","{""aha"":4}","[0]","../img/tt/534tt.jpg","",""
"null","<div style=""font-size:60px;""> </div>","null","fixation","html-keyboard-response","370","1295754","0.0-6.0-0.52","2900884","co38137","norming","","","","","","",""
"null","../img/tt/010tt.jpg","null","mooney1","image-keyboard-response","371","1298765","0.0-6.0-1.52","2900884","co38137","norming","","","","","","",""
"4112.989999999525","","","post_mooney1_questions","survey-likert","372","1302881","0.0-6.0-2.52","2900884","co38137","norming","","","{""curiosity"":2,""confidence"":2}","[0,1]","../img/tt/010tt.jpg","",""
"2197.9649999993853","","","recognition","survey-text","373","1305081","0.0-6.0-3.52","2900884","co38137","norming","","","{""guess"":""bloem""}","","../img/tt/010tt.jpg","",""
"null","../img/gs/010gs.jpg","null","reveal","image-keyboard-response","374","1307085","0.0-6.0-4.52","2900884","co38137","norming","","","","","","",""
"null","../img/tt/010tt.jpg","null","mooney2","image-keyboard-response","375","1309087","0.0-6.0-5.52","2900884","co38137","norming","","","","","","",""
"1750.9800000006799","","","post_reveal_questions","survey-likert","376","1310841","0.0-6.0-6.52","2900884","co38137","norming","","","{""aha"":6}","[0]","../img/tt/010tt.jpg","",""
"null","<div style=""font-size:60px;""> </div>","null","fixation","html-keyboard-response","377","1311048","0.0-6.0-0.53","2900884","co38137","norming","","","","","","",""
"null","../img/tt/406tt.jpg","null","mooney1","image-keyboard-response","378","1314060","0.0-6.0-1.53","2900884","co38137","norming","","","","","","",""
"5433.7599999997765","","","post_mooney1_questions","survey-likert","379","1319497","0.0-6.0-2.53","2900884","co38137","norming","","","{""curiosity"":6,""confidence"":0}","[0,1]","../img/tt/406tt.jpg","",""
"1205.7800000002608","","","recognition","survey-text","380","1320705","0.0-6.0-3.53","2900884","co38137","norming","","","{""guess"":""""}","","../img/tt/406tt.jpg","",""
"null","../img/gs/406gs.jpg","null","reveal","image-keyboard-response","381","1322707","0.0-6.0-4.53","2900884","co38137","norming","","","","","","",""
"null","../img/tt/406tt.jpg","null","mooney2","image-keyboard-response","382","1324717","0.0-6.0-5.53","2900884","co38137","norming","","","","","","",""
"2073.409999998985","","","post_reveal_questions","survey-likert","383","1326793","0.0-6.0-6.53","2900884","co38137","norming","","","{""aha"":6}","[0]","../img/tt/406tt.jpg","",""
"null","<div style=""font-size:60px;""> </div>","null","fixation","html-keyboard-response","384","1326998","0.0-6.0-0.54","2900884","co38137","norming","","","","","","",""
"null","../img/tt/013tt.jpg","null","mooney1","image-keyboard-response","385","1330001","0.0-6.0-1.54","2900884","co38137","norming","","","","","","",""
"4109.210000000428","","","post_mooney1_questions","survey-likert","386","1334113","0.0-6.0-2.54","2900884","co38137","norming","","","{""curiosity"":2,""confidence"":4}","[0,1]","../img/tt/013tt.jpg","",""
"2197.9449999998324","","","recognition","survey-text","387","1336313","0.0-6.0-3.54","2900884","co38137","norming","","","{""guess"":""kameel""}","","../img/tt/013tt.jpg","",""
"null","../img/gs/013gs.jpg","null","reveal","image-keyboard-response","388","1338321","0.0-6.0-4.54","2900884","co38137","norming","","","","","","",""
"null","../img/tt/013tt.jpg","null","mooney2","image-keyboard-response","389","1340323","0.0-6.0-5.54","2900884","co38137","norming","","","","","","",""
"2082.0000000004657","","","post_reveal_questions","survey-likert","390","1342409","0.0-6.0-6.54","2900884","co38137","norming","","","{""aha"":0}","[0]","../img/tt/013tt.jpg","",""
"null","<div style=""font-size:60px;""> </div>","null","fixation","html-keyboard-response","391","1342612","0.0-6.0-0.55","2900884","co38137","norming","","","","","","",""
"null","../img/tt/1002tt.jpg","null","mooney1","image-keyboard-response","392","1345618","0.0-6.0-1.55","2900884","co38137","norming","","","","","","",""
"3782.1800000001676","","","post_mooney1_questions","survey-likert","393","1349403","0.0-6.0-2.55","2900884","co38137","norming","","","{""curiosity"":2,""confidence"":4}","[0,1]","../img/tt/1002tt.jpg","",""
"1518.0099999997765","","","recognition","survey-text","394","1350923","0.0-6.0-3.55","2900884","co38137","norming","","","{""guess"":""beer""}","","../img/tt/1002tt.jpg","",""
"null","../img/gs/1002gs.jpg","null","reveal","image-keyboard-response","395","1352924","0.0-6.0-4.55","2900884","co38137","norming","","","","","","",""
"null","../img/tt/1002tt.jpg","null","mooney2","image-keyboard-response","396","1354927","0.0-6.0-5.55","2900884","co38137","norming","","","","","","",""
"1841.829999999376","","","post_reveal_questions","survey-likert","397","1356771","0.0-6.0-6.55","2900884","co38137","norming","","","{""aha"":0}","[0]","../img/tt/1002tt.jpg","",""
"null","<div style=""font-size:60px;""> </div>","null","fixation","html-keyboard-response","398","1356976","0.0-6.0-0.56","2900884","co38137","norming","","","","","","",""
"null","../img/tt/1363tt.jpg","null","mooney1","image-keyboard-response","399","1359982","0.0-6.0-1.56","2900884","co38137","norming","","","","","","",""
"3569.3549999997485","","","post_mooney1_questions","survey-likert","400","1363555","0.0-6.0-2.56","2900884","co38137","norming","","","{""curiosity"":6,""confidence"":0}","[0,1]","../img/tt/1363tt.jpg","",""
"941.984999999404","","","recognition","survey-text","401","1364499","0.0-6.0-3.56","2900884","co38137","norming","","","{""guess"":""""}","","../img/tt/1363tt.jpg","",""
"null","../img/gs/1363gs.jpg","null","reveal","image-keyboard-response","402","1366506","0.0-6.0-4.56","2900884","co38137","norming","","","","","","",""
"null","../img/tt/1363tt.jpg","null","mooney2","image-keyboard-response","403","1368515","0.0-6.0-5.56","2900884","co38137","norming","","","","","","",""
"2077.5300000004936","","","post_reveal_questions","survey-likert","404","1370595","0.0-6.0-6.56","2900884","co38137","norming","","","{""aha"":6}","[0]","../img/tt/1363tt.jpg","",""
"null","<div style=""font-size:60px;""> </div>","null","fixation","html-keyboard-response","405","1370802","0.0-6.0-0.57","2900884","co38137","norming","","","","","","",""
"null","../img/tt/1156tt.jpg","null","mooney1","image-keyboard-response","406","1373811","0.0-6.0-1.57","2900884","co38137","norming","","","","","","",""
"4300.484999999637","","","post_mooney1_questions","survey-likert","407","1378115","0.0-6.0-2.57","2900884","co38137","norming","","","{""curiosity"":3,""confidence"":3}","[0,1]","../img/tt/1156tt.jpg","",""
"2422.2049999989104","","","recognition","survey-text","408","1380539","0.0-6.0-3.57","2900884","co38137","norming","","","{""guess"":""vogel""}","","../img/tt/1156tt.jpg","",""
"null","../img/gs/1156gs.jpg","null","reveal","image-keyboard-response","409","1382546","0.0-6.0-4.57","2900884","co38137","norming","","","","","","",""
"null","../img/tt/1156tt.jpg","null","mooney2","image-keyboard-response","410","1384550","0.0-6.0-5.57","2900884","co38137","norming","","","","","","",""
"2474.2949999999255","","","post_reveal_questions","survey-likert","411","1387027","0.0-6.0-6.57","2900884","co38137","norming","","","{""aha"":6}","[0]","../img/tt/1156tt.jpg","",""
"null","<div style=""font-size:60px;""> </div>","null","fixation","html-keyboard-response","412","1387228","0.0-6.0-0.58","2900884","co38137","norming","","","","","","",""
"null","../img/tt/1154tt.jpg","null","mooney1","image-keyboard-response","413","1390236","0.0-6.0-1.58","2900884","co38137","norming","","","","","","",""
"3258.8799999994226","","","post_mooney1_questions","survey-likert","414","1393499","0.0-6.0-2.58","2900884","co38137","norming","","","{""curiosity"":6,""confidence"":0}","[0,1]","../img/tt/1154tt.jpg","",""
"718.3350000015926","","","recognition","survey-text","415","1394219","0.0-6.0-3.58","2900884","co38137","norming","","","{""guess"":""""}","","../img/tt/1154tt.jpg","",""
"null","../img/gs/1154gs.jpg","null","reveal","image-keyboard-response","416","1396221","0.0-6.0-4.58","2900884","co38137","norming","","","","","","",""
"null","../img/tt/1154tt.jpg","null","mooney2","image-keyboard-response","417","1398223","0.0-6.0-5.58","2900884","co38137","norming","","","","","","",""
"1297.2799999988638","","","post_reveal_questions","survey-likert","418","1399523","0.0-6.0-6.58","2900884","co38137","norming","","","{""aha"":6}","[0]","../img/tt/1154tt.jpg","",""
"null","<div style=""font-size:60px;""> </div>","null","fixation","html-keyboard-response","419","1399724","0.0-6.0-0.59","2900884","co38137","norming","","","","","","",""
"null","../img/tt/008tt.jpg","null","mooney1","image-keyboard-response","420","1402727","0.0-6.0-1.59","2900884","co38137","norming","","","","","","",""
"3544.115000000689","","","post_mooney1_questions","survey-likert","421","1406274","0.0-6.0-2.59","2900884","co38137","norming","","","{""curiosity"":2,""confidence"":3}","[0,1]","../img/tt/008tt.jpg","",""
"3110.3500000007916","","","recognition","survey-text","422","1409386","0.0-6.0-3.59","2900884","co38137","norming","","","{""guess"":""geweer""}","","../img/tt/008tt.jpg","",""
"null","../img/gs/008gs.jpg","null","reveal","image-keyboard-response","423","1411390","0.0-6.0-4.59","2900884","co38137","norming","","","","","","",""
"null","../img/tt/008tt.jpg","null","mooney2","image-keyboard-response","424","1413392","0.0-6.0-5.59","2900884","co38137","norming","","","","","","",""
"2431.029999999795","","","post_reveal_questions","survey-likert","425","1415825","0.0-6.0-6.59","2900884","co38137","norming","","","{""aha"":0}","[0]","../img/tt/008tt.jpg","",""
"null","<div style=""font-size:60px;""> </div>","null","fixation","html-keyboard-response","426","1416028","0.0-6.0-0.60","2900884","co38137","norming","","","","","","",""
"null","../img/tt/1269tt.jpg","null","mooney1","image-keyboard-response","427","1419036","0.0-6.0-1.60","2900884","co38137","norming","","","","","","",""
"6266.07500000135","","","post_mooney1_questions","survey-likert","428","1425306","0.0-6.0-2.60","2900884","co38137","norming","","","{""curiosity"":2,""confidence"":2}","[0,1]","../img/tt/1269tt.jpg","",""
"3101.8000000002794","","","recognition","survey-text","429","1428409","0.0-6.0-3.60","2900884","co38137","norming","","","{""guess"":""eekhoorn""}","","../img/tt/1269tt.jpg","",""
"null","../img/gs/1269gs.jpg","null","reveal","image-keyboard-response","430","1430411","0.0-6.0-4.60","2900884","co38137","norming","","","","","","",""
"null","../img/tt/1269tt.jpg","null","mooney2","image-keyboard-response","431","1432420","0.0-6.0-5.60","2900884","co38137","norming","","","","","","",""
"2410.7249999996275","","","post_reveal_questions","survey-likert","432","1434833","0.0-6.0-6.60","2900884","co38137","norming","","","{""aha"":2}","[0]","../img/tt/1269tt.jpg","",""
"null","<div style=""font-size:60px;""> </div>","null","fixation","html-keyboard-response","433","1435040","0.0-6.0-0.61","2900884","co38137","norming","","","","","","",""
"null","../img/tt/580tt.jpg","null","mooney1","image-keyboard-response","434","1438046","0.0-6.0-1.61","2900884","co38137","norming","","","","","","",""
"3864.325000000419","","","post_mooney1_questions","survey-likert","435","1441914","0.0-6.0-2.61","2900884","co38137","norming","","","{""curiosity"":6,""confidence"":0}","[0,1]","../img/tt/580tt.jpg","",""
"934.1000000005588","","","recognition","survey-text","436","1442849","0.0-6.0-3.61","2900884","co38137","norming","","","{""guess"":""""}","","../img/tt/580tt.jpg","",""
"null","../img/gs/580gs.jpg","null","reveal","image-keyboard-response","437","1444855","0.0-6.0-4.61","2900884","co38137","norming","","","","","","",""
"null","../img/tt/580tt.jpg","null","mooney2","image-keyboard-response","438","1446858","0.0-6.0-5.61","2900884","co38137","norming","","","","","","",""
"2220.4450000009965","","","post_reveal_questions","survey-likert","439","1449081","0.0-6.0-6.61","2900884","co38137","norming","","","{""aha"":6}","[0]","../img/tt/580tt.jpg","",""
"null","<div style=""font-size:60px;""> </div>","null","fixation","html-keyboard-response","440","1449285","0.0-6.0-0.62","2900884","co38137","norming","","","","","","",""
"null","../img/tt/1127tt.jpg","null","mooney1","image-keyboard-response","441","1452295","0.0-6.0-1.62","2900884","co38137","norming","","","","","","",""
"4686.954999999376","","","post_mooney1_questions","survey-likert","442","1456986","0.0-6.0-2.62","2900884","co38137","norming","","","{""curiosity"":2,""confidence"":2}","[0,1]","../img/tt/1127tt.jpg","",""
"3277.66999999946","","","recognition","survey-text","443","1460265","0.0-6.0-3.62","2900884","co38137","norming","","","{""guess"":""boxers""}","","../img/tt/1127tt.jpg","",""
"null","../img/gs/1127gs.jpg","null","reveal","image-keyboard-response","444","1462272","0.0-6.0-4.62","2900884","co38137","norming","","","","","","",""
"null","../img/tt/1127tt.jpg","null","mooney2","image-keyboard-response","445","1464274","0.0-6.0-5.62","2900884","co38137","norming","","","","","","",""
"2564.5149999998976","","","post_reveal_questions","survey-likert","446","1466838","0.0-6.0-6.62","2900884","co38137","norming","","","{""aha"":5}","[0]","../img/tt/1127tt.jpg","",""
"null","<div style=""font-size:60px;""> </div>","null","fixation","html-keyboard-response","447","1467043","0.0-6.0-0.63","2900884","co38137","norming","","","","","","",""
"null","../img/tt/603tt.jpg","null","mooney1","image-keyboard-response","448","1470049","0.0-6.0-1.63","2900884","co38137","norming","","","","","","",""
"5401.759999998845","","","post_mooney1_questions","survey-likert","449","1475454","0.0-6.0-2.63","2900884","co38137","norming","","","{""curiosity"":2,""confidence"":2}","[0,1]","../img/tt/603tt.jpg","",""
"2102.0700000007637","","","recognition","survey-text","450","1477558","0.0-6.0-3.63","2900884","co38137","norming","","","{""guess"":""kat""}","","../img/tt/603tt.jpg","",""
"null","../img/gs/603gs.jpg","null","reveal","image-keyboard-response","451","1479563","0.0-6.0-4.63","2900884","co38137","norming","","","","","","",""
"null","../img/tt/603tt.jpg","null","mooney2","image-keyboard-response","452","1481565","0.0-6.0-5.63","2900884","co38137","norming","","","","","","",""
"1647.574999999022","","","post_reveal_questions","survey-likert","453","1483214","0.0-6.0-6.63","2900884","co38137","norming","","","{""aha"":1}","[0]","../img/tt/603tt.jpg","",""
"null","<div style=""font-size:60px;""> </div>","null","fixation","html-keyboard-response","454","1483415","0.0-6.0-0.64","2900884","co38137","norming","","","","","","",""
"null","../img/tt/1186tt.jpg","null","mooney1","image-keyboard-response","455","1486423","0.0-6.0-1.64","2900884","co38137","norming","","","","","","",""
"5299.7149999991525","","","post_mooney1_questions","survey-likert","456","1491726","0.0-6.0-2.64","2900884","co38137","norming","","","{""curiosity"":3,""confidence"":2}","[0,1]","../img/tt/1186tt.jpg","",""
"2870.0200000002515","","","recognition","survey-text","457","1494598","0.0-6.0-3.64","2900884","co38137","norming","","","{""guess"":""militair""}","","../img/tt/1186tt.jpg","",""
"null","../img/gs/1186gs.jpg","null","reveal","image-keyboard-response","458","1496606","0.0-6.0-4.64","2900884","co38137","norming","","","","","","",""
"null","../img/tt/1186tt.jpg","null","mooney2","image-keyboard-response","459","1498611","0.0-6.0-5.64","2900884","co38137","norming","","","","","","",""
"1824.3000000002794","","","post_reveal_questions","survey-likert","460","1500438","0.0-6.0-6.64","2900884","co38137","norming","","","{""aha"":5}","[0]","../img/tt/1186tt.jpg","",""
"null","<div style=""font-size:60px;""> </div>","null","fixation","html-keyboard-response","461","1500641","0.0-6.0-0.65","2900884","co38137","norming","","","","","","",""
"null","../img/tt/442tt.jpg","null","mooney1","image-keyboard-response","462","1503649","0.0-6.0-1.65","2900884","co38137","norming","","","","","","",""
"3425.1149999999907","","","post_mooney1_questions","survey-likert","463","1507078","0.0-6.0-2.65","2900884","co38137","norming","","","{""curiosity"":6,""confidence"":0}","[0,1]","../img/tt/442tt.jpg","",""
"1182.0850000004284","","","recognition","survey-text","464","1508262","0.0-6.0-3.65","2900884","co38137","norming","","","{""guess"":""""}","","../img/tt/442tt.jpg","",""
"null","../img/gs/442gs.jpg","null","reveal","image-keyboard-response","465","1510268","0.0-6.0-4.65","2900884","co38137","norming","","","","","","",""
"null","../img/tt/442tt.jpg","null","mooney2","image-keyboard-response","466","1512278","0.0-6.0-5.65","2900884","co38137","norming","","","","","","",""
"1797.335000001127","","","post_reveal_questions","survey-likert","467","1514078","0.0-6.0-6.65","2900884","co38137","norming","","","{""aha"":5}","[0]","../img/tt/442tt.jpg","",""
"null","<div style=""font-size:60px;""> </div>","null","fixation","html-keyboard-response","468","1514284","0.0-6.0-0.66","2900884","co38137","norming","","","","","","",""
"null","../img/tt/019tt.jpg","null","mooney1","image-keyboard-response","469","1517292","0.0-6.0-1.66","2900884","co38137","norming","","","","","","",""
"4806.850000000792","","","post_mooney1_questions","survey-likert","470","1522102","0.0-6.0-2.66","2900884","co38137","norming","","","{""curiosity"":6,""confidence"":1}","[0,1]","../img/tt/019tt.jpg","",""
"2142.119999998715","","","recognition","survey-text","471","1524246","0.0-6.0-3.66","2900884","co38137","norming","","","{""guess"":""fluit""}","","../img/tt/019tt.jpg","",""
"null","../img/gs/019gs.jpg","null","reveal","image-keyboard-response","472","1526256","0.0-6.0-4.66","2900884","co38137","norming","","","","","","",""
"null","../img/tt/019tt.jpg","null","mooney2","image-keyboard-response","473","1528267","0.0-6.0-5.66","2900884","co38137","norming","","","","","","",""
"2334.9600000001956","","","post_reveal_questions","survey-likert","474","1530605","0.0-6.0-6.66","2900884","co38137","norming","","","{""aha"":6}","[0]","../img/tt/019tt.jpg","",""
"null","<div style=""font-size:60px;""> </div>","null","fixation","html-keyboard-response","475","1530806","0.0-6.0-0.67","2900884","co38137","norming","","","","","","",""
"null","../img/tt/599tt.jpg","null","mooney1","image-keyboard-response","476","1533812","0.0-6.0-1.67","2900884","co38137","norming","","","","","","",""
"4820.844999998342","","","post_mooney1_questions","survey-likert","477","1538637","0.0-6.0-2.67","2900884","co38137","norming","","","{""curiosity"":3,""confidence"":3}","[0,1]","../img/tt/599tt.jpg","",""
"1646.2850000008475","","","recognition","survey-text","478","1540285","0.0-6.0-3.67","2900884","co38137","norming","","","{""guess"":""uil""}","","../img/tt/599tt.jpg","",""
"null","../img/gs/599gs.jpg","null","reveal","image-keyboard-response","479","1542292","0.0-6.0-4.67","2900884","co38137","norming","","","","","","",""
"null","../img/tt/599tt.jpg","null","mooney2","image-keyboard-response","480","1544301","0.0-6.0-5.67","2900884","co38137","norming","","","","","","",""
"2917.260000000242","","","post_reveal_questions","survey-likert","481","1547221","0.0-6.0-6.67","2900884","co38137","norming","","","{""aha"":2}","[0]","../img/tt/599tt.jpg","",""
"null","<div style=""font-size:60px;""> </div>","null","fixation","html-keyboard-response","482","1547429","0.0-6.0-0.68","2900884","co38137","norming","","","","","","",""
"null","../img/tt/436tt.jpg","null","mooney1","image-keyboard-response","483","1550433","0.0-6.0-1.68","2900884","co38137","norming","","","","","","",""
"3919.675000000978","","","post_mooney1_questions","survey-likert","484","1554357","0.0-6.0-2.68","2900884","co38137","norming","","","{""curiosity"":1,""confidence"":4}","[0,1]","../img/tt/436tt.jpg","",""
"2789.5549999992363","","","recognition","survey-text","485","1557149","0.0-6.0-3.68","2900884","co38137","norming","","","{""guess"":""hagedis""}","","../img/tt/436tt.jpg","",""
"null","../img/gs/436gs.jpg","null","reveal","image-keyboard-response","486","1559155","0.0-6.0-4.68","2900884","co38137","norming","","","","","","",""
"null","../img/tt/436tt.jpg","null","mooney2","image-keyboard-response","487","1561157","0.0-6.0-5.68","2900884","co38137","norming","","","","","","",""
"3988.45500000054","","","post_reveal_questions","survey-likert","488","1565149","0.0-6.0-6.68","2900884","co38137","norming","","","{""aha"":0}","[0]","../img/tt/436tt.jpg","",""
"null","<div style=""font-size:60px;""> </div>","null","fixation","html-keyboard-response","489","1565351","0.0-6.0-0.69","2900884","co38137","norming","","","","","","",""
"null","../img/tt/076tt.jpg","null","mooney1","image-keyboard-response","490","1568360","0.0-6.0-1.69","2900884","co38137","norming","","","","","","",""
"5305.1450000002515","","","post_mooney1_questions","survey-likert","491","1573669","0.0-6.0-2.69","2900884","co38137","norming","","","{""curiosity"":2,""confidence"":3}","[0,1]","../img/tt/076tt.jpg","",""
"2773.7149999993853","","","recognition","survey-text","492","1576445","0.0-6.0-3.69","2900884","co38137","norming","","","{""guess"":""rolschaats""}","","../img/tt/076tt.jpg","",""
"null","../img/gs/076gs.jpg","null","reveal","image-keyboard-response","493","1578450","0.0-6.0-4.69","2900884","co38137","norming","","","","","","",""
"null","../img/tt/076tt.jpg","null","mooney2","image-keyboard-response","494","1580453","0.0-6.0-5.69","2900884","co38137","norming","","","","","","",""
"2044.6150000006892","","","post_reveal_questions","survey-likert","495","1582501","0.0-6.0-6.69","2900884","co38137","norming","","","{""aha"":0}","[0]","../img/tt/076tt.jpg","",""
"null","<div style=""font-size:60px;""> </div>","null","fixation","html-keyboard-response","496","1582706","0.0-6.0-0.70","2900884","co38137","norming","","","","","","",""
"null","../img/tt/418tt.jpg","null","mooney1","image-keyboard-response","497","1585718","0.0-6.0-1.70","2900884","co38137","norming","","","","","","",""
"5339.405000000726","","","post_mooney1_questions","survey-likert","498","1591055","0.0-6.0-2.70","2900884","co38137","norming","","","{""curiosity"":1,""confidence"":5}","[0,1]","../img/tt/418tt.jpg","",""
"2486.054999999469","","","recognition","survey-text","499","1593543","0.0-6.0-3.70","2900884","co38137","norming","","","{""guess"":""tomaten""}","","../img/tt/418tt.jpg","",""
"null","../img/gs/418gs.jpg","null","reveal","image-keyboard-response","500","1595545","0.0-6.0-4.70","2900884","co38137","norming","","","","","","",""
"null","../img/tt/418tt.jpg","null","mooney2","image-keyboard-response","501","1597546","0.0-6.0-5.70","2900884","co38137","norming","","","","","","",""
"1747.8200000005309","","","post_reveal_questions","survey-likert","502","1599295","0.0-6.0-6.70","2900884","co38137","norming","","","{""aha"":0}","[0]","../img/tt/418tt.jpg","",""
"null","<div style=""font-size:60px;""> </div>","null","fixation","html-keyboard-response","503","1599496","0.0-6.0-0.71","2900884","co38137","norming","","","","","","",""
"null","../img/tt/1142tt.jpg","null","mooney1","image-keyboard-response","504","1602504","0.0-6.0-1.71","2900884","co38137","norming","","","","","","",""
"4604.079999999143","","","post_mooney1_questions","survey-likert","505","1607111","0.0-6.0-2.71","2900884","co38137","norming","","","{""curiosity"":2,""confidence"":3}","[0,1]","../img/tt/1142tt.jpg","",""
"7789.904999999562","","","recognition","survey-text","506","1614903","0.0-6.0-3.71","2900884","co38137","norming","","","{""guess"":""athleet""}","","../img/tt/1142tt.jpg","",""
"null","../img/gs/1142gs.jpg","null","reveal","image-keyboard-response","507","1616906","0.0-6.0-4.71","2900884","co38137","norming","","","","","","",""
"null","../img/tt/1142tt.jpg","null","mooney2","image-keyboard-response","508","1618908","0.0-6.0-5.71","2900884","co38137","norming","","","","","","",""
"1584.0400000014342","","","post_reveal_questions","survey-likert","509","1620495","0.0-6.0-6.71","2900884","co38137","norming","","","{""aha"":2}","[0]","../img/tt/1142tt.jpg","",""
"null","<div style=""font-size:60px;""> </div>","null","fixation","html-keyboard-response","510","1620697","0.0-6.0-0.72","2900884","co38137","norming","","","","","","",""
"null","../img/tt/096tt.jpg","null","mooney1","image-keyboard-response","511","1623699","0.0-6.0-1.72","2900884","co38137","norming","","","","","","",""
"3512.464999999851","","","post_mooney1_questions","survey-likert","512","1627215","0.0-6.0-2.72","2900884","co38137","norming","","","{""curiosity"":0,""confidence"":6}","[0,1]","../img/tt/096tt.jpg","",""
"2149.9549999989104","","","recognition","survey-text","513","1629367","0.0-6.0-3.72","2900884","co38137","norming","","","{""guess"":""piano""}","","../img/tt/096tt.jpg","",""
"null","../img/gs/096gs.jpg","null","reveal","image-keyboard-response","514","1631370","0.0-6.0-4.72","2900884","co38137","norming","","","","","","",""
"null","../img/tt/096tt.jpg","null","mooney2","image-keyboard-response","515","1633372","0.0-6.0-5.72","2900884","co38137","norming","","","","","","",""
"2280.375000000233","","","post_reveal_questions","survey-likert","516","1635655","0.0-6.0-6.72","2900884","co38137","norming","","","{""aha"":0}","[0]","../img/tt/096tt.jpg","",""
"null","<div style=""font-size:60px;""> </div>","null","fixation","html-keyboard-response","517","1635857","0.0-6.0-0.73","2900884","co38137","norming","","","","","","",""
"null","../img/tt/307tt.jpg","null","mooney1","image-keyboard-response","518","1638864","0.0-6.0-1.73","2900884","co38137","norming","","","","","","",""
"3723.869999999879","","","post_mooney1_questions","survey-likert","519","1642591","0.0-6.0-2.73","2900884","co38137","norming","","","{""curiosity"":2,""confidence"":2}","[0,1]","../img/tt/307tt.jpg","",""
"3526.084999999497","","","recognition","survey-text","520","1646119","0.0-6.0-3.73","2900884","co38137","norming","","","{""guess"":""rups""}","","../img/tt/307tt.jpg","",""
"null","../img/gs/307gs.jpg","null","reveal","image-keyboard-response","521","1648130","0.0-6.0-4.73","2900884","co38137","norming","","","","","","",""
"null","../img/tt/307tt.jpg","null","mooney2","image-keyboard-response","522","1650139","0.0-6.0-5.73","2900884","co38137","norming","","","","","","",""
"2407.6850000002887","","","post_reveal_questions","survey-likert","523","1652550","0.0-6.0-6.73","2900884","co38137","norming","","","{""aha"":5}","[0]","../img/tt/307tt.jpg","",""
"null","<div style=""font-size:60px;""> </div>","null","fixation","html-keyboard-response","524","1652759","0.0-6.0-0.74","2900884","co38137","norming","","","","","","",""
"null","../img/tt/1236tt.jpg","null","mooney1","image-keyboard-response","525","1655766","0.0-6.0-1.74","2900884","co38137","norming","","","","","","",""
"3836.4400000008754","","","post_mooney1_questions","survey-likert","526","1659606","0.0-6.0-2.74","2900884","co38137","norming","","","{""curiosity"":6,""confidence"":0}","[0,1]","../img/tt/1236tt.jpg","",""
"677.975000000326","","","recognition","survey-text","527","1660285","0.0-6.0-3.74","2900884","co38137","norming","","","{""guess"":""""}","","../img/tt/1236tt.jpg","",""
"null","../img/gs/1236gs.jpg","null","reveal","image-keyboard-response","528","1662290","0.0-6.0-4.74","2900884","co38137","norming","","","","","","",""
"null","../img/tt/1236tt.jpg","null","mooney2","image-keyboard-response","529","1664292","0.0-6.0-5.74","2900884","co38137","norming","","","","","","",""
"1520.690000001341","","","post_reveal_questions","survey-likert","530","1665813","0.0-6.0-6.74","2900884","co38137","norming","","","{""aha"":6}","[0]","../img/tt/1236tt.jpg","",""
"null","<div style=""font-size:60px;""> </div>","null","fixation","html-keyboard-response","531","1666015","0.0-6.0-0.75","2900884","co38137","norming","","","","","","",""
"null","../img/tt/497tt.jpg","null","mooney1","image-keyboard-response","532","1669021","0.0-6.0-1.75","2900884","co38137","norming","","","","","","",""
"3740.4849999984726","","","post_mooney1_questions","survey-likert","533","1672766","0.0-6.0-2.75","2900884","co38137","norming","","","{""curiosity"":6,""confidence"":0}","[0,1]","../img/tt/497tt.jpg","",""
"622.0450000001583","","","recognition","survey-text","534","1673389","0.0-6.0-3.75","2900884","co38137","norming","","","{""guess"":""""}","","../img/tt/497tt.jpg","",""
"null","../img/gs/497gs.jpg","null","reveal","image-keyboard-response","535","1675396","0.0-6.0-4.75","2900884","co38137","norming","","","","","","",""
"null","../img/tt/497tt.jpg","null","mooney2","image-keyboard-response","536","1677402","0.0-6.0-5.75","2900884","co38137","norming","","","","","","",""
"1736.340000001248","","","post_reveal_questions","survey-likert","537","1679141","0.0-6.0-6.75","2900884","co38137","norming","","","{""aha"":6}","[0]","../img/tt/497tt.jpg","",""
"null","<div style=""font-size:60px;""> </div>","null","fixation","html-keyboard-response","538","1679342","0.0-6.0-0.76","2900884","co38137","norming","","","","","","",""
"null","../img/tt/1070tt.jpg","null","mooney1","image-keyboard-response","539","1682344","0.0-6.0-1.76","2900884","co38137","norming","","","","","","",""
"4329.604999998817","","","post_mooney1_questions","survey-likert","540","1686678","0.0-6.0-2.76","2900884","co38137","norming","","","{""curiosity"":3,""confidence"":2}","[0,1]","../img/tt/1070tt.jpg","",""
"3381.670000000624","","","recognition","survey-text","541","1690062","0.0-6.0-3.76","2900884","co38137","norming","","","{""guess"":""stuk taart""}","","../img/tt/1070tt.jpg","",""
"null","../img/gs/1070gs.jpg","null","reveal","image-keyboard-response","542","1692063","0.0-6.0-4.76","2900884","co38137","norming","","","","","","",""
"null","../img/tt/1070tt.jpg","null","mooney2","image-keyboard-response","543","1694070","0.0-6.0-5.76","2900884","co38137","norming","","","","","","",""
"1724.764999999199","","","post_reveal_questions","survey-likert","544","1695797","0.0-6.0-6.76","2900884","co38137","norming","","","{""aha"":2}","[0]","../img/tt/1070tt.jpg","",""
"null","<div style=""font-size:60px;""> </div>","null","fixation","html-keyboard-response","545","1695999","0.0-6.0-0.77","2900884","co38137","norming","","","","","","",""
"null","../img/tt/1279tt.jpg","null","mooney1","image-keyboard-response","546","1699009","0.0-6.0-1.77","2900884","co38137","norming","","","","","","",""
"4944.310000000754","","","post_mooney1_questions","survey-likert","547","1703958","0.0-6.0-2.77","2900884","co38137","norming","","","{""curiosity"":6,""confidence"":0}","[0,1]","../img/tt/1279tt.jpg","",""
"702.0950000004377","","","recognition","survey-text","548","1704661","0.0-6.0-3.77","2900884","co38137","norming","","","{""guess"":""""}","","../img/tt/1279tt.jpg","",""
"null","../img/gs/1279gs.jpg","null","reveal","image-keyboard-response","549","1706664","0.0-6.0-4.77","2900884","co38137","norming","","","","","","",""
"null","../img/tt/1279tt.jpg","null","mooney2","image-keyboard-response","550","1708665","0.0-6.0-5.77","2900884","co38137","norming","","","","","","",""
"5912.800000000047","","","post_reveal_questions","survey-likert","551","1714582","0.0-6.0-6.77","2900884","co38137","norming","","","{""aha"":3}","[0]","../img/tt/1279tt.jpg","",""
"null","<div style=""font-size:60px;""> </div>","null","fixation","html-keyboard-response","552","1714784","0.0-6.0-0.78","2900884","co38137","norming","","","","","","",""
