"rt","stimulus","key_press","test_part","trial_type","trial_index","time_elapsed","internal_node_id","totalTime","subject","experiment_name","button_pressed","success","responses","question_order","currentStim","old","correct"
"6541.2400000000025","Welcome to the experiment. This is an online experiment so please don't close the tab/window until we say goodbye.  Press any key to begin.","13","instructions","html-keyboard-response","0","6555","0.0-0.0","2722130","co38044","norming","","","","","","",""
"43766.09999999999","<div style='word-wrap: break-word; width: 900px'><h3>Please consider this information carefully before deciding whether to participate in this research</h3><ul style='text-align: left; font-size: .8em;'><li><b>Purpose of the research</b>: To examine how people process images.</li><li><b>What you will do in this research</b>:  Stimuli (images) will be presented on the computer and you will be asked different questions about them.</li><li><b>Time required</b>: Participation will take between 45 and 60 minutes to complete.</li><li><b>Risks</b>:  There are no anticipated risks associated with participating in this study. The effects of participating should be comparable to those you would experience from viewing a computer monitor for 30 minutes and using a mouse or keyboard.</li><li><b>Benefits</b>:  This study provides no benefits to you individually except for the credit. The study provides important information about the nature of perception and learning.</li><li><b>Confidentiality</b>:  Your participation in this study will remain confidential. No personally identifiable information will be associated with your data. Your de-identified data may be shared with other researchers and used in future projects.</li><li><b>Participation and withdrawal</b>:  Your participation in this study is completely voluntary and you may refuse to participate or you may choose to withdraw at any time without penalty.</li><li><b>How to contact the researchers</b>: If you have questions or concerns about your participation or payment, or want to request a summary of research findings, please contact Sander Van de Cruys (KU Leuven), at sander.vandecruys@kuleuven.be.</li></ul><p>The nature and purpose of this research have been sufficiently explained and I agree to participate in this study.  I understand that I am free to withdraw at any time without incurring any penalty.</p><p>Please consent by clicking the button below to continue. Otherwise, please exit the study at this time.</p></div>","","instructions","html-button-response","1","50323","0.0-1.0","2722130","co38044","norming","0","","","","","",""
"","","","instructions","fullscreen","2","59388","0.0-2.0","2722130","co38044","norming","","true","","","","",""
"61807.474999999984","","","sona","survey-html-form","3","121201","0.0-3.0","2722130","co38044","norming","","","[{""name"":""sonaid"",""value"":""38044""},{""name"":""debrief"",""value"":""yes""},{""name"":""datajoin"",""value"":""yes""}]","","","",""
"79909.96","<div style='word-wrap: break-word; width: 900px'><h3>Instructions</h3><p>This experiment will have 3 parts. In the first part you will see a series of distorted images like the one below on the left. As you can see in the righthand image, the distorted images are derived from actual photographs. In what follows, you will <strong>briefly</strong> be presented with <strong>only</strong> the distorted image.</p> <div style='float: left; margin-right: 20px;'><img src='../img/018tt.jpg' height='250' width='250'></img></div><div style='float: right; margin-left: 20px;'><img src='../img/018gs.jpg' height='250' width='250'></img></div><p>Subsequently you will be asked a few questions about the image: One question on how <strong>curious</strong> you are about the solution and one on how <strong>confident</strong> you are that you know the solution.</p>Next, we ask you to make a guess on what is in the image. Note that it is OK to name just the <strong>basic level category</strong>. For example when you see a parrot in the image, 'parrot' will obviously be a correct answer but also correct is 'bird'. However, 'animal' will <strong>not</strong> be counted as a correct response. For the example above, 'rose' would be correct or 'flower', but not 'plant'. When soccer players are depicted, 'soccer', 'football', 'soccer players' will be correct, but not 'humans', 'outdoors', or 'sports'. You do not need to describe the image in full, just name the main object in it <strong>in one or two words</strong>. All images depict objects from one of the following broad level categories: animals, inanimate objects, plants, sports, vehicles, and food. Recognizing means knowing <strong>more</strong> than these broad labels for a given image. But we always encourage you to <strong>make a guess</strong> if you can. Note that you are allowed to use <strong>Dutch and English</strong> in your answers, whatever comes easiest for you.</p><p>Press any key to continue.</p></div>","32","instructions","html-keyboard-response","4","201107","0.0-4.0","2722130","co38044","norming","","","","","","",""
"102783.56","<div style='word-wrap: break-word; width: 900px'><h3>Instructions</h3> <p>Next, the solution image will be revealed to you and you'll be asked to indicate how strong your <strong>aha-experience</strong> was after seeing the solution. This describes the positive feeling of the 'click' you sometimes experience, when the pieces of the 'puzzle' fall together and you suddenly have 'insight' in the image.</p><img src='aha.jpg' height='188' width='250'></img><p>Note that there are no right or wrong answers. We are interested in what <strong>you</strong> see in the image and how <strong>you</strong> feel about it.</p><p>Press any key to start the experiment.</p></div>","13","instructions","html-keyboard-response","5","303961","0.0-5.0","2722130","co38044","norming","","","","","","",""
"null","<div style=""font-size:60px;""> </div>","null","fixation","html-keyboard-response","6","304168","0.0-6.0-0.0","2722130","co38044","norming","","","","","","",""
"null","../img/tt/044tt.jpg","null","mooney1","image-keyboard-response","7","307179","0.0-6.0-1.0","2722130","co38044","norming","","","","","","",""
"18851.02000000002","","","post_mooney1_questions","survey-likert","8","326033","0.0-6.0-2.0","2722130","co38044","norming","","","{""curiosity"":5,""confidence"":1}","[0,1]","../img/tt/044tt.jpg","",""
"6717.270000000019","","","recognition","survey-text","9","332753","0.0-6.0-3.0","2722130","co38044","norming","","","{""guess"":""doos""}","","../img/tt/044tt.jpg","",""
"null","../img/gs/044gs.jpg","null","reveal","image-keyboard-response","10","334756","0.0-6.0-4.0","2722130","co38044","norming","","","","","","",""
"null","../img/tt/044tt.jpg","null","mooney2","image-keyboard-response","11","336759","0.0-6.0-5.0","2722130","co38044","norming","","","","","","",""
"4536.339999999967","","","post_reveal_questions","survey-likert","12","341297","0.0-6.0-6.0","2722130","co38044","norming","","","{""aha"":5}","[0]","../img/tt/044tt.jpg","",""
"null","<div style=""font-size:60px;""> </div>","null","fixation","html-keyboard-response","13","341502","0.0-6.0-0.1","2722130","co38044","norming","","","","","","",""
"null","../img/tt/1269tt.jpg","null","mooney1","image-keyboard-response","14","344505","0.0-6.0-1.1","2722130","co38044","norming","","","","","","",""
"8478.069999999949","","","post_mooney1_questions","survey-likert","15","352985","0.0-6.0-2.1","2722130","co38044","norming","","","{""curiosity"":5,""confidence"":2}","[0,1]","../img/tt/1269tt.jpg","",""
"1902.3699999999953","","","recognition","survey-text","16","354889","0.0-6.0-3.1","2722130","co38044","norming","","","{""guess"":""hond""}","","../img/tt/1269tt.jpg","",""
"null","../img/gs/1269gs.jpg","null","reveal","image-keyboard-response","17","356890","0.0-6.0-4.1","2722130","co38044","norming","","","","","","",""
"null","../img/tt/1269tt.jpg","null","mooney2","image-keyboard-response","18","358893","0.0-6.0-5.1","2722130","co38044","norming","","","","","","",""
"3202.0449999999837","","","post_reveal_questions","survey-likert","19","362097","0.0-6.0-6.1","2722130","co38044","norming","","","{""aha"":4}","[0]","../img/tt/1269tt.jpg","",""
"null","<div style=""font-size:60px;""> </div>","null","fixation","html-keyboard-response","20","362302","0.0-6.0-0.2","2722130","co38044","norming","","","","","","",""
"null","../img/tt/189tt.jpg","null","mooney1","image-keyboard-response","21","365359","0.0-6.0-1.2","2722130","co38044","norming","","","","","","",""
"7330.890000000014","","","post_mooney1_questions","survey-likert","22","372692","0.0-6.0-2.2","2722130","co38044","norming","","","{""curiosity"":5,""confidence"":1}","[0,1]","../img/tt/189tt.jpg","",""
"2966.195000000007","","","recognition","survey-text","23","375660","0.0-6.0-3.2","2722130","co38044","norming","","","{""guess"":""paard""}","","../img/tt/189tt.jpg","",""
"null","../img/gs/189gs.jpg","null","reveal","image-keyboard-response","24","377662","0.0-6.0-4.2","2722130","co38044","norming","","","","","","",""
"null","../img/tt/189tt.jpg","null","mooney2","image-keyboard-response","25","379668","0.0-6.0-5.2","2722130","co38044","norming","","","","","","",""
"3205.1149999999907","","","post_reveal_questions","survey-likert","26","382884","0.0-6.0-6.2","2722130","co38044","norming","","","{""aha"":5}","[0]","../img/tt/189tt.jpg","",""
"null","<div style=""font-size:60px;""> </div>","null","fixation","html-keyboard-response","27","383088","0.0-6.0-0.3","2722130","co38044","norming","","","","","","",""
"null","../img/tt/1049tt.jpg","null","mooney1","image-keyboard-response","28","386091","0.0-6.0-1.3","2722130","co38044","norming","","","","","","",""
"5719.195000000007","","","post_mooney1_questions","survey-likert","29","391812","0.0-6.0-2.3","2722130","co38044","norming","","","{""curiosity"":5,""confidence"":0}","[0,1]","../img/tt/1049tt.jpg","",""
"10566.01000000001","","","recognition","survey-text","30","402380","0.0-6.0-3.3","2722130","co38044","norming","","","{""guess"":""stoel""}","","../img/tt/1049tt.jpg","",""
"null","../img/gs/1049gs.jpg","null","reveal","image-keyboard-response","31","404382","0.0-6.0-4.3","2722130","co38044","norming","","","","","","",""
"null","../img/tt/1049tt.jpg","null","mooney2","image-keyboard-response","32","406383","0.0-6.0-5.3","2722130","co38044","norming","","","","","","",""
"3651.2750000000815","","","post_reveal_questions","survey-likert","33","410036","0.0-6.0-6.3","2722130","co38044","norming","","","{""aha"":5}","[0]","../img/tt/1049tt.jpg","",""
"null","<div style=""font-size:60px;""> </div>","null","fixation","html-keyboard-response","34","410238","0.0-6.0-0.4","2722130","co38044","norming","","","","","","",""
"null","../img/tt/1063tt.jpg","null","mooney1","image-keyboard-response","35","413240","0.0-6.0-1.4","2722130","co38044","norming","","","","","","",""
"5321.969999999972","","","post_mooney1_questions","survey-likert","36","418564","0.0-6.0-2.4","2722130","co38044","norming","","","{""curiosity"":5,""confidence"":2}","[0,1]","../img/tt/1063tt.jpg","",""
"2534.5049999999464","","","recognition","survey-text","37","421100","0.0-6.0-3.4","2722130","co38044","norming","","","{""guess"":""olifant""}","","../img/tt/1063tt.jpg","",""
"null","../img/gs/1063gs.jpg","null","reveal","image-keyboard-response","38","423101","0.0-6.0-4.4","2722130","co38044","norming","","","","","","",""
"null","../img/tt/1063tt.jpg","null","mooney2","image-keyboard-response","39","425115","0.0-6.0-5.4","2722130","co38044","norming","","","","","","",""
"3199.719999999972","","","post_reveal_questions","survey-likert","40","428366","0.0-6.0-6.4","2722130","co38044","norming","","","{""aha"":4}","[0]","../img/tt/1063tt.jpg","",""
"null","<div style=""font-size:60px;""> </div>","null","fixation","html-keyboard-response","41","428576","0.0-6.0-0.5","2722130","co38044","norming","","","","","","",""
"null","../img/tt/1242tt.jpg","null","mooney1","image-keyboard-response","42","431582","0.0-6.0-1.5","2722130","co38044","norming","","","","","","",""
"5646.234999999928","","","post_mooney1_questions","survey-likert","43","437231","0.0-6.0-2.5","2722130","co38044","norming","","","{""curiosity"":5,""confidence"":1}","[0,1]","../img/tt/1242tt.jpg","",""
"2685.9249999999884","","","recognition","survey-text","44","439918","0.0-6.0-3.5","2722130","co38044","norming","","","{""guess"":""vleermuis""}","","../img/tt/1242tt.jpg","",""
"null","../img/gs/1242gs.jpg","null","reveal","image-keyboard-response","45","441920","0.0-6.0-4.5","2722130","co38044","norming","","","","","","",""
"null","../img/tt/1242tt.jpg","null","mooney2","image-keyboard-response","46","443930","0.0-6.0-5.5","2722130","co38044","norming","","","","","","",""
"2938.7050000000745","","","post_reveal_questions","survey-likert","47","446871","0.0-6.0-6.5","2722130","co38044","norming","","","{""aha"":4}","[0]","../img/tt/1242tt.jpg","",""
"null","<div style=""font-size:60px;""> </div>","null","fixation","html-keyboard-response","48","447072","0.0-6.0-0.6","2722130","co38044","norming","","","","","","",""
"null","../img/tt/078tt.jpg","null","mooney1","image-keyboard-response","49","450082","0.0-6.0-1.6","2722130","co38044","norming","","","","","","",""
"5434.989999999991","","","post_mooney1_questions","survey-likert","50","455519","0.0-6.0-2.6","2722130","co38044","norming","","","{""curiosity"":4,""confidence"":3}","[0,1]","../img/tt/078tt.jpg","",""
"2350.2150000000256","","","recognition","survey-text","51","457871","0.0-6.0-3.6","2722130","co38044","norming","","","{""guess"":""druiven""}","","../img/tt/078tt.jpg","",""
"null","../img/gs/078gs.jpg","null","reveal","image-keyboard-response","52","459872","0.0-6.0-4.6","2722130","co38044","norming","","","","","","",""
"null","../img/tt/078tt.jpg","null","mooney2","image-keyboard-response","53","461874","0.0-6.0-5.6","2722130","co38044","norming","","","","","","",""
"4970.599999999977","","","post_reveal_questions","survey-likert","54","466846","0.0-6.0-6.6","2722130","co38044","norming","","","{""aha"":1}","[0]","../img/tt/078tt.jpg","",""
"null","<div style=""font-size:60px;""> </div>","null","fixation","html-keyboard-response","55","467055","0.0-6.0-0.7","2722130","co38044","norming","","","","","","",""
"null","../img/tt/060tt.jpg","null","mooney1","image-keyboard-response","56","470064","0.0-6.0-1.7","2722130","co38044","norming","","","","","","",""
"3596.8600000001024","","","post_mooney1_questions","survey-likert","57","473663","0.0-6.0-2.7","2722130","co38044","norming","","","{""curiosity"":4,""confidence"":2}","[0,1]","../img/tt/060tt.jpg","",""
"2110.149999999965","","","recognition","survey-text","58","475774","0.0-6.0-3.7","2722130","co38044","norming","","","{""guess"":""helm""}","","../img/tt/060tt.jpg","",""
"null","../img/gs/060gs.jpg","null","reveal","image-keyboard-response","59","477776","0.0-6.0-4.7","2722130","co38044","norming","","","","","","",""
"null","../img/tt/060tt.jpg","null","mooney2","image-keyboard-response","60","479778","0.0-6.0-5.7","2722130","co38044","norming","","","","","","",""
"2754.975000000093","","","post_reveal_questions","survey-likert","61","482535","0.0-6.0-6.7","2722130","co38044","norming","","","{""aha"":4}","[0]","../img/tt/060tt.jpg","",""
"null","<div style=""font-size:60px;""> </div>","null","fixation","html-keyboard-response","62","482736","0.0-6.0-0.8","2722130","co38044","norming","","","","","","",""
"null","../img/tt/1211tt.jpg","null","mooney1","image-keyboard-response","63","485743","0.0-6.0-1.8","2722130","co38044","norming","","","","","","",""
"3149.625","","","post_mooney1_questions","survey-likert","64","488946","0.0-6.0-2.8","2722130","co38044","norming","","","{""curiosity"":4,""confidence"":2}","[0,1]","../img/tt/1211tt.jpg","",""
"1662.4450000000652","","","recognition","survey-text","65","490610","0.0-6.0-3.8","2722130","co38044","norming","","","{""guess"":""auto""}","","../img/tt/1211tt.jpg","",""
"null","../img/gs/1211gs.jpg","null","reveal","image-keyboard-response","66","492620","0.0-6.0-4.8","2722130","co38044","norming","","","","","","",""
"null","../img/tt/1211tt.jpg","null","mooney2","image-keyboard-response","67","494622","0.0-6.0-5.8","2722130","co38044","norming","","","","","","",""
"1554.0499999999302","","","post_reveal_questions","survey-likert","68","496177","0.0-6.0-6.8","2722130","co38044","norming","","","{""aha"":4}","[0]","../img/tt/1211tt.jpg","",""
"null","<div style=""font-size:60px;""> </div>","null","fixation","html-keyboard-response","69","496385","0.0-6.0-0.9","2722130","co38044","norming","","","","","","",""
"null","../img/tt/1227tt.jpg","null","mooney1","image-keyboard-response","70","499395","0.0-6.0-1.9","2722130","co38044","norming","","","","","","",""
"4621.005000000005","","","post_mooney1_questions","survey-likert","71","504018","0.0-6.0-2.9","2722130","co38044","norming","","","{""curiosity"":5,""confidence"":0}","[0,1]","../img/tt/1227tt.jpg","",""
"2638.4650000000256","","","recognition","survey-text","72","506658","0.0-6.0-3.9","2722130","co38044","norming","","","{""guess"":""boot""}","","../img/tt/1227tt.jpg","",""
"null","../img/gs/1227gs.jpg","null","reveal","image-keyboard-response","73","508661","0.0-6.0-4.9","2722130","co38044","norming","","","","","","",""
"null","../img/tt/1227tt.jpg","null","mooney2","image-keyboard-response","74","510663","0.0-6.0-5.9","2722130","co38044","norming","","","","","","",""
"2481.4949999999953","","","post_reveal_questions","survey-likert","75","513145","0.0-6.0-6.9","2722130","co38044","norming","","","{""aha"":5}","[0]","../img/tt/1227tt.jpg","",""
"null","<div style=""font-size:60px;""> </div>","null","fixation","html-keyboard-response","76","513353","0.0-6.0-0.10","2722130","co38044","norming","","","","","","",""
"null","../img/tt/020tt.jpg","null","mooney1","image-keyboard-response","77","516364","0.0-6.0-1.10","2722130","co38044","norming","","","","","","",""
"5828.02999999997","","","post_mooney1_questions","survey-likert","78","522194","0.0-6.0-2.10","2722130","co38044","norming","","","{""curiosity"":5,""confidence"":1}","[0,1]","../img/tt/020tt.jpg","",""
"1661.9199999999837","","","recognition","survey-text","79","523858","0.0-6.0-3.10","2722130","co38044","norming","","","{""guess"":""hoofd""}","","../img/tt/020tt.jpg","",""
"null","../img/gs/020gs.jpg","null","reveal","image-keyboard-response","80","525859","0.0-6.0-4.10","2722130","co38044","norming","","","","","","",""
"null","../img/tt/020tt.jpg","null","mooney2","image-keyboard-response","81","527861","0.0-6.0-5.10","2722130","co38044","norming","","","","","","",""
"2506.919999999809","","","post_reveal_questions","survey-likert","82","530370","0.0-6.0-6.10","2722130","co38044","norming","","","{""aha"":4}","[0]","../img/tt/020tt.jpg","",""
"null","<div style=""font-size:60px;""> </div>","null","fixation","html-keyboard-response","83","530574","0.0-6.0-0.11","2722130","co38044","norming","","","","","","",""
"null","../img/tt/049tt.jpg","null","mooney1","image-keyboard-response","84","533577","0.0-6.0-1.11","2722130","co38044","norming","","","","","","",""
"4358.89000000013","","","post_mooney1_questions","survey-likert","85","537938","0.0-6.0-2.11","2722130","co38044","norming","","","{""curiosity"":5,""confidence"":0}","[0,1]","../img/tt/049tt.jpg","",""
"4733.9550000000745","","","recognition","survey-text","86","542674","0.0-6.0-3.11","2722130","co38044","norming","","","{""guess"":""""}","","../img/tt/049tt.jpg","",""
"null","../img/gs/049gs.jpg","null","reveal","image-keyboard-response","87","544682","0.0-6.0-4.11","2722130","co38044","norming","","","","","","",""
"null","../img/tt/049tt.jpg","null","mooney2","image-keyboard-response","88","546691","0.0-6.0-5.11","2722130","co38044","norming","","","","","","",""
"4796.570000000065","","","post_reveal_questions","survey-likert","89","551524","0.0-6.0-6.11","2722130","co38044","norming","","","{""aha"":5}","[0]","../img/tt/049tt.jpg","",""
"null","<div style=""font-size:60px;""> </div>","null","fixation","html-keyboard-response","90","551730","0.0-6.0-0.12","2722130","co38044","norming","","","","","","",""
"null","../img/tt/552tt.jpg","null","mooney1","image-keyboard-response","91","554736","0.0-6.0-1.12","2722130","co38044","norming","","","","","","",""
"9554.235000000102","","","post_mooney1_questions","survey-likert","92","564292","0.0-6.0-2.12","2722130","co38044","norming","","","{""curiosity"":5,""confidence"":1}","[0,1]","../img/tt/552tt.jpg","",""
"2158.1149999999907","","","recognition","survey-text","93","566452","0.0-6.0-3.12","2722130","co38044","norming","","","{""guess"":""bever""}","","../img/tt/552tt.jpg","",""
"null","../img/gs/552gs.jpg","null","reveal","image-keyboard-response","94","568461","0.0-6.0-4.12","2722130","co38044","norming","","","","","","",""
"null","../img/tt/552tt.jpg","null","mooney2","image-keyboard-response","95","570463","0.0-6.0-5.12","2722130","co38044","norming","","","","","","",""
"3978.804999999935","","","post_reveal_questions","survey-likert","96","574444","0.0-6.0-6.12","2722130","co38044","norming","","","{""aha"":3}","[0]","../img/tt/552tt.jpg","",""
"null","<div style=""font-size:60px;""> </div>","null","fixation","html-keyboard-response","97","574647","0.0-6.0-0.13","2722130","co38044","norming","","","","","","",""
"null","../img/tt/1188tt.jpg","null","mooney1","image-keyboard-response","98","577654","0.0-6.0-1.13","2722130","co38044","norming","","","","","","",""
"6748.409999999916","","","post_mooney1_questions","survey-likert","99","584404","0.0-6.0-2.13","2722130","co38044","norming","","","{""curiosity"":5,""confidence"":1}","[0,1]","../img/tt/1188tt.jpg","",""
"1518.4400000000605","","","recognition","survey-text","100","585924","0.0-6.0-3.13","2722130","co38044","norming","","","{""guess"":""mens""}","","../img/tt/1188tt.jpg","",""
"null","../img/gs/1188gs.jpg","null","reveal","image-keyboard-response","101","587927","0.0-6.0-4.13","2722130","co38044","norming","","","","","","",""
"null","../img/tt/1188tt.jpg","null","mooney2","image-keyboard-response","102","589934","0.0-6.0-5.13","2722130","co38044","norming","","","","","","",""
"5228.435000000056","","","post_reveal_questions","survey-likert","103","595164","0.0-6.0-6.13","2722130","co38044","norming","","","{""aha"":3}","[0]","../img/tt/1188tt.jpg","",""
"null","<div style=""font-size:60px;""> </div>","null","fixation","html-keyboard-response","104","595367","0.0-6.0-0.14","2722130","co38044","norming","","","","","","",""
"null","../img/tt/1224tt.jpg","null","mooney1","image-keyboard-response","105","598373","0.0-6.0-1.14","2722130","co38044","norming","","","","","","",""
"9204.534999999916","","","post_mooney1_questions","survey-likert","106","607580","0.0-6.0-2.14","2722130","co38044","norming","","","{""curiosity"":3,""confidence"":1}","[0,1]","../img/tt/1224tt.jpg","",""
"1814.0900000000838","","","recognition","survey-text","107","609393","0.0-6.0-3.14","2722130","co38044","norming","","","{""guess"":""mens""}","","../img/tt/1224tt.jpg","",""
"null","../img/gs/1224gs.jpg","null","reveal","image-keyboard-response","108","611395","0.0-6.0-4.14","2722130","co38044","norming","","","","","","",""
"null","../img/tt/1224tt.jpg","null","mooney2","image-keyboard-response","109","613403","0.0-6.0-5.14","2722130","co38044","norming","","","","","","",""
"2490.649999999907","","","post_reveal_questions","survey-likert","110","615897","0.0-6.0-6.14","2722130","co38044","norming","","","{""aha"":4}","[0]","../img/tt/1224tt.jpg","",""
"null","<div style=""font-size:60px;""> </div>","null","fixation","html-keyboard-response","111","616102","0.0-6.0-0.15","2722130","co38044","norming","","","","","","",""
"null","../img/tt/598tt.jpg","null","mooney1","image-keyboard-response","112","619110","0.0-6.0-1.15","2722130","co38044","norming","","","","","","",""
"4993.2949999999255","","","post_mooney1_questions","survey-likert","113","624106","0.0-6.0-2.15","2722130","co38044","norming","","","{""curiosity"":5,""confidence"":0}","[0,1]","../img/tt/598tt.jpg","",""
"438.15500000002794","","","recognition","survey-text","114","624545","0.0-6.0-3.15","2722130","co38044","norming","","","{""guess"":""""}","","../img/tt/598tt.jpg","",""
"null","../img/gs/598gs.jpg","null","reveal","image-keyboard-response","115","626548","0.0-6.0-4.15","2722130","co38044","norming","","","","","","",""
"null","../img/tt/598tt.jpg","null","mooney2","image-keyboard-response","116","628549","0.0-6.0-5.15","2722130","co38044","norming","","","","","","",""
"3202.445000000065","","","post_reveal_questions","survey-likert","117","631753","0.0-6.0-6.15","2722130","co38044","norming","","","{""aha"":4}","[0]","../img/tt/598tt.jpg","",""
"null","<div style=""font-size:60px;""> </div>","null","fixation","html-keyboard-response","118","631958","0.0-6.0-0.16","2722130","co38044","norming","","","","","","",""
"null","../img/tt/126tt.jpg","null","mooney1","image-keyboard-response","119","634963","0.0-6.0-1.16","2722130","co38044","norming","","","","","","",""
"4804.155000000028","","","post_mooney1_questions","survey-likert","120","639769","0.0-6.0-2.16","2722130","co38044","norming","","","{""curiosity"":4,""confidence"":0}","[0,1]","../img/tt/126tt.jpg","",""
"1493.969999999972","","","recognition","survey-text","121","641265","0.0-6.0-3.16","2722130","co38044","norming","","","{""guess"":"" ""}","","../img/tt/126tt.jpg","",""
"null","../img/gs/126gs.jpg","null","reveal","image-keyboard-response","122","643272","0.0-6.0-4.16","2722130","co38044","norming","","","","","","",""
"null","../img/tt/126tt.jpg","null","mooney2","image-keyboard-response","123","645281","0.0-6.0-5.16","2722130","co38044","norming","","","","","","",""
"2830.134999999893","","","post_reveal_questions","survey-likert","124","648113","0.0-6.0-6.16","2722130","co38044","norming","","","{""aha"":4}","[0]","../img/tt/126tt.jpg","",""
"null","<div style=""font-size:60px;""> </div>","null","fixation","html-keyboard-response","125","648317","0.0-6.0-0.17","2722130","co38044","norming","","","","","","",""
"null","../img/tt/1283tt.jpg","null","mooney1","image-keyboard-response","126","651321","0.0-6.0-1.17","2722130","co38044","norming","","","","","","",""
"5429.899999999907","","","post_mooney1_questions","survey-likert","127","656754","0.0-6.0-2.17","2722130","co38044","norming","","","{""curiosity"":4,""confidence"":1}","[0,1]","../img/tt/1283tt.jpg","",""
"2622.1350000000093","","","recognition","survey-text","128","659377","0.0-6.0-3.17","2722130","co38044","norming","","","{""guess"":""bladeren""}","","../img/tt/1283tt.jpg","",""
"null","../img/gs/1283gs.jpg","null","reveal","image-keyboard-response","129","661379","0.0-6.0-4.17","2722130","co38044","norming","","","","","","",""
"null","../img/tt/1283tt.jpg","null","mooney2","image-keyboard-response","130","663381","0.0-6.0-5.17","2722130","co38044","norming","","","","","","",""
"2242.32500000007","","","post_reveal_questions","survey-likert","131","665625","0.0-6.0-6.17","2722130","co38044","norming","","","{""aha"":4}","[0]","../img/tt/1283tt.jpg","",""
"null","<div style=""font-size:60px;""> </div>","null","fixation","html-keyboard-response","132","665834","0.0-6.0-0.18","2722130","co38044","norming","","","","","","",""
"null","../img/tt/1261tt.jpg","null","mooney1","image-keyboard-response","133","668844","0.0-6.0-1.18","2722130","co38044","norming","","","","","","",""
"5058.744999999995","","","post_mooney1_questions","survey-likert","134","673905","0.0-6.0-2.18","2722130","co38044","norming","","","{""curiosity"":4,""confidence"":1}","[0,1]","../img/tt/1261tt.jpg","",""
"2534.0899999999674","","","recognition","survey-text","135","676441","0.0-6.0-3.18","2722130","co38044","norming","","","{""guess"":""varkens""}","","../img/tt/1261tt.jpg","",""
"null","../img/gs/1261gs.jpg","null","reveal","image-keyboard-response","136","678443","0.0-6.0-4.18","2722130","co38044","norming","","","","","","",""
"null","../img/tt/1261tt.jpg","null","mooney2","image-keyboard-response","137","680445","0.0-6.0-5.18","2722130","co38044","norming","","","","","","",""
"3561.9649999999674","","","post_reveal_questions","survey-likert","138","684009","0.0-6.0-6.18","2722130","co38044","norming","","","{""aha"":4}","[0]","../img/tt/1261tt.jpg","",""
"null","<div style=""font-size:60px;""> </div>","null","fixation","html-keyboard-response","139","684210","0.0-6.0-0.19","2722130","co38044","norming","","","","","","",""
"null","../img/tt/1033tt.jpg","null","mooney1","image-keyboard-response","140","687216","0.0-6.0-1.19","2722130","co38044","norming","","","","","","",""
"8622.150000000023","","","post_mooney1_questions","survey-likert","141","695841","0.0-6.0-2.19","2722130","co38044","norming","","","{""curiosity"":4,""confidence"":1}","[0,1]","../img/tt/1033tt.jpg","",""
"1814.3400000000838","","","recognition","survey-text","142","697657","0.0-6.0-3.19","2722130","co38044","norming","","","{""guess"":""viool""}","","../img/tt/1033tt.jpg","",""
"null","../img/gs/1033gs.jpg","null","reveal","image-keyboard-response","143","699660","0.0-6.0-4.19","2722130","co38044","norming","","","","","","",""
"null","../img/tt/1033tt.jpg","null","mooney2","image-keyboard-response","144","701670","0.0-6.0-5.19","2722130","co38044","norming","","","","","","",""
"1712.7299999999814","","","post_reveal_questions","survey-likert","145","703385","0.0-6.0-6.19","2722130","co38044","norming","","","{""aha"":4}","[0]","../img/tt/1033tt.jpg","",""
"null","<div style=""font-size:60px;""> </div>","null","fixation","html-keyboard-response","146","703595","0.0-6.0-0.20","2722130","co38044","norming","","","","","","",""
"null","../img/tt/1148tt.jpg","null","mooney1","image-keyboard-response","147","706603","0.0-6.0-1.20","2722130","co38044","norming","","","","","","",""
"6316.479999999981","","","post_mooney1_questions","survey-likert","148","712921","0.0-6.0-2.20","2722130","co38044","norming","","","{""curiosity"":4,""confidence"":0}","[0,1]","../img/tt/1148tt.jpg","",""
"1454.2999999999302","","","recognition","survey-text","149","714377","0.0-6.0-3.20","2722130","co38044","norming","","","{""guess"":""""}","","../img/tt/1148tt.jpg","",""
"null","../img/gs/1148gs.jpg","null","reveal","image-keyboard-response","150","716378","0.0-6.0-4.20","2722130","co38044","norming","","","","","","",""
"null","../img/tt/1148tt.jpg","null","mooney2","image-keyboard-response","151","718384","0.0-6.0-5.20","2722130","co38044","norming","","","","","","",""
"2303.414999999921","","","post_reveal_questions","survey-likert","152","720689","0.0-6.0-6.20","2722130","co38044","norming","","","{""aha"":4}","[0]","../img/tt/1148tt.jpg","",""
"null","<div style=""font-size:60px;""> </div>","null","fixation","html-keyboard-response","153","720895","0.0-6.0-0.21","2722130","co38044","norming","","","","","","",""
"null","../img/tt/1012tt.jpg","null","mooney1","image-keyboard-response","154","723899","0.0-6.0-1.21","2722130","co38044","norming","","","","","","",""
"5963.944999999949","","","post_mooney1_questions","survey-likert","155","729862","0.0-6.0-2.21","2722130","co38044","norming","","","{""curiosity"":4,""confidence"":2}","[0,1]","../img/tt/1012tt.jpg","",""
"1790.3150000000605","","","recognition","survey-text","156","731654","0.0-6.0-3.21","2722130","co38044","norming","","","{""guess"":""zebra""}","","../img/tt/1012tt.jpg","",""
"null","../img/gs/1012gs.jpg","null","reveal","image-keyboard-response","157","733656","0.0-6.0-4.21","2722130","co38044","norming","","","","","","",""
"null","../img/tt/1012tt.jpg","null","mooney2","image-keyboard-response","158","735658","0.0-6.0-5.21","2722130","co38044","norming","","","","","","",""
"3137.810000000056","","","post_reveal_questions","survey-likert","159","738798","0.0-6.0-6.21","2722130","co38044","norming","","","{""aha"":3}","[0]","../img/tt/1012tt.jpg","",""
"null","<div style=""font-size:60px;""> </div>","null","fixation","html-keyboard-response","160","739000","0.0-6.0-0.22","2722130","co38044","norming","","","","","","",""
"null","../img/tt/580tt.jpg","null","mooney1","image-keyboard-response","161","742006","0.0-6.0-1.22","2722130","co38044","norming","","","","","","",""
"5005.409999999916","","","post_mooney1_questions","survey-likert","162","747014","0.0-6.0-2.22","2722130","co38044","norming","","","{""curiosity"":4,""confidence"":0}","[0,1]","../img/tt/580tt.jpg","",""
"1142.0500000000466","","","recognition","survey-text","163","748158","0.0-6.0-3.22","2722130","co38044","norming","","","{""guess"":""""}","","../img/tt/580tt.jpg","",""
"null","../img/gs/580gs.jpg","null","reveal","image-keyboard-response","164","750167","0.0-6.0-4.22","2722130","co38044","norming","","","","","","",""
"null","../img/tt/580tt.jpg","null","mooney2","image-keyboard-response","165","752173","0.0-6.0-5.22","2722130","co38044","norming","","","","","","",""
"5502.969999999972","","","post_reveal_questions","survey-likert","166","757677","0.0-6.0-6.22","2722130","co38044","norming","","","{""aha"":4}","[0]","../img/tt/580tt.jpg","",""
"null","<div style=""font-size:60px;""> </div>","null","fixation","html-keyboard-response","167","757879","0.0-6.0-0.23","2722130","co38044","norming","","","","","","",""
"null","../img/tt/1128tt.jpg","null","mooney1","image-keyboard-response","168","760885","0.0-6.0-1.23","2722130","co38044","norming","","","","","","",""
"3606.774999999907","","","post_mooney1_questions","survey-likert","169","764494","0.0-6.0-2.23","2722130","co38044","norming","","","{""curiosity"":4,""confidence"":2}","[0,1]","../img/tt/1128tt.jpg","",""
"4422.159999999916","","","recognition","survey-text","170","768918","0.0-6.0-3.23","2722130","co38044","norming","","","{""guess"":""pinguïn""}","","../img/tt/1128tt.jpg","",""
"null","../img/gs/1128gs.jpg","null","reveal","image-keyboard-response","171","770929","0.0-6.0-4.23","2722130","co38044","norming","","","","","","",""
"null","../img/tt/1128tt.jpg","null","mooney2","image-keyboard-response","172","772934","0.0-6.0-5.23","2722130","co38044","norming","","","","","","",""
"4109.010000000009","","","post_reveal_questions","survey-likert","173","777045","0.0-6.0-6.23","2722130","co38044","norming","","","{""aha"":4}","[0]","../img/tt/1128tt.jpg","",""
"null","<div style=""font-size:60px;""> </div>","null","fixation","html-keyboard-response","174","777250","0.0-6.0-0.24","2722130","co38044","norming","","","","","","",""
"null","../img/tt/318tt.jpg","null","mooney1","image-keyboard-response","175","780252","0.0-6.0-1.24","2722130","co38044","norming","","","","","","",""
"4871.939999999944","","","post_mooney1_questions","survey-likert","176","785126","0.0-6.0-2.24","2722130","co38044","norming","","","{""curiosity"":4,""confidence"":2}","[0,1]","../img/tt/318tt.jpg","",""
"2798.090000000084","","","recognition","survey-text","177","787926","0.0-6.0-3.24","2722130","co38044","norming","","","{""guess"":""stuur""}","","../img/tt/318tt.jpg","",""
"null","../img/gs/318gs.jpg","null","reveal","image-keyboard-response","178","789931","0.0-6.0-4.24","2722130","co38044","norming","","","","","","",""
"null","../img/tt/318tt.jpg","null","mooney2","image-keyboard-response","179","791939","0.0-6.0-5.24","2722130","co38044","norming","","","","","","",""
"2500.0050000000047","","","post_reveal_questions","survey-likert","180","794441","0.0-6.0-6.24","2722130","co38044","norming","","","{""aha"":2}","[0]","../img/tt/318tt.jpg","",""
"null","<div style=""font-size:60px;""> </div>","null","fixation","html-keyboard-response","181","794651","0.0-6.0-0.25","2722130","co38044","norming","","","","","","",""
"null","../img/tt/1260tt.jpg","null","mooney1","image-keyboard-response","182","797660","0.0-6.0-1.25","2722130","co38044","norming","","","","","","",""
"3866.409999999916","","","post_mooney1_questions","survey-likert","183","801529","0.0-6.0-2.25","2722130","co38044","norming","","","{""curiosity"":4,""confidence"":0}","[0,1]","../img/tt/1260tt.jpg","",""
"526.5300000001444","","","recognition","survey-text","184","802057","0.0-6.0-3.25","2722130","co38044","norming","","","{""guess"":""""}","","../img/tt/1260tt.jpg","",""
"null","../img/gs/1260gs.jpg","null","reveal","image-keyboard-response","185","804058","0.0-6.0-4.25","2722130","co38044","norming","","","","","","",""
"null","../img/tt/1260tt.jpg","null","mooney2","image-keyboard-response","186","806063","0.0-6.0-5.25","2722130","co38044","norming","","","","","","",""
"3504.0849999998463","","","post_reveal_questions","survey-likert","187","809569","0.0-6.0-6.25","2722130","co38044","norming","","","{""aha"":4}","[0]","../img/tt/1260tt.jpg","",""
"null","<div style=""font-size:60px;""> </div>","null","fixation","html-keyboard-response","188","809776","0.0-6.0-0.26","2722130","co38044","norming","","","","","","",""
"null","../img/tt/273tt.jpg","null","mooney1","image-keyboard-response","189","812784","0.0-6.0-1.26","2722130","co38044","norming","","","","","","",""
"7454.649999999907","","","post_mooney1_questions","survey-likert","190","820241","0.0-6.0-2.26","2722130","co38044","norming","","","{""curiosity"":2,""confidence"":4}","[0,1]","../img/tt/273tt.jpg","",""
"2438.3900000001304","","","recognition","survey-text","191","822681","0.0-6.0-3.26","2722130","co38044","norming","","","{""guess"":""beugel""}","","../img/tt/273tt.jpg","",""
"null","../img/gs/273gs.jpg","null","reveal","image-keyboard-response","192","824684","0.0-6.0-4.26","2722130","co38044","norming","","","","","","",""
"null","../img/tt/273tt.jpg","null","mooney2","image-keyboard-response","193","826693","0.0-6.0-5.26","2722130","co38044","norming","","","","","","",""
"6914.875000000116","","","post_reveal_questions","survey-likert","194","833609","0.0-6.0-6.26","2722130","co38044","norming","","","{""aha"":0}","[0]","../img/tt/273tt.jpg","",""
"null","<div style=""font-size:60px;""> </div>","null","fixation","html-keyboard-response","195","833815","0.0-6.0-0.27","2722130","co38044","norming","","","","","","",""
"null","../img/tt/1122tt.jpg","null","mooney1","image-keyboard-response","196","836817","0.0-6.0-1.27","2722130","co38044","norming","","","","","","",""
"6125.369999999995","","","post_mooney1_questions","survey-likert","197","842945","0.0-6.0-2.27","2722130","co38044","norming","","","{""curiosity"":3,""confidence"":3}","[0,1]","../img/tt/1122tt.jpg","",""
"1974.3400000000838","","","recognition","survey-text","198","844921","0.0-6.0-3.27","2722130","co38044","norming","","","{""guess"":""boot""}","","../img/tt/1122tt.jpg","",""
"null","../img/gs/1122gs.jpg","null","reveal","image-keyboard-response","199","846927","0.0-6.0-4.27","2722130","co38044","norming","","","","","","",""
"null","../img/tt/1122tt.jpg","null","mooney2","image-keyboard-response","200","848929","0.0-6.0-5.27","2722130","co38044","norming","","","","","","",""
"2366.0899999999674","","","post_reveal_questions","survey-likert","201","851296","0.0-6.0-6.27","2722130","co38044","norming","","","{""aha"":0}","[0]","../img/tt/1122tt.jpg","",""
"null","<div style=""font-size:60px;""> </div>","null","fixation","html-keyboard-response","202","851498","0.0-6.0-0.28","2722130","co38044","norming","","","","","","",""
"null","../img/tt/121tt.jpg","null","mooney1","image-keyboard-response","203","854507","0.0-6.0-1.28","2722130","co38044","norming","","","","","","",""
"4723.175000000047","","","post_mooney1_questions","survey-likert","204","859233","0.0-6.0-2.28","2722130","co38044","norming","","","{""curiosity"":4,""confidence"":1}","[0,1]","../img/tt/121tt.jpg","",""
"1910.0000000001164","","","recognition","survey-text","205","861144","0.0-6.0-3.28","2722130","co38044","norming","","","{""guess"":""rivier""}","","../img/tt/121tt.jpg","",""
"null","../img/gs/121gs.jpg","null","reveal","image-keyboard-response","206","863153","0.0-6.0-4.28","2722130","co38044","norming","","","","","","",""
"null","../img/tt/121tt.jpg","null","mooney2","image-keyboard-response","207","865158","0.0-6.0-5.28","2722130","co38044","norming","","","","","","",""
"3399.835000000079","","","post_reveal_questions","survey-likert","208","868560","0.0-6.0-6.28","2722130","co38044","norming","","","{""aha"":3}","[0]","../img/tt/121tt.jpg","",""
"null","<div style=""font-size:60px;""> </div>","null","fixation","html-keyboard-response","209","868764","0.0-6.0-0.29","2722130","co38044","norming","","","","","","",""
"null","../img/tt/1143tt.jpg","null","mooney1","image-keyboard-response","210","871768","0.0-6.0-1.29","2722130","co38044","norming","","","","","","",""
"3429.8249999999534","","","post_mooney1_questions","survey-likert","211","875201","0.0-6.0-2.29","2722130","co38044","norming","","","{""curiosity"":4,""confidence"":2}","[0,1]","../img/tt/1143tt.jpg","",""
"3462.1650000000373","","","recognition","survey-text","212","878664","0.0-6.0-3.29","2722130","co38044","norming","","","{""guess"":""bureau""}","","../img/tt/1143tt.jpg","",""
"null","../img/gs/1143gs.jpg","null","reveal","image-keyboard-response","213","880665","0.0-6.0-4.29","2722130","co38044","norming","","","","","","",""
"null","../img/tt/1143tt.jpg","null","mooney2","image-keyboard-response","214","882667","0.0-6.0-5.29","2722130","co38044","norming","","","","","","",""
"3580.5200000000186","","","post_reveal_questions","survey-likert","215","886249","0.0-6.0-6.29","2722130","co38044","norming","","","{""aha"":4}","[0]","../img/tt/1143tt.jpg","",""
"null","<div style=""font-size:60px;""> </div>","null","fixation","html-keyboard-response","216","886459","0.0-6.0-0.30","2722130","co38044","norming","","","","","","",""
"null","../img/tt/357tt.jpg","null","mooney1","image-keyboard-response","217","889464","0.0-6.0-1.30","2722130","co38044","norming","","","","","","",""
"7903.814999999944","","","post_mooney1_questions","survey-likert","218","897369","0.0-6.0-2.30","2722130","co38044","norming","","","{""curiosity"":5,""confidence"":0}","[0,1]","../img/tt/357tt.jpg","",""
"2797.7700000000186","","","recognition","survey-text","219","900168","0.0-6.0-3.30","2722130","co38044","norming","","","{""guess"":""""}","","../img/tt/357tt.jpg","",""
"null","../img/gs/357gs.jpg","null","reveal","image-keyboard-response","220","902169","0.0-6.0-4.30","2722130","co38044","norming","","","","","","",""
"null","../img/tt/357tt.jpg","null","mooney2","image-keyboard-response","221","904172","0.0-6.0-5.30","2722130","co38044","norming","","","","","","",""
"2474.0749999999534","","","post_reveal_questions","survey-likert","222","906648","0.0-6.0-6.30","2722130","co38044","norming","","","{""aha"":4}","[0]","../img/tt/357tt.jpg","",""
"null","<div style=""font-size:60px;""> </div>","null","fixation","html-keyboard-response","223","906853","0.0-6.0-0.31","2722130","co38044","norming","","","","","","",""
"null","../img/tt/108tt.jpg","null","mooney1","image-keyboard-response","224","909861","0.0-6.0-1.31","2722130","co38044","norming","","","","","","",""
"3840","","","post_mooney1_questions","survey-likert","225","913698","0.0-6.0-2.31","2722130","co38044","norming","","","{""curiosity"":5,""confidence"":0}","[0,1]","../img/tt/108tt.jpg","",""
"542.3199999999488","","","recognition","survey-text","226","914242","0.0-6.0-3.31","2722130","co38044","norming","","","{""guess"":""""}","","../img/tt/108tt.jpg","",""
"null","../img/gs/108gs.jpg","null","reveal","image-keyboard-response","227","916244","0.0-6.0-4.31","2722130","co38044","norming","","","","","","",""
"null","../img/tt/108tt.jpg","null","mooney2","image-keyboard-response","228","918246","0.0-6.0-5.31","2722130","co38044","norming","","","","","","",""
"2523.5049999998882","","","post_reveal_questions","survey-likert","229","920770","0.0-6.0-6.31","2722130","co38044","norming","","","{""aha"":4}","[0]","../img/tt/108tt.jpg","",""
"null","<div style=""font-size:60px;""> </div>","null","fixation","html-keyboard-response","230","920977","0.0-6.0-0.32","2722130","co38044","norming","","","","","","",""
"null","../img/tt/517tt.jpg","null","mooney1","image-keyboard-response","231","923981","0.0-6.0-1.32","2722130","co38044","norming","","","","","","",""
"3868.364999999758","","","post_mooney1_questions","survey-likert","232","927850","0.0-6.0-2.32","2722130","co38044","norming","","","{""curiosity"":5,""confidence"":0}","[0,1]","../img/tt/517tt.jpg","",""
"485.9650000000838","","","recognition","survey-text","233","928338","0.0-6.0-3.32","2722130","co38044","norming","","","{""guess"":""""}","","../img/tt/517tt.jpg","",""
"null","../img/gs/517gs.jpg","null","reveal","image-keyboard-response","234","930345","0.0-6.0-4.32","2722130","co38044","norming","","","","","","",""
"null","../img/tt/517tt.jpg","null","mooney2","image-keyboard-response","235","932354","0.0-6.0-5.32","2722130","co38044","norming","","","","","","",""
"2406.6199999999953","","","post_reveal_questions","survey-likert","236","934762","0.0-6.0-6.32","2722130","co38044","norming","","","{""aha"":4}","[0]","../img/tt/517tt.jpg","",""
"null","<div style=""font-size:60px;""> </div>","null","fixation","html-keyboard-response","237","934967","0.0-6.0-0.33","2722130","co38044","norming","","","","","","",""
"null","../img/tt/1004tt.jpg","null","mooney1","image-keyboard-response","238","937970","0.0-6.0-1.33","2722130","co38044","norming","","","","","","",""
"3455.5299999999115","","","post_mooney1_questions","survey-likert","239","941426","0.0-6.0-2.33","2722130","co38044","norming","","","{""curiosity"":5,""confidence"":3}","[0,1]","../img/tt/1004tt.jpg","",""
"1949.684999999823","","","recognition","survey-text","240","943378","0.0-6.0-3.33","2722130","co38044","norming","","","{""guess"":""beer""}","","../img/tt/1004tt.jpg","",""
"null","../img/gs/1004gs.jpg","null","reveal","image-keyboard-response","241","945387","0.0-6.0-4.33","2722130","co38044","norming","","","","","","",""
"null","../img/tt/1004tt.jpg","null","mooney2","image-keyboard-response","242","947392","0.0-6.0-5.33","2722130","co38044","norming","","","","","","",""
"2681.4599999999627","","","post_reveal_questions","survey-likert","243","950074","0.0-6.0-6.33","2722130","co38044","norming","","","{""aha"":4}","[0]","../img/tt/1004tt.jpg","",""
"null","<div style=""font-size:60px;""> </div>","null","fixation","html-keyboard-response","244","950282","0.0-6.0-0.34","2722130","co38044","norming","","","","","","",""
"null","../img/tt/094tt.jpg","null","mooney1","image-keyboard-response","245","953283","0.0-6.0-1.34","2722130","co38044","norming","","","","","","",""
"6062.060000000289","","","post_mooney1_questions","survey-likert","246","959346","0.0-6.0-2.34","2722130","co38044","norming","","","{""curiosity"":4,""confidence"":1}","[0,1]","../img/tt/094tt.jpg","",""
"1997.6500000000233","","","recognition","survey-text","247","961346","0.0-6.0-3.34","2722130","co38044","norming","","","{""guess"":""hoofd""}","","../img/tt/094tt.jpg","",""
"null","../img/gs/094gs.jpg","null","reveal","image-keyboard-response","248","963355","0.0-6.0-4.34","2722130","co38044","norming","","","","","","",""
"null","../img/tt/094tt.jpg","null","mooney2","image-keyboard-response","249","965365","0.0-6.0-5.34","2722130","co38044","norming","","","","","","",""
"2771.9250000000466","","","post_reveal_questions","survey-likert","250","968138","0.0-6.0-6.34","2722130","co38044","norming","","","{""aha"":3}","[0]","../img/tt/094tt.jpg","",""
"null","<div style=""font-size:60px;""> </div>","null","fixation","html-keyboard-response","251","968339","0.0-6.0-0.35","2722130","co38044","norming","","","","","","",""
"null","../img/tt/1226tt.jpg","null","mooney1","image-keyboard-response","252","971342","0.0-6.0-1.35","2722130","co38044","norming","","","","","","",""
"4794.930000000051","","","post_mooney1_questions","survey-likert","253","976141","0.0-6.0-2.35","2722130","co38044","norming","","","{""curiosity"":5,""confidence"":2}","[0,1]","../img/tt/1226tt.jpg","",""
"1990.0800000000745","","","recognition","survey-text","254","978133","0.0-6.0-3.35","2722130","co38044","norming","","","{""guess"":""zwaan""}","","../img/tt/1226tt.jpg","",""
"null","../img/gs/1226gs.jpg","null","reveal","image-keyboard-response","255","980142","0.0-6.0-4.35","2722130","co38044","norming","","","","","","",""
"null","../img/tt/1226tt.jpg","null","mooney2","image-keyboard-response","256","982145","0.0-6.0-5.35","2722130","co38044","norming","","","","","","",""
"1914.4749999997439","","","post_reveal_questions","survey-likert","257","984061","0.0-6.0-6.35","2722130","co38044","norming","","","{""aha"":3}","[0]","../img/tt/1226tt.jpg","",""
"null","<div style=""font-size:60px;""> </div>","null","fixation","html-keyboard-response","258","984272","0.0-6.0-0.36","2722130","co38044","norming","","","","","","",""
"null","../img/tt/1156tt.jpg","null","mooney1","image-keyboard-response","259","987274","0.0-6.0-1.36","2722130","co38044","norming","","","","","","",""
"7241.8099999999395","","","post_mooney1_questions","survey-likert","260","994517","0.0-6.0-2.36","2722130","co38044","norming","","","{""curiosity"":4,""confidence"":1}","[0,1]","../img/tt/1156tt.jpg","",""
"1341.8300000000745","","","recognition","survey-text","261","995861","0.0-6.0-3.36","2722130","co38044","norming","","","{""guess"":""vis""}","","../img/tt/1156tt.jpg","",""
"null","../img/gs/1156gs.jpg","null","reveal","image-keyboard-response","262","997869","0.0-6.0-4.36","2722130","co38044","norming","","","","","","",""
"null","../img/tt/1156tt.jpg","null","mooney2","image-keyboard-response","263","999879","0.0-6.0-5.36","2722130","co38044","norming","","","","","","",""
"3436.2850000000326","","","post_reveal_questions","survey-likert","264","1003317","0.0-6.0-6.36","2722130","co38044","norming","","","{""aha"":4}","[0]","../img/tt/1156tt.jpg","",""
"null","<div style=""font-size:60px;""> </div>","null","fixation","html-keyboard-response","265","1003522","0.0-6.0-0.37","2722130","co38044","norming","","","","","","",""
"null","../img/tt/406tt.jpg","null","mooney1","image-keyboard-response","266","1006527","0.0-6.0-1.37","2722130","co38044","norming","","","","","","",""
"4164.409999999916","","","post_mooney1_questions","survey-likert","267","1010694","0.0-6.0-2.37","2722130","co38044","norming","","","{""curiosity"":5,""confidence"":0}","[0,1]","../img/tt/406tt.jpg","",""
"318.0050000001211","","","recognition","survey-text","268","1011013","0.0-6.0-3.37","2722130","co38044","norming","","","{""guess"":""""}","","../img/tt/406tt.jpg","",""
"null","../img/gs/406gs.jpg","null","reveal","image-keyboard-response","269","1013015","0.0-6.0-4.37","2722130","co38044","norming","","","","","","",""
"null","../img/tt/406tt.jpg","null","mooney2","image-keyboard-response","270","1015023","0.0-6.0-5.37","2722130","co38044","norming","","","","","","",""
"4267.45000000007","","","post_reveal_questions","survey-likert","271","1019293","0.0-6.0-6.37","2722130","co38044","norming","","","{""aha"":4}","[0]","../img/tt/406tt.jpg","",""
"null","<div style=""font-size:60px;""> </div>","null","fixation","html-keyboard-response","272","1019495","0.0-6.0-0.38","2722130","co38044","norming","","","","","","",""
"null","../img/tt/1262tt.jpg","null","mooney1","image-keyboard-response","273","1022505","0.0-6.0-1.38","2722130","co38044","norming","","","","","","",""
"5930.084999999963","","","post_mooney1_questions","survey-likert","274","1028437","0.0-6.0-2.38","2722130","co38044","norming","","","{""curiosity"":5,""confidence"":2}","[0,1]","../img/tt/1262tt.jpg","",""
"2254.20000000007","","","recognition","survey-text","275","1030693","0.0-6.0-3.38","2722130","co38044","norming","","","{""guess"":""hamster""}","","../img/tt/1262tt.jpg","",""
"null","../img/gs/1262gs.jpg","null","reveal","image-keyboard-response","276","1032700","0.0-6.0-4.38","2722130","co38044","norming","","","","","","",""
"null","../img/tt/1262tt.jpg","null","mooney2","image-keyboard-response","277","1034701","0.0-6.0-5.38","2722130","co38044","norming","","","","","","",""
"1556.479999999865","","","post_reveal_questions","survey-likert","278","1036259","0.0-6.0-6.38","2722130","co38044","norming","","","{""aha"":1}","[0]","../img/tt/1262tt.jpg","",""
"null","<div style=""font-size:60px;""> </div>","null","fixation","html-keyboard-response","279","1036466","0.0-6.0-0.39","2722130","co38044","norming","","","","","","",""
"null","../img/tt/1241tt.jpg","null","mooney1","image-keyboard-response","280","1039474","0.0-6.0-1.39","2722130","co38044","norming","","","","","","",""
"4375.380000000005","","","post_mooney1_questions","survey-likert","281","1043851","0.0-6.0-2.39","2722130","co38044","norming","","","{""curiosity"":4,""confidence"":2}","[0,1]","../img/tt/1241tt.jpg","",""
"1646.3900000001304","","","recognition","survey-text","282","1045499","0.0-6.0-3.39","2722130","co38044","norming","","","{""guess"":""panda""}","","../img/tt/1241tt.jpg","",""
"null","../img/gs/1241gs.jpg","null","reveal","image-keyboard-response","283","1047500","0.0-6.0-4.39","2722130","co38044","norming","","","","","","",""
"null","../img/tt/1241tt.jpg","null","mooney2","image-keyboard-response","284","1049505","0.0-6.0-5.39","2722130","co38044","norming","","","","","","",""
"4575.280000000028","","","post_reveal_questions","survey-likert","285","1054083","0.0-6.0-6.39","2722130","co38044","norming","","","{""aha"":4}","[0]","../img/tt/1241tt.jpg","",""
"null","<div style=""font-size:60px;""> </div>","null","fixation","html-keyboard-response","286","1054284","0.0-6.0-0.40","2722130","co38044","norming","","","","","","",""
"null","../img/tt/1272tt.jpg","null","mooney1","image-keyboard-response","287","1057295","0.0-6.0-1.40","2722130","co38044","norming","","","","","","",""
"7033.329999999842","","","post_mooney1_questions","survey-likert","288","1064331","0.0-6.0-2.40","2722130","co38044","norming","","","{""curiosity"":5,""confidence"":1}","[0,1]","../img/tt/1272tt.jpg","",""
"1454.0649999999441","","","recognition","survey-text","289","1065787","0.0-6.0-3.40","2722130","co38044","norming","","","{""guess"":""kooi""}","","../img/tt/1272tt.jpg","",""
"null","../img/gs/1272gs.jpg","null","reveal","image-keyboard-response","290","1067790","0.0-6.0-4.40","2722130","co38044","norming","","","","","","",""
"null","../img/tt/1272tt.jpg","null","mooney2","image-keyboard-response","291","1069797","0.0-6.0-5.40","2722130","co38044","norming","","","","","","",""
"4547.905000000028","","","post_reveal_questions","survey-likert","292","1074347","0.0-6.0-6.40","2722130","co38044","norming","","","{""aha"":2}","[0]","../img/tt/1272tt.jpg","",""
"null","<div style=""font-size:60px;""> </div>","null","fixation","html-keyboard-response","293","1074554","0.0-6.0-0.41","2722130","co38044","norming","","","","","","",""
"null","../img/tt/380tt.jpg","null","mooney1","image-keyboard-response","294","1077562","0.0-6.0-1.41","2722130","co38044","norming","","","","","","",""
"4558.434999999823","","","post_mooney1_questions","survey-likert","295","1082123","0.0-6.0-2.41","2722130","co38044","norming","","","{""curiosity"":5,""confidence"":2}","[0,1]","../img/tt/380tt.jpg","",""
"2606.0250000001397","","","recognition","survey-text","296","1084731","0.0-6.0-3.41","2722130","co38044","norming","","","{""guess"":""kat""}","","../img/tt/380tt.jpg","",""
"null","../img/gs/380gs.jpg","null","reveal","image-keyboard-response","297","1086736","0.0-6.0-4.41","2722130","co38044","norming","","","","","","",""
"null","../img/tt/380tt.jpg","null","mooney2","image-keyboard-response","298","1088737","0.0-6.0-5.41","2722130","co38044","norming","","","","","","",""
"6424.375","","","post_reveal_questions","survey-likert","299","1095164","0.0-6.0-6.41","2722130","co38044","norming","","","{""aha"":3}","[0]","../img/tt/380tt.jpg","",""
"null","<div style=""font-size:60px;""> </div>","null","fixation","html-keyboard-response","300","1095365","0.0-6.0-0.42","2722130","co38044","norming","","","","","","",""
"null","../img/tt/307tt.jpg","null","mooney1","image-keyboard-response","301","1098368","0.0-6.0-1.42","2722130","co38044","norming","","","","","","",""
"3857.4550000000745","","","post_mooney1_questions","survey-likert","302","1102228","0.0-6.0-2.42","2722130","co38044","norming","","","{""curiosity"":4,""confidence"":2}","[0,1]","../img/tt/307tt.jpg","",""
"1830.155000000028","","","recognition","survey-text","303","1104060","0.0-6.0-3.42","2722130","co38044","norming","","","{""guess"":""klok""}","","../img/tt/307tt.jpg","",""
"null","../img/gs/307gs.jpg","null","reveal","image-keyboard-response","304","1106066","0.0-6.0-4.42","2722130","co38044","norming","","","","","","",""
"null","../img/tt/307tt.jpg","null","mooney2","image-keyboard-response","305","1108068","0.0-6.0-5.42","2722130","co38044","norming","","","","","","",""
"3605.100000000093","","","post_reveal_questions","survey-likert","306","1111677","0.0-6.0-6.42","2722130","co38044","norming","","","{""aha"":4}","[0]","../img/tt/307tt.jpg","",""
"null","<div style=""font-size:60px;""> </div>","null","fixation","html-keyboard-response","307","1111885","0.0-6.0-0.43","2722130","co38044","norming","","","","","","",""
"null","../img/tt/515tt.jpg","null","mooney1","image-keyboard-response","308","1114886","0.0-6.0-1.43","2722130","co38044","norming","","","","","","",""
"4179.425000000047","","","post_mooney1_questions","survey-likert","309","1119068","0.0-6.0-2.43","2722130","co38044","norming","","","{""curiosity"":5,""confidence"":0}","[0,1]","../img/tt/515tt.jpg","",""
"189.86999999987893","","","recognition","survey-text","310","1119260","0.0-6.0-3.43","2722130","co38044","norming","","","{""guess"":""""}","","../img/tt/515tt.jpg","",""
"null","../img/gs/515gs.jpg","null","reveal","image-keyboard-response","311","1121262","0.0-6.0-4.43","2722130","co38044","norming","","","","","","",""
"null","../img/tt/515tt.jpg","null","mooney2","image-keyboard-response","312","1123271","0.0-6.0-5.43","2722130","co38044","norming","","","","","","",""
"2834.0250000001397","","","post_reveal_questions","survey-likert","313","1126108","0.0-6.0-6.43","2722130","co38044","norming","","","{""aha"":4}","[0]","../img/tt/515tt.jpg","",""
"null","<div style=""font-size:60px;""> </div>","null","fixation","html-keyboard-response","314","1126317","0.0-6.0-0.44","2722130","co38044","norming","","","","","","",""
"null","../img/tt/1161tt.jpg","null","mooney1","image-keyboard-response","315","1129325","0.0-6.0-1.44","2722130","co38044","norming","","","","","","",""
"5388.070000000065","","","post_mooney1_questions","survey-likert","316","1134716","0.0-6.0-2.44","2722130","co38044","norming","","","{""curiosity"":5,""confidence"":2}","[0,1]","../img/tt/1161tt.jpg","",""
"1646.3850000000093","","","recognition","survey-text","317","1136364","0.0-6.0-3.44","2722130","co38044","norming","","","{""guess"":""wolf""}","","../img/tt/1161tt.jpg","",""
"null","../img/gs/1161gs.jpg","null","reveal","image-keyboard-response","318","1138365","0.0-6.0-4.44","2722130","co38044","norming","","","","","","",""
"null","../img/tt/1161tt.jpg","null","mooney2","image-keyboard-response","319","1140373","0.0-6.0-5.44","2722130","co38044","norming","","","","","","",""
"3485.3799999998882","","","post_reveal_questions","survey-likert","320","1143860","0.0-6.0-6.44","2722130","co38044","norming","","","{""aha"":4}","[0]","../img/tt/1161tt.jpg","",""
"null","<div style=""font-size:60px;""> </div>","null","fixation","html-keyboard-response","321","1144067","0.0-6.0-0.45","2722130","co38044","norming","","","","","","",""
"null","../img/tt/412tt.jpg","null","mooney1","image-keyboard-response","322","1147073","0.0-6.0-1.45","2722130","co38044","norming","","","","","","",""
"6456.380000000121","","","post_mooney1_questions","survey-likert","323","1153527","0.0-6.0-2.45","2722130","co38044","norming","","","{""curiosity"":4,""confidence"":1}","[0,1]","../img/tt/412tt.jpg","",""
"3197.7650000001304","","","recognition","survey-text","324","1156727","0.0-6.0-3.45","2722130","co38044","norming","","","{""guess"":""nagellak""}","","../img/tt/412tt.jpg","",""
"null","../img/gs/412gs.jpg","null","reveal","image-keyboard-response","325","1158728","0.0-6.0-4.45","2722130","co38044","norming","","","","","","",""
"null","../img/tt/412tt.jpg","null","mooney2","image-keyboard-response","326","1160731","0.0-6.0-5.45","2722130","co38044","norming","","","","","","",""
"1922.2849999999162","","","post_reveal_questions","survey-likert","327","1162655","0.0-6.0-6.45","2722130","co38044","norming","","","{""aha"":3}","[0]","../img/tt/412tt.jpg","",""
"null","<div style=""font-size:60px;""> </div>","null","fixation","html-keyboard-response","328","1162864","0.0-6.0-0.46","2722130","co38044","norming","","","","","","",""
"null","../img/tt/1270tt.jpg","null","mooney1","image-keyboard-response","329","1165874","0.0-6.0-1.46","2722130","co38044","norming","","","","","","",""
"4777.59999999986","","","post_mooney1_questions","survey-likert","330","1170655","0.0-6.0-2.46","2722130","co38044","norming","","","{""curiosity"":4,""confidence"":2}","[0,1]","../img/tt/1270tt.jpg","",""
"1846.4899999999907","","","recognition","survey-text","331","1172503","0.0-6.0-3.46","2722130","co38044","norming","","","{""guess"":""muis""}","","../img/tt/1270tt.jpg","",""
"null","../img/gs/1270gs.jpg","null","reveal","image-keyboard-response","332","1174505","0.0-6.0-4.46","2722130","co38044","norming","","","","","","",""
"null","../img/tt/1270tt.jpg","null","mooney2","image-keyboard-response","333","1176511","0.0-6.0-5.46","2722130","co38044","norming","","","","","","",""
"2422.000000000233","","","post_reveal_questions","survey-likert","334","1178935","0.0-6.0-6.46","2722130","co38044","norming","","","{""aha"":1}","[0]","../img/tt/1270tt.jpg","",""
"null","<div style=""font-size:60px;""> </div>","null","fixation","html-keyboard-response","335","1179138","0.0-6.0-0.47","2722130","co38044","norming","","","","","","",""
"null","../img/tt/524tt.jpg","null","mooney1","image-keyboard-response","336","1182149","0.0-6.0-1.47","2722130","co38044","norming","","","","","","",""
"3119.679999999935","","","post_mooney1_questions","survey-likert","337","1185271","0.0-6.0-2.47","2722130","co38044","norming","","","{""curiosity"":4,""confidence"":2}","[0,1]","../img/tt/524tt.jpg","",""
"2861.644999999786","","","recognition","survey-text","338","1188135","0.0-6.0-3.47","2722130","co38044","norming","","","{""guess"":""paard""}","","../img/tt/524tt.jpg","",""
"null","../img/gs/524gs.jpg","null","reveal","image-keyboard-response","339","1190137","0.0-6.0-4.47","2722130","co38044","norming","","","","","","",""
"null","../img/tt/524tt.jpg","null","mooney2","image-keyboard-response","340","1192139","0.0-6.0-5.47","2722130","co38044","norming","","","","","","",""
"2393.7599999997765","","","post_reveal_questions","survey-likert","341","1194535","0.0-6.0-6.47","2722130","co38044","norming","","","{""aha"":3}","[0]","../img/tt/524tt.jpg","",""
"null","<div style=""font-size:60px;""> </div>","null","fixation","html-keyboard-response","342","1194736","0.0-6.0-0.48","2722130","co38044","norming","","","","","","",""
"null","../img/tt/378tt.jpg","null","mooney1","image-keyboard-response","343","1197738","0.0-6.0-1.48","2722130","co38044","norming","","","","","","",""
"3466.465000000084","","","post_mooney1_questions","survey-likert","344","1201207","0.0-6.0-2.48","2722130","co38044","norming","","","{""curiosity"":5,""confidence"":0}","[0,1]","../img/tt/378tt.jpg","",""
"158.14000000013039","","","recognition","survey-text","345","1201367","0.0-6.0-3.48","2722130","co38044","norming","","","{""guess"":""""}","","../img/tt/378tt.jpg","",""
"null","../img/gs/378gs.jpg","null","reveal","image-keyboard-response","346","1203371","0.0-6.0-4.48","2722130","co38044","norming","","","","","","",""
"null","../img/tt/378tt.jpg","null","mooney2","image-keyboard-response","347","1205372","0.0-6.0-5.48","2722130","co38044","norming","","","","","","",""
"2904.594999999972","","","post_reveal_questions","survey-likert","348","1208279","0.0-6.0-6.48","2722130","co38044","norming","","","{""aha"":4}","[0]","../img/tt/378tt.jpg","",""
"null","<div style=""font-size:60px;""> </div>","null","fixation","html-keyboard-response","349","1208481","0.0-6.0-0.49","2722130","co38044","norming","","","","","","",""
"null","../img/tt/1089tt.jpg","null","mooney1","image-keyboard-response","350","1211485","0.0-6.0-1.49","2722130","co38044","norming","","","","","","",""
"3832.1149999999907","","","post_mooney1_questions","survey-likert","351","1215326","0.0-6.0-2.49","2722130","co38044","norming","","","{""curiosity"":5,""confidence"":4}","[0,1]","../img/tt/1089tt.jpg","",""
"1885.6299999998882","","","recognition","survey-text","352","1217214","0.0-6.0-3.49","2722130","co38044","norming","","","{""guess"":""olifant""}","","../img/tt/1089tt.jpg","",""
"null","../img/gs/1089gs.jpg","null","reveal","image-keyboard-response","353","1219217","0.0-6.0-4.49","2722130","co38044","norming","","","","","","",""
"null","../img/tt/1089tt.jpg","null","mooney2","image-keyboard-response","354","1221223","0.0-6.0-5.49","2722130","co38044","norming","","","","","","",""
"4301.35999999987","","","post_reveal_questions","survey-likert","355","1225526","0.0-6.0-6.49","2722130","co38044","norming","","","{""aha"":0}","[0]","../img/tt/1089tt.jpg","",""
"null","<div style=""font-size:60px;""> </div>","null","fixation","html-keyboard-response","356","1225731","0.0-6.0-0.50","2722130","co38044","norming","","","","","","",""
"null","../img/tt/1191tt.jpg","null","mooney1","image-keyboard-response","357","1228739","0.0-6.0-1.50","2722130","co38044","norming","","","","","","",""
"3418.0500000002794","","","post_mooney1_questions","survey-likert","358","1232158","0.0-6.0-2.50","2722130","co38044","norming","","","{""curiosity"":4,""confidence"":2}","[0,1]","../img/tt/1191tt.jpg","",""
"1966.0600000000559","","","recognition","survey-text","359","1234126","0.0-6.0-3.50","2722130","co38044","norming","","","{""guess"":""kameel""}","","../img/tt/1191tt.jpg","",""
"null","../img/gs/1191gs.jpg","null","reveal","image-keyboard-response","360","1236129","0.0-6.0-4.50","2722130","co38044","norming","","","","","","",""
"null","../img/tt/1191tt.jpg","null","mooney2","image-keyboard-response","361","1238139","0.0-6.0-5.50","2722130","co38044","norming","","","","","","",""
"2993.304999999935","","","post_reveal_questions","survey-likert","362","1241134","0.0-6.0-6.50","2722130","co38044","norming","","","{""aha"":4}","[0]","../img/tt/1191tt.jpg","",""
"null","<div style=""font-size:60px;""> </div>","null","fixation","html-keyboard-response","363","1241343","0.0-6.0-0.51","2722130","co38044","norming","","","","","","",""
"null","../img/tt/603tt.jpg","null","mooney1","image-keyboard-response","364","1244352","0.0-6.0-1.51","2722130","co38044","norming","","","","","","",""
"3659.405000000028","","","post_mooney1_questions","survey-likert","365","1248014","0.0-6.0-2.51","2722130","co38044","norming","","","{""curiosity"":5,""confidence"":0}","[0,1]","../img/tt/603tt.jpg","",""
"334.1450000000186","","","recognition","survey-text","366","1248350","0.0-6.0-3.51","2722130","co38044","norming","","","{""guess"":""""}","","../img/tt/603tt.jpg","",""
"null","../img/gs/603gs.jpg","null","reveal","image-keyboard-response","367","1250351","0.0-6.0-4.51","2722130","co38044","norming","","","","","","",""
"null","../img/tt/603tt.jpg","null","mooney2","image-keyboard-response","368","1252358","0.0-6.0-5.51","2722130","co38044","norming","","","","","","",""
"3517.804999999935","","","post_reveal_questions","survey-likert","369","1255878","0.0-6.0-6.51","2722130","co38044","norming","","","{""aha"":4}","[0]","../img/tt/603tt.jpg","",""
"null","<div style=""font-size:60px;""> </div>","null","fixation","html-keyboard-response","370","1256079","0.0-6.0-0.52","2722130","co38044","norming","","","","","","",""
"null","../img/tt/032tt.jpg","null","mooney1","image-keyboard-response","371","1259083","0.0-6.0-1.52","2722130","co38044","norming","","","","","","",""
"4560.824999999953","","","post_mooney1_questions","survey-likert","372","1263646","0.0-6.0-2.52","2722130","co38044","norming","","","{""curiosity"":5,""confidence"":1}","[0,1]","../img/tt/032tt.jpg","",""
"1885.820000000298","","","recognition","survey-text","373","1265534","0.0-6.0-3.52","2722130","co38044","norming","","","{""guess"":""slang""}","","../img/tt/032tt.jpg","",""
"null","../img/gs/032gs.jpg","null","reveal","image-keyboard-response","374","1267538","0.0-6.0-4.52","2722130","co38044","norming","","","","","","",""
"null","../img/tt/032tt.jpg","null","mooney2","image-keyboard-response","375","1269547","0.0-6.0-5.52","2722130","co38044","norming","","","","","","",""
"3104.409999999916","","","post_reveal_questions","survey-likert","376","1272654","0.0-6.0-6.52","2722130","co38044","norming","","","{""aha"":4}","[0]","../img/tt/032tt.jpg","",""
"null","<div style=""font-size:60px;""> </div>","null","fixation","html-keyboard-response","377","1272863","0.0-6.0-0.53","2722130","co38044","norming","","","","","","",""
"null","../img/tt/081tt.jpg","null","mooney1","image-keyboard-response","378","1275869","0.0-6.0-1.53","2722130","co38044","norming","","","","","","",""
"3103.8649999999907","","","post_mooney1_questions","survey-likert","379","1278975","0.0-6.0-2.53","2722130","co38044","norming","","","{""curiosity"":4,""confidence"":1}","[0,1]","../img/tt/081tt.jpg","",""
"1677.8100000000559","","","recognition","survey-text","380","1280654","0.0-6.0-3.53","2722130","co38044","norming","","","{""guess"":""tijger""}","","../img/tt/081tt.jpg","",""
"null","../img/gs/081gs.jpg","null","reveal","image-keyboard-response","381","1282656","0.0-6.0-4.53","2722130","co38044","norming","","","","","","",""
"null","../img/tt/081tt.jpg","null","mooney2","image-keyboard-response","382","1284663","0.0-6.0-5.53","2722130","co38044","norming","","","","","","",""
"2983.3799999998882","","","post_reveal_questions","survey-likert","383","1287647","0.0-6.0-6.53","2722130","co38044","norming","","","{""aha"":3}","[0]","../img/tt/081tt.jpg","",""
"null","<div style=""font-size:60px;""> </div>","null","fixation","html-keyboard-response","384","1287852","0.0-6.0-0.54","2722130","co38044","norming","","","","","","",""
"null","../img/tt/1205tt.jpg","null","mooney1","image-keyboard-response","385","1290855","0.0-6.0-1.54","2722130","co38044","norming","","","","","","",""
"2950.3899999998976","","","post_mooney1_questions","survey-likert","386","1293808","0.0-6.0-2.54","2722130","co38044","norming","","","{""curiosity"":5,""confidence"":0}","[0,1]","../img/tt/1205tt.jpg","",""
"733.0100000000093","","","recognition","survey-text","387","1294543","0.0-6.0-3.54","2722130","co38044","norming","","","{""guess"":""""}","","../img/tt/1205tt.jpg","",""
"null","../img/gs/1205gs.jpg","null","reveal","image-keyboard-response","388","1296544","0.0-6.0-4.54","2722130","co38044","norming","","","","","","",""
"null","../img/tt/1205tt.jpg","null","mooney2","image-keyboard-response","389","1298545","0.0-6.0-5.54","2722130","co38044","norming","","","","","","",""
"2899.0399999998044","","","post_reveal_questions","survey-likert","390","1301446","0.0-6.0-6.54","2722130","co38044","norming","","","{""aha"":3}","[0]","../img/tt/1205tt.jpg","",""
"null","<div style=""font-size:60px;""> </div>","null","fixation","html-keyboard-response","391","1301650","0.0-6.0-0.55","2722130","co38044","norming","","","","","","",""
"null","../img/tt/1048tt.jpg","null","mooney1","image-keyboard-response","392","1304657","0.0-6.0-1.55","2722130","co38044","norming","","","","","","",""
"3741.1750000000466","","","post_mooney1_questions","survey-likert","393","1308399","0.0-6.0-2.55","2722130","co38044","norming","","","{""curiosity"":4,""confidence"":1}","[0,1]","../img/tt/1048tt.jpg","",""
"2846.1099999998696","","","recognition","survey-text","394","1311247","0.0-6.0-3.55","2722130","co38044","norming","","","{""guess"":""krokodil""}","","../img/tt/1048tt.jpg","",""
"null","../img/gs/1048gs.jpg","null","reveal","image-keyboard-response","395","1313248","0.0-6.0-4.55","2722130","co38044","norming","","","","","","",""
"null","../img/tt/1048tt.jpg","null","mooney2","image-keyboard-response","396","1315250","0.0-6.0-5.55","2722130","co38044","norming","","","","","","",""
"5058.404999999795","","","post_reveal_questions","survey-likert","397","1320311","0.0-6.0-6.55","2722130","co38044","norming","","","{""aha"":4}","[0]","../img/tt/1048tt.jpg","",""
"null","<div style=""font-size:60px;""> </div>","null","fixation","html-keyboard-response","398","1320512","0.0-6.0-0.56","2722130","co38044","norming","","","","","","",""
"null","../img/tt/353tt.jpg","null","mooney1","image-keyboard-response","399","1323517","0.0-6.0-1.56","2722130","co38044","norming","","","","","","",""
"4431.260000000009","","","post_mooney1_questions","survey-likert","400","1327951","0.0-6.0-2.56","2722130","co38044","norming","","","{""curiosity"":5,""confidence"":2}","[0,1]","../img/tt/353tt.jpg","",""
"2973.9300000001676","","","recognition","survey-text","401","1330927","0.0-6.0-3.56","2722130","co38044","norming","","","{""guess"":""pinguïn""}","","../img/tt/353tt.jpg","",""
"null","../img/gs/353gs.jpg","null","reveal","image-keyboard-response","402","1332933","0.0-6.0-4.56","2722130","co38044","norming","","","","","","",""
"null","../img/tt/353tt.jpg","null","mooney2","image-keyboard-response","403","1334945","0.0-6.0-5.56","2722130","co38044","norming","","","","","","",""
"1787.8599999998696","","","post_reveal_questions","survey-likert","404","1336732","0.0-6.0-6.56","2722130","co38044","norming","","","{""aha"":1}","[0]","../img/tt/353tt.jpg","",""
"null","<div style=""font-size:60px;""> </div>","null","fixation","html-keyboard-response","405","1336941","0.0-6.0-0.57","2722130","co38044","norming","","","","","","",""
"null","../img/tt/013tt.jpg","null","mooney1","image-keyboard-response","406","1339943","0.0-6.0-1.57","2722130","co38044","norming","","","","","","",""
"3425.9499999999534","","","post_mooney1_questions","survey-likert","407","1343372","0.0-6.0-2.57","2722130","co38044","norming","","","{""curiosity"":5,""confidence"":0}","[0,1]","../img/tt/013tt.jpg","",""
"1421.8900000001304","","","recognition","survey-text","408","1344796","0.0-6.0-3.57","2722130","co38044","norming","","","{""guess"":""""}","","../img/tt/013tt.jpg","",""
"null","../img/gs/013gs.jpg","null","reveal","image-keyboard-response","409","1346802","0.0-6.0-4.57","2722130","co38044","norming","","","","","","",""
"null","../img/tt/013tt.jpg","null","mooney2","image-keyboard-response","410","1348809","0.0-6.0-5.57","2722130","co38044","norming","","","","","","",""
"3184.8649999999907","","","post_reveal_questions","survey-likert","411","1351996","0.0-6.0-6.57","2722130","co38044","norming","","","{""aha"":4}","[0]","../img/tt/013tt.jpg","",""
"null","<div style=""font-size:60px;""> </div>","null","fixation","html-keyboard-response","412","1352206","0.0-6.0-0.58","2722130","co38044","norming","","","","","","",""
"null","../img/tt/084tt.jpg","null","mooney1","image-keyboard-response","413","1355209","0.0-6.0-1.58","2722130","co38044","norming","","","","","","",""
"2911.8799999998882","","","post_mooney1_questions","survey-likert","414","1358124","0.0-6.0-2.58","2722130","co38044","norming","","","{""curiosity"":5,""confidence"":4}","[0,1]","../img/tt/084tt.jpg","",""
"2238.0200000000186","","","recognition","survey-text","415","1360364","0.0-6.0-3.58","2722130","co38044","norming","","","{""guess"":""pauw""}","","../img/tt/084tt.jpg","",""
"null","../img/gs/084gs.jpg","null","reveal","image-keyboard-response","416","1362365","0.0-6.0-4.58","2722130","co38044","norming","","","","","","",""
"null","../img/tt/084tt.jpg","null","mooney2","image-keyboard-response","417","1364368","0.0-6.0-5.58","2722130","co38044","norming","","","","","","",""
"1401.5649999999441","","","post_reveal_questions","survey-likert","418","1365772","0.0-6.0-6.58","2722130","co38044","norming","","","{""aha"":4}","[0]","../img/tt/084tt.jpg","",""
"null","<div style=""font-size:60px;""> </div>","null","fixation","html-keyboard-response","419","1365977","0.0-6.0-0.59","2722130","co38044","norming","","","","","","",""
"null","../img/tt/1118tt.jpg","null","mooney1","image-keyboard-response","420","1368987","0.0-6.0-1.59","2722130","co38044","norming","","","","","","",""
"5286.924999999814","","","post_mooney1_questions","survey-likert","421","1374276","0.0-6.0-2.59","2722130","co38044","norming","","","{""curiosity"":4,""confidence"":2}","[0,1]","../img/tt/1118tt.jpg","",""
"1989.7299999999814","","","recognition","survey-text","422","1376267","0.0-6.0-3.59","2722130","co38044","norming","","","{""guess"":""kano""}","","../img/tt/1118tt.jpg","",""
"null","../img/gs/1118gs.jpg","null","reveal","image-keyboard-response","423","1378272","0.0-6.0-4.59","2722130","co38044","norming","","","","","","",""
"null","../img/tt/1118tt.jpg","null","mooney2","image-keyboard-response","424","1380283","0.0-6.0-5.59","2722130","co38044","norming","","","","","","",""
"2470.8499999998603","","","post_reveal_questions","survey-likert","425","1382756","0.0-6.0-6.59","2722130","co38044","norming","","","{""aha"":4}","[0]","../img/tt/1118tt.jpg","",""
"null","<div style=""font-size:60px;""> </div>","null","fixation","html-keyboard-response","426","1382960","0.0-6.0-0.60","2722130","co38044","norming","","","","","","",""
"null","../img/tt/1190tt.jpg","null","mooney1","image-keyboard-response","427","1385972","0.0-6.0-1.60","2722130","co38044","norming","","","","","","",""
"3429.140000000363","","","post_mooney1_questions","survey-likert","428","1389404","0.0-6.0-2.60","2722130","co38044","norming","","","{""curiosity"":6,""confidence"":0}","[0,1]","../img/tt/1190tt.jpg","",""
"997.8599999998696","","","recognition","survey-text","429","1390404","0.0-6.0-3.60","2722130","co38044","norming","","","{""guess"":""""}","","../img/tt/1190tt.jpg","",""
"null","../img/gs/1190gs.jpg","null","reveal","image-keyboard-response","430","1392405","0.0-6.0-4.60","2722130","co38044","norming","","","","","","",""
"null","../img/tt/1190tt.jpg","null","mooney2","image-keyboard-response","431","1394413","0.0-6.0-5.60","2722130","co38044","norming","","","","","","",""
"2452.969999999972","","","post_reveal_questions","survey-likert","432","1396870","0.0-6.0-6.60","2722130","co38044","norming","","","{""aha"":4}","[0]","../img/tt/1190tt.jpg","",""
"null","<div style=""font-size:60px;""> </div>","null","fixation","html-keyboard-response","433","1397076","0.0-6.0-0.61","2722130","co38044","norming","","","","","","",""
"null","../img/tt/1275tt.jpg","null","mooney1","image-keyboard-response","434","1400088","0.0-6.0-1.61","2722130","co38044","norming","","","","","","",""
"4660.860000000102","","","post_mooney1_questions","survey-likert","435","1404750","0.0-6.0-2.61","2722130","co38044","norming","","","{""curiosity"":4,""confidence"":1}","[0,1]","../img/tt/1275tt.jpg","",""
"2621.935000000056","","","recognition","survey-text","436","1407374","0.0-6.0-3.61","2722130","co38044","norming","","","{""guess"":""krokodil""}","","../img/tt/1275tt.jpg","",""
"null","../img/gs/1275gs.jpg","null","reveal","image-keyboard-response","437","1409376","0.0-6.0-4.61","2722130","co38044","norming","","","","","","",""
"null","../img/tt/1275tt.jpg","null","mooney2","image-keyboard-response","438","1411385","0.0-6.0-5.61","2722130","co38044","norming","","","","","","",""
"2746.8499999998603","","","post_reveal_questions","survey-likert","439","1414134","0.0-6.0-6.61","2722130","co38044","norming","","","{""aha"":3}","[0]","../img/tt/1275tt.jpg","",""
"null","<div style=""font-size:60px;""> </div>","null","fixation","html-keyboard-response","440","1414337","0.0-6.0-0.62","2722130","co38044","norming","","","","","","",""
"null","../img/tt/1130tt.jpg","null","mooney1","image-keyboard-response","441","1417340","0.0-6.0-1.62","2722130","co38044","norming","","","","","","",""
"3703.0800000000745","","","post_mooney1_questions","survey-likert","442","1421046","0.0-6.0-2.62","2722130","co38044","norming","","","{""curiosity"":4,""confidence"":2}","[0,1]","../img/tt/1130tt.jpg","",""
"1926.1349999997765","","","recognition","survey-text","443","1422974","0.0-6.0-3.62","2722130","co38044","norming","","","{""guess"":""tennis""}","","../img/tt/1130tt.jpg","",""
"null","../img/gs/1130gs.jpg","null","reveal","image-keyboard-response","444","1424979","0.0-6.0-4.62","2722130","co38044","norming","","","","","","",""
"null","../img/tt/1130tt.jpg","null","mooney2","image-keyboard-response","445","1426981","0.0-6.0-5.62","2722130","co38044","norming","","","","","","",""
"2830.3900000001304","","","post_reveal_questions","survey-likert","446","1429814","0.0-6.0-6.62","2722130","co38044","norming","","","{""aha"":3}","[0]","../img/tt/1130tt.jpg","",""
"null","<div style=""font-size:60px;""> </div>","null","fixation","html-keyboard-response","447","1430020","0.0-6.0-0.63","2722130","co38044","norming","","","","","","",""
"null","../img/tt/1043tt.jpg","null","mooney1","image-keyboard-response","448","1433026","0.0-6.0-1.63","2722130","co38044","norming","","","","","","",""
"4896.750000000233","","","post_mooney1_questions","survey-likert","449","1437926","0.0-6.0-2.63","2722130","co38044","norming","","","{""curiosity"":4,""confidence"":1}","[0,1]","../img/tt/1043tt.jpg","",""
"2710.094999999972","","","recognition","survey-text","450","1440638","0.0-6.0-3.63","2722130","co38044","norming","","","{""guess"":""hotdog""}","","../img/tt/1043tt.jpg","",""
"null","../img/gs/1043gs.jpg","null","reveal","image-keyboard-response","451","1442639","0.0-6.0-4.63","2722130","co38044","norming","","","","","","",""
"null","../img/tt/1043tt.jpg","null","mooney2","image-keyboard-response","452","1444641","0.0-6.0-5.63","2722130","co38044","norming","","","","","","",""
"1363.8300000000745","","","post_reveal_questions","survey-likert","453","1446006","0.0-6.0-6.63","2722130","co38044","norming","","","{""aha"":2}","[0]","../img/tt/1043tt.jpg","",""
"null","<div style=""font-size:60px;""> </div>","null","fixation","html-keyboard-response","454","1446211","0.0-6.0-0.64","2722130","co38044","norming","","","","","","",""
"null","../img/tt/118tt.jpg","null","mooney1","image-keyboard-response","455","1449214","0.0-6.0-1.64","2722130","co38044","norming","","","","","","",""
"5133.319999999832","","","post_mooney1_questions","survey-likert","456","1454350","0.0-6.0-2.64","2722130","co38044","norming","","","{""curiosity"":5,""confidence"":1}","[0,1]","../img/tt/118tt.jpg","",""
"1438.2299999999814","","","recognition","survey-text","457","1455790","0.0-6.0-3.64","2722130","co38044","norming","","","{""guess"":""stoel""}","","../img/tt/118tt.jpg","",""
"null","../img/gs/118gs.jpg","null","reveal","image-keyboard-response","458","1457800","0.0-6.0-4.64","2722130","co38044","norming","","","","","","",""
"null","../img/tt/118tt.jpg","null","mooney2","image-keyboard-response","459","1459803","0.0-6.0-5.64","2722130","co38044","norming","","","","","","",""
"2777.9850000001024","","","post_reveal_questions","survey-likert","460","1462583","0.0-6.0-6.64","2722130","co38044","norming","","","{""aha"":2}","[0]","../img/tt/118tt.jpg","",""
"null","<div style=""font-size:60px;""> </div>","null","fixation","html-keyboard-response","461","1462793","0.0-6.0-0.65","2722130","co38044","norming","","","","","","",""
"null","../img/tt/1044tt.jpg","null","mooney1","image-keyboard-response","462","1465801","0.0-6.0-1.65","2722130","co38044","norming","","","","","","",""
"3042.869999999879","","","post_mooney1_questions","survey-likert","463","1468847","0.0-6.0-2.65","2722130","co38044","norming","","","{""curiosity"":6,""confidence"":0}","[0,1]","../img/tt/1044tt.jpg","",""
"173.82500000018626","","","recognition","survey-text","464","1469023","0.0-6.0-3.65","2722130","co38044","norming","","","{""guess"":""""}","","../img/tt/1044tt.jpg","",""
"null","../img/gs/1044gs.jpg","null","reveal","image-keyboard-response","465","1471024","0.0-6.0-4.65","2722130","co38044","norming","","","","","","",""
"null","../img/tt/1044tt.jpg","null","mooney2","image-keyboard-response","466","1473034","0.0-6.0-5.65","2722130","co38044","norming","","","","","","",""
"2803.3000000000466","","","post_reveal_questions","survey-likert","467","1475839","0.0-6.0-6.65","2722130","co38044","norming","","","{""aha"":4}","[0]","../img/tt/1044tt.jpg","",""
"null","<div style=""font-size:60px;""> </div>","null","fixation","html-keyboard-response","468","1476050","0.0-6.0-0.66","2722130","co38044","norming","","","","","","",""
"null","../img/tt/1278tt.jpg","null","mooney1","image-keyboard-response","469","1479058","0.0-6.0-1.66","2722130","co38044","norming","","","","","","",""
"3353.5649999997113","","","post_mooney1_questions","survey-likert","470","1482415","0.0-6.0-2.66","2722130","co38044","norming","","","{""curiosity"":6,""confidence"":0}","[0,1]","../img/tt/1278tt.jpg","",""
"429.97500000009313","","","recognition","survey-text","471","1482847","0.0-6.0-3.66","2722130","co38044","norming","","","{""guess"":""""}","","../img/tt/1278tt.jpg","",""
"null","../img/gs/1278gs.jpg","null","reveal","image-keyboard-response","472","1484851","0.0-6.0-4.66","2722130","co38044","norming","","","","","","",""
"null","../img/tt/1278tt.jpg","null","mooney2","image-keyboard-response","473","1486855","0.0-6.0-5.66","2722130","co38044","norming","","","","","","",""
"2805.9449999998324","","","post_reveal_questions","survey-likert","474","1489663","0.0-6.0-6.66","2722130","co38044","norming","","","{""aha"":4}","[0]","../img/tt/1278tt.jpg","",""
"null","<div style=""font-size:60px;""> </div>","null","fixation","html-keyboard-response","475","1489869","0.0-6.0-0.67","2722130","co38044","norming","","","","","","",""
"null","../img/tt/1236tt.jpg","null","mooney1","image-keyboard-response","476","1492872","0.0-6.0-1.67","2722130","co38044","norming","","","","","","",""
"2924.7000000001863","","","post_mooney1_questions","survey-likert","477","1495799","0.0-6.0-2.67","2722130","co38044","norming","","","{""curiosity"":5,""confidence"":2}","[0,1]","../img/tt/1236tt.jpg","",""
"1638.219999999972","","","recognition","survey-text","478","1497439","0.0-6.0-3.67","2722130","co38044","norming","","","{""guess"":""eend""}","","../img/tt/1236tt.jpg","",""
"null","../img/gs/1236gs.jpg","null","reveal","image-keyboard-response","479","1499441","0.0-6.0-4.67","2722130","co38044","norming","","","","","","",""
"null","../img/tt/1236tt.jpg","null","mooney2","image-keyboard-response","480","1501451","0.0-6.0-5.67","2722130","co38044","norming","","","","","","",""
"1842.8649999999907","","","post_reveal_questions","survey-likert","481","1503295","0.0-6.0-6.67","2722130","co38044","norming","","","{""aha"":1}","[0]","../img/tt/1236tt.jpg","",""
"null","<div style=""font-size:60px;""> </div>","null","fixation","html-keyboard-response","482","1503498","0.0-6.0-0.68","2722130","co38044","norming","","","","","","",""
"null","../img/tt/1186tt.jpg","null","mooney1","image-keyboard-response","483","1506508","0.0-6.0-1.68","2722130","co38044","norming","","","","","","",""
"4112.374999999767","","","post_mooney1_questions","survey-likert","484","1510623","0.0-6.0-2.68","2722130","co38044","norming","","","{""curiosity"":4,""confidence"":2}","[0,1]","../img/tt/1186tt.jpg","",""
"1869.969999999972","","","recognition","survey-text","485","1512495","0.0-6.0-3.68","2722130","co38044","norming","","","{""guess"":""soldaat""}","","../img/tt/1186tt.jpg","",""
"null","../img/gs/1186gs.jpg","null","reveal","image-keyboard-response","486","1514500","0.0-6.0-4.68","2722130","co38044","norming","","","","","","",""
"null","../img/tt/1186tt.jpg","null","mooney2","image-keyboard-response","487","1516505","0.0-6.0-5.68","2722130","co38044","norming","","","","","","",""
"4267.5449999999255","","","post_reveal_questions","survey-likert","488","1520773","0.0-6.0-6.68","2722130","co38044","norming","","","{""aha"":2}","[0]","../img/tt/1186tt.jpg","",""
"null","<div style=""font-size:60px;""> </div>","null","fixation","html-keyboard-response","489","1520975","0.0-6.0-0.69","2722130","co38044","norming","","","","","","",""
"null","../img/tt/549tt.jpg","null","mooney1","image-keyboard-response","490","1523981","0.0-6.0-1.69","2722130","co38044","norming","","","","","","",""
"4557.864999999991","","","post_mooney1_questions","survey-likert","491","1528542","0.0-6.0-2.69","2722130","co38044","norming","","","{""curiosity"":4,""confidence"":2}","[0,1]","../img/tt/549tt.jpg","",""
"1021.8649999997579","","","recognition","survey-text","492","1529565","0.0-6.0-3.69","2722130","co38044","norming","","","{""guess"":""boot""}","","../img/tt/549tt.jpg","",""
"null","../img/gs/549gs.jpg","null","reveal","image-keyboard-response","493","1531568","0.0-6.0-4.69","2722130","co38044","norming","","","","","","",""
"null","../img/tt/549tt.jpg","null","mooney2","image-keyboard-response","494","1533571","0.0-6.0-5.69","2722130","co38044","norming","","","","","","",""
"3048.160000000149","","","post_reveal_questions","survey-likert","495","1536622","0.0-6.0-6.69","2722130","co38044","norming","","","{""aha"":4}","[0]","../img/tt/549tt.jpg","",""
"null","<div style=""font-size:60px;""> </div>","null","fixation","html-keyboard-response","496","1536823","0.0-6.0-0.70","2722130","co38044","norming","","","","","","",""
"null","../img/tt/040tt.jpg","null","mooney1","image-keyboard-response","497","1539827","0.0-6.0-1.70","2722130","co38044","norming","","","","","","",""
"3208.3199999998324","","","post_mooney1_questions","survey-likert","498","1543038","0.0-6.0-2.70","2722130","co38044","norming","","","{""curiosity"":5,""confidence"":1}","[0,1]","../img/tt/040tt.jpg","",""
"1261.535000000149","","","recognition","survey-text","499","1544301","0.0-6.0-3.70","2722130","co38044","norming","","","{""guess"":""vos""}","","../img/tt/040tt.jpg","",""
"null","../img/gs/040gs.jpg","null","reveal","image-keyboard-response","500","1546304","0.0-6.0-4.70","2722130","co38044","norming","","","","","","",""
"null","../img/tt/040tt.jpg","null","mooney2","image-keyboard-response","501","1548306","0.0-6.0-5.70","2722130","co38044","norming","","","","","","",""
"4073.7350000003353","","","post_reveal_questions","survey-likert","502","1552381","0.0-6.0-6.70","2722130","co38044","norming","","","{""aha"":4}","[0]","../img/tt/040tt.jpg","",""
"null","<div style=""font-size:60px;""> </div>","null","fixation","html-keyboard-response","503","1552589","0.0-6.0-0.71","2722130","co38044","norming","","","","","","",""
"null","../img/tt/1024tt.jpg","null","mooney1","image-keyboard-response","504","1555594","0.0-6.0-1.71","2722130","co38044","norming","","","","","","",""
"5985.23499999987","","","post_mooney1_questions","survey-likert","505","1561582","0.0-6.0-2.71","2722130","co38044","norming","","","{""curiosity"":4,""confidence"":1}","[0,1]","../img/tt/1024tt.jpg","",""
"2605.7900000000373","","","recognition","survey-text","506","1564189","0.0-6.0-3.71","2722130","co38044","norming","","","{""guess"":""fietser""}","","../img/tt/1024tt.jpg","",""
"null","../img/gs/1024gs.jpg","null","reveal","image-keyboard-response","507","1566191","0.0-6.0-4.71","2722130","co38044","norming","","","","","","",""
"null","../img/tt/1024tt.jpg","null","mooney2","image-keyboard-response","508","1568201","0.0-6.0-5.71","2722130","co38044","norming","","","","","","",""
"2371.619999999879","","","post_reveal_questions","survey-likert","509","1570574","0.0-6.0-6.71","2722130","co38044","norming","","","{""aha"":3}","[0]","../img/tt/1024tt.jpg","",""
"null","<div style=""font-size:60px;""> </div>","null","fixation","html-keyboard-response","510","1570784","0.0-6.0-0.72","2722130","co38044","norming","","","","","","",""
"null","../img/tt/1159tt.jpg","null","mooney1","image-keyboard-response","511","1573793","0.0-6.0-1.72","2722130","co38044","norming","","","","","","",""
"4489.565000000177","","","post_mooney1_questions","survey-likert","512","1578281","0.0-6.0-2.72","2722130","co38044","norming","","","{""curiosity"":4,""confidence"":2}","[0,1]","../img/tt/1159tt.jpg","",""
"1885.8549999999814","","","recognition","survey-text","513","1580169","0.0-6.0-3.72","2722130","co38044","norming","","","{""guess"":""trap""}","","../img/tt/1159tt.jpg","",""
"null","../img/gs/1159gs.jpg","null","reveal","image-keyboard-response","514","1582170","0.0-6.0-4.72","2722130","co38044","norming","","","","","","",""
"null","../img/tt/1159tt.jpg","null","mooney2","image-keyboard-response","515","1584172","0.0-6.0-5.72","2722130","co38044","norming","","","","","","",""
"5610.9199999999255","","","post_reveal_questions","survey-likert","516","1589785","0.0-6.0-6.72","2722130","co38044","norming","","","{""aha"":1}","[0]","../img/tt/1159tt.jpg","",""
"null","<div style=""font-size:60px;""> </div>","null","fixation","html-keyboard-response","517","1589986","0.0-6.0-0.73","2722130","co38044","norming","","","","","","",""
"null","../img/tt/1102tt.jpg","null","mooney1","image-keyboard-response","518","1592988","0.0-6.0-1.73","2722130","co38044","norming","","","","","","",""
"2906.034999999916","","","post_mooney1_questions","survey-likert","519","1595897","0.0-6.0-2.73","2722130","co38044","norming","","","{""curiosity"":4,""confidence"":2}","[0,1]","../img/tt/1102tt.jpg","",""
"2574.054999999935","","","recognition","survey-text","520","1598472","0.0-6.0-3.73","2722130","co38044","norming","","","{""guess"":""palmboom""}","","../img/tt/1102tt.jpg","",""
"null","../img/gs/1102gs.jpg","null","reveal","image-keyboard-response","521","1600474","0.0-6.0-4.73","2722130","co38044","norming","","","","","","",""
"null","../img/tt/1102tt.jpg","null","mooney2","image-keyboard-response","522","1602477","0.0-6.0-5.73","2722130","co38044","norming","","","","","","",""
"1841.6399999998976","","","post_reveal_questions","survey-likert","523","1604321","0.0-6.0-6.73","2722130","co38044","norming","","","{""aha"":3}","[0]","../img/tt/1102tt.jpg","",""
"null","<div style=""font-size:60px;""> </div>","null","fixation","html-keyboard-response","524","1604526","0.0-6.0-0.74","2722130","co38044","norming","","","","","","",""
"null","../img/tt/1006tt.jpg","null","mooney1","image-keyboard-response","525","1607537","0.0-6.0-1.74","2722130","co38044","norming","","","","","","",""
"5045.100000000093","","","post_mooney1_questions","survey-likert","526","1612585","0.0-6.0-2.74","2722130","co38044","norming","","","{""curiosity"":4,""confidence"":1}","[0,1]","../img/tt/1006tt.jpg","",""
"1901.815000000177","","","recognition","survey-text","527","1614488","0.0-6.0-3.74","2722130","co38044","norming","","","{""guess"":""rots""}","","../img/tt/1006tt.jpg","",""
"null","../img/gs/1006gs.jpg","null","reveal","image-keyboard-response","528","1616496","0.0-6.0-4.74","2722130","co38044","norming","","","","","","",""
"null","../img/tt/1006tt.jpg","null","mooney2","image-keyboard-response","529","1618507","0.0-6.0-5.74","2722130","co38044","norming","","","","","","",""
"3867.3649999999907","","","post_reveal_questions","survey-likert","530","1622377","0.0-6.0-6.74","2722130","co38044","norming","","","{""aha"":2}","[0]","../img/tt/1006tt.jpg","",""
"null","<div style=""font-size:60px;""> </div>","null","fixation","html-keyboard-response","531","1622587","0.0-6.0-0.75","2722130","co38044","norming","","","","","","",""
"null","../img/tt/1173tt.jpg","null","mooney1","image-keyboard-response","532","1625589","0.0-6.0-1.75","2722130","co38044","norming","","","","","","",""
"2800.780000000028","","","post_mooney1_questions","survey-likert","533","1628393","0.0-6.0-2.75","2722130","co38044","norming","","","{""curiosity"":4,""confidence"":2}","[0,1]","../img/tt/1173tt.jpg","",""
"4638.10999999987","","","recognition","survey-text","534","1633033","0.0-6.0-3.75","2722130","co38044","norming","","","{""guess"":""voetbal""}","","../img/tt/1173tt.jpg","",""
"null","../img/gs/1173gs.jpg","null","reveal","image-keyboard-response","535","1635034","0.0-6.0-4.75","2722130","co38044","norming","","","","","","",""
"null","../img/tt/1173tt.jpg","null","mooney2","image-keyboard-response","536","1637045","0.0-6.0-5.75","2722130","co38044","norming","","","","","","",""
"2513.405000000028","","","post_reveal_questions","survey-likert","537","1639567","0.0-6.0-6.75","2722130","co38044","norming","","","{""aha"":3}","[0]","../img/tt/1173tt.jpg","",""
"null","<div style=""font-size:60px;""> </div>","null","fixation","html-keyboard-response","538","1639778","0.0-6.0-0.76","2722130","co38044","norming","","","","","","",""
"null","../img/tt/1091tt.jpg","null","mooney1","image-keyboard-response","539","1642789","0.0-6.0-1.76","2722130","co38044","norming","","","","","","",""
"3064.105000000214","","","post_mooney1_questions","survey-likert","540","1645855","0.0-6.0-2.76","2722130","co38044","norming","","","{""curiosity"":4,""confidence"":2}","[0,1]","../img/tt/1091tt.jpg","",""
"3901.8000000000466","","","recognition","survey-text","541","1649759","0.0-6.0-3.76","2722130","co38044","norming","","","{""guess"":""olifant""}","","../img/tt/1091tt.jpg","",""
"null","../img/gs/1091gs.jpg","null","reveal","image-keyboard-response","542","1651762","0.0-6.0-4.76","2722130","co38044","norming","","","","","","",""
"null","../img/tt/1091tt.jpg","null","mooney2","image-keyboard-response","543","1653764","0.0-6.0-5.76","2722130","co38044","norming","","","","","","",""
"2200.2400000002235","","","post_reveal_questions","survey-likert","544","1655967","0.0-6.0-6.76","2722130","co38044","norming","","","{""aha"":3}","[0]","../img/tt/1091tt.jpg","",""
"null","<div style=""font-size:60px;""> </div>","null","fixation","html-keyboard-response","545","1656177","0.0-6.0-0.77","2722130","co38044","norming","","","","","","",""
"null","../img/tt/456tt.jpg","null","mooney1","image-keyboard-response","546","1659181","0.0-6.0-1.77","2722130","co38044","norming","","","","","","",""
"3231.570000000298","","","post_mooney1_questions","survey-likert","547","1662415","0.0-6.0-2.77","2722130","co38044","norming","","","{""curiosity"":4,""confidence"":1}","[0,1]","../img/tt/456tt.jpg","",""
"2317.5449999999255","","","recognition","survey-text","548","1664735","0.0-6.0-3.77","2722130","co38044","norming","","","{""guess"":""voet""}","","../img/tt/456tt.jpg","",""
"null","../img/gs/456gs.jpg","null","reveal","image-keyboard-response","549","1666736","0.0-6.0-4.77","2722130","co38044","norming","","","","","","",""
"null","../img/tt/456tt.jpg","null","mooney2","image-keyboard-response","550","1668746","0.0-6.0-5.77","2722130","co38044","norming","","","","","","",""
"1515.7399999999907","","","post_reveal_questions","survey-likert","551","1670263","0.0-6.0-6.77","2722130","co38044","norming","","","{""aha"":4}","[0]","../img/tt/456tt.jpg","",""
"null","<div style=""font-size:60px;""> </div>","null","fixation","html-keyboard-response","552","1670466","0.0-6.0-0.78","2722130","co38044","norming","","","","","","",""
