"rt","stimulus","key_press","test_part","trial_type","trial_index","time_elapsed","internal_node_id","totalTime","subject","experiment_name","button_pressed","success","responses","question_order","currentStim","old","correct"
"4767.579999999725","Welcome to the experiment. This is an online experiment so please don't close the tab/window until we say goodbye.  Press any key to begin.","32","instructions","html-keyboard-response","0","4824","0.0-0.0","2966229","co38776","norming","","","","","","",""
"3738.035000000309","<div style='word-wrap: break-word; width: 900px'><h3>Please consider this information carefully before deciding whether to participate in this research</h3><ul style='text-align: left; font-size: .8em;'><li><b>Purpose of the research</b>: To examine how people process images.</li><li><b>What you will do in this research</b>:  Stimuli (images) will be presented on the computer and you will be asked different questions about them.</li><li><b>Time required</b>: Participation will take between 45 and 60 minutes to complete.</li><li><b>Risks</b>:  There are no anticipated risks associated with participating in this study. The effects of participating should be comparable to those you would experience from viewing a computer monitor for 30 minutes and using a mouse or keyboard.</li><li><b>Benefits</b>:  This study provides no benefits to you individually except for the credit. The study provides important information about the nature of perception and learning.</li><li><b>Confidentiality</b>:  Your participation in this study will remain confidential. No personally identifiable information will be associated with your data. Your de-identified data may be shared with other researchers and used in future projects.</li><li><b>Participation and withdrawal</b>:  Your participation in this study is completely voluntary and you may refuse to participate or you may choose to withdraw at any time without penalty.</li><li><b>How to contact the researchers</b>: If you have questions or concerns about your participation or payment, or want to request a summary of research findings, please contact Sander Van de Cruys (KU Leuven), at sander.vandecruys@kuleuven.be.</li></ul><p>The nature and purpose of this research have been sufficiently explained and I agree to participate in this study.  I understand that I am free to withdraw at any time without incurring any penalty.</p><p>Please consent by clicking the button below to continue. Otherwise, please exit the study at this time.</p></div>","","instructions","html-button-response","1","8564","0.0-1.0","2966229","co38776","norming","0","","","","","",""
"","","","instructions","fullscreen","2","15651","0.0-2.0","2966229","co38776","norming","","true","","","","",""
"20581.860000000233","","","sona","survey-html-form","3","36233","0.0-3.0","2966229","co38776","norming","","","[{""name"":""sonaid"",""value"":""38776""},{""name"":""debrief"",""value"":""yes""},{""name"":""datajoin"",""value"":""yes""}]","","","",""
"56245.37000000055","<div style='word-wrap: break-word; width: 900px'><h3>Instructions</h3><p>This experiment will have 3 parts. In the first part you will see a series of distorted images like the one below on the left. As you can see in the righthand image, the distorted images are derived from actual photographs. In what follows, you will <strong>briefly</strong> be presented with <strong>only</strong> the distorted image.</p> <div style='float: left; margin-right: 20px;'><img src='../img/018tt.jpg' height='250' width='250'></img></div><div style='float: right; margin-left: 20px;'><img src='../img/018gs.jpg' height='250' width='250'></img></div><p>Subsequently you will be asked a few questions about the image: One question on how <strong>curious</strong> you are about the solution and one on how <strong>confident</strong> you are that you know the solution.</p>Next, we ask you to make a guess on what is in the image. Note that it is OK to name just the <strong>basic level category</strong>. For example when you see a parrot in the image, 'parrot' will obviously be a correct answer but also correct is 'bird'. However, 'animal' will <strong>not</strong> be counted as a correct response. For the example above, 'rose' would be correct or 'flower', but not 'plant'. When soccer players are depicted, 'soccer', 'football', 'soccer players' will be correct, but not 'humans', 'outdoors', or 'sports'. You do not need to describe the image in full, just name the main object in it <strong>in one or two words</strong>. All images depict objects from one of the following broad level categories: animals, inanimate objects, plants, sports, vehicles, and food. Recognizing means knowing <strong>more</strong> than these broad labels for a given image. But we always encourage you to <strong>make a guess</strong> if you can. Note that you are allowed to use <strong>Dutch and English</strong> in your answers, whatever comes easiest for you.</p><p>Press any key to continue.</p></div>","32","instructions","html-keyboard-response","4","92479","0.0-4.0","2966229","co38776","norming","","","","","","",""
"67324.6450000006","<div style='word-wrap: break-word; width: 900px'><h3>Instructions</h3> <p>Next, the solution image will be revealed to you and you'll be asked to indicate how strong your <strong>aha-experience</strong> was after seeing the solution. This describes the positive feeling of the 'click' you sometimes experience, when the pieces of the 'puzzle' fall together and you suddenly have 'insight' in the image.</p><img src='aha.jpg' height='188' width='250'></img><p>Note that there are no right or wrong answers. We are interested in what <strong>you</strong> see in the image and how <strong>you</strong> feel about it.</p><p>Press any key to start the experiment.</p></div>","32","instructions","html-keyboard-response","5","159806","0.0-5.0","2966229","co38776","norming","","","","","","",""
"null","<div style=""font-size:60px;""> </div>","null","fixation","html-keyboard-response","6","160008","0.0-6.0-0.0","2966229","co38776","norming","","","","","","",""
"null","../img/tt/1116tt.jpg","null","mooney1","image-keyboard-response","7","163016","0.0-6.0-1.0","2966229","co38776","norming","","","","","","",""
"10016.29499999946","","","post_mooney1_questions","survey-likert","8","173037","0.0-6.0-2.0","2966229","co38776","norming","","","{""curiosity"":5,""confidence"":3}","[0,1]","../img/tt/1116tt.jpg","",""
"3805.5650000005844","","","recognition","survey-text","9","176844","0.0-6.0-3.0","2966229","co38776","norming","","","{""guess"":""car""}","","../img/tt/1116tt.jpg","",""
"null","../img/gs/1116gs.jpg","null","reveal","image-keyboard-response","10","178846","0.0-6.0-4.0","2966229","co38776","norming","","","","","","",""
"null","../img/tt/1116tt.jpg","null","mooney2","image-keyboard-response","11","180857","0.0-6.0-5.0","2966229","co38776","norming","","","","","","",""
"7249.400000000605","","","post_reveal_questions","survey-likert","12","188108","0.0-6.0-6.0","2966229","co38776","norming","","","{""aha"":2}","[0]","../img/tt/1116tt.jpg","",""
"null","<div style=""font-size:60px;""> </div>","null","fixation","html-keyboard-response","13","188311","0.0-6.0-0.1","2966229","co38776","norming","","","","","","",""
"null","../img/tt/1004tt.jpg","null","mooney1","image-keyboard-response","14","191313","0.0-6.0-1.1","2966229","co38776","norming","","","","","","",""
"9312.820000000997","","","post_mooney1_questions","survey-likert","15","200628","0.0-6.0-2.1","2966229","co38776","norming","","","{""curiosity"":6,""confidence"":0}","[0,1]","../img/tt/1004tt.jpg","",""
"4557.934999998892","","","recognition","survey-text","16","205188","0.0-6.0-3.1","2966229","co38776","norming","","","{""guess"":""""}","","../img/tt/1004tt.jpg","",""
"null","../img/gs/1004gs.jpg","null","reveal","image-keyboard-response","17","207195","0.0-6.0-4.1","2966229","co38776","norming","","","","","","",""
"null","../img/tt/1004tt.jpg","null","mooney2","image-keyboard-response","18","209206","0.0-6.0-5.1","2966229","co38776","norming","","","","","","",""
"3500.1900000006717","","","post_reveal_questions","survey-likert","19","212708","0.0-6.0-6.1","2966229","co38776","norming","","","{""aha"":6}","[0]","../img/tt/1004tt.jpg","",""
"null","<div style=""font-size:60px;""> </div>","null","fixation","html-keyboard-response","20","212914","0.0-6.0-0.2","2966229","co38776","norming","","","","","","",""
"null","../img/tt/1002tt.jpg","null","mooney1","image-keyboard-response","21","215919","0.0-6.0-1.2","2966229","co38776","norming","","","","","","",""
"9226.235000000073","","","post_mooney1_questions","survey-likert","22","225155","0.0-6.0-2.2","2966229","co38776","norming","","","{""curiosity"":5,""confidence"":2}","[0,1]","../img/tt/1002tt.jpg","",""
"3438.2599999989616","","","recognition","survey-text","23","228595","0.0-6.0-3.2","2966229","co38776","norming","","","{""guess"":""animal""}","","../img/tt/1002tt.jpg","",""
"null","../img/gs/1002gs.jpg","null","reveal","image-keyboard-response","24","230596","0.0-6.0-4.2","2966229","co38776","norming","","","","","","",""
"null","../img/tt/1002tt.jpg","null","mooney2","image-keyboard-response","25","232608","0.0-6.0-5.2","2966229","co38776","norming","","","","","","",""
"4145.614999999467","","","post_reveal_questions","survey-likert","26","236755","0.0-6.0-6.2","2966229","co38776","norming","","","{""aha"":4}","[0]","../img/tt/1002tt.jpg","",""
"null","<div style=""font-size:60px;""> </div>","null","fixation","html-keyboard-response","27","236960","0.0-6.0-0.3","2966229","co38776","norming","","","","","","",""
"null","../img/tt/442tt.jpg","null","mooney1","image-keyboard-response","28","239969","0.0-6.0-1.3","2966229","co38776","norming","","","","","","",""
"4591.3650000002235","","","post_mooney1_questions","survey-likert","29","244563","0.0-6.0-2.3","2966229","co38776","norming","","","{""curiosity"":5,""confidence"":3}","[0,1]","../img/tt/442tt.jpg","",""
"3166.160000000673","","","recognition","survey-text","30","247731","0.0-6.0-3.3","2966229","co38776","norming","","","{""guess"":""fruit""}","","../img/tt/442tt.jpg","",""
"null","../img/gs/442gs.jpg","null","reveal","image-keyboard-response","31","249736","0.0-6.0-4.3","2966229","co38776","norming","","","","","","",""
"null","../img/tt/442tt.jpg","null","mooney2","image-keyboard-response","32","251742","0.0-6.0-5.3","2966229","co38776","norming","","","","","","",""
"3930.519999999902","","","post_reveal_questions","survey-likert","33","255675","0.0-6.0-6.3","2966229","co38776","norming","","","{""aha"":4}","[0]","../img/tt/442tt.jpg","",""
"null","<div style=""font-size:60px;""> </div>","null","fixation","html-keyboard-response","34","255877","0.0-6.0-0.4","2966229","co38776","norming","","","","","","",""
"null","../img/tt/515tt.jpg","null","mooney1","image-keyboard-response","35","258889","0.0-6.0-1.4","2966229","co38776","norming","","","","","","",""
"5847.555000000284","","","post_mooney1_questions","survey-likert","36","264739","0.0-6.0-2.4","2966229","co38776","norming","","","{""curiosity"":3,""confidence"":5}","[0,1]","../img/tt/515tt.jpg","",""
"2349.819999999483","","","recognition","survey-text","37","267091","0.0-6.0-3.4","2966229","co38776","norming","","","{""guess"":""bird""}","","../img/tt/515tt.jpg","",""
"null","../img/gs/515gs.jpg","null","reveal","image-keyboard-response","38","269095","0.0-6.0-4.4","2966229","co38776","norming","","","","","","",""
"null","../img/tt/515tt.jpg","null","mooney2","image-keyboard-response","39","271100","0.0-6.0-5.4","2966229","co38776","norming","","","","","","",""
"4948.749999999534","","","post_reveal_questions","survey-likert","40","276051","0.0-6.0-6.4","2966229","co38776","norming","","","{""aha"":1}","[0]","../img/tt/515tt.jpg","",""
"null","<div style=""font-size:60px;""> </div>","null","fixation","html-keyboard-response","41","276255","0.0-6.0-0.5","2966229","co38776","norming","","","","","","",""
"null","../img/tt/020tt.jpg","null","mooney1","image-keyboard-response","42","279259","0.0-6.0-1.5","2966229","co38776","norming","","","","","","",""
"8573.754999999423","","","post_mooney1_questions","survey-likert","43","287835","0.0-6.0-2.5","2966229","co38776","norming","","","{""curiosity"":5,""confidence"":2}","[0,1]","../img/tt/020tt.jpg","",""
"4630.105000000156","","","recognition","survey-text","44","292467","0.0-6.0-3.5","2966229","co38776","norming","","","{""guess"":""animal""}","","../img/tt/020tt.jpg","",""
"null","../img/gs/020gs.jpg","null","reveal","image-keyboard-response","45","294470","0.0-6.0-4.5","2966229","co38776","norming","","","","","","",""
"null","../img/tt/020tt.jpg","null","mooney2","image-keyboard-response","46","296473","0.0-6.0-5.5","2966229","co38776","norming","","","","","","",""
"2239.0200000008917","","","post_reveal_questions","survey-likert","47","298715","0.0-6.0-6.5","2966229","co38776","norming","","","{""aha"":6}","[0]","../img/tt/020tt.jpg","",""
"null","<div style=""font-size:60px;""> </div>","null","fixation","html-keyboard-response","48","298921","0.0-6.0-0.6","2966229","co38776","norming","","","","","","",""
"null","../img/tt/300tt.jpg","null","mooney1","image-keyboard-response","49","301926","0.0-6.0-1.6","2966229","co38776","norming","","","","","","",""
"5794.5050000016345","","","post_mooney1_questions","survey-likert","50","307723","0.0-6.0-2.6","2966229","co38776","norming","","","{""curiosity"":5,""confidence"":3}","[0,1]","../img/tt/300tt.jpg","",""
"2197.9800000007963","","","recognition","survey-text","51","309923","0.0-6.0-3.6","2966229","co38776","norming","","","{""guess"":""boat""}","","../img/tt/300tt.jpg","",""
"null","../img/gs/300gs.jpg","null","reveal","image-keyboard-response","52","311931","0.0-6.0-4.6","2966229","co38776","norming","","","","","","",""
"null","../img/tt/300tt.jpg","null","mooney2","image-keyboard-response","53","313934","0.0-6.0-5.6","2966229","co38776","norming","","","","","","",""
"4867.175000001211","","","post_reveal_questions","survey-likert","54","318803","0.0-6.0-6.6","2966229","co38776","norming","","","{""aha"":6}","[0]","../img/tt/300tt.jpg","",""
"null","<div style=""font-size:60px;""> </div>","null","fixation","html-keyboard-response","55","319007","0.0-6.0-0.7","2966229","co38776","norming","","","","","","",""
"null","../img/tt/019tt.jpg","null","mooney1","image-keyboard-response","56","322017","0.0-6.0-1.7","2966229","co38776","norming","","","","","","",""
"7543.394999998738","","","post_mooney1_questions","survey-likert","57","329563","0.0-6.0-2.7","2966229","co38776","norming","","","{""curiosity"":5,""confidence"":1}","[0,1]","../img/tt/019tt.jpg","",""
"1574.1900000012247","","","recognition","survey-text","58","331139","0.0-6.0-3.7","2966229","co38776","norming","","","{""guess"":""""}","","../img/tt/019tt.jpg","",""
"null","../img/gs/019gs.jpg","null","reveal","image-keyboard-response","59","333143","0.0-6.0-4.7","2966229","co38776","norming","","","","","","",""
"null","../img/tt/019tt.jpg","null","mooney2","image-keyboard-response","60","335153","0.0-6.0-5.7","2966229","co38776","norming","","","","","","",""
"2279.5750000005355","","","post_reveal_questions","survey-likert","61","337435","0.0-6.0-6.7","2966229","co38776","norming","","","{""aha"":6}","[0]","../img/tt/019tt.jpg","",""
"null","<div style=""font-size:60px;""> </div>","null","fixation","html-keyboard-response","62","337642","0.0-6.0-0.8","2966229","co38776","norming","","","","","","",""
"null","../img/tt/1275tt.jpg","null","mooney1","image-keyboard-response","63","340651","0.0-6.0-1.8","2966229","co38776","norming","","","","","","",""
"6341.454999999725","","","post_mooney1_questions","survey-likert","64","346996","0.0-6.0-2.8","2966229","co38776","norming","","","{""curiosity"":5,""confidence"":2}","[0,1]","../img/tt/1275tt.jpg","",""
"2862.294999998994","","","recognition","survey-text","65","349860","0.0-6.0-3.8","2966229","co38776","norming","","","{""guess"":""trees""}","","../img/tt/1275tt.jpg","",""
"null","../img/gs/1275gs.jpg","null","reveal","image-keyboard-response","66","351862","0.0-6.0-4.8","2966229","co38776","norming","","","","","","",""
"null","../img/tt/1275tt.jpg","null","mooney2","image-keyboard-response","67","353873","0.0-6.0-5.8","2966229","co38776","norming","","","","","","",""
"4984.040000001143","","","post_reveal_questions","survey-likert","68","358860","0.0-6.0-6.8","2966229","co38776","norming","","","{""aha"":5}","[0]","../img/tt/1275tt.jpg","",""
"null","<div style=""font-size:60px;""> </div>","null","fixation","html-keyboard-response","69","359066","0.0-6.0-0.9","2966229","co38776","norming","","","","","","",""
"null","../img/tt/1107tt.jpg","null","mooney1","image-keyboard-response","70","362072","0.0-6.0-1.9","2966229","co38776","norming","","","","","","",""
"5528.775000000664","","","post_mooney1_questions","survey-likert","71","367604","0.0-6.0-2.9","2966229","co38776","norming","","","{""curiosity"":4,""confidence"":3}","[0,1]","../img/tt/1107tt.jpg","",""
"2430.260000000999","","","recognition","survey-text","72","370036","0.0-6.0-3.9","2966229","co38776","norming","","","{""guess"":""flower""}","","../img/tt/1107tt.jpg","",""
"null","../img/gs/1107gs.jpg","null","reveal","image-keyboard-response","73","372043","0.0-6.0-4.9","2966229","co38776","norming","","","","","","",""
"null","../img/tt/1107tt.jpg","null","mooney2","image-keyboard-response","74","374045","0.0-6.0-5.9","2966229","co38776","norming","","","","","","",""
"2924.054999999469","","","post_reveal_questions","survey-likert","75","376972","0.0-6.0-6.9","2966229","co38776","norming","","","{""aha"":6}","[0]","../img/tt/1107tt.jpg","",""
"null","<div style=""font-size:60px;""> </div>","null","fixation","html-keyboard-response","76","377174","0.0-6.0-0.10","2966229","co38776","norming","","","","","","",""
"null","../img/tt/1235tt.jpg","null","mooney1","image-keyboard-response","77","380185","0.0-6.0-1.10","2966229","co38776","norming","","","","","","",""
"7224.679999999353","","","post_mooney1_questions","survey-likert","78","387412","0.0-6.0-2.10","2966229","co38776","norming","","","{""curiosity"":5,""confidence"":2}","[0,1]","../img/tt/1235tt.jpg","",""
"4990.2200000014855","","","recognition","survey-text","79","392404","0.0-6.0-3.10","2966229","co38776","norming","","","{""guess"":""sheep""}","","../img/tt/1235tt.jpg","",""
"null","../img/gs/1235gs.jpg","null","reveal","image-keyboard-response","80","394405","0.0-6.0-4.10","2966229","co38776","norming","","","","","","",""
"null","../img/tt/1235tt.jpg","null","mooney2","image-keyboard-response","81","396406","0.0-6.0-5.10","2966229","co38776","norming","","","","","","",""
"4435.195000000007","","","post_reveal_questions","survey-likert","82","400844","0.0-6.0-6.10","2966229","co38776","norming","","","{""aha"":5}","[0]","../img/tt/1235tt.jpg","",""
"null","<div style=""font-size:60px;""> </div>","null","fixation","html-keyboard-response","83","401048","0.0-6.0-0.11","2966229","co38776","norming","","","","","","",""
"null","../img/tt/081tt.jpg","null","mooney1","image-keyboard-response","84","404056","0.0-6.0-1.11","2966229","co38776","norming","","","","","","",""
"7500.270000000426","","","post_mooney1_questions","survey-likert","85","411559","0.0-6.0-2.11","2966229","co38776","norming","","","{""curiosity"":4,""confidence"":3}","[0,1]","../img/tt/081tt.jpg","",""
"2014.064999999362","","","recognition","survey-text","86","413574","0.0-6.0-3.11","2966229","co38776","norming","","","{""guess"":""frog""}","","../img/tt/081tt.jpg","",""
"null","../img/gs/081gs.jpg","null","reveal","image-keyboard-response","87","415582","0.0-6.0-4.11","2966229","co38776","norming","","","","","","",""
"null","../img/tt/081tt.jpg","null","mooney2","image-keyboard-response","88","417582","0.0-6.0-5.11","2966229","co38776","norming","","","","","","",""
"1822.954999999667","","","post_reveal_questions","survey-likert","89","419406","0.0-6.0-6.11","2966229","co38776","norming","","","{""aha"":3}","[0]","../img/tt/081tt.jpg","",""
"null","<div style=""font-size:60px;""> </div>","null","fixation","html-keyboard-response","90","419615","0.0-6.0-0.12","2966229","co38776","norming","","","","","","",""
"null","../img/tt/1101tt.jpg","null","mooney1","image-keyboard-response","91","422620","0.0-6.0-1.12","2966229","co38776","norming","","","","","","",""
"5599.780000000494","","","post_mooney1_questions","survey-likert","92","428223","0.0-6.0-2.12","2966229","co38776","norming","","","{""curiosity"":5,""confidence"":2}","[0,1]","../img/tt/1101tt.jpg","",""
"3317.9650000002002","","","recognition","survey-text","93","431543","0.0-6.0-3.12","2966229","co38776","norming","","","{""guess"":""human""}","","../img/tt/1101tt.jpg","",""
"null","../img/gs/1101gs.jpg","null","reveal","image-keyboard-response","94","433546","0.0-6.0-4.12","2966229","co38776","norming","","","","","","",""
"null","../img/tt/1101tt.jpg","null","mooney2","image-keyboard-response","95","435554","0.0-6.0-5.12","2966229","co38776","norming","","","","","","",""
"6795.050000000629","","","post_reveal_questions","survey-likert","96","442350","0.0-6.0-6.12","2966229","co38776","norming","","","{""aha"":5}","[0]","../img/tt/1101tt.jpg","",""
"null","<div style=""font-size:60px;""> </div>","null","fixation","html-keyboard-response","97","442556","0.0-6.0-0.13","2966229","co38776","norming","","","","","","",""
"null","../img/tt/1102tt.jpg","null","mooney1","image-keyboard-response","98","445561","0.0-6.0-1.13","2966229","co38776","norming","","","","","","",""
"4484.565000000643","","","post_mooney1_questions","survey-likert","99","450047","0.0-6.0-2.13","2966229","co38776","norming","","","{""curiosity"":5,""confidence"":1}","[0,1]","../img/tt/1102tt.jpg","",""
"1070.1249999983702","","","recognition","survey-text","100","451118","0.0-6.0-3.13","2966229","co38776","norming","","","{""guess"":""""}","","../img/tt/1102tt.jpg","",""
"null","../img/gs/1102gs.jpg","null","reveal","image-keyboard-response","101","453128","0.0-6.0-4.13","2966229","co38776","norming","","","","","","",""
"null","../img/tt/1102tt.jpg","null","mooney2","image-keyboard-response","102","455135","0.0-6.0-5.13","2966229","co38776","norming","","","","","","",""
"4381.905000000203","","","post_reveal_questions","survey-likert","103","459518","0.0-6.0-6.13","2966229","co38776","norming","","","{""aha"":5}","[0]","../img/tt/1102tt.jpg","",""
"null","<div style=""font-size:60px;""> </div>","null","fixation","html-keyboard-response","104","459729","0.0-6.0-0.14","2966229","co38776","norming","","","","","","",""
"null","../img/tt/1276tt.jpg","null","mooney1","image-keyboard-response","105","462732","0.0-6.0-1.14","2966229","co38776","norming","","","","","","",""
"9591.495000000577","","","post_mooney1_questions","survey-likert","106","472328","0.0-6.0-2.14","2966229","co38776","norming","","","{""curiosity"":5,""confidence"":2}","[0,1]","../img/tt/1276tt.jpg","",""
"1229.9149999999208","","","recognition","survey-text","107","473560","0.0-6.0-3.14","2966229","co38776","norming","","","{""guess"":""""}","","../img/tt/1276tt.jpg","",""
"null","../img/gs/1276gs.jpg","null","reveal","image-keyboard-response","108","475565","0.0-6.0-4.14","2966229","co38776","norming","","","","","","",""
"null","../img/tt/1276tt.jpg","null","mooney2","image-keyboard-response","109","477570","0.0-6.0-5.14","2966229","co38776","norming","","","","","","",""
"3692.415000001376","","","post_reveal_questions","survey-likert","110","481264","0.0-6.0-6.14","2966229","co38776","norming","","","{""aha"":6}","[0]","../img/tt/1276tt.jpg","",""
"null","<div style=""font-size:60px;""> </div>","null","fixation","html-keyboard-response","111","481474","0.0-6.0-0.15","2966229","co38776","norming","","","","","","",""
"null","../img/tt/1186tt.jpg","null","mooney1","image-keyboard-response","112","484478","0.0-6.0-1.15","2966229","co38776","norming","","","","","","",""
"5374.9900000002235","","","post_mooney1_questions","survey-likert","113","489856","0.0-6.0-2.15","2966229","co38776","norming","","","{""curiosity"":5,""confidence"":2}","[0,1]","../img/tt/1186tt.jpg","",""
"2438.024999999441","","","recognition","survey-text","114","492296","0.0-6.0-3.15","2966229","co38776","norming","","","{""guess"":""skater""}","","../img/tt/1186tt.jpg","",""
"null","../img/gs/1186gs.jpg","null","reveal","image-keyboard-response","115","494303","0.0-6.0-4.15","2966229","co38776","norming","","","","","","",""
"null","../img/tt/1186tt.jpg","null","mooney2","image-keyboard-response","116","496316","0.0-6.0-5.15","2966229","co38776","norming","","","","","","",""
"4346.0150000010035","","","post_reveal_questions","survey-likert","117","500664","0.0-6.0-6.15","2966229","co38776","norming","","","{""aha"":3}","[0]","../img/tt/1186tt.jpg","",""
"null","<div style=""font-size:60px;""> </div>","null","fixation","html-keyboard-response","118","500868","0.0-6.0-0.16","2966229","co38776","norming","","","","","","",""
"null","../img/tt/013tt.jpg","null","mooney1","image-keyboard-response","119","503876","0.0-6.0-1.16","2966229","co38776","norming","","","","","","",""
"6665.57499999908","","","post_mooney1_questions","survey-likert","120","510544","0.0-6.0-2.16","2966229","co38776","norming","","","{""curiosity"":5,""confidence"":3}","[0,1]","../img/tt/013tt.jpg","",""
"2854.3050000007497","","","recognition","survey-text","121","513400","0.0-6.0-3.16","2966229","co38776","norming","","","{""guess"":""camel""}","","../img/tt/013tt.jpg","",""
"null","../img/gs/013gs.jpg","null","reveal","image-keyboard-response","122","515405","0.0-6.0-4.16","2966229","co38776","norming","","","","","","",""
"null","../img/tt/013tt.jpg","null","mooney2","image-keyboard-response","123","517416","0.0-6.0-5.16","2966229","co38776","norming","","","","","","",""
"4629.484999999462","","","post_reveal_questions","survey-likert","124","522048","0.0-6.0-6.16","2966229","co38776","norming","","","{""aha"":3}","[0]","../img/tt/013tt.jpg","",""
"null","<div style=""font-size:60px;""> </div>","null","fixation","html-keyboard-response","125","522250","0.0-6.0-0.17","2966229","co38776","norming","","","","","","",""
"null","../img/tt/1224tt.jpg","null","mooney1","image-keyboard-response","126","525253","0.0-6.0-1.17","2966229","co38776","norming","","","","","","",""
"6863.450000000768","","","post_mooney1_questions","survey-likert","127","532114","0.0-6.0-2.17","2966229","co38776","norming","","","{""curiosity"":5,""confidence"":2}","[0,1]","../img/tt/1224tt.jpg","",""
"2430.065000000526","","","recognition","survey-text","128","534546","0.0-6.0-3.17","2966229","co38776","norming","","","{""guess"":""potter""}","","../img/tt/1224tt.jpg","",""
"null","../img/gs/1224gs.jpg","null","reveal","image-keyboard-response","129","536548","0.0-6.0-4.17","2966229","co38776","norming","","","","","","",""
"null","../img/tt/1224tt.jpg","null","mooney2","image-keyboard-response","130","538553","0.0-6.0-5.17","2966229","co38776","norming","","","","","","",""
"3734.9549999998417","","","post_reveal_questions","survey-likert","131","542290","0.0-6.0-6.17","2966229","co38776","norming","","","{""aha"":5}","[0]","../img/tt/1224tt.jpg","",""
"null","<div style=""font-size:60px;""> </div>","null","fixation","html-keyboard-response","132","542497","0.0-6.0-0.18","2966229","co38776","norming","","","","","","",""
"null","../img/tt/1118tt.jpg","null","mooney1","image-keyboard-response","133","545503","0.0-6.0-1.18","2966229","co38776","norming","","","","","","",""
"7210.29500000074","","","post_mooney1_questions","survey-likert","134","552714","0.0-6.0-2.18","2966229","co38776","norming","","","{""curiosity"":5,""confidence"":1}","[0,1]","../img/tt/1118tt.jpg","",""
"3638.2799999993294","","","recognition","survey-text","135","556354","0.0-6.0-3.18","2966229","co38776","norming","","","{""guess"":""river""}","","../img/tt/1118tt.jpg","",""
"null","../img/gs/1118gs.jpg","null","reveal","image-keyboard-response","136","558363","0.0-6.0-4.18","2966229","co38776","norming","","","","","","",""
"null","../img/tt/1118tt.jpg","null","mooney2","image-keyboard-response","137","560366","0.0-6.0-5.18","2966229","co38776","norming","","","","","","",""
"4914.714999999036","","","post_reveal_questions","survey-likert","138","565282","0.0-6.0-6.18","2966229","co38776","norming","","","{""aha"":5}","[0]","../img/tt/1118tt.jpg","",""
"null","<div style=""font-size:60px;""> </div>","null","fixation","html-keyboard-response","139","565487","0.0-6.0-0.19","2966229","co38776","norming","","","","","","",""
"null","../img/tt/126tt.jpg","null","mooney1","image-keyboard-response","140","568491","0.0-6.0-1.19","2966229","co38776","norming","","","","","","",""
"4836.779999999679","","","post_mooney1_questions","survey-likert","141","573330","0.0-6.0-2.19","2966229","co38776","norming","","","{""curiosity"":5,""confidence"":2}","[0,1]","../img/tt/126tt.jpg","",""
"1774.0149999989662","","","recognition","survey-text","142","575106","0.0-6.0-3.19","2966229","co38776","norming","","","{""guess"":""cow""}","","../img/tt/126tt.jpg","",""
"null","../img/gs/126gs.jpg","null","reveal","image-keyboard-response","143","577113","0.0-6.0-4.19","2966229","co38776","norming","","","","","","",""
"null","../img/tt/126tt.jpg","null","mooney2","image-keyboard-response","144","579124","0.0-6.0-5.19","2966229","co38776","norming","","","","","","",""
"3547.954999999958","","","post_reveal_questions","survey-likert","145","582674","0.0-6.0-6.19","2966229","co38776","norming","","","{""aha"":3}","[0]","../img/tt/126tt.jpg","",""
"null","<div style=""font-size:60px;""> </div>","null","fixation","html-keyboard-response","146","582878","0.0-6.0-0.20","2966229","co38776","norming","","","","","","",""
"null","../img/tt/580tt.jpg","null","mooney1","image-keyboard-response","147","585881","0.0-6.0-1.20","2966229","co38776","norming","","","","","","",""
"9551.120000000112","","","post_mooney1_questions","survey-likert","148","595441","0.0-6.0-2.20","2966229","co38776","norming","","","{""curiosity"":5,""confidence"":1}","[0,1]","../img/tt/580tt.jpg","",""
"6005.794999999111","","","recognition","survey-text","149","601449","0.0-6.0-3.20","2966229","co38776","norming","","","{""guess"":""flowers""}","","../img/tt/580tt.jpg","",""
"null","../img/gs/580gs.jpg","null","reveal","image-keyboard-response","150","603451","0.0-6.0-4.20","2966229","co38776","norming","","","","","","",""
"null","../img/tt/580tt.jpg","null","mooney2","image-keyboard-response","151","605454","0.0-6.0-5.20","2966229","co38776","norming","","","","","","",""
"4354.065000001341","","","post_reveal_questions","survey-likert","152","609809","0.0-6.0-6.20","2966229","co38776","norming","","","{""aha"":5}","[0]","../img/tt/580tt.jpg","",""
"null","<div style=""font-size:60px;""> </div>","null","fixation","html-keyboard-response","153","610014","0.0-6.0-0.21","2966229","co38776","norming","","","","","","",""
"null","../img/tt/1063tt.jpg","null","mooney1","image-keyboard-response","154","613023","0.0-6.0-1.21","2966229","co38776","norming","","","","","","",""
"4407.324999998324","","","post_mooney1_questions","survey-likert","155","617433","0.0-6.0-2.21","2966229","co38776","norming","","","{""curiosity"":5,""confidence"":2}","[0,1]","../img/tt/1063tt.jpg","",""
"3133.9150000003865","","","recognition","survey-text","156","620569","0.0-6.0-3.21","2966229","co38776","norming","","","{""guess"":""elephant""}","","../img/tt/1063tt.jpg","",""
"null","../img/gs/1063gs.jpg","null","reveal","image-keyboard-response","157","622571","0.0-6.0-4.21","2966229","co38776","norming","","","","","","",""
"null","../img/tt/1063tt.jpg","null","mooney2","image-keyboard-response","158","624574","0.0-6.0-5.21","2966229","co38776","norming","","","","","","",""
"5056.404999999329","","","post_reveal_questions","survey-likert","159","629633","0.0-6.0-6.21","2966229","co38776","norming","","","{""aha"":5}","[0]","../img/tt/1063tt.jpg","",""
"null","<div style=""font-size:60px;""> </div>","null","fixation","html-keyboard-response","160","629841","0.0-6.0-0.22","2966229","co38776","norming","","","","","","",""
"null","../img/tt/1130tt.jpg","null","mooney1","image-keyboard-response","161","632850","0.0-6.0-1.22","2966229","co38776","norming","","","","","","",""
"5316.319999999949","","","post_mooney1_questions","survey-likert","162","638169","0.0-6.0-2.22","2966229","co38776","norming","","","{""curiosity"":5,""confidence"":2}","[0,1]","../img/tt/1130tt.jpg","",""
"7486.310000000172","","","recognition","survey-text","163","645657","0.0-6.0-3.22","2966229","co38776","norming","","","{""guess"":""footballer""}","","../img/tt/1130tt.jpg","",""
"null","../img/gs/1130gs.jpg","null","reveal","image-keyboard-response","164","647663","0.0-6.0-4.22","2966229","co38776","norming","","","","","","",""
"null","../img/tt/1130tt.jpg","null","mooney2","image-keyboard-response","165","649674","0.0-6.0-5.22","2966229","co38776","norming","","","","","","",""
"4564.690000001108","","","post_reveal_questions","survey-likert","166","654241","0.0-6.0-6.22","2966229","co38776","norming","","","{""aha"":5}","[0]","../img/tt/1130tt.jpg","",""
"null","<div style=""font-size:60px;""> </div>","null","fixation","html-keyboard-response","167","654450","0.0-6.0-0.23","2966229","co38776","norming","","","","","","",""
"null","../img/tt/435tt.jpg","null","mooney1","image-keyboard-response","168","657460","0.0-6.0-1.23","2966229","co38776","norming","","","","","","",""
"6307.249999999884","","","post_mooney1_questions","survey-likert","169","663770","0.0-6.0-2.23","2966229","co38776","norming","","","{""curiosity"":5,""confidence"":1}","[0,1]","../img/tt/435tt.jpg","",""
"5341.945000000182","","","recognition","survey-text","170","669113","0.0-6.0-3.23","2966229","co38776","norming","","","{""guess"":""painting""}","","../img/tt/435tt.jpg","",""
"null","../img/gs/435gs.jpg","null","reveal","image-keyboard-response","171","671120","0.0-6.0-4.23","2966229","co38776","norming","","","","","","",""
"null","../img/tt/435tt.jpg","null","mooney2","image-keyboard-response","172","673122","0.0-6.0-5.23","2966229","co38776","norming","","","","","","",""
"2980.9850000001024","","","post_reveal_questions","survey-likert","173","676105","0.0-6.0-6.23","2966229","co38776","norming","","","{""aha"":5}","[0]","../img/tt/435tt.jpg","",""
"null","<div style=""font-size:60px;""> </div>","null","fixation","html-keyboard-response","174","676316","0.0-6.0-0.24","2966229","co38776","norming","","","","","","",""
"null","../img/tt/194tt.jpg","null","mooney1","image-keyboard-response","175","679322","0.0-6.0-1.24","2966229","co38776","norming","","","","","","",""
"6013.615000001737","","","post_mooney1_questions","survey-likert","176","685338","0.0-6.0-2.24","2966229","co38776","norming","","","{""curiosity"":5,""confidence"":1}","[0,1]","../img/tt/194tt.jpg","",""
"3373.5399999987567","","","recognition","survey-text","177","688713","0.0-6.0-3.24","2966229","co38776","norming","","","{""guess"":""woman""}","","../img/tt/194tt.jpg","",""
"null","../img/gs/194gs.jpg","null","reveal","image-keyboard-response","178","690719","0.0-6.0-4.24","2966229","co38776","norming","","","","","","",""
"null","../img/tt/194tt.jpg","null","mooney2","image-keyboard-response","179","692729","0.0-6.0-5.24","2966229","co38776","norming","","","","","","",""
"2757.7000000001863","","","post_reveal_questions","survey-likert","180","695489","0.0-6.0-6.24","2966229","co38776","norming","","","{""aha"":5}","[0]","../img/tt/194tt.jpg","",""
"null","<div style=""font-size:60px;""> </div>","null","fixation","html-keyboard-response","181","695690","0.0-6.0-0.25","2966229","co38776","norming","","","","","","",""
"null","../img/tt/1097tt.jpg","null","mooney1","image-keyboard-response","182","698694","0.0-6.0-1.25","2966229","co38776","norming","","","","","","",""
"11208.49500000081","","","post_mooney1_questions","survey-likert","183","709898","0.0-6.0-2.25","2966229","co38776","norming","","","{""curiosity"":5,""confidence"":1}","[0,1]","../img/tt/1097tt.jpg","",""
"6998.26500000013","","","recognition","survey-text","184","716898","0.0-6.0-3.25","2966229","co38776","norming","","","{""guess"":""person on canoe""}","","../img/tt/1097tt.jpg","",""
"null","../img/gs/1097gs.jpg","null","reveal","image-keyboard-response","185","718902","0.0-6.0-4.25","2966229","co38776","norming","","","","","","",""
"null","../img/tt/1097tt.jpg","null","mooney2","image-keyboard-response","186","720910","0.0-6.0-5.25","2966229","co38776","norming","","","","","","",""
"4465.664999999688","","","post_reveal_questions","survey-likert","187","725378","0.0-6.0-6.25","2966229","co38776","norming","","","{""aha"":4}","[0]","../img/tt/1097tt.jpg","",""
"null","<div style=""font-size:60px;""> </div>","null","fixation","html-keyboard-response","188","725580","0.0-6.0-0.26","2966229","co38776","norming","","","","","","",""
"null","../img/tt/405tt.jpg","null","mooney1","image-keyboard-response","189","728581","0.0-6.0-1.26","2966229","co38776","norming","","","","","","",""
"5314.400000001187","","","post_mooney1_questions","survey-likert","190","733898","0.0-6.0-2.26","2966229","co38776","norming","","","{""curiosity"":5,""confidence"":1}","[0,1]","../img/tt/405tt.jpg","",""
"2486.100000000093","","","recognition","survey-text","191","736386","0.0-6.0-3.26","2966229","co38776","norming","","","{""guess"":""baby""}","","../img/tt/405tt.jpg","",""
"null","../img/gs/405gs.jpg","null","reveal","image-keyboard-response","192","738390","0.0-6.0-4.26","2966229","co38776","norming","","","","","","",""
"null","../img/tt/405tt.jpg","null","mooney2","image-keyboard-response","193","740393","0.0-6.0-5.26","2966229","co38776","norming","","","","","","",""
"2062.619999998831","","","post_reveal_questions","survey-likert","194","742458","0.0-6.0-6.26","2966229","co38776","norming","","","{""aha"":5}","[0]","../img/tt/405tt.jpg","",""
"null","<div style=""font-size:60px;""> </div>","null","fixation","html-keyboard-response","195","742661","0.0-6.0-0.27","2966229","co38776","norming","","","","","","",""
"null","../img/tt/1188tt.jpg","null","mooney1","image-keyboard-response","196","745669","0.0-6.0-1.27","2966229","co38776","norming","","","","","","",""
"6330.249999999069","","","post_mooney1_questions","survey-likert","197","752002","0.0-6.0-2.27","2966229","co38776","norming","","","{""curiosity"":5,""confidence"":1}","[0,1]","../img/tt/1188tt.jpg","",""
"9870.130000001052","","","recognition","survey-text","198","761874","0.0-6.0-3.27","2966229","co38776","norming","","","{""guess"":""""}","","../img/tt/1188tt.jpg","",""
"null","../img/gs/1188gs.jpg","null","reveal","image-keyboard-response","199","763881","0.0-6.0-4.27","2966229","co38776","norming","","","","","","",""
"null","../img/tt/1188tt.jpg","null","mooney2","image-keyboard-response","200","765887","0.0-6.0-5.27","2966229","co38776","norming","","","","","","",""
"7560.499999999651","","","post_reveal_questions","survey-likert","201","773455","0.0-6.0-6.27","2966229","co38776","norming","","","{""aha"":6}","[0]","../img/tt/1188tt.jpg","",""
"null","<div style=""font-size:60px;""> </div>","null","fixation","html-keyboard-response","202","773666","0.0-6.0-0.28","2966229","co38776","norming","","","","","","",""
"null","../img/tt/1069tt.jpg","null","mooney1","image-keyboard-response","203","776678","0.0-6.0-1.28","2966229","co38776","norming","","","","","","",""
"4750.895000001066","","","post_mooney1_questions","survey-likert","204","781431","0.0-6.0-2.28","2966229","co38776","norming","","","{""curiosity"":5,""confidence"":1}","[0,1]","../img/tt/1069tt.jpg","",""
"2830.119999998715","","","recognition","survey-text","205","784263","0.0-6.0-3.28","2966229","co38776","norming","","","{""guess"":""animals""}","","../img/tt/1069tt.jpg","",""
"null","../img/gs/1069gs.jpg","null","reveal","image-keyboard-response","206","786267","0.0-6.0-4.28","2966229","co38776","norming","","","","","","",""
"null","../img/tt/1069tt.jpg","null","mooney2","image-keyboard-response","207","788278","0.0-6.0-5.28","2966229","co38776","norming","","","","","","",""
"5158.1649999989895","","","post_reveal_questions","survey-likert","208","793439","0.0-6.0-6.28","2966229","co38776","norming","","","{""aha"":4}","[0]","../img/tt/1069tt.jpg","",""
"null","<div style=""font-size:60px;""> </div>","null","fixation","html-keyboard-response","209","793641","0.0-6.0-0.29","2966229","co38776","norming","","","","","","",""
"null","../img/tt/1142tt.jpg","null","mooney1","image-keyboard-response","210","796645","0.0-6.0-1.29","2966229","co38776","norming","","","","","","",""
"10471.555000000051","","","post_mooney1_questions","survey-likert","211","807119","0.0-6.0-2.29","2966229","co38776","norming","","","{""curiosity"":5,""confidence"":0}","[0,1]","../img/tt/1142tt.jpg","",""
"1685.8549999996321","","","recognition","survey-text","212","808807","0.0-6.0-3.29","2966229","co38776","norming","","","{""guess"":""""}","","../img/tt/1142tt.jpg","",""
"null","../img/gs/1142gs.jpg","null","reveal","image-keyboard-response","213","810818","0.0-6.0-4.29","2966229","co38776","norming","","","","","","",""
"null","../img/tt/1142tt.jpg","null","mooney2","image-keyboard-response","214","812826","0.0-6.0-5.29","2966229","co38776","norming","","","","","","",""
"3466.6249999990687","","","post_reveal_questions","survey-likert","215","816295","0.0-6.0-6.29","2966229","co38776","norming","","","{""aha"":6}","[0]","../img/tt/1142tt.jpg","",""
"null","<div style=""font-size:60px;""> </div>","null","fixation","html-keyboard-response","216","816499","0.0-6.0-0.30","2966229","co38776","norming","","","","","","",""
"null","../img/tt/1159tt.jpg","null","mooney1","image-keyboard-response","217","819504","0.0-6.0-1.30","2966229","co38776","norming","","","","","","",""
"6710.33499999973","","","post_mooney1_questions","survey-likert","218","826215","0.0-6.0-2.30","2966229","co38776","norming","","","{""curiosity"":5,""confidence"":1}","[0,1]","../img/tt/1159tt.jpg","",""
"4670.085000001476","","","recognition","survey-text","219","830886","0.0-6.0-3.30","2966229","co38776","norming","","","{""guess"":""skateboarder""}","","../img/tt/1159tt.jpg","",""
"null","../img/gs/1159gs.jpg","null","reveal","image-keyboard-response","220","832889","0.0-6.0-4.30","2966229","co38776","norming","","","","","","",""
"null","../img/tt/1159tt.jpg","null","mooney2","image-keyboard-response","221","834891","0.0-6.0-5.30","2966229","co38776","norming","","","","","","",""
"3792.3150000006426","","","post_reveal_questions","survey-likert","222","838686","0.0-6.0-6.30","2966229","co38776","norming","","","{""aha"":3}","[0]","../img/tt/1159tt.jpg","",""
"null","<div style=""font-size:60px;""> </div>","null","fixation","html-keyboard-response","223","838888","0.0-6.0-0.31","2966229","co38776","norming","","","","","","",""
"null","../img/tt/1084tt.jpg","null","mooney1","image-keyboard-response","224","841893","0.0-6.0-1.31","2966229","co38776","norming","","","","","","",""
"10440.54499999946","","","post_mooney1_questions","survey-likert","225","852334","0.0-6.0-2.31","2966229","co38776","norming","","","{""curiosity"":4,""confidence"":2}","[0,1]","../img/tt/1084tt.jpg","",""
"3317.764999999781","","","recognition","survey-text","226","855654","0.0-6.0-3.31","2966229","co38776","norming","","","{""guess"":""cake""}","","../img/tt/1084tt.jpg","",""
"null","../img/gs/1084gs.jpg","null","reveal","image-keyboard-response","227","857664","0.0-6.0-4.31","2966229","co38776","norming","","","","","","",""
"null","../img/tt/1084tt.jpg","null","mooney2","image-keyboard-response","228","859665","0.0-6.0-5.31","2966229","co38776","norming","","","","","","",""
"4185.724999999395","","","post_reveal_questions","survey-likert","229","863854","0.0-6.0-6.31","2966229","co38776","norming","","","{""aha"":3}","[0]","../img/tt/1084tt.jpg","",""
"null","<div style=""font-size:60px;""> </div>","null","fixation","html-keyboard-response","230","864061","0.0-6.0-0.32","2966229","co38776","norming","","","","","","",""
"null","../img/tt/079tt.jpg","null","mooney1","image-keyboard-response","231","867072","0.0-6.0-1.32","2966229","co38776","norming","","","","","","",""
"4428.334999998682","","","post_mooney1_questions","survey-likert","232","871502","0.0-6.0-2.32","2966229","co38776","norming","","","{""curiosity"":5,""confidence"":4}","[0,1]","../img/tt/079tt.jpg","",""
"2982.1300000002375","","","recognition","survey-text","233","874486","0.0-6.0-3.32","2966229","co38776","norming","","","{""guess"":""bear""}","","../img/tt/079tt.jpg","",""
"null","../img/gs/079gs.jpg","null","reveal","image-keyboard-response","234","876489","0.0-6.0-4.32","2966229","co38776","norming","","","","","","",""
"null","../img/tt/079tt.jpg","null","mooney2","image-keyboard-response","235","878491","0.0-6.0-5.32","2966229","co38776","norming","","","","","","",""
"3152.890000001178","","","post_reveal_questions","survey-likert","236","881646","0.0-6.0-6.32","2966229","co38776","norming","","","{""aha"":2}","[0]","../img/tt/079tt.jpg","",""
"null","<div style=""font-size:60px;""> </div>","null","fixation","html-keyboard-response","237","881847","0.0-6.0-0.33","2966229","co38776","norming","","","","","","",""
"null","../img/tt/1243tt.jpg","null","mooney1","image-keyboard-response","238","884854","0.0-6.0-1.33","2966229","co38776","norming","","","","","","",""
"4325.52500000014","","","post_mooney1_questions","survey-likert","239","889182","0.0-6.0-2.33","2966229","co38776","norming","","","{""curiosity"":4,""confidence"":2}","[0,1]","../img/tt/1243tt.jpg","",""
"3238.110000000219","","","recognition","survey-text","240","892420","0.0-6.0-3.33","2966229","co38776","norming","","","{""guess"":""keeper""}","","../img/tt/1243tt.jpg","",""
"null","../img/gs/1243gs.jpg","null","reveal","image-keyboard-response","241","894421","0.0-6.0-4.33","2966229","co38776","norming","","","","","","",""
"null","../img/tt/1243tt.jpg","null","mooney2","image-keyboard-response","242","896432","0.0-6.0-5.33","2966229","co38776","norming","","","","","","",""
"2752.8099999999395","","","post_reveal_questions","survey-likert","243","899188","0.0-6.0-6.33","2966229","co38776","norming","","","{""aha"":5}","[0]","../img/tt/1243tt.jpg","",""
"null","<div style=""font-size:60px;""> </div>","null","fixation","html-keyboard-response","244","899399","0.0-6.0-0.34","2966229","co38776","norming","","","","","","",""
"null","../img/tt/049tt.jpg","null","mooney1","image-keyboard-response","245","902403","0.0-6.0-1.34","2966229","co38776","norming","","","","","","",""
"6791.710000001243","","","post_mooney1_questions","survey-likert","246","909196","0.0-6.0-2.34","2966229","co38776","norming","","","{""curiosity"":5,""confidence"":1}","[0,1]","../img/tt/049tt.jpg","",""
"3478.210000001127","","","recognition","survey-text","247","912675","0.0-6.0-3.34","2966229","co38776","norming","","","{""guess"":""baby""}","","../img/tt/049tt.jpg","",""
"null","../img/gs/049gs.jpg","null","reveal","image-keyboard-response","248","914684","0.0-6.0-4.34","2966229","co38776","norming","","","","","","",""
"null","../img/tt/049tt.jpg","null","mooney2","image-keyboard-response","249","916694","0.0-6.0-5.34","2966229","co38776","norming","","","","","","",""
"3564.279999998631","","","post_reveal_questions","survey-likert","250","920259","0.0-6.0-6.34","2966229","co38776","norming","","","{""aha"":6}","[0]","../img/tt/049tt.jpg","",""
"null","<div style=""font-size:60px;""> </div>","null","fixation","html-keyboard-response","251","920469","0.0-6.0-0.35","2966229","co38776","norming","","","","","","",""
"null","../img/tt/010tt.jpg","null","mooney1","image-keyboard-response","252","923476","0.0-6.0-1.35","2966229","co38776","norming","","","","","","",""
"5686.380000001052","","","post_mooney1_questions","survey-likert","253","929164","0.0-6.0-2.35","2966229","co38776","norming","","","{""curiosity"":5,""confidence"":0}","[0,1]","../img/tt/010tt.jpg","",""
"2966.2349999998696","","","recognition","survey-text","254","932132","0.0-6.0-3.35","2966229","co38776","norming","","","{""guess"":""plant""}","","../img/tt/010tt.jpg","",""
"null","../img/gs/010gs.jpg","null","reveal","image-keyboard-response","255","934136","0.0-6.0-4.35","2966229","co38776","norming","","","","","","",""
"null","../img/tt/010tt.jpg","null","mooney2","image-keyboard-response","256","936142","0.0-6.0-5.35","2966229","co38776","norming","","","","","","",""
"3819.235000000801","","","post_reveal_questions","survey-likert","257","939964","0.0-6.0-6.35","2966229","co38776","norming","","","{""aha"":6}","[0]","../img/tt/010tt.jpg","",""
"null","<div style=""font-size:60px;""> </div>","null","fixation","html-keyboard-response","258","940170","0.0-6.0-0.36","2966229","co38776","norming","","","","","","",""
"null","../img/tt/301tt.jpg","null","mooney1","image-keyboard-response","259","943179","0.0-6.0-1.36","2966229","co38776","norming","","","","","","",""
"13141.680000000633","","","post_mooney1_questions","survey-likert","260","956328","0.0-6.0-2.36","2966229","co38776","norming","","","{""curiosity"":5,""confidence"":0}","[0,1]","../img/tt/301tt.jpg","",""
"886.0550000008661","","","recognition","survey-text","261","957216","0.0-6.0-3.36","2966229","co38776","norming","","","{""guess"":""""}","","../img/tt/301tt.jpg","",""
"null","../img/gs/301gs.jpg","null","reveal","image-keyboard-response","262","959222","0.0-6.0-4.36","2966229","co38776","norming","","","","","","",""
"null","../img/tt/301tt.jpg","null","mooney2","image-keyboard-response","263","961232","0.0-6.0-5.36","2966229","co38776","norming","","","","","","",""
"2252.925000000745","","","post_reveal_questions","survey-likert","264","963488","0.0-6.0-6.36","2966229","co38776","norming","","","{""aha"":6}","[0]","../img/tt/301tt.jpg","",""
"null","<div style=""font-size:60px;""> </div>","null","fixation","html-keyboard-response","265","963691","0.0-6.0-0.37","2966229","co38776","norming","","","","","","",""
"null","../img/tt/307tt.jpg","null","mooney1","image-keyboard-response","266","966697","0.0-6.0-1.37","2966229","co38776","norming","","","","","","",""
"17251.630000000703","","","post_mooney1_questions","survey-likert","267","983952","0.0-6.0-2.37","2966229","co38776","norming","","","{""curiosity"":5,""confidence"":1}","[0,1]","../img/tt/307tt.jpg","",""
"7894.200000000652","","","recognition","survey-text","268","991848","0.0-6.0-3.37","2966229","co38776","norming","","","{""guess"":""plant""}","","../img/tt/307tt.jpg","",""
"null","../img/gs/307gs.jpg","null","reveal","image-keyboard-response","269","993856","0.0-6.0-4.37","2966229","co38776","norming","","","","","","",""
"null","../img/tt/307tt.jpg","null","mooney2","image-keyboard-response","270","995867","0.0-6.0-5.37","2966229","co38776","norming","","","","","","",""
"4026.6599999994505","","","post_reveal_questions","survey-likert","271","999896","0.0-6.0-6.37","2966229","co38776","norming","","","{""aha"":6}","[0]","../img/tt/307tt.jpg","",""
"null","<div style=""font-size:60px;""> </div>","null","fixation","html-keyboard-response","272","1000101","0.0-6.0-0.38","2966229","co38776","norming","","","","","","",""
"null","../img/tt/1353tt.jpg","null","mooney1","image-keyboard-response","273","1003114","0.0-6.0-1.38","2966229","co38776","norming","","","","","","",""
"6291.110000000219","","","post_mooney1_questions","survey-likert","274","1009408","0.0-6.0-2.38","2966229","co38776","norming","","","{""curiosity"":4,""confidence"":1}","[0,1]","../img/tt/1353tt.jpg","",""
"3190.4150000009686","","","recognition","survey-text","275","1012600","0.0-6.0-3.38","2966229","co38776","norming","","","{""guess"":""snake""}","","../img/tt/1353tt.jpg","",""
"null","../img/gs/1353gs.jpg","null","reveal","image-keyboard-response","276","1014604","0.0-6.0-4.38","2966229","co38776","norming","","","","","","",""
"null","../img/tt/1353tt.jpg","null","mooney2","image-keyboard-response","277","1016606","0.0-6.0-5.38","2966229","co38776","norming","","","","","","",""
"5589.859999999986","","","post_reveal_questions","survey-likert","278","1022199","0.0-6.0-6.38","2966229","co38776","norming","","","{""aha"":5}","[0]","../img/tt/1353tt.jpg","",""
"null","<div style=""font-size:60px;""> </div>","null","fixation","html-keyboard-response","279","1022406","0.0-6.0-0.39","2966229","co38776","norming","","","","","","",""
"null","../img/tt/1247tt.jpg","null","mooney1","image-keyboard-response","280","1025412","0.0-6.0-1.39","2966229","co38776","norming","","","","","","",""
"4361.585000000545","","","post_mooney1_questions","survey-likert","281","1029775","0.0-6.0-2.39","2966229","co38776","norming","","","{""curiosity"":5,""confidence"":2}","[0,1]","../img/tt/1247tt.jpg","",""
"4214.24499999918","","","recognition","survey-text","282","1033991","0.0-6.0-3.39","2966229","co38776","norming","","","{""guess"":""flower""}","","../img/tt/1247tt.jpg","",""
"null","../img/gs/1247gs.jpg","null","reveal","image-keyboard-response","283","1035993","0.0-6.0-4.39","2966229","co38776","norming","","","","","","",""
"null","../img/tt/1247tt.jpg","null","mooney2","image-keyboard-response","284","1038001","0.0-6.0-5.39","2966229","co38776","norming","","","","","","",""
"3955.6749999992317","","","post_reveal_questions","survey-likert","285","1041959","0.0-6.0-6.39","2966229","co38776","norming","","","{""aha"":6}","[0]","../img/tt/1247tt.jpg","",""
"null","<div style=""font-size:60px;""> </div>","null","fixation","html-keyboard-response","286","1042168","0.0-6.0-0.40","2966229","co38776","norming","","","","","","",""
"null","../img/tt/084tt.jpg","null","mooney1","image-keyboard-response","287","1045180","0.0-6.0-1.40","2966229","co38776","norming","","","","","","",""
"5655.779999999097","","","post_mooney1_questions","survey-likert","288","1050839","0.0-6.0-2.40","2966229","co38776","norming","","","{""curiosity"":5,""confidence"":3}","[0,1]","../img/tt/084tt.jpg","",""
"2797.810000000056","","","recognition","survey-text","289","1053638","0.0-6.0-3.40","2966229","co38776","norming","","","{""guess"":""bird""}","","../img/tt/084tt.jpg","",""
"null","../img/gs/084gs.jpg","null","reveal","image-keyboard-response","290","1055645","0.0-6.0-4.40","2966229","co38776","norming","","","","","","",""
"null","../img/tt/084tt.jpg","null","mooney2","image-keyboard-response","291","1057651","0.0-6.0-5.40","2966229","co38776","norming","","","","","","",""
"3642.350000000093","","","post_reveal_questions","survey-likert","292","1061295","0.0-6.0-6.40","2966229","co38776","norming","","","{""aha"":3}","[0]","../img/tt/084tt.jpg","",""
"null","<div style=""font-size:60px;""> </div>","null","fixation","html-keyboard-response","293","1061498","0.0-6.0-0.41","2966229","co38776","norming","","","","","","",""
"null","../img/tt/1234tt.jpg","null","mooney1","image-keyboard-response","294","1064506","0.0-6.0-1.41","2966229","co38776","norming","","","","","","",""
"7273.654999998864","","","post_mooney1_questions","survey-likert","295","1071784","0.0-6.0-2.41","2966229","co38776","norming","","","{""curiosity"":5,""confidence"":2}","[0,1]","../img/tt/1234tt.jpg","",""
"4190.005000000354","","","recognition","survey-text","296","1075976","0.0-6.0-3.41","2966229","co38776","norming","","","{""guess"":""water""}","","../img/tt/1234tt.jpg","",""
"null","../img/gs/1234gs.jpg","null","reveal","image-keyboard-response","297","1077978","0.0-6.0-4.41","2966229","co38776","norming","","","","","","",""
"null","../img/tt/1234tt.jpg","null","mooney2","image-keyboard-response","298","1079989","0.0-6.0-5.41","2966229","co38776","norming","","","","","","",""
"4824.810000000056","","","post_reveal_questions","survey-likert","299","1084816","0.0-6.0-6.41","2966229","co38776","norming","","","{""aha"":5}","[0]","../img/tt/1234tt.jpg","",""
"null","<div style=""font-size:60px;""> </div>","null","fixation","html-keyboard-response","300","1085019","0.0-6.0-0.42","2966229","co38776","norming","","","","","","",""
"null","../img/tt/517tt.jpg","null","mooney1","image-keyboard-response","301","1088027","0.0-6.0-1.42","2966229","co38776","norming","","","","","","",""
"6482","","","post_mooney1_questions","survey-likert","302","1094512","0.0-6.0-2.42","2966229","co38776","norming","","","{""curiosity"":5,""confidence"":1}","[0,1]","../img/tt/517tt.jpg","",""
"4646.085000000428","","","recognition","survey-text","303","1099160","0.0-6.0-3.42","2966229","co38776","norming","","","{""guess"":""bear""}","","../img/tt/517tt.jpg","",""
"null","../img/gs/517gs.jpg","null","reveal","image-keyboard-response","304","1101165","0.0-6.0-4.42","2966229","co38776","norming","","","","","","",""
"null","../img/tt/517tt.jpg","null","mooney2","image-keyboard-response","305","1103168","0.0-6.0-5.42","2966229","co38776","norming","","","","","","",""
"3354.650000001071","","","post_reveal_questions","survey-likert","306","1106528","0.0-6.0-6.42","2966229","co38776","norming","","","{""aha"":4}","[0]","../img/tt/517tt.jpg","",""
"null","<div style=""font-size:60px;""> </div>","null","fixation","html-keyboard-response","307","1106733","0.0-6.0-0.43","2966229","co38776","norming","","","","","","",""
"null","../img/tt/1089tt.jpg","null","mooney1","image-keyboard-response","308","1109739","0.0-6.0-1.43","2966229","co38776","norming","","","","","","",""
"5273.450000000652","","","post_mooney1_questions","survey-likert","309","1115016","0.0-6.0-2.43","2966229","co38776","norming","","","{""curiosity"":5,""confidence"":1}","[0,1]","../img/tt/1089tt.jpg","",""
"2942.0250000003725","","","recognition","survey-text","310","1117960","0.0-6.0-3.43","2966229","co38776","norming","","","{""guess"":""horse""}","","../img/tt/1089tt.jpg","",""
"null","../img/gs/1089gs.jpg","null","reveal","image-keyboard-response","311","1119968","0.0-6.0-4.43","2966229","co38776","norming","","","","","","",""
"null","../img/tt/1089tt.jpg","null","mooney2","image-keyboard-response","312","1121974","0.0-6.0-5.43","2966229","co38776","norming","","","","","","",""
"3375.404999998864","","","post_reveal_questions","survey-likert","313","1125352","0.0-6.0-6.43","2966229","co38776","norming","","","{""aha"":6}","[0]","../img/tt/1089tt.jpg","",""
"null","<div style=""font-size:60px;""> </div>","null","fixation","html-keyboard-response","314","1125559","0.0-6.0-0.44","2966229","co38776","norming","","","","","","",""
"null","../img/tt/552tt.jpg","null","mooney1","image-keyboard-response","315","1128560","0.0-6.0-1.44","2966229","co38776","norming","","","","","","",""
"3925.0699999993667","","","post_mooney1_questions","survey-likert","316","1132487","0.0-6.0-2.44","2966229","co38776","norming","","","{""curiosity"":5,""confidence"":3}","[0,1]","../img/tt/552tt.jpg","",""
"4525.695000000298","","","recognition","survey-text","317","1137015","0.0-6.0-3.44","2966229","co38776","norming","","","{""guess"":""skunk""}","","../img/tt/552tt.jpg","",""
"null","../img/gs/552gs.jpg","null","reveal","image-keyboard-response","318","1139019","0.0-6.0-4.44","2966229","co38776","norming","","","","","","",""
"null","../img/tt/552tt.jpg","null","mooney2","image-keyboard-response","319","1141021","0.0-6.0-5.44","2966229","co38776","norming","","","","","","",""
"3343.6800000017975","","","post_reveal_questions","survey-likert","320","1144367","0.0-6.0-6.44","2966229","co38776","norming","","","{""aha"":3}","[0]","../img/tt/552tt.jpg","",""
"null","<div style=""font-size:60px;""> </div>","null","fixation","html-keyboard-response","321","1144573","0.0-6.0-0.45","2966229","co38776","norming","","","","","","",""
"null","../img/tt/140tt.jpg","null","mooney1","image-keyboard-response","322","1147576","0.0-6.0-1.45","2966229","co38776","norming","","","","","","",""
"4237.970000000205","","","post_mooney1_questions","survey-likert","323","1151815","0.0-6.0-2.45","2966229","co38776","norming","","","{""curiosity"":5,""confidence"":3}","[0,1]","../img/tt/140tt.jpg","",""
"2445.8350000004284","","","recognition","survey-text","324","1154263","0.0-6.0-3.45","2966229","co38776","norming","","","{""guess"":""forks""}","","../img/tt/140tt.jpg","",""
"null","../img/gs/140gs.jpg","null","reveal","image-keyboard-response","325","1156269","0.0-6.0-4.45","2966229","co38776","norming","","","","","","",""
"null","../img/tt/140tt.jpg","null","mooney2","image-keyboard-response","326","1158271","0.0-6.0-5.45","2966229","co38776","norming","","","","","","",""
"4989.7950000013225","","","post_reveal_questions","survey-likert","327","1163263","0.0-6.0-6.45","2966229","co38776","norming","","","{""aha"":3}","[0]","../img/tt/140tt.jpg","",""
"null","<div style=""font-size:60px;""> </div>","null","fixation","html-keyboard-response","328","1163474","0.0-6.0-0.46","2966229","co38776","norming","","","","","","",""
"null","../img/tt/096tt.jpg","null","mooney1","image-keyboard-response","329","1166479","0.0-6.0-1.46","2966229","co38776","norming","","","","","","",""
"6069.080000001006","","","post_mooney1_questions","survey-likert","330","1172551","0.0-6.0-2.46","2966229","co38776","norming","","","{""curiosity"":5,""confidence"":3}","[0,1]","../img/tt/096tt.jpg","",""
"3070.0950000009034","","","recognition","survey-text","331","1175623","0.0-6.0-3.46","2966229","co38776","norming","","","{""guess"":""piano""}","","../img/tt/096tt.jpg","",""
"null","../img/gs/096gs.jpg","null","reveal","image-keyboard-response","332","1177624","0.0-6.0-4.46","2966229","co38776","norming","","","","","","",""
"null","../img/tt/096tt.jpg","null","mooney2","image-keyboard-response","333","1179626","0.0-6.0-5.46","2966229","co38776","norming","","","","","","",""
"4459.745000000112","","","post_reveal_questions","survey-likert","334","1184087","0.0-6.0-6.46","2966229","co38776","norming","","","{""aha"":2}","[0]","../img/tt/096tt.jpg","",""
"null","<div style=""font-size:60px;""> </div>","null","fixation","html-keyboard-response","335","1184294","0.0-6.0-0.47","2966229","co38776","norming","","","","","","",""
"null","../img/tt/1283tt.jpg","null","mooney1","image-keyboard-response","336","1187299","0.0-6.0-1.47","2966229","co38776","norming","","","","","","",""
"4672.655000000494","","","post_mooney1_questions","survey-likert","337","1191981","0.0-6.0-2.47","2966229","co38776","norming","","","{""curiosity"":5,""confidence"":2}","[0,1]","../img/tt/1283tt.jpg","",""
"2365.765000000596","","","recognition","survey-text","338","1194349","0.0-6.0-3.47","2966229","co38776","norming","","","{""guess"":""fox""}","","../img/tt/1283tt.jpg","",""
"null","../img/gs/1283gs.jpg","null","reveal","image-keyboard-response","339","1196360","0.0-6.0-4.47","2966229","co38776","norming","","","","","","",""
"null","../img/tt/1283tt.jpg","null","mooney2","image-keyboard-response","340","1198370","0.0-6.0-5.47","2966229","co38776","norming","","","","","","",""
"4008.5","","","post_reveal_questions","survey-likert","341","1202381","0.0-6.0-6.47","2966229","co38776","norming","","","{""aha"":3}","[0]","../img/tt/1283tt.jpg","",""
"null","<div style=""font-size:60px;""> </div>","null","fixation","html-keyboard-response","342","1202584","0.0-6.0-0.48","2966229","co38776","norming","","","","","","",""
"null","../img/tt/123tt.jpg","null","mooney1","image-keyboard-response","343","1205596","0.0-6.0-1.48","2966229","co38776","norming","","","","","","",""
"13279.879999999888","","","post_mooney1_questions","survey-likert","344","1218877","0.0-6.0-2.48","2966229","co38776","norming","","","{""curiosity"":5,""confidence"":1}","[0,1]","../img/tt/123tt.jpg","",""
"7198.055000000633","","","recognition","survey-text","345","1226077","0.0-6.0-3.48","2966229","co38776","norming","","","{""guess"":""plank""}","","../img/tt/123tt.jpg","",""
"null","../img/gs/123gs.jpg","null","reveal","image-keyboard-response","346","1228081","0.0-6.0-4.48","2966229","co38776","norming","","","","","","",""
"null","../img/tt/123tt.jpg","null","mooney2","image-keyboard-response","347","1230083","0.0-6.0-5.48","2966229","co38776","norming","","","","","","",""
"4766.475000000326","","","post_reveal_questions","survey-likert","348","1234853","0.0-6.0-6.48","2966229","co38776","norming","","","{""aha"":5}","[0]","../img/tt/123tt.jpg","",""
"null","<div style=""font-size:60px;""> </div>","null","fixation","html-keyboard-response","349","1235057","0.0-6.0-0.49","2966229","co38776","norming","","","","","","",""
"null","../img/tt/1270tt.jpg","null","mooney1","image-keyboard-response","350","1238067","0.0-6.0-1.49","2966229","co38776","norming","","","","","","",""
"11118.814999999944","","","post_mooney1_questions","survey-likert","351","1249189","0.0-6.0-2.49","2966229","co38776","norming","","","{""curiosity"":5,""confidence"":1}","[0,1]","../img/tt/1270tt.jpg","",""
"1309.9849999998696","","","recognition","survey-text","352","1250501","0.0-6.0-3.49","2966229","co38776","norming","","","{""guess"":""""}","","../img/tt/1270tt.jpg","",""
"null","../img/gs/1270gs.jpg","null","reveal","image-keyboard-response","353","1252511","0.0-6.0-4.49","2966229","co38776","norming","","","","","","",""
"null","../img/tt/1270tt.jpg","null","mooney2","image-keyboard-response","354","1254521","0.0-6.0-5.49","2966229","co38776","norming","","","","","","",""
"2775.7199999997392","","","post_reveal_questions","survey-likert","355","1257301","0.0-6.0-6.49","2966229","co38776","norming","","","{""aha"":6}","[0]","../img/tt/1270tt.jpg","",""
"null","<div style=""font-size:60px;""> </div>","null","fixation","html-keyboard-response","356","1257507","0.0-6.0-0.50","2966229","co38776","norming","","","","","","",""
"null","../img/tt/1211tt.jpg","null","mooney1","image-keyboard-response","357","1260511","0.0-6.0-1.50","2966229","co38776","norming","","","","","","",""
"4170.974999999162","","","post_mooney1_questions","survey-likert","358","1264686","0.0-6.0-2.50","2966229","co38776","norming","","","{""curiosity"":5,""confidence"":2}","[0,1]","../img/tt/1211tt.jpg","",""
"2989.994999999879","","","recognition","survey-text","359","1267677","0.0-6.0-3.50","2966229","co38776","norming","","","{""guess"":""flower""}","","../img/tt/1211tt.jpg","",""
"null","../img/gs/1211gs.jpg","null","reveal","image-keyboard-response","360","1269682","0.0-6.0-4.50","2966229","co38776","norming","","","","","","",""
"null","../img/tt/1211tt.jpg","null","mooney2","image-keyboard-response","361","1271687","0.0-6.0-5.50","2966229","co38776","norming","","","","","","",""
"4261.414999998873","","","post_reveal_questions","survey-likert","362","1275949","0.0-6.0-6.50","2966229","co38776","norming","","","{""aha"":5}","[0]","../img/tt/1211tt.jpg","",""
"null","<div style=""font-size:60px;""> </div>","null","fixation","html-keyboard-response","363","1276158","0.0-6.0-0.51","2966229","co38776","norming","","","","","","",""
"null","../img/tt/603tt.jpg","null","mooney1","image-keyboard-response","364","1279166","0.0-6.0-1.51","2966229","co38776","norming","","","","","","",""
"5804.374999999534","","","post_mooney1_questions","survey-likert","365","1284974","0.0-6.0-2.51","2966229","co38776","norming","","","{""curiosity"":5,""confidence"":0}","[0,1]","../img/tt/603tt.jpg","",""
"1838.0150000010617","","","recognition","survey-text","366","1286813","0.0-6.0-3.51","2966229","co38776","norming","","","{""guess"":""""}","","../img/tt/603tt.jpg","",""
"null","../img/gs/603gs.jpg","null","reveal","image-keyboard-response","367","1288818","0.0-6.0-4.51","2966229","co38776","norming","","","","","","",""
"null","../img/tt/603tt.jpg","null","mooney2","image-keyboard-response","368","1290829","0.0-6.0-5.51","2966229","co38776","norming","","","","","","",""
"2445.560000000056","","","post_reveal_questions","survey-likert","369","1293277","0.0-6.0-6.51","2966229","co38776","norming","","","{""aha"":6}","[0]","../img/tt/603tt.jpg","",""
"null","<div style=""font-size:60px;""> </div>","null","fixation","html-keyboard-response","370","1293483","0.0-6.0-0.52","2966229","co38776","norming","","","","","","",""
"null","../img/tt/279tt.jpg","null","mooney1","image-keyboard-response","371","1296486","0.0-6.0-1.52","2966229","co38776","norming","","","","","","",""
"4284.665000000969","","","post_mooney1_questions","survey-likert","372","1300774","0.0-6.0-2.52","2966229","co38776","norming","","","{""curiosity"":5,""confidence"":1}","[0,1]","../img/tt/279tt.jpg","",""
"3542.0550000015646","","","recognition","survey-text","373","1304317","0.0-6.0-3.52","2966229","co38776","norming","","","{""guess"":""koala""}","","../img/tt/279tt.jpg","",""
"null","../img/gs/279gs.jpg","null","reveal","image-keyboard-response","374","1306323","0.0-6.0-4.52","2966229","co38776","norming","","","","","","",""
"null","../img/tt/279tt.jpg","null","mooney2","image-keyboard-response","375","1308325","0.0-6.0-5.52","2966229","co38776","norming","","","","","","",""
"2693.9149999998044","","","post_reveal_questions","survey-likert","376","1311021","0.0-6.0-6.52","2966229","co38776","norming","","","{""aha"":3}","[0]","../img/tt/279tt.jpg","",""
"null","<div style=""font-size:60px;""> </div>","null","fixation","html-keyboard-response","377","1311226","0.0-6.0-0.53","2966229","co38776","norming","","","","","","",""
"null","../img/tt/270tt.jpg","null","mooney1","image-keyboard-response","378","1314230","0.0-6.0-1.53","2966229","co38776","norming","","","","","","",""
"8668.835000000428","","","post_mooney1_questions","survey-likert","379","1322902","0.0-6.0-2.53","2966229","co38776","norming","","","{""curiosity"":5,""confidence"":0}","[0,1]","../img/tt/270tt.jpg","",""
"1397.950000000652","","","recognition","survey-text","380","1324302","0.0-6.0-3.53","2966229","co38776","norming","","","{""guess"":""""}","","../img/tt/270tt.jpg","",""
"null","../img/gs/270gs.jpg","null","reveal","image-keyboard-response","381","1326303","0.0-6.0-4.53","2966229","co38776","norming","","","","","","",""
"null","../img/tt/270tt.jpg","null","mooney2","image-keyboard-response","382","1328305","0.0-6.0-5.53","2966229","co38776","norming","","","","","","",""
"3290.2199999990407","","","post_reveal_questions","survey-likert","383","1331597","0.0-6.0-6.53","2966229","co38776","norming","","","{""aha"":6}","[0]","../img/tt/270tt.jpg","",""
"null","<div style=""font-size:60px;""> </div>","null","fixation","html-keyboard-response","384","1331805","0.0-6.0-0.54","2966229","co38776","norming","","","","","","",""
"null","../img/tt/1148tt.jpg","null","mooney1","image-keyboard-response","385","1334816","0.0-6.0-1.54","2966229","co38776","norming","","","","","","",""
"8426.289999999339","","","post_mooney1_questions","survey-likert","386","1343246","0.0-6.0-2.54","2966229","co38776","norming","","","{""curiosity"":5,""confidence"":2}","[0,1]","../img/tt/1148tt.jpg","",""
"4190.12999999919","","","recognition","survey-text","387","1347438","0.0-6.0-3.54","2966229","co38776","norming","","","{""guess"":""woman""}","","../img/tt/1148tt.jpg","",""
"null","../img/gs/1148gs.jpg","null","reveal","image-keyboard-response","388","1349446","0.0-6.0-4.54","2966229","co38776","norming","","","","","","",""
"null","../img/tt/1148tt.jpg","null","mooney2","image-keyboard-response","389","1351454","0.0-6.0-5.54","2966229","co38776","norming","","","","","","",""
"4317.254999999888","","","post_reveal_questions","survey-likert","390","1355774","0.0-6.0-6.54","2966229","co38776","norming","","","{""aha"":6}","[0]","../img/tt/1148tt.jpg","",""
"null","<div style=""font-size:60px;""> </div>","null","fixation","html-keyboard-response","391","1355980","0.0-6.0-0.55","2966229","co38776","norming","","","","","","",""
"null","../img/tt/1046tt.jpg","null","mooney1","image-keyboard-response","392","1358987","0.0-6.0-1.55","2966229","co38776","norming","","","","","","",""
"6871.409999999683","","","post_mooney1_questions","survey-likert","393","1365862","0.0-6.0-2.55","2966229","co38776","norming","","","{""curiosity"":5,""confidence"":1}","[0,1]","../img/tt/1046tt.jpg","",""
"4293.924999999814","","","recognition","survey-text","394","1370158","0.0-6.0-3.55","2966229","co38776","norming","","","{""guess"":""food""}","","../img/tt/1046tt.jpg","",""
"null","../img/gs/1046gs.jpg","null","reveal","image-keyboard-response","395","1372159","0.0-6.0-4.55","2966229","co38776","norming","","","","","","",""
"null","../img/tt/1046tt.jpg","null","mooney2","image-keyboard-response","396","1374171","0.0-6.0-5.55","2966229","co38776","norming","","","","","","",""
"3920.4849999987055","","","post_reveal_questions","survey-likert","397","1378089","0.0-6.0-6.55","2966229","co38776","norming","","","{""aha"":5}","[0]","../img/tt/1046tt.jpg","",""
"null","<div style=""font-size:60px;""> </div>","null","fixation","html-keyboard-response","398","1378297","0.0-6.0-0.56","2966229","co38776","norming","","","","","","",""
"null","../img/tt/111tt.jpg","null","mooney1","image-keyboard-response","399","1381302","0.0-6.0-1.56","2966229","co38776","norming","","","","","","",""
"8319.665000000969","","","post_mooney1_questions","survey-likert","400","1389625","0.0-6.0-2.56","2966229","co38776","norming","","","{""curiosity"":5,""confidence"":2}","[0,1]","../img/tt/111tt.jpg","",""
"13949.894999999786","","","recognition","survey-text","401","1403577","0.0-6.0-3.56","2966229","co38776","norming","","","{""guess"":""shower/tap""}","","../img/tt/111tt.jpg","",""
"null","../img/gs/111gs.jpg","null","reveal","image-keyboard-response","402","1405580","0.0-6.0-4.56","2966229","co38776","norming","","","","","","",""
"null","../img/tt/111tt.jpg","null","mooney2","image-keyboard-response","403","1407586","0.0-6.0-5.56","2966229","co38776","norming","","","","","","",""
"4845.760000000009","","","post_reveal_questions","survey-likert","404","1412433","0.0-6.0-6.56","2966229","co38776","norming","","","{""aha"":3}","[0]","../img/tt/111tt.jpg","",""
"null","<div style=""font-size:60px;""> </div>","null","fixation","html-keyboard-response","405","1412641","0.0-6.0-0.57","2966229","co38776","norming","","","","","","",""
"null","../img/tt/1044tt.jpg","null","mooney1","image-keyboard-response","406","1415646","0.0-6.0-1.57","2966229","co38776","norming","","","","","","",""
"6325.279999999097","","","post_mooney1_questions","survey-likert","407","1421977","0.0-6.0-2.57","2966229","co38776","norming","","","{""curiosity"":5,""confidence"":1}","[0,1]","../img/tt/1044tt.jpg","",""
"4446.115000000689","","","recognition","survey-text","408","1426425","0.0-6.0-3.57","2966229","co38776","norming","","","{""guess"":""flower""}","","../img/tt/1044tt.jpg","",""
"null","../img/gs/1044gs.jpg","null","reveal","image-keyboard-response","409","1428427","0.0-6.0-4.57","2966229","co38776","norming","","","","","","",""
"null","../img/tt/1044tt.jpg","null","mooney2","image-keyboard-response","410","1430430","0.0-6.0-5.57","2966229","co38776","norming","","","","","","",""
"3976.2899999986403","","","post_reveal_questions","survey-likert","411","1434409","0.0-6.0-6.57","2966229","co38776","norming","","","{""aha"":5}","[0]","../img/tt/1044tt.jpg","",""
"null","<div style=""font-size:60px;""> </div>","null","fixation","html-keyboard-response","412","1434614","0.0-6.0-0.58","2966229","co38776","norming","","","","","","",""
"null","../img/tt/507tt.jpg","null","mooney1","image-keyboard-response","413","1437623","0.0-6.0-1.58","2966229","co38776","norming","","","","","","",""
"11638.160000000382","","","post_mooney1_questions","survey-likert","414","1449262","0.0-6.0-2.58","2966229","co38776","norming","","","{""curiosity"":5,""confidence"":1}","[0,1]","../img/tt/507tt.jpg","",""
"7629.720000000903","","","recognition","survey-text","415","1456894","0.0-6.0-3.58","2966229","co38776","norming","","","{""guess"":""animal""}","","../img/tt/507tt.jpg","",""
"null","../img/gs/507gs.jpg","null","reveal","image-keyboard-response","416","1458900","0.0-6.0-4.58","2966229","co38776","norming","","","","","","",""
"null","../img/tt/507tt.jpg","null","mooney2","image-keyboard-response","417","1460902","0.0-6.0-5.58","2966229","co38776","norming","","","","","","",""
"4997.980000000214","","","post_reveal_questions","survey-likert","418","1465902","0.0-6.0-6.58","2966229","co38776","norming","","","{""aha"":6}","[0]","../img/tt/507tt.jpg","",""
"null","<div style=""font-size:60px;""> </div>","null","fixation","html-keyboard-response","419","1466110","0.0-6.0-0.59","2966229","co38776","norming","","","","","","",""
"null","../img/tt/031tt.jpg","null","mooney1","image-keyboard-response","420","1469122","0.0-6.0-1.59","2966229","co38776","norming","","","","","","",""
"5512.949999998324","","","post_mooney1_questions","survey-likert","421","1474638","0.0-6.0-2.59","2966229","co38776","norming","","","{""curiosity"":5,""confidence"":1}","[0,1]","../img/tt/031tt.jpg","",""
"2286.0350000010803","","","recognition","survey-text","422","1476926","0.0-6.0-3.59","2966229","co38776","norming","","","{""guess"":""cat""}","","../img/tt/031tt.jpg","",""
"null","../img/gs/031gs.jpg","null","reveal","image-keyboard-response","423","1478933","0.0-6.0-4.59","2966229","co38776","norming","","","","","","",""
"null","../img/tt/031tt.jpg","null","mooney2","image-keyboard-response","424","1480944","0.0-6.0-5.59","2966229","co38776","norming","","","","","","",""
"7499.029999999097","","","post_reveal_questions","survey-likert","425","1488446","0.0-6.0-6.59","2966229","co38776","norming","","","{""aha"":5}","[0]","../img/tt/031tt.jpg","",""
"null","<div style=""font-size:60px;""> </div>","null","fixation","html-keyboard-response","426","1488653","0.0-6.0-0.60","2966229","co38776","norming","","","","","","",""
"null","../img/tt/598tt.jpg","null","mooney1","image-keyboard-response","427","1491661","0.0-6.0-1.60","2966229","co38776","norming","","","","","","",""
"8784.254999998724","","","post_mooney1_questions","survey-likert","428","1500438","0.0-6.0-2.60","2966229","co38776","norming","","","{""curiosity"":5,""confidence"":0}","[0,1]","../img/tt/598tt.jpg","",""
"3070.0300000007264","","","recognition","survey-text","429","1503510","0.0-6.0-3.60","2966229","co38776","norming","","","{""guess"":""ball""}","","../img/tt/598tt.jpg","",""
"null","../img/gs/598gs.jpg","null","reveal","image-keyboard-response","430","1505517","0.0-6.0-4.60","2966229","co38776","norming","","","","","","",""
"null","../img/tt/598tt.jpg","null","mooney2","image-keyboard-response","431","1507519","0.0-6.0-5.60","2966229","co38776","norming","","","","","","",""
"5924.030000000028","","","post_reveal_questions","survey-likert","432","1513446","0.0-6.0-6.60","2966229","co38776","norming","","","{""aha"":6}","[0]","../img/tt/598tt.jpg","",""
"null","<div style=""font-size:60px;""> </div>","null","fixation","html-keyboard-response","433","1513656","0.0-6.0-0.61","2966229","co38776","norming","","","","","","",""
"null","../img/tt/1066tt.jpg","null","mooney1","image-keyboard-response","434","1516662","0.0-6.0-1.61","2966229","co38776","norming","","","","","","",""
"3924.0850000006612","","","post_mooney1_questions","survey-likert","435","1520590","0.0-6.0-2.61","2966229","co38776","norming","","","{""curiosity"":5,""confidence"":2}","[0,1]","../img/tt/1066tt.jpg","",""
"3222.3499999998603","","","recognition","survey-text","436","1523814","0.0-6.0-3.61","2966229","co38776","norming","","","{""guess"":""bus""}","","../img/tt/1066tt.jpg","",""
"null","../img/gs/1066gs.jpg","null","reveal","image-keyboard-response","437","1525817","0.0-6.0-4.61","2966229","co38776","norming","","","","","","",""
"null","../img/tt/1066tt.jpg","null","mooney2","image-keyboard-response","438","1527819","0.0-6.0-5.61","2966229","co38776","norming","","","","","","",""
"2120.049999999581","","","post_reveal_questions","survey-likert","439","1529942","0.0-6.0-6.61","2966229","co38776","norming","","","{""aha"":2}","[0]","../img/tt/1066tt.jpg","",""
"null","<div style=""font-size:60px;""> </div>","null","fixation","html-keyboard-response","440","1530151","0.0-6.0-0.62","2966229","co38776","norming","","","","","","",""
"null","../img/tt/1227tt.jpg","null","mooney1","image-keyboard-response","441","1533156","0.0-6.0-1.62","2966229","co38776","norming","","","","","","",""
"7206.834999999264","","","post_mooney1_questions","survey-likert","442","1540366","0.0-6.0-2.62","2966229","co38776","norming","","","{""curiosity"":5,""confidence"":1}","[0,1]","../img/tt/1227tt.jpg","",""
"2069.9349999993574","","","recognition","survey-text","443","1542438","0.0-6.0-3.62","2966229","co38776","norming","","","{""guess"":""""}","","../img/tt/1227tt.jpg","",""
"null","../img/gs/1227gs.jpg","null","reveal","image-keyboard-response","444","1544441","0.0-6.0-4.62","2966229","co38776","norming","","","","","","",""
"null","../img/tt/1227tt.jpg","null","mooney2","image-keyboard-response","445","1546444","0.0-6.0-5.62","2966229","co38776","norming","","","","","","",""
"3303.7949999996927","","","post_reveal_questions","survey-likert","446","1549750","0.0-6.0-6.62","2966229","co38776","norming","","","{""aha"":6}","[0]","../img/tt/1227tt.jpg","",""
"null","<div style=""font-size:60px;""> </div>","null","fixation","html-keyboard-response","447","1549952","0.0-6.0-0.63","2966229","co38776","norming","","","","","","",""
"null","../img/tt/1205tt.jpg","null","mooney1","image-keyboard-response","448","1552958","0.0-6.0-1.63","2966229","co38776","norming","","","","","","",""
"8812.229999999516","","","post_mooney1_questions","survey-likert","449","1561782","0.0-6.0-2.63","2966229","co38776","norming","","","{""curiosity"":5,""confidence"":2}","[0,1]","../img/tt/1205tt.jpg","",""
"2470.119999999879","","","recognition","survey-text","450","1564254","0.0-6.0-3.63","2966229","co38776","norming","","","{""guess"":""karate""}","","../img/tt/1205tt.jpg","",""
"null","../img/gs/1205gs.jpg","null","reveal","image-keyboard-response","451","1566262","0.0-6.0-4.63","2966229","co38776","norming","","","","","","",""
"null","../img/tt/1205tt.jpg","null","mooney2","image-keyboard-response","452","1568265","0.0-6.0-5.63","2966229","co38776","norming","","","","","","",""
"3170.454999999376","","","post_reveal_questions","survey-likert","453","1571438","0.0-6.0-6.63","2966229","co38776","norming","","","{""aha"":4}","[0]","../img/tt/1205tt.jpg","",""
"null","<div style=""font-size:60px;""> </div>","null","fixation","html-keyboard-response","454","1571639","0.0-6.0-0.64","2966229","co38776","norming","","","","","","",""
"null","../img/tt/1151tt.jpg","null","mooney1","image-keyboard-response","455","1574650","0.0-6.0-1.64","2966229","co38776","norming","","","","","","",""
"5904.570000000531","","","post_mooney1_questions","survey-likert","456","1580558","0.0-6.0-2.64","2966229","co38776","norming","","","{""curiosity"":5,""confidence"":1}","[0,1]","../img/tt/1151tt.jpg","",""
"3310.035000000382","","","recognition","survey-text","457","1583870","0.0-6.0-3.64","2966229","co38776","norming","","","{""guess"":""animal""}","","../img/tt/1151tt.jpg","",""
"null","../img/gs/1151gs.jpg","null","reveal","image-keyboard-response","458","1585872","0.0-6.0-4.64","2966229","co38776","norming","","","","","","",""
"null","../img/tt/1151tt.jpg","null","mooney2","image-keyboard-response","459","1587874","0.0-6.0-5.64","2966229","co38776","norming","","","","","","",""
"3008.7999999998137","","","post_reveal_questions","survey-likert","460","1590886","0.0-6.0-6.64","2966229","co38776","norming","","","{""aha"":6}","[0]","../img/tt/1151tt.jpg","",""
"null","<div style=""font-size:60px;""> </div>","null","fixation","html-keyboard-response","461","1591088","0.0-6.0-0.65","2966229","co38776","norming","","","","","","",""
"null","../img/tt/353tt.jpg","null","mooney1","image-keyboard-response","462","1594093","0.0-6.0-1.65","2966229","co38776","norming","","","","","","",""
"4997.70999999973","","","post_mooney1_questions","survey-likert","463","1599094","0.0-6.0-2.65","2966229","co38776","norming","","","{""curiosity"":5,""confidence"":0}","[0,1]","../img/tt/353tt.jpg","",""
"3990.0300000009593","","","recognition","survey-text","464","1603086","0.0-6.0-3.65","2966229","co38776","norming","","","{""guess"":""pinguin""}","","../img/tt/353tt.jpg","",""
"null","../img/gs/353gs.jpg","null","reveal","image-keyboard-response","465","1605095","0.0-6.0-4.65","2966229","co38776","norming","","","","","","",""
"null","../img/tt/353tt.jpg","null","mooney2","image-keyboard-response","466","1607100","0.0-6.0-5.65","2966229","co38776","norming","","","","","","",""
"4775.43499999959","","","post_reveal_questions","survey-likert","467","1611878","0.0-6.0-6.65","2966229","co38776","norming","","","{""aha"":2}","[0]","../img/tt/353tt.jpg","",""
"null","<div style=""font-size:60px;""> </div>","null","fixation","html-keyboard-response","468","1612085","0.0-6.0-0.66","2966229","co38776","norming","","","","","","",""
"null","../img/tt/222tt.jpg","null","mooney1","image-keyboard-response","469","1615090","0.0-6.0-1.66","2966229","co38776","norming","","","","","","",""
"4898.98499999987","","","post_mooney1_questions","survey-likert","470","1619990","0.0-6.0-2.66","2966229","co38776","norming","","","{""curiosity"":5,""confidence"":0}","[0,1]","../img/tt/222tt.jpg","",""
"3285.884999999311","","","recognition","survey-text","471","1623272","0.0-6.0-3.66","2966229","co38776","norming","","","{""guess"":""boat""}","","../img/tt/222tt.jpg","",""
"null","../img/gs/222gs.jpg","null","reveal","image-keyboard-response","472","1625273","0.0-6.0-4.66","2966229","co38776","norming","","","","","","",""
"null","../img/tt/222tt.jpg","null","mooney2","image-keyboard-response","473","1627275","0.0-6.0-5.66","2966229","co38776","norming","","","","","","",""
"2346.3749999993015","","","post_reveal_questions","survey-likert","474","1629624","0.0-6.0-6.66","2966229","co38776","norming","","","{""aha"":6}","[0]","../img/tt/222tt.jpg","",""
"null","<div style=""font-size:60px;""> </div>","null","fixation","html-keyboard-response","475","1629829","0.0-6.0-0.67","2966229","co38776","norming","","","","","","",""
"null","../img/tt/319tt.jpg","null","mooney1","image-keyboard-response","476","1632832","0.0-6.0-1.67","2966229","co38776","norming","","","","","","",""
"5772.489999999525","","","post_mooney1_questions","survey-likert","477","1638608","0.0-6.0-2.67","2966229","co38776","norming","","","{""curiosity"":5,""confidence"":1}","[0,1]","../img/tt/319tt.jpg","",""
"4389.890000000363","","","recognition","survey-text","478","1643000","0.0-6.0-3.67","2966229","co38776","norming","","","{""guess"":""donkey""}","","../img/tt/319tt.jpg","",""
"null","../img/gs/319gs.jpg","null","reveal","image-keyboard-response","479","1645002","0.0-6.0-4.67","2966229","co38776","norming","","","","","","",""
"null","../img/tt/319tt.jpg","null","mooney2","image-keyboard-response","480","1647006","0.0-6.0-5.67","2966229","co38776","norming","","","","","","",""
"2631.2349999989383","","","post_reveal_questions","survey-likert","481","1649640","0.0-6.0-6.67","2966229","co38776","norming","","","{""aha"":2}","[0]","../img/tt/319tt.jpg","",""
"null","<div style=""font-size:60px;""> </div>","null","fixation","html-keyboard-response","482","1649844","0.0-6.0-0.68","2966229","co38776","norming","","","","","","",""
"null","../img/tt/534tt.jpg","null","mooney1","image-keyboard-response","483","1652854","0.0-6.0-1.68","2966229","co38776","norming","","","","","","",""
"3806.109999999637","","","post_mooney1_questions","survey-likert","484","1656664","0.0-6.0-2.68","2966229","co38776","norming","","","{""curiosity"":5,""confidence"":1}","[0,1]","../img/tt/534tt.jpg","",""
"6445.789999999804","","","recognition","survey-text","485","1663112","0.0-6.0-3.68","2966229","co38776","norming","","","{""guess"":""cactus""}","","../img/tt/534tt.jpg","",""
"null","../img/gs/534gs.jpg","null","reveal","image-keyboard-response","486","1665123","0.0-6.0-4.68","2966229","co38776","norming","","","","","","",""
"null","../img/tt/534tt.jpg","null","mooney2","image-keyboard-response","487","1667127","0.0-6.0-5.68","2966229","co38776","norming","","","","","","",""
"2373.6999999999534","","","post_reveal_questions","survey-likert","488","1669504","0.0-6.0-6.68","2966229","co38776","norming","","","{""aha"":2}","[0]","../img/tt/534tt.jpg","",""
"null","<div style=""font-size:60px;""> </div>","null","fixation","html-keyboard-response","489","1669713","0.0-6.0-0.69","2966229","co38776","norming","","","","","","",""
"null","../img/tt/105tt.jpg","null","mooney1","image-keyboard-response","490","1672718","0.0-6.0-1.69","2966229","co38776","norming","","","","","","",""
"5166.890000000596","","","post_mooney1_questions","survey-likert","491","1677888","0.0-6.0-2.69","2966229","co38776","norming","","","{""curiosity"":5,""confidence"":2}","[0,1]","../img/tt/105tt.jpg","",""
"7014.0700000009965","","","recognition","survey-text","492","1684906","0.0-6.0-3.69","2966229","co38776","norming","","","{""guess"":""office pins""}","","../img/tt/105tt.jpg","",""
"null","../img/gs/105gs.jpg","null","reveal","image-keyboard-response","493","1686913","0.0-6.0-4.69","2966229","co38776","norming","","","","","","",""
"null","../img/tt/105tt.jpg","null","mooney2","image-keyboard-response","494","1688918","0.0-6.0-5.69","2966229","co38776","norming","","","","","","",""
"2433.0399999998044","","","post_reveal_questions","survey-likert","495","1691354","0.0-6.0-6.69","2966229","co38776","norming","","","{""aha"":1}","[0]","../img/tt/105tt.jpg","",""
"null","<div style=""font-size:60px;""> </div>","null","fixation","html-keyboard-response","496","1691560","0.0-6.0-0.70","2966229","co38776","norming","","","","","","",""
"null","../img/tt/380tt.jpg","null","mooney1","image-keyboard-response","497","1694562","0.0-6.0-1.70","2966229","co38776","norming","","","","","","",""
"5619.8300000014715","","","post_mooney1_questions","survey-likert","498","1700186","0.0-6.0-2.70","2966229","co38776","norming","","","{""curiosity"":5,""confidence"":0}","[0,1]","../img/tt/380tt.jpg","",""
"1190.2150000005495","","","recognition","survey-text","499","1701378","0.0-6.0-3.70","2966229","co38776","norming","","","{""guess"":""""}","","../img/tt/380tt.jpg","",""
"null","../img/gs/380gs.jpg","null","reveal","image-keyboard-response","500","1703389","0.0-6.0-4.70","2966229","co38776","norming","","","","","","",""
"null","../img/tt/380tt.jpg","null","mooney2","image-keyboard-response","501","1705392","0.0-6.0-5.70","2966229","co38776","norming","","","","","","",""
"2807.2599999995437","","","post_reveal_questions","survey-likert","502","1708202","0.0-6.0-6.70","2966229","co38776","norming","","","{""aha"":6}","[0]","../img/tt/380tt.jpg","",""
"null","<div style=""font-size:60px;""> </div>","null","fixation","html-keyboard-response","503","1708403","0.0-6.0-0.71","2966229","co38776","norming","","","","","","",""
"null","../img/tt/055tt.jpg","null","mooney1","image-keyboard-response","504","1711409","0.0-6.0-1.71","2966229","co38776","norming","","","","","","",""
"6077.585000000894","","","post_mooney1_questions","survey-likert","505","1717490","0.0-6.0-2.71","2966229","co38776","norming","","","{""curiosity"":5,""confidence"":0}","[0,1]","../img/tt/055tt.jpg","",""
"3109.785000000382","","","recognition","survey-text","506","1720602","0.0-6.0-3.71","2966229","co38776","norming","","","{""guess"":""horse""}","","../img/tt/055tt.jpg","",""
"null","../img/gs/055gs.jpg","null","reveal","image-keyboard-response","507","1722609","0.0-6.0-4.71","2966229","co38776","norming","","","","","","",""
"null","../img/tt/055tt.jpg","null","mooney2","image-keyboard-response","508","1724619","0.0-6.0-5.71","2966229","co38776","norming","","","","","","",""
"5148.594999998575","","","post_reveal_questions","survey-likert","509","1729770","0.0-6.0-6.71","2966229","co38776","norming","","","{""aha"":5}","[0]","../img/tt/055tt.jpg","",""
"null","<div style=""font-size:60px;""> </div>","null","fixation","html-keyboard-response","510","1729976","0.0-6.0-0.72","2966229","co38776","norming","","","","","","",""
"null","../img/tt/524tt.jpg","null","mooney1","image-keyboard-response","511","1732982","0.0-6.0-1.72","2966229","co38776","norming","","","","","","",""
"3986.1399999989662","","","post_mooney1_questions","survey-likert","512","1736970","0.0-6.0-2.72","2966229","co38776","norming","","","{""curiosity"":5,""confidence"":1}","[0,1]","../img/tt/524tt.jpg","",""
"2734.309999999823","","","recognition","survey-text","513","1739706","0.0-6.0-3.72","2966229","co38776","norming","","","{""guess"":""horse""}","","../img/tt/524tt.jpg","",""
"null","../img/gs/524gs.jpg","null","reveal","image-keyboard-response","514","1741708","0.0-6.0-4.72","2966229","co38776","norming","","","","","","",""
"null","../img/tt/524tt.jpg","null","mooney2","image-keyboard-response","515","1743720","0.0-6.0-5.72","2966229","co38776","norming","","","","","","",""
"3182.35500000068","","","post_reveal_questions","survey-likert","516","1746903","0.0-6.0-6.72","2966229","co38776","norming","","","{""aha"":6}","[0]","../img/tt/524tt.jpg","",""
"null","<div style=""font-size:60px;""> </div>","null","fixation","html-keyboard-response","517","1747104","0.0-6.0-0.73","2966229","co38776","norming","","","","","","",""
"null","../img/tt/1040tt.jpg","null","mooney1","image-keyboard-response","518","1750115","0.0-6.0-1.73","2966229","co38776","norming","","","","","","",""
"4832.604999999516","","","post_mooney1_questions","survey-likert","519","1754951","0.0-6.0-2.73","2966229","co38776","norming","","","{""curiosity"":5,""confidence"":3}","[0,1]","../img/tt/1040tt.jpg","",""
"5685.959999998799","","","recognition","survey-text","520","1760639","0.0-6.0-3.73","2966229","co38776","norming","","","{""guess"":""crocodile""}","","../img/tt/1040tt.jpg","",""
"null","../img/gs/1040gs.jpg","null","reveal","image-keyboard-response","521","1762645","0.0-6.0-4.73","2966229","co38776","norming","","","","","","",""
"null","../img/tt/1040tt.jpg","null","mooney2","image-keyboard-response","522","1764656","0.0-6.0-5.73","2966229","co38776","norming","","","","","","",""
"3916.9450000009965","","","post_reveal_questions","survey-likert","523","1768575","0.0-6.0-6.73","2966229","co38776","norming","","","{""aha"":6}","[0]","../img/tt/1040tt.jpg","",""
"null","<div style=""font-size:60px;""> </div>","null","fixation","html-keyboard-response","524","1768785","0.0-6.0-0.74","2966229","co38776","norming","","","","","","",""
"null","../img/tt/056tt.jpg","null","mooney1","image-keyboard-response","525","1771792","0.0-6.0-1.74","2966229","co38776","norming","","","","","","",""
"4147.50500000082","","","post_mooney1_questions","survey-likert","526","1775943","0.0-6.0-2.74","2966229","co38776","norming","","","{""curiosity"":5,""confidence"":1}","[0,1]","../img/tt/056tt.jpg","",""
"3925.950000000652","","","recognition","survey-text","527","1779871","0.0-6.0-3.74","2966229","co38776","norming","","","{""guess"":""animal""}","","../img/tt/056tt.jpg","",""
"null","../img/gs/056gs.jpg","null","reveal","image-keyboard-response","528","1781880","0.0-6.0-4.74","2966229","co38776","norming","","","","","","",""
"null","../img/tt/056tt.jpg","null","mooney2","image-keyboard-response","529","1783888","0.0-6.0-5.74","2966229","co38776","norming","","","","","","",""
"3747.8600000012666","","","post_reveal_questions","survey-likert","530","1787639","0.0-6.0-6.74","2966229","co38776","norming","","","{""aha"":4}","[0]","../img/tt/056tt.jpg","",""
"null","<div style=""font-size:60px;""> </div>","null","fixation","html-keyboard-response","531","1787841","0.0-6.0-0.75","2966229","co38776","norming","","","","","","",""
"null","../img/tt/1070tt.jpg","null","mooney1","image-keyboard-response","532","1790845","0.0-6.0-1.75","2966229","co38776","norming","","","","","","",""
"7854.754999998491","","","post_mooney1_questions","survey-likert","533","1798703","0.0-6.0-2.75","2966229","co38776","norming","","","{""curiosity"":5,""confidence"":1}","[0,1]","../img/tt/1070tt.jpg","",""
"3166.3499999993946","","","recognition","survey-text","534","1801871","0.0-6.0-3.75","2966229","co38776","norming","","","{""guess"":""food""}","","../img/tt/1070tt.jpg","",""
"null","../img/gs/1070gs.jpg","null","reveal","image-keyboard-response","535","1803875","0.0-6.0-4.75","2966229","co38776","norming","","","","","","",""
"null","../img/tt/1070tt.jpg","null","mooney2","image-keyboard-response","536","1805877","0.0-6.0-5.75","2966229","co38776","norming","","","","","","",""
"3289.314999999944","","","post_reveal_questions","survey-likert","537","1809167","0.0-6.0-6.75","2966229","co38776","norming","","","{""aha"":4}","[0]","../img/tt/1070tt.jpg","",""
"null","<div style=""font-size:60px;""> </div>","null","fixation","html-keyboard-response","538","1809378","0.0-6.0-0.76","2966229","co38776","norming","","","","","","",""
"null","../img/tt/1053tt.jpg","null","mooney1","image-keyboard-response","539","1812382","0.0-6.0-1.76","2966229","co38776","norming","","","","","","",""
"4189.075000000186","","","post_mooney1_questions","survey-likert","540","1816575","0.0-6.0-2.76","2966229","co38776","norming","","","{""curiosity"":5,""confidence"":1}","[0,1]","../img/tt/1053tt.jpg","",""
"2894.1250000006985","","","recognition","survey-text","541","1819471","0.0-6.0-3.76","2966229","co38776","norming","","","{""guess"":""hunting""}","","../img/tt/1053tt.jpg","",""
"null","../img/gs/1053gs.jpg","null","reveal","image-keyboard-response","542","1821480","0.0-6.0-4.76","2966229","co38776","norming","","","","","","",""
"null","../img/tt/1053tt.jpg","null","mooney2","image-keyboard-response","543","1823491","0.0-6.0-5.76","2966229","co38776","norming","","","","","","",""
"4753.76999999932","","","post_reveal_questions","survey-likert","544","1828247","0.0-6.0-6.76","2966229","co38776","norming","","","{""aha"":6}","[0]","../img/tt/1053tt.jpg","",""
"null","<div style=""font-size:60px;""> </div>","null","fixation","html-keyboard-response","545","1828449","0.0-6.0-0.77","2966229","co38776","norming","","","","","","",""
"null","../img/tt/040tt.jpg","null","mooney1","image-keyboard-response","546","1831457","0.0-6.0-1.77","2966229","co38776","norming","","","","","","",""
"6738.989999999758","","","post_mooney1_questions","survey-likert","547","1838199","0.0-6.0-2.77","2966229","co38776","norming","","","{""curiosity"":5,""confidence"":0}","[0,1]","../img/tt/040tt.jpg","",""
"1133.980000000447","","","recognition","survey-text","548","1839335","0.0-6.0-3.77","2966229","co38776","norming","","","{""guess"":""""}","","../img/tt/040tt.jpg","",""
"null","../img/gs/040gs.jpg","null","reveal","image-keyboard-response","549","1841342","0.0-6.0-4.77","2966229","co38776","norming","","","","","","",""
"null","../img/tt/040tt.jpg","null","mooney2","image-keyboard-response","550","1843344","0.0-6.0-5.77","2966229","co38776","norming","","","","","","",""
"3036.374999999767","","","post_reveal_questions","survey-likert","551","1846383","0.0-6.0-6.77","2966229","co38776","norming","","","{""aha"":6}","[0]","../img/tt/040tt.jpg","",""
"null","<div style=""font-size:60px;""> </div>","null","fixation","html-keyboard-response","552","1846592","0.0-6.0-0.78","2966229","co38776","norming","","","","","","",""
