"rt","stimulus","key_press","test_part","trial_type","trial_index","time_elapsed","internal_node_id","totalTime","subject","experiment_name","button_pressed","success","responses","question_order","currentStim","old","correct"
"42560.24999999863","Welcome to the experiment. This is an online experiment so please don't close the tab/window until we say goodbye.  Press any key to begin.","32","instructions","html-keyboard-response","0","42560","0.0-0.0","3046366","co38125","norming","","","","","","",""
"25504.25500000165","<div style='word-wrap: break-word; width: 900px'><h3>Please consider this information carefully before deciding whether to participate in this research</h3><ul style='text-align: left; font-size: .8em;'><li><b>Purpose of the research</b>: To examine how people process images.</li><li><b>What you will do in this research</b>:  Stimuli (images) will be presented on the computer and you will be asked different questions about them.</li><li><b>Time required</b>: Participation will take between 45 and 60 minutes to complete.</li><li><b>Risks</b>:  There are no anticipated risks associated with participating in this study. The effects of participating should be comparable to those you would experience from viewing a computer monitor for 30 minutes and using a mouse or keyboard.</li><li><b>Benefits</b>:  This study provides no benefits to you individually except for the credit. The study provides important information about the nature of perception and learning.</li><li><b>Confidentiality</b>:  Your participation in this study will remain confidential. No personally identifiable information will be associated with your data. Your de-identified data may be shared with other researchers and used in future projects.</li><li><b>Participation and withdrawal</b>:  Your participation in this study is completely voluntary and you may refuse to participate or you may choose to withdraw at any time without penalty.</li><li><b>How to contact the researchers</b>: If you have questions or concerns about your participation or payment, or want to request a summary of research findings, please contact Sander Van de Cruys (KU Leuven), at sander.vandecruys@kuleuven.be.</li></ul><p>The nature and purpose of this research have been sufficiently explained and I agree to participate in this study.  I understand that I am free to withdraw at any time without incurring any penalty.</p><p>Please consent by clicking the button below to continue. Otherwise, please exit the study at this time.</p></div>","","instructions","html-button-response","1","68068","0.0-1.0","3046366","co38125","norming","0","","","","","",""
"","","","instructions","fullscreen","2","74614","0.0-2.0","3046366","co38125","norming","","true","","","","",""
"32979.02500000055","","","sona","survey-html-form","3","107597","0.0-3.0","3046366","co38125","norming","","","[{""name"":""sonaid"",""value"":""38125""},{""name"":""debrief"",""value"":""yes""},{""name"":""datajoin"",""value"":""yes""}]","","","",""
"67102.3700000005","<div style='word-wrap: break-word; width: 900px'><h3>Instructions</h3><p>This experiment will have 3 parts. In the first part you will see a series of distorted images like the one below on the left. As you can see in the righthand image, the distorted images are derived from actual photographs. In what follows, you will <strong>briefly</strong> be presented with <strong>only</strong> the distorted image.</p> <div style='float: left; margin-right: 20px;'><img src='../img/018tt.jpg' height='250' width='250'></img></div><div style='float: right; margin-left: 20px;'><img src='../img/018gs.jpg' height='250' width='250'></img></div><p>Subsequently you will be asked a few questions about the image: One question on how <strong>curious</strong> you are about the solution and one on how <strong>confident</strong> you are that you know the solution.</p>Next, we ask you to make a guess on what is in the image. Note that it is OK to name just the <strong>basic level category</strong>. For example when you see a parrot in the image, 'parrot' will obviously be a correct answer but also correct is 'bird'. However, 'animal' will <strong>not</strong> be counted as a correct response. For the example above, 'rose' would be correct or 'flower', but not 'plant'. When soccer players are depicted, 'soccer', 'football', 'soccer players' will be correct, but not 'humans', 'outdoors', or 'sports'. You do not need to describe the image in full, just name the main object in it <strong>in one or two words</strong>. All images depict objects from one of the following broad level categories: animals, inanimate objects, plants, sports, vehicles, and food. Recognizing means knowing <strong>more</strong> than these broad labels for a given image. But we always encourage you to <strong>make a guess</strong> if you can. Note that you are allowed to use <strong>Dutch and English</strong> in your answers, whatever comes easiest for you.</p><p>Press any key to continue.</p></div>","32","instructions","html-keyboard-response","4","174703","0.0-4.0","3046366","co38125","norming","","","","","","",""
"41872.354999999516","<div style='word-wrap: break-word; width: 900px'><h3>Instructions</h3> <p>Next, the solution image will be revealed to you and you'll be asked to indicate how strong your <strong>aha-experience</strong> was after seeing the solution. This describes the positive feeling of the 'click' you sometimes experience, when the pieces of the 'puzzle' fall together and you suddenly have 'insight' in the image.</p><img src='aha.jpg' height='188' width='250'></img><p>Note that there are no right or wrong answers. We are interested in what <strong>you</strong> see in the image and how <strong>you</strong> feel about it.</p><p>Press any key to start the experiment.</p></div>","32","instructions","html-keyboard-response","5","216577","0.0-5.0","3046366","co38125","norming","","","","","","",""
"null","<div style=""font-size:60px;""> </div>","null","fixation","html-keyboard-response","6","216784","0.0-6.0-0.0","3046366","co38125","norming","","","","","","",""
"null","../img/tt/1102tt.jpg","null","mooney1","image-keyboard-response","7","219789","0.0-6.0-1.0","3046366","co38125","norming","","","","","","",""
"13414.70499999926","","","post_mooney1_questions","survey-likert","8","233208","0.0-6.0-2.0","3046366","co38125","norming","","","{""curiosity"":5,""confidence"":1}","[0,1]","../img/tt/1102tt.jpg","",""
"23021.515000000363","","","recognition","survey-text","9","256226","0.0-6.0-3.0","3046366","co38125","norming","","","{""guess"":""slapend meisje""}","","../img/tt/1102tt.jpg","",""
"null","../img/gs/1102gs.jpg","null","reveal","image-keyboard-response","10","258236","0.0-6.0-4.0","3046366","co38125","norming","","","","","","",""
"null","../img/tt/1102tt.jpg","null","mooney2","image-keyboard-response","11","260245","0.0-6.0-5.0","3046366","co38125","norming","","","","","","",""
"6091.280000000523","","","post_reveal_questions","survey-likert","12","266338","0.0-6.0-6.0","3046366","co38125","norming","","","{""aha"":5}","[0]","../img/tt/1102tt.jpg","",""
"null","<div style=""font-size:60px;""> </div>","null","fixation","html-keyboard-response","13","266543","0.0-6.0-0.1","3046366","co38125","norming","","","","","","",""
"null","../img/tt/1202tt.jpg","null","mooney1","image-keyboard-response","14","269553","0.0-6.0-1.1","3046366","co38125","norming","","","","","","",""
"8359.709999998857","","","post_mooney1_questions","survey-likert","15","277914","0.0-6.0-2.1","3046366","co38125","norming","","","{""curiosity"":4,""confidence"":0}","[0,1]","../img/tt/1202tt.jpg","",""
"1750.0900000013644","","","recognition","survey-text","16","279666","0.0-6.0-3.1","3046366","co38125","norming","","","{""guess"":""""}","","../img/tt/1202tt.jpg","",""
"null","../img/gs/1202gs.jpg","null","reveal","image-keyboard-response","17","281672","0.0-6.0-4.1","3046366","co38125","norming","","","","","","",""
"null","../img/tt/1202tt.jpg","null","mooney2","image-keyboard-response","18","283680","0.0-6.0-5.1","3046366","co38125","norming","","","","","","",""
"6279.914999999106","","","post_reveal_questions","survey-likert","19","289962","0.0-6.0-6.1","3046366","co38125","norming","","","{""aha"":5}","[0]","../img/tt/1202tt.jpg","",""
"null","<div style=""font-size:60px;""> </div>","null","fixation","html-keyboard-response","20","290165","0.0-6.0-0.2","3046366","co38125","norming","","","","","","",""
"null","../img/tt/301tt.jpg","null","mooney1","image-keyboard-response","21","293176","0.0-6.0-1.2","3046366","co38125","norming","","","","","","",""
"12704.594999999215","","","post_mooney1_questions","survey-likert","22","305882","0.0-6.0-2.2","3046366","co38125","norming","","","{""curiosity"":5,""confidence"":1}","[0,1]","../img/tt/301tt.jpg","",""
"14445.8099999993","","","recognition","survey-text","23","320336","0.0-6.0-3.2","3046366","co38125","norming","","","{""guess"":""raam""}","","../img/tt/301tt.jpg","",""
"null","../img/gs/301gs.jpg","null","reveal","image-keyboard-response","24","322345","0.0-6.0-4.2","3046366","co38125","norming","","","","","","",""
"null","../img/tt/301tt.jpg","null","mooney2","image-keyboard-response","25","324354","0.0-6.0-5.2","3046366","co38125","norming","","","","","","",""
"5131.5450000002165","","","post_reveal_questions","survey-likert","26","329488","0.0-6.0-6.2","3046366","co38125","norming","","","{""aha"":4}","[0]","../img/tt/301tt.jpg","",""
"null","<div style=""font-size:60px;""> </div>","null","fixation","html-keyboard-response","27","329694","0.0-6.0-0.3","3046366","co38125","norming","","","","","","",""
"null","../img/tt/010tt.jpg","null","mooney1","image-keyboard-response","28","332695","0.0-6.0-1.3","3046366","co38125","norming","","","","","","",""
"6167.615000000282","","","post_mooney1_questions","survey-likert","29","338864","0.0-6.0-2.3","3046366","co38125","norming","","","{""curiosity"":4,""confidence"":2}","[0,1]","../img/tt/010tt.jpg","",""
"3230.0749999994878","","","recognition","survey-text","30","342096","0.0-6.0-3.3","3046366","co38125","norming","","","{""guess"":""beker""}","","../img/tt/010tt.jpg","",""
"null","../img/gs/010gs.jpg","null","reveal","image-keyboard-response","31","344098","0.0-6.0-4.3","3046366","co38125","norming","","","","","","",""
"null","../img/tt/010tt.jpg","null","mooney2","image-keyboard-response","32","346102","0.0-6.0-5.3","3046366","co38125","norming","","","","","","",""
"4073.2500000012806","","","post_reveal_questions","survey-likert","33","350176","0.0-6.0-6.3","3046366","co38125","norming","","","{""aha"":4}","[0]","../img/tt/010tt.jpg","",""
"null","<div style=""font-size:60px;""> </div>","null","fixation","html-keyboard-response","34","350384","0.0-6.0-0.4","3046366","co38125","norming","","","","","","",""
"null","../img/tt/1199tt.jpg","null","mooney1","image-keyboard-response","35","353390","0.0-6.0-1.4","3046366","co38125","norming","","","","","","",""
"5440.85500000068","","","post_mooney1_questions","survey-likert","36","358832","0.0-6.0-2.4","3046366","co38125","norming","","","{""curiosity"":4,""confidence"":2}","[0,1]","../img/tt/1199tt.jpg","",""
"4598.224999999744","","","recognition","survey-text","37","363432","0.0-6.0-3.4","3046366","co38125","norming","","","{""guess"":""skateboard""}","","../img/tt/1199tt.jpg","",""
"null","../img/gs/1199gs.jpg","null","reveal","image-keyboard-response","38","365436","0.0-6.0-4.4","3046366","co38125","norming","","","","","","",""
"null","../img/tt/1199tt.jpg","null","mooney2","image-keyboard-response","39","367448","0.0-6.0-5.4","3046366","co38125","norming","","","","","","",""
"4046.9749999993364","","","post_reveal_questions","survey-likert","40","371496","0.0-6.0-6.4","3046366","co38125","norming","","","{""aha"":5}","[0]","../img/tt/1199tt.jpg","",""
"null","<div style=""font-size:60px;""> </div>","null","fixation","html-keyboard-response","41","371701","0.0-6.0-0.5","3046366","co38125","norming","","","","","","",""
"null","../img/tt/1188tt.jpg","null","mooney1","image-keyboard-response","42","374702","0.0-6.0-1.5","3046366","co38125","norming","","","","","","",""
"12816.675000000047","","","post_mooney1_questions","survey-likert","43","387518","0.0-6.0-2.5","3046366","co38125","norming","","","{""curiosity"":5,""confidence"":0}","[0,1]","../img/tt/1188tt.jpg","",""
"885.9250000005122","","","recognition","survey-text","44","388406","0.0-6.0-3.5","3046366","co38125","norming","","","{""guess"":""""}","","../img/tt/1188tt.jpg","",""
"null","../img/gs/1188gs.jpg","null","reveal","image-keyboard-response","45","390409","0.0-6.0-4.5","3046366","co38125","norming","","","","","","",""
"null","../img/tt/1188tt.jpg","null","mooney2","image-keyboard-response","46","392411","0.0-6.0-5.5","3046366","co38125","norming","","","","","","",""
"4346.639999999723","","","post_reveal_questions","survey-likert","47","396758","0.0-6.0-6.5","3046366","co38125","norming","","","{""aha"":4}","[0]","../img/tt/1188tt.jpg","",""
"null","<div style=""font-size:60px;""> </div>","null","fixation","html-keyboard-response","48","396962","0.0-6.0-0.6","3046366","co38125","norming","","","","","","",""
"null","../img/tt/1283tt.jpg","null","mooney1","image-keyboard-response","49","399967","0.0-6.0-1.6","3046366","co38125","norming","","","","","","",""
"6078.134999999718","","","post_mooney1_questions","survey-likert","50","406046","0.0-6.0-2.6","3046366","co38125","norming","","","{""curiosity"":5,""confidence"":0}","[0,1]","../img/tt/1283tt.jpg","",""
"837.9050000002608","","","recognition","survey-text","51","406886","0.0-6.0-3.6","3046366","co38125","norming","","","{""guess"":""""}","","../img/tt/1283tt.jpg","",""
"null","../img/gs/1283gs.jpg","null","reveal","image-keyboard-response","52","408894","0.0-6.0-4.6","3046366","co38125","norming","","","","","","",""
"null","../img/tt/1283tt.jpg","null","mooney2","image-keyboard-response","53","410897","0.0-6.0-5.6","3046366","co38125","norming","","","","","","",""
"6739.770000000135","","","post_reveal_questions","survey-likert","54","417638","0.0-6.0-6.6","3046366","co38125","norming","","","{""aha"":4}","[0]","../img/tt/1283tt.jpg","",""
"null","<div style=""font-size:60px;""> </div>","null","fixation","html-keyboard-response","55","417844","0.0-6.0-0.7","3046366","co38125","norming","","","","","","",""
"null","../img/tt/1171tt.jpg","null","mooney1","image-keyboard-response","56","420853","0.0-6.0-1.7","3046366","co38125","norming","","","","","","",""
"4536.519999999669","","","post_mooney1_questions","survey-likert","57","425390","0.0-6.0-2.7","3046366","co38125","norming","","","{""curiosity"":4,""confidence"":1}","[0,1]","../img/tt/1171tt.jpg","",""
"3573.9700000012526","","","recognition","survey-text","58","428966","0.0-6.0-3.7","3046366","co38125","norming","","","{""guess"":""spook""}","","../img/tt/1171tt.jpg","",""
"null","../img/gs/1171gs.jpg","null","reveal","image-keyboard-response","59","430972","0.0-6.0-4.7","3046366","co38125","norming","","","","","","",""
"null","../img/tt/1171tt.jpg","null","mooney2","image-keyboard-response","60","432975","0.0-6.0-5.7","3046366","co38125","norming","","","","","","",""
"2870.360000000801","","","post_reveal_questions","survey-likert","61","435846","0.0-6.0-6.7","3046366","co38125","norming","","","{""aha"":4}","[0]","../img/tt/1171tt.jpg","",""
"null","<div style=""font-size:60px;""> </div>","null","fixation","html-keyboard-response","62","436055","0.0-6.0-0.8","3046366","co38125","norming","","","","","","",""
"null","../img/tt/442tt.jpg","null","mooney1","image-keyboard-response","63","439065","0.0-6.0-1.8","3046366","co38125","norming","","","","","","",""
"4811.919999998296","","","post_mooney1_questions","survey-likert","64","443879","0.0-6.0-2.8","3046366","co38125","norming","","","{""curiosity"":4,""confidence"":1}","[0,1]","../img/tt/442tt.jpg","",""
"2981.9700000007288","","","recognition","survey-text","65","446862","0.0-6.0-3.8","3046366","co38125","norming","","","{""guess"":""uil""}","","../img/tt/442tt.jpg","",""
"null","../img/gs/442gs.jpg","null","reveal","image-keyboard-response","66","448868","0.0-6.0-4.8","3046366","co38125","norming","","","","","","",""
"null","../img/tt/442tt.jpg","null","mooney2","image-keyboard-response","67","450879","0.0-6.0-5.8","3046366","co38125","norming","","","","","","",""
"5966.744999999704","","","post_reveal_questions","survey-likert","68","456847","0.0-6.0-6.8","3046366","co38125","norming","","","{""aha"":3}","[0]","../img/tt/442tt.jpg","",""
"null","<div style=""font-size:60px;""> </div>","null","fixation","html-keyboard-response","69","457053","0.0-6.0-0.9","3046366","co38125","norming","","","","","","",""
"null","../img/tt/1154tt.jpg","null","mooney1","image-keyboard-response","70","460057","0.0-6.0-1.9","3046366","co38125","norming","","","","","","",""
"7677.050000000279","","","post_mooney1_questions","survey-likert","71","467735","0.0-6.0-2.9","3046366","co38125","norming","","","{""curiosity"":5,""confidence"":3}","[0,1]","../img/tt/1154tt.jpg","",""
"3925.9799999999814","","","recognition","survey-text","72","471662","0.0-6.0-3.9","3046366","co38125","norming","","","{""guess"":""wielrenner""}","","../img/tt/1154tt.jpg","",""
"null","../img/gs/1154gs.jpg","null","reveal","image-keyboard-response","73","473664","0.0-6.0-4.9","3046366","co38125","norming","","","","","","",""
"null","../img/tt/1154tt.jpg","null","mooney2","image-keyboard-response","74","475670","0.0-6.0-5.9","3046366","co38125","norming","","","","","","",""
"9367.470000001078","","","post_reveal_questions","survey-likert","75","485038","0.0-6.0-6.9","3046366","co38125","norming","","","{""aha"":4}","[0]","../img/tt/1154tt.jpg","",""
"null","<div style=""font-size:60px;""> </div>","null","fixation","html-keyboard-response","76","485244","0.0-6.0-0.10","3046366","co38125","norming","","","","","","",""
"null","../img/tt/552tt.jpg","null","mooney1","image-keyboard-response","77","488255","0.0-6.0-1.10","3046366","co38125","norming","","","","","","",""
"9438.790000000154","","","post_mooney1_questions","survey-likert","78","497695","0.0-6.0-2.10","3046366","co38125","norming","","","{""curiosity"":5,""confidence"":4}","[0,1]","../img/tt/552tt.jpg","",""
"3340.9800000008545","","","recognition","survey-text","79","501038","0.0-6.0-3.10","3046366","co38125","norming","","","{""guess"":""eekhoorn""}","","../img/tt/552tt.jpg","",""
"null","../img/gs/552gs.jpg","null","reveal","image-keyboard-response","80","503048","0.0-6.0-4.10","3046366","co38125","norming","","","","","","",""
"null","../img/tt/552tt.jpg","null","mooney2","image-keyboard-response","81","505049","0.0-6.0-5.10","3046366","co38125","norming","","","","","","",""
"3672.135000000708","","","post_reveal_questions","survey-likert","82","508722","0.0-6.0-6.10","3046366","co38125","norming","","","{""aha"":2}","[0]","../img/tt/552tt.jpg","",""
"null","<div style=""font-size:60px;""> </div>","null","fixation","html-keyboard-response","83","508932","0.0-6.0-0.11","3046366","co38125","norming","","","","","","",""
"null","../img/tt/1254tt.jpg","null","mooney1","image-keyboard-response","84","511935","0.0-6.0-1.11","3046366","co38125","norming","","","","","","",""
"4226.35500000068","","","post_mooney1_questions","survey-likert","85","516163","0.0-6.0-2.11","3046366","co38125","norming","","","{""curiosity"":5,""confidence"":3}","[0,1]","../img/tt/1254tt.jpg","",""
"3510.1699999995762","","","recognition","survey-text","86","519674","0.0-6.0-3.11","3046366","co38125","norming","","","{""guess"":""ezel""}","","../img/tt/1254tt.jpg","",""
"null","../img/gs/1254gs.jpg","null","reveal","image-keyboard-response","87","521681","0.0-6.0-4.11","3046366","co38125","norming","","","","","","",""
"null","../img/tt/1254tt.jpg","null","mooney2","image-keyboard-response","88","523685","0.0-6.0-5.11","3046366","co38125","norming","","","","","","",""
"3708.6350000009406","","","post_reveal_questions","survey-likert","89","527394","0.0-6.0-6.11","3046366","co38125","norming","","","{""aha"":4}","[0]","../img/tt/1254tt.jpg","",""
"null","<div style=""font-size:60px;""> </div>","null","fixation","html-keyboard-response","90","527600","0.0-6.0-0.12","3046366","co38125","norming","","","","","","",""
"null","../img/tt/1269tt.jpg","null","mooney1","image-keyboard-response","91","530611","0.0-6.0-1.12","3046366","co38125","norming","","","","","","",""
"7199.074999998673","","","post_mooney1_questions","survey-likert","92","537811","0.0-6.0-2.12","3046366","co38125","norming","","","{""curiosity"":5,""confidence"":3}","[0,1]","../img/tt/1269tt.jpg","",""
"3246.094999998575","","","recognition","survey-text","93","541059","0.0-6.0-3.12","3046366","co38125","norming","","","{""guess"":""zebra""}","","../img/tt/1269tt.jpg","",""
"null","../img/gs/1269gs.jpg","null","reveal","image-keyboard-response","94","543063","0.0-6.0-4.12","3046366","co38125","norming","","","","","","",""
"null","../img/tt/1269tt.jpg","null","mooney2","image-keyboard-response","95","545067","0.0-6.0-5.12","3046366","co38125","norming","","","","","","",""
"4486.205000001122","","","post_reveal_questions","survey-likert","96","549555","0.0-6.0-6.12","3046366","co38125","norming","","","{""aha"":4}","[0]","../img/tt/1269tt.jpg","",""
"null","<div style=""font-size:60px;""> </div>","null","fixation","html-keyboard-response","97","549761","0.0-6.0-0.13","3046366","co38125","norming","","","","","","",""
"null","../img/tt/1241tt.jpg","null","mooney1","image-keyboard-response","98","552768","0.0-6.0-1.13","3046366","co38125","norming","","","","","","",""
"7041.529999998631","","","post_mooney1_questions","survey-likert","99","559811","0.0-6.0-2.13","3046366","co38125","norming","","","{""curiosity"":5,""confidence"":4}","[0,1]","../img/tt/1241tt.jpg","",""
"3981.710000000079","","","recognition","survey-text","100","563794","0.0-6.0-3.13","3046366","co38125","norming","","","{""guess"":""kat""}","","../img/tt/1241tt.jpg","",""
"null","../img/gs/1241gs.jpg","null","reveal","image-keyboard-response","101","565801","0.0-6.0-4.13","3046366","co38125","norming","","","","","","",""
"null","../img/tt/1241tt.jpg","null","mooney2","image-keyboard-response","102","567807","0.0-6.0-5.13","3046366","co38125","norming","","","","","","",""
"3722.490000000107","","","post_reveal_questions","survey-likert","103","571530","0.0-6.0-6.13","3046366","co38125","norming","","","{""aha"":2}","[0]","../img/tt/1241tt.jpg","",""
"null","<div style=""font-size:60px;""> </div>","null","fixation","html-keyboard-response","104","571732","0.0-6.0-0.14","3046366","co38125","norming","","","","","","",""
"null","../img/tt/1128tt.jpg","null","mooney1","image-keyboard-response","105","574741","0.0-6.0-1.14","3046366","co38125","norming","","","","","","",""
"5588.194999998435","","","post_mooney1_questions","survey-likert","106","580331","0.0-6.0-2.14","3046366","co38125","norming","","","{""curiosity"":5,""confidence"":1}","[0,1]","../img/tt/1128tt.jpg","",""
"3797.644999998738","","","recognition","survey-text","107","584130","0.0-6.0-3.14","3046366","co38125","norming","","","{""guess"":""paard""}","","../img/tt/1128tt.jpg","",""
"null","../img/gs/1128gs.jpg","null","reveal","image-keyboard-response","108","586139","0.0-6.0-4.14","3046366","co38125","norming","","","","","","",""
"null","../img/tt/1128tt.jpg","null","mooney2","image-keyboard-response","109","588150","0.0-6.0-5.14","3046366","co38125","norming","","","","","","",""
"2923.7699999994365","","","post_reveal_questions","survey-likert","110","591074","0.0-6.0-6.14","3046366","co38125","norming","","","{""aha"":2}","[0]","../img/tt/1128tt.jpg","",""
"null","<div style=""font-size:60px;""> </div>","null","fixation","html-keyboard-response","111","591278","0.0-6.0-0.15","3046366","co38125","norming","","","","","","",""
"null","../img/tt/222tt.jpg","null","mooney1","image-keyboard-response","112","594285","0.0-6.0-1.15","3046366","co38125","norming","","","","","","",""
"7100.510000000242","","","post_mooney1_questions","survey-likert","113","601387","0.0-6.0-2.15","3046366","co38125","norming","","","{""curiosity"":4,""confidence"":0}","[0,1]","../img/tt/222tt.jpg","",""
"966.1500000002561","","","recognition","survey-text","114","602354","0.0-6.0-3.15","3046366","co38125","norming","","","{""guess"":""""}","","../img/tt/222tt.jpg","",""
"null","../img/gs/222gs.jpg","null","reveal","image-keyboard-response","115","604365","0.0-6.0-4.15","3046366","co38125","norming","","","","","","",""
"null","../img/tt/222tt.jpg","null","mooney2","image-keyboard-response","116","606375","0.0-6.0-5.15","3046366","co38125","norming","","","","","","",""
"2922.2900000003865","","","post_reveal_questions","survey-likert","117","609298","0.0-6.0-6.15","3046366","co38125","norming","","","{""aha"":5}","[0]","../img/tt/222tt.jpg","",""
"null","<div style=""font-size:60px;""> </div>","null","fixation","html-keyboard-response","118","609506","0.0-6.0-0.16","3046366","co38125","norming","","","","","","",""
"null","../img/tt/1080tt.jpg","null","mooney1","image-keyboard-response","119","612513","0.0-6.0-1.16","3046366","co38125","norming","","","","","","",""
"11727.820000000065","","","post_mooney1_questions","survey-likert","120","624234","0.0-6.0-2.16","3046366","co38125","norming","","","{""curiosity"":5,""confidence"":0}","[0,1]","../img/tt/1080tt.jpg","",""
"926.0200000008335","","","recognition","survey-text","121","625162","0.0-6.0-3.16","3046366","co38125","norming","","","{""guess"":""""}","","../img/tt/1080tt.jpg","",""
"null","../img/gs/1080gs.jpg","null","reveal","image-keyboard-response","122","627170","0.0-6.0-4.16","3046366","co38125","norming","","","","","","",""
"null","../img/tt/1080tt.jpg","null","mooney2","image-keyboard-response","123","629171","0.0-6.0-5.16","3046366","co38125","norming","","","","","","",""
"3557.6550000004936","","","post_reveal_questions","survey-likert","124","632730","0.0-6.0-6.16","3046366","co38125","norming","","","{""aha"":4}","[0]","../img/tt/1080tt.jpg","",""
"null","<div style=""font-size:60px;""> </div>","null","fixation","html-keyboard-response","125","632933","0.0-6.0-0.17","3046366","co38125","norming","","","","","","",""
"null","../img/tt/1049tt.jpg","null","mooney1","image-keyboard-response","126","635938","0.0-6.0-1.17","3046366","co38125","norming","","","","","","",""
"4495.175000000047","","","post_mooney1_questions","survey-likert","127","640434","0.0-6.0-2.17","3046366","co38125","norming","","","{""curiosity"":4,""confidence"":1}","[0,1]","../img/tt/1049tt.jpg","",""
"2541.5050000010524","","","recognition","survey-text","128","642978","0.0-6.0-3.17","3046366","co38125","norming","","","{""guess"":""geit""}","","../img/tt/1049tt.jpg","",""
"null","../img/gs/1049gs.jpg","null","reveal","image-keyboard-response","129","644987","0.0-6.0-4.17","3046366","co38125","norming","","","","","","",""
"null","../img/tt/1049tt.jpg","null","mooney2","image-keyboard-response","130","646997","0.0-6.0-5.17","3046366","co38125","norming","","","","","","",""
"2884.065000000177","","","post_reveal_questions","survey-likert","131","649882","0.0-6.0-6.17","3046366","co38125","norming","","","{""aha"":1}","[0]","../img/tt/1049tt.jpg","",""
"null","<div style=""font-size:60px;""> </div>","null","fixation","html-keyboard-response","132","650093","0.0-6.0-0.18","3046366","co38125","norming","","","","","","",""
"null","../img/tt/055tt.jpg","null","mooney1","image-keyboard-response","133","653102","0.0-6.0-1.18","3046366","co38125","norming","","","","","","",""
"10010.35500000033","","","post_mooney1_questions","survey-likert","134","663114","0.0-6.0-2.18","3046366","co38125","norming","","","{""curiosity"":4,""confidence"":2}","[0,1]","../img/tt/055tt.jpg","",""
"3831.6450000002515","","","recognition","survey-text","135","666947","0.0-6.0-3.18","3046366","co38125","norming","","","{""guess"":""trommel""}","","../img/tt/055tt.jpg","",""
"null","../img/gs/055gs.jpg","null","reveal","image-keyboard-response","136","668950","0.0-6.0-4.18","3046366","co38125","norming","","","","","","",""
"null","../img/tt/055tt.jpg","null","mooney2","image-keyboard-response","137","670954","0.0-6.0-5.18","3046366","co38125","norming","","","","","","",""
"3567.480000001495","","","post_reveal_questions","survey-likert","138","674522","0.0-6.0-6.18","3046366","co38125","norming","","","{""aha"":3}","[0]","../img/tt/055tt.jpg","",""
"null","<div style=""font-size:60px;""> </div>","null","fixation","html-keyboard-response","139","674727","0.0-6.0-0.19","3046366","co38125","norming","","","","","","",""
"null","../img/tt/1126tt.jpg","null","mooney1","image-keyboard-response","140","677728","0.0-6.0-1.19","3046366","co38125","norming","","","","","","",""
"11384.624999998836","","","post_mooney1_questions","survey-likert","141","689117","0.0-6.0-2.19","3046366","co38125","norming","","","{""curiosity"":1,""confidence"":1}","[0,1]","../img/tt/1126tt.jpg","",""
"3094.069999999134","","","recognition","survey-text","142","692212","0.0-6.0-3.19","3046366","co38125","norming","","","{""guess"":""klimmer""}","","../img/tt/1126tt.jpg","",""
"null","../img/gs/1126gs.jpg","null","reveal","image-keyboard-response","143","694220","0.0-6.0-4.19","3046366","co38125","norming","","","","","","",""
"null","../img/tt/1126tt.jpg","null","mooney2","image-keyboard-response","144","696221","0.0-6.0-5.19","3046366","co38125","norming","","","","","","",""
"6014.869999999064","","","post_reveal_questions","survey-likert","145","702237","0.0-6.0-6.19","3046366","co38125","norming","","","{""aha"":5}","[0]","../img/tt/1126tt.jpg","",""
"null","<div style=""font-size:60px;""> </div>","null","fixation","html-keyboard-response","146","702438","0.0-6.0-0.20","3046366","co38125","norming","","","","","","",""
"null","../img/tt/040tt.jpg","null","mooney1","image-keyboard-response","147","705439","0.0-6.0-1.20","3046366","co38125","norming","","","","","","",""
"5548.585000000545","","","post_mooney1_questions","survey-likert","148","710989","0.0-6.0-2.20","3046366","co38125","norming","","","{""curiosity"":6,""confidence"":3}","[0,1]","../img/tt/040tt.jpg","",""
"5165.78500000108","","","recognition","survey-text","149","716156","0.0-6.0-3.20","3046366","co38125","norming","","","{""guess"":""cowboy""}","","../img/tt/040tt.jpg","",""
"null","../img/gs/040gs.jpg","null","reveal","image-keyboard-response","150","718162","0.0-6.0-4.20","3046366","co38125","norming","","","","","","",""
"null","../img/tt/040tt.jpg","null","mooney2","image-keyboard-response","151","720168","0.0-6.0-5.20","3046366","co38125","norming","","","","","","",""
"2835.9299999993527","","","post_reveal_questions","survey-likert","152","723005","0.0-6.0-6.20","3046366","co38125","norming","","","{""aha"":2}","[0]","../img/tt/040tt.jpg","",""
"null","<div style=""font-size:60px;""> </div>","null","fixation","html-keyboard-response","153","723207","0.0-6.0-0.21","3046366","co38125","norming","","","","","","",""
"null","../img/tt/1024tt.jpg","null","mooney1","image-keyboard-response","154","726208","0.0-6.0-1.21","3046366","co38125","norming","","","","","","",""
"2715.275000000489","","","post_mooney1_questions","survey-likert","155","728925","0.0-6.0-2.21","3046366","co38125","norming","","","{""curiosity"":6,""confidence"":6}","[0,1]","../img/tt/1024tt.jpg","",""
"25566.390000000014","","","recognition","survey-text","156","754499","0.0-6.0-3.21","3046366","co38125","norming","","","{""guess"":""tennisspeler""}","","../img/tt/1024tt.jpg","",""
"null","../img/gs/1024gs.jpg","null","reveal","image-keyboard-response","157","756506","0.0-6.0-4.21","3046366","co38125","norming","","","","","","",""
"null","../img/tt/1024tt.jpg","null","mooney2","image-keyboard-response","158","758508","0.0-6.0-5.21","3046366","co38125","norming","","","","","","",""
"4189.64000000048","","","post_reveal_questions","survey-likert","159","762699","0.0-6.0-6.21","3046366","co38125","norming","","","{""aha"":0}","[0]","../img/tt/1024tt.jpg","",""
"null","<div style=""font-size:60px;""> </div>","null","fixation","html-keyboard-response","160","762909","0.0-6.0-0.22","3046366","co38125","norming","","","","","","",""
"null","../img/tt/076tt.jpg","null","mooney1","image-keyboard-response","161","765915","0.0-6.0-1.22","3046366","co38125","norming","","","","","","",""
"3070.6800000006333","","","post_mooney1_questions","survey-likert","162","768987","0.0-6.0-2.22","3046366","co38125","norming","","","{""curiosity"":6,""confidence"":6}","[0,1]","../img/tt/076tt.jpg","",""
"3645.905000001192","","","recognition","survey-text","163","772635","0.0-6.0-3.22","3046366","co38125","norming","","","{""guess"":""rolschaatsen""}","","../img/tt/076tt.jpg","",""
"null","../img/gs/076gs.jpg","null","reveal","image-keyboard-response","164","774644","0.0-6.0-4.22","3046366","co38125","norming","","","","","","",""
"null","../img/tt/076tt.jpg","null","mooney2","image-keyboard-response","165","776649","0.0-6.0-5.22","3046366","co38125","norming","","","","","","",""
"2225.3650000002235","","","post_reveal_questions","survey-likert","166","778875","0.0-6.0-6.22","3046366","co38125","norming","","","{""aha"":0}","[0]","../img/tt/076tt.jpg","",""
"null","<div style=""font-size:60px;""> </div>","null","fixation","html-keyboard-response","167","779082","0.0-6.0-0.23","3046366","co38125","norming","","","","","","",""
"null","../img/tt/081tt.jpg","null","mooney1","image-keyboard-response","168","782089","0.0-6.0-1.23","3046366","co38125","norming","","","","","","",""
"3096.799999999348","","","post_mooney1_questions","survey-likert","169","785187","0.0-6.0-2.23","3046366","co38125","norming","","","{""curiosity"":5,""confidence"":4}","[0,1]","../img/tt/081tt.jpg","",""
"2333.7849999988684","","","recognition","survey-text","170","787523","0.0-6.0-3.23","3046366","co38125","norming","","","{""guess"":""slang""}","","../img/tt/081tt.jpg","",""
"null","../img/gs/081gs.jpg","null","reveal","image-keyboard-response","171","789528","0.0-6.0-4.23","3046366","co38125","norming","","","","","","",""
"null","../img/tt/081tt.jpg","null","mooney2","image-keyboard-response","172","791530","0.0-6.0-5.23","3046366","co38125","norming","","","","","","",""
"2718.5900000003166","","","post_reveal_questions","survey-likert","173","794251","0.0-6.0-6.23","3046366","co38125","norming","","","{""aha"":5}","[0]","../img/tt/081tt.jpg","",""
"null","<div style=""font-size:60px;""> </div>","null","fixation","html-keyboard-response","174","794460","0.0-6.0-0.24","3046366","co38125","norming","","","","","","",""
"null","../img/tt/1097tt.jpg","null","mooney1","image-keyboard-response","175","797465","0.0-6.0-1.24","3046366","co38125","norming","","","","","","",""
"6393.034999999101","","","post_mooney1_questions","survey-likert","176","803859","0.0-6.0-2.24","3046366","co38125","norming","","","{""curiosity"":5,""confidence"":4}","[0,1]","../img/tt/1097tt.jpg","",""
"2221.6850000005215","","","recognition","survey-text","177","806083","0.0-6.0-3.24","3046366","co38125","norming","","","{""guess"":""boer""}","","../img/tt/1097tt.jpg","",""
"null","../img/gs/1097gs.jpg","null","reveal","image-keyboard-response","178","808085","0.0-6.0-4.24","3046366","co38125","norming","","","","","","",""
"null","../img/tt/1097tt.jpg","null","mooney2","image-keyboard-response","179","810090","0.0-6.0-5.24","3046366","co38125","norming","","","","","","",""
"3775.499999999767","","","post_reveal_questions","survey-likert","180","813867","0.0-6.0-6.24","3046366","co38125","norming","","","{""aha"":5}","[0]","../img/tt/1097tt.jpg","",""
"null","<div style=""font-size:60px;""> </div>","null","fixation","html-keyboard-response","181","814070","0.0-6.0-0.25","3046366","co38125","norming","","","","","","",""
"null","../img/tt/1156tt.jpg","null","mooney1","image-keyboard-response","182","817080","0.0-6.0-1.25","3046366","co38125","norming","","","","","","",""
"8962.31000000087","","","post_mooney1_questions","survey-likert","183","826043","0.0-6.0-2.25","3046366","co38125","norming","","","{""curiosity"":5,""confidence"":2}","[0,1]","../img/tt/1156tt.jpg","",""
"3621.9000000000233","","","recognition","survey-text","184","829667","0.0-6.0-3.25","3046366","co38125","norming","","","{""guess"":""bikini""}","","../img/tt/1156tt.jpg","",""
"null","../img/gs/1156gs.jpg","null","reveal","image-keyboard-response","185","831674","0.0-6.0-4.25","3046366","co38125","norming","","","","","","",""
"null","../img/tt/1156tt.jpg","null","mooney2","image-keyboard-response","186","833681","0.0-6.0-5.25","3046366","co38125","norming","","","","","","",""
"2649.3099999988917","","","post_reveal_questions","survey-likert","187","836331","0.0-6.0-6.25","3046366","co38125","norming","","","{""aha"":1}","[0]","../img/tt/1156tt.jpg","",""
"null","<div style=""font-size:60px;""> </div>","null","fixation","html-keyboard-response","188","836535","0.0-6.0-0.26","3046366","co38125","norming","","","","","","",""
"null","../img/tt/549tt.jpg","null","mooney1","image-keyboard-response","189","839543","0.0-6.0-1.26","3046366","co38125","norming","","","","","","",""
"5163.184999999474","","","post_mooney1_questions","survey-likert","190","844708","0.0-6.0-2.26","3046366","co38125","norming","","","{""curiosity"":5,""confidence"":1}","[0,1]","../img/tt/549tt.jpg","",""
"3613.7999999992317","","","recognition","survey-text","191","848323","0.0-6.0-3.26","3046366","co38125","norming","","","{""guess"":""roeien""}","","../img/tt/549tt.jpg","",""
"null","../img/gs/549gs.jpg","null","reveal","image-keyboard-response","192","850330","0.0-6.0-4.26","3046366","co38125","norming","","","","","","",""
"null","../img/tt/549tt.jpg","null","mooney2","image-keyboard-response","193","852336","0.0-6.0-5.26","3046366","co38125","norming","","","","","","",""
"2818.1750000002794","","","post_reveal_questions","survey-likert","194","855155","0.0-6.0-6.26","3046366","co38125","norming","","","{""aha"":5}","[0]","../img/tt/549tt.jpg","",""
"null","<div style=""font-size:60px;""> </div>","null","fixation","html-keyboard-response","195","855361","0.0-6.0-0.27","3046366","co38125","norming","","","","","","",""
"null","../img/tt/044tt.jpg","null","mooney1","image-keyboard-response","196","858362","0.0-6.0-1.27","3046366","co38125","norming","","","","","","",""
"5263.890000000247","","","post_mooney1_questions","survey-likert","197","863628","0.0-6.0-2.27","3046366","co38125","norming","","","{""curiosity"":4,""confidence"":2}","[0,1]","../img/tt/044tt.jpg","",""
"3253.5450000013225","","","recognition","survey-text","198","866883","0.0-6.0-3.27","3046366","co38125","norming","","","{""guess"":""piano""}","","../img/tt/044tt.jpg","",""
"null","../img/gs/044gs.jpg","null","reveal","image-keyboard-response","199","868888","0.0-6.0-4.27","3046366","co38125","norming","","","","","","",""
"null","../img/tt/044tt.jpg","null","mooney2","image-keyboard-response","200","870890","0.0-6.0-5.27","3046366","co38125","norming","","","","","","",""
"3128.404999999446","","","post_reveal_questions","survey-likert","201","874020","0.0-6.0-6.27","3046366","co38125","norming","","","{""aha"":5}","[0]","../img/tt/044tt.jpg","",""
"null","<div style=""font-size:60px;""> </div>","null","fixation","html-keyboard-response","202","874222","0.0-6.0-0.28","3046366","co38125","norming","","","","","","",""
"null","../img/tt/1143tt.jpg","null","mooney1","image-keyboard-response","203","877232","0.0-6.0-1.28","3046366","co38125","norming","","","","","","",""
"4472.594999999274","","","post_mooney1_questions","survey-likert","204","881708","0.0-6.0-2.28","3046366","co38125","norming","","","{""curiosity"":5,""confidence"":1}","[0,1]","../img/tt/1143tt.jpg","",""
"3493.8950000014156","","","recognition","survey-text","205","885203","0.0-6.0-3.28","3046366","co38125","norming","","","{""guess"":""piano""}","","../img/tt/1143tt.jpg","",""
"null","../img/gs/1143gs.jpg","null","reveal","image-keyboard-response","206","887210","0.0-6.0-4.28","3046366","co38125","norming","","","","","","",""
"null","../img/tt/1143tt.jpg","null","mooney2","image-keyboard-response","207","889220","0.0-6.0-5.28","3046366","co38125","norming","","","","","","",""
"3133.8749999995343","","","post_reveal_questions","survey-likert","208","892356","0.0-6.0-6.28","3046366","co38125","norming","","","{""aha"":4}","[0]","../img/tt/1143tt.jpg","",""
"null","<div style=""font-size:60px;""> </div>","null","fixation","html-keyboard-response","209","892557","0.0-6.0-0.29","3046366","co38125","norming","","","","","","",""
"null","../img/tt/405tt.jpg","null","mooney1","image-keyboard-response","210","895563","0.0-6.0-1.29","3046366","co38125","norming","","","","","","",""
"6581.645000000135","","","post_mooney1_questions","survey-likert","211","902147","0.0-6.0-2.29","3046366","co38125","norming","","","{""curiosity"":5,""confidence"":6}","[0,1]","../img/tt/405tt.jpg","",""
"2157.975000000093","","","recognition","survey-text","212","904307","0.0-6.0-3.29","3046366","co38125","norming","","","{""guess"":""koala""}","","../img/tt/405tt.jpg","",""
"null","../img/gs/405gs.jpg","null","reveal","image-keyboard-response","213","906308","0.0-6.0-4.29","3046366","co38125","norming","","","","","","",""
"null","../img/tt/405tt.jpg","null","mooney2","image-keyboard-response","214","908309","0.0-6.0-5.29","3046366","co38125","norming","","","","","","",""
"2316.7499999998836","","","post_reveal_questions","survey-likert","215","910627","0.0-6.0-6.29","3046366","co38125","norming","","","{""aha"":0}","[0]","../img/tt/405tt.jpg","",""
"null","<div style=""font-size:60px;""> </div>","null","fixation","html-keyboard-response","216","910830","0.0-6.0-0.30","3046366","co38125","norming","","","","","","",""
"null","../img/tt/1228tt.jpg","null","mooney1","image-keyboard-response","217","913831","0.0-6.0-1.30","3046366","co38125","norming","","","","","","",""
"5995.375000000349","","","post_mooney1_questions","survey-likert","218","919827","0.0-6.0-2.30","3046366","co38125","norming","","","{""curiosity"":4,""confidence"":4}","[0,1]","../img/tt/1228tt.jpg","",""
"2541.7099999996135","","","recognition","survey-text","219","922371","0.0-6.0-3.30","3046366","co38125","norming","","","{""guess"":""roofvogel""}","","../img/tt/1228tt.jpg","",""
"null","../img/gs/1228gs.jpg","null","reveal","image-keyboard-response","220","924375","0.0-6.0-4.30","3046366","co38125","norming","","","","","","",""
"null","../img/tt/1228tt.jpg","null","mooney2","image-keyboard-response","221","926382","0.0-6.0-5.30","3046366","co38125","norming","","","","","","",""
"2579.7450000009267","","","post_reveal_questions","survey-likert","222","928963","0.0-6.0-6.30","3046366","co38125","norming","","","{""aha"":5}","[0]","../img/tt/1228tt.jpg","",""
"null","<div style=""font-size:60px;""> </div>","null","fixation","html-keyboard-response","223","929167","0.0-6.0-0.31","3046366","co38125","norming","","","","","","",""
"null","../img/tt/1270tt.jpg","null","mooney1","image-keyboard-response","224","932169","0.0-6.0-1.31","3046366","co38125","norming","","","","","","",""
"6530.084999998449","","","post_mooney1_questions","survey-likert","225","938700","0.0-6.0-2.31","3046366","co38125","norming","","","{""curiosity"":4,""confidence"":0}","[0,1]","../img/tt/1270tt.jpg","",""
"1293.9499999993714","","","recognition","survey-text","226","939996","0.0-6.0-3.31","3046366","co38125","norming","","","{""guess"":""""}","","../img/tt/1270tt.jpg","",""
"null","../img/gs/1270gs.jpg","null","reveal","image-keyboard-response","227","941997","0.0-6.0-4.31","3046366","co38125","norming","","","","","","",""
"null","../img/tt/1270tt.jpg","null","mooney2","image-keyboard-response","228","944002","0.0-6.0-5.31","3046366","co38125","norming","","","","","","",""
"3007.6850000005215","","","post_reveal_questions","survey-likert","229","947012","0.0-6.0-6.31","3046366","co38125","norming","","","{""aha"":4}","[0]","../img/tt/1270tt.jpg","",""
"null","<div style=""font-size:60px;""> </div>","null","fixation","html-keyboard-response","230","947216","0.0-6.0-0.32","3046366","co38125","norming","","","","","","",""
"null","../img/tt/1186tt.jpg","null","mooney1","image-keyboard-response","231","950228","0.0-6.0-1.32","3046366","co38125","norming","","","","","","",""
"3515.860000001383","","","post_mooney1_questions","survey-likert","232","953748","0.0-6.0-2.32","3046366","co38125","norming","","","{""curiosity"":5,""confidence"":4}","[0,1]","../img/tt/1186tt.jpg","",""
"2798.0499999994645","","","recognition","survey-text","233","956548","0.0-6.0-3.32","3046366","co38125","norming","","","{""guess"":""cowboy""}","","../img/tt/1186tt.jpg","",""
"null","../img/gs/1186gs.jpg","null","reveal","image-keyboard-response","234","958553","0.0-6.0-4.32","3046366","co38125","norming","","","","","","",""
"null","../img/tt/1186tt.jpg","null","mooney2","image-keyboard-response","235","960562","0.0-6.0-5.32","3046366","co38125","norming","","","","","","",""
"4008.799999999581","","","post_reveal_questions","survey-likert","236","964572","0.0-6.0-6.32","3046366","co38125","norming","","","{""aha"":4}","[0]","../img/tt/1186tt.jpg","",""
"null","<div style=""font-size:60px;""> </div>","null","fixation","html-keyboard-response","237","964778","0.0-6.0-0.33","3046366","co38125","norming","","","","","","",""
"null","../img/tt/1224tt.jpg","null","mooney1","image-keyboard-response","238","967784","0.0-6.0-1.33","3046366","co38125","norming","","","","","","",""
"3680.719999998575","","","post_mooney1_questions","survey-likert","239","971468","0.0-6.0-2.33","3046366","co38125","norming","","","{""curiosity"":5,""confidence"":4}","[0,1]","../img/tt/1224tt.jpg","",""
"4821.670000001206","","","recognition","survey-text","240","976291","0.0-6.0-3.33","3046366","co38125","norming","","","{""guess"":""zanger""}","","../img/tt/1224tt.jpg","",""
"null","../img/gs/1224gs.jpg","null","reveal","image-keyboard-response","241","978292","0.0-6.0-4.33","3046366","co38125","norming","","","","","","",""
"null","../img/tt/1224tt.jpg","null","mooney2","image-keyboard-response","242","980302","0.0-6.0-5.33","3046366","co38125","norming","","","","","","",""
"2203.6100000004517","","","post_reveal_questions","survey-likert","243","982508","0.0-6.0-6.33","3046366","co38125","norming","","","{""aha"":4}","[0]","../img/tt/1224tt.jpg","",""
"null","<div style=""font-size:60px;""> </div>","null","fixation","html-keyboard-response","244","982713","0.0-6.0-0.34","3046366","co38125","norming","","","","","","",""
"null","../img/tt/194tt.jpg","null","mooney1","image-keyboard-response","245","985717","0.0-6.0-1.34","3046366","co38125","norming","","","","","","",""
"6396.020000000135","","","post_mooney1_questions","survey-likert","246","992116","0.0-6.0-2.34","3046366","co38125","norming","","","{""curiosity"":3,""confidence"":2}","[0,1]","../img/tt/194tt.jpg","",""
"3110.0200000000186","","","recognition","survey-text","247","995227","0.0-6.0-3.34","3046366","co38125","norming","","","{""guess"":""ezel""}","","../img/tt/194tt.jpg","",""
"null","../img/gs/194gs.jpg","null","reveal","image-keyboard-response","248","997231","0.0-6.0-4.34","3046366","co38125","norming","","","","","","",""
"null","../img/tt/194tt.jpg","null","mooney2","image-keyboard-response","249","999236","0.0-6.0-5.34","3046366","co38125","norming","","","","","","",""
"2861.450000000419","","","post_reveal_questions","survey-likert","250","1002099","0.0-6.0-6.34","3046366","co38125","norming","","","{""aha"":4}","[0]","../img/tt/194tt.jpg","",""
"null","<div style=""font-size:60px;""> </div>","null","fixation","html-keyboard-response","251","1002304","0.0-6.0-0.35","3046366","co38125","norming","","","","","","",""
"null","../img/tt/300tt.jpg","null","mooney1","image-keyboard-response","252","1005314","0.0-6.0-1.35","3046366","co38125","norming","","","","","","",""
"3534.52999999898","","","post_mooney1_questions","survey-likert","253","1008852","0.0-6.0-2.35","3046366","co38125","norming","","","{""curiosity"":5,""confidence"":3}","[0,1]","../img/tt/300tt.jpg","",""
"3998.0649999997113","","","recognition","survey-text","254","1012851","0.0-6.0-3.35","3046366","co38125","norming","","","{""guess"":""basketbal""}","","../img/tt/300tt.jpg","",""
"null","../img/gs/300gs.jpg","null","reveal","image-keyboard-response","255","1014858","0.0-6.0-4.35","3046366","co38125","norming","","","","","","",""
"null","../img/tt/300tt.jpg","null","mooney2","image-keyboard-response","256","1016869","0.0-6.0-5.35","3046366","co38125","norming","","","","","","",""
"3140.2500000003492","","","post_reveal_questions","survey-likert","257","1020011","0.0-6.0-6.35","3046366","co38125","norming","","","{""aha"":3}","[0]","../img/tt/300tt.jpg","",""
"null","<div style=""font-size:60px;""> </div>","null","fixation","html-keyboard-response","258","1020214","0.0-6.0-0.36","3046366","co38125","norming","","","","","","",""
"null","../img/tt/1002tt.jpg","null","mooney1","image-keyboard-response","259","1023221","0.0-6.0-1.36","3046366","co38125","norming","","","","","","",""
"3859.3650000002235","","","post_mooney1_questions","survey-likert","260","1027083","0.0-6.0-2.36","3046366","co38125","norming","","","{""curiosity"":4,""confidence"":3}","[0,1]","../img/tt/1002tt.jpg","",""
"1270.2399999997579","","","recognition","survey-text","261","1028355","0.0-6.0-3.36","3046366","co38125","norming","","","{""guess"":""koe""}","","../img/tt/1002tt.jpg","",""
"null","../img/gs/1002gs.jpg","null","reveal","image-keyboard-response","262","1030365","0.0-6.0-4.36","3046366","co38125","norming","","","","","","",""
"null","../img/tt/1002tt.jpg","null","mooney2","image-keyboard-response","263","1032376","0.0-6.0-5.36","3046366","co38125","norming","","","","","","",""
"3040.360000000801","","","post_reveal_questions","survey-likert","264","1035419","0.0-6.0-6.36","3046366","co38125","norming","","","{""aha"":4}","[0]","../img/tt/1002tt.jpg","",""
"null","<div style=""font-size:60px;""> </div>","null","fixation","html-keyboard-response","265","1035621","0.0-6.0-0.37","3046366","co38125","norming","","","","","","",""
"null","../img/tt/112tt.jpg","null","mooney1","image-keyboard-response","266","1038623","0.0-6.0-1.37","3046366","co38125","norming","","","","","","",""
"4337.38000000082","","","post_mooney1_questions","survey-likert","267","1042963","0.0-6.0-2.37","3046366","co38125","norming","","","{""curiosity"":5,""confidence"":5}","[0,1]","../img/tt/112tt.jpg","",""
"3118.399999999441","","","recognition","survey-text","268","1046083","0.0-6.0-3.37","3046366","co38125","norming","","","{""guess"":""fluitje""}","","../img/tt/112tt.jpg","",""
"null","../img/gs/112gs.jpg","null","reveal","image-keyboard-response","269","1048085","0.0-6.0-4.37","3046366","co38125","norming","","","","","","",""
"null","../img/tt/112tt.jpg","null","mooney2","image-keyboard-response","270","1050096","0.0-6.0-5.37","3046366","co38125","norming","","","","","","",""
"1920.694999998901","","","post_reveal_questions","survey-likert","271","1052019","0.0-6.0-6.37","3046366","co38125","norming","","","{""aha"":0}","[0]","../img/tt/112tt.jpg","",""
"null","<div style=""font-size:60px;""> </div>","null","fixation","html-keyboard-response","272","1052222","0.0-6.0-0.38","3046366","co38125","norming","","","","","","",""
"null","../img/tt/124tt.jpg","null","mooney1","image-keyboard-response","273","1055229","0.0-6.0-1.38","3046366","co38125","norming","","","","","","",""
"3900.1600000010803","","","post_mooney1_questions","survey-likert","274","1059132","0.0-6.0-2.38","3046366","co38125","norming","","","{""curiosity"":4,""confidence"":2}","[0,1]","../img/tt/124tt.jpg","",""
"4918.149999999441","","","recognition","survey-text","275","1064051","0.0-6.0-3.38","3046366","co38125","norming","","","{""guess"":""oude vrouw""}","","../img/tt/124tt.jpg","",""
"null","../img/gs/124gs.jpg","null","reveal","image-keyboard-response","276","1066057","0.0-6.0-4.38","3046366","co38125","norming","","","","","","",""
"null","../img/tt/124tt.jpg","null","mooney2","image-keyboard-response","277","1068063","0.0-6.0-5.38","3046366","co38125","norming","","","","","","",""
"3600.445000000065","","","post_reveal_questions","survey-likert","278","1071667","0.0-6.0-6.38","3046366","co38125","norming","","","{""aha"":6}","[0]","../img/tt/124tt.jpg","",""
"null","<div style=""font-size:60px;""> </div>","null","fixation","html-keyboard-response","279","1071873","0.0-6.0-0.39","3046366","co38125","norming","","","","","","",""
"null","../img/tt/080tt.jpg","null","mooney1","image-keyboard-response","280","1074877","0.0-6.0-1.39","3046366","co38125","norming","","","","","","",""
"4163.51500000013","","","post_mooney1_questions","survey-likert","281","1079043","0.0-6.0-2.39","3046366","co38125","norming","","","{""curiosity"":5,""confidence"":4}","[0,1]","../img/tt/080tt.jpg","",""
"1950.075000000652","","","recognition","survey-text","282","1080995","0.0-6.0-3.39","3046366","co38125","norming","","","{""guess"":""berg""}","","../img/tt/080tt.jpg","",""
"null","../img/gs/080gs.jpg","null","reveal","image-keyboard-response","283","1082998","0.0-6.0-4.39","3046366","co38125","norming","","","","","","",""
"null","../img/tt/080tt.jpg","null","mooney2","image-keyboard-response","284","1085002","0.0-6.0-5.39","3046366","co38125","norming","","","","","","",""
"3152.2699999986216","","","post_reveal_questions","survey-likert","285","1088155","0.0-6.0-6.39","3046366","co38125","norming","","","{""aha"":6}","[0]","../img/tt/080tt.jpg","",""
"null","<div style=""font-size:60px;""> </div>","null","fixation","html-keyboard-response","286","1088365","0.0-6.0-0.40","3046366","co38125","norming","","","","","","",""
"null","../img/tt/1122tt.jpg","null","mooney1","image-keyboard-response","287","1091368","0.0-6.0-1.40","3046366","co38125","norming","","","","","","",""
"4896.419999999227","","","post_mooney1_questions","survey-likert","288","1096268","0.0-6.0-2.40","3046366","co38125","norming","","","{""curiosity"":5,""confidence"":5}","[0,1]","../img/tt/1122tt.jpg","",""
"2502.155000000028","","","recognition","survey-text","289","1098771","0.0-6.0-3.40","3046366","co38125","norming","","","{""guess"":""boten""}","","../img/tt/1122tt.jpg","",""
"null","../img/gs/1122gs.jpg","null","reveal","image-keyboard-response","290","1100773","0.0-6.0-4.40","3046366","co38125","norming","","","","","","",""
"null","../img/tt/1122tt.jpg","null","mooney2","image-keyboard-response","291","1102779","0.0-6.0-5.40","3046366","co38125","norming","","","","","","",""
"2286.2700000004843","","","post_reveal_questions","survey-likert","292","1105067","0.0-6.0-6.40","3046366","co38125","norming","","","{""aha"":0}","[0]","../img/tt/1122tt.jpg","",""
"null","<div style=""font-size:60px;""> </div>","null","fixation","html-keyboard-response","293","1105272","0.0-6.0-0.41","3046366","co38125","norming","","","","","","",""
"null","../img/tt/1130tt.jpg","null","mooney1","image-keyboard-response","294","1108280","0.0-6.0-1.41","3046366","co38125","norming","","","","","","",""
"5737.100000000326","","","post_mooney1_questions","survey-likert","295","1114020","0.0-6.0-2.41","3046366","co38125","norming","","","{""curiosity"":3,""confidence"":0}","[0,1]","../img/tt/1130tt.jpg","",""
"917.8049999990035","","","recognition","survey-text","296","1114939","0.0-6.0-3.41","3046366","co38125","norming","","","{""guess"":""""}","","../img/tt/1130tt.jpg","",""
"null","../img/gs/1130gs.jpg","null","reveal","image-keyboard-response","297","1116946","0.0-6.0-4.41","3046366","co38125","norming","","","","","","",""
"null","../img/tt/1130tt.jpg","null","mooney2","image-keyboard-response","298","1118949","0.0-6.0-5.41","3046366","co38125","norming","","","","","","",""
"3245.6700000001583","","","post_reveal_questions","survey-likert","299","1122196","0.0-6.0-6.41","3046366","co38125","norming","","","{""aha"":3}","[0]","../img/tt/1130tt.jpg","",""
"null","<div style=""font-size:60px;""> </div>","null","fixation","html-keyboard-response","300","1122398","0.0-6.0-0.42","3046366","co38125","norming","","","","","","",""
"null","../img/tt/1189tt.jpg","null","mooney1","image-keyboard-response","301","1125403","0.0-6.0-1.42","3046366","co38125","norming","","","","","","",""
"5413.99499999918","","","post_mooney1_questions","survey-likert","302","1130820","0.0-6.0-2.42","3046366","co38125","norming","","","{""curiosity"":3,""confidence"":2}","[0,1]","../img/tt/1189tt.jpg","",""
"4989.999999999767","","","recognition","survey-text","303","1135812","0.0-6.0-3.42","3046366","co38125","norming","","","{""guess"":""waterscooter""}","","../img/tt/1189tt.jpg","",""
"null","../img/gs/1189gs.jpg","null","reveal","image-keyboard-response","304","1137821","0.0-6.0-4.42","3046366","co38125","norming","","","","","","",""
"null","../img/tt/1189tt.jpg","null","mooney2","image-keyboard-response","305","1139830","0.0-6.0-5.42","3046366","co38125","norming","","","","","","",""
"2776.830000000773","","","post_reveal_questions","survey-likert","306","1142612","0.0-6.0-6.42","3046366","co38125","norming","","","{""aha"":4}","[0]","../img/tt/1189tt.jpg","",""
"null","<div style=""font-size:60px;""> </div>","null","fixation","html-keyboard-response","307","1142818","0.0-6.0-0.43","3046366","co38125","norming","","","","","","",""
"null","../img/tt/306tt.jpg","null","mooney1","image-keyboard-response","308","1145825","0.0-6.0-1.43","3046366","co38125","norming","","","","","","",""
"10319.855000001378","","","post_mooney1_questions","survey-likert","309","1156148","0.0-6.0-2.43","3046366","co38125","norming","","","{""curiosity"":5,""confidence"":1}","[0,1]","../img/tt/306tt.jpg","",""
"3230.0849999992643","","","recognition","survey-text","310","1159380","0.0-6.0-3.43","3046366","co38125","norming","","","{""guess"":""danser""}","","../img/tt/306tt.jpg","",""
"null","../img/gs/306gs.jpg","null","reveal","image-keyboard-response","311","1161390","0.0-6.0-4.43","3046366","co38125","norming","","","","","","",""
"null","../img/tt/306tt.jpg","null","mooney2","image-keyboard-response","312","1163393","0.0-6.0-5.43","3046366","co38125","norming","","","","","","",""
"2752.5200000000186","","","post_reveal_questions","survey-likert","313","1166148","0.0-6.0-6.43","3046366","co38125","norming","","","{""aha"":3}","[0]","../img/tt/306tt.jpg","",""
"null","<div style=""font-size:60px;""> </div>","null","fixation","html-keyboard-response","314","1166358","0.0-6.0-0.44","3046366","co38125","norming","","","","","","",""
"null","../img/tt/440tt.jpg","null","mooney1","image-keyboard-response","315","1169363","0.0-6.0-1.44","3046366","co38125","norming","","","","","","",""
"4158.110000000335","","","post_mooney1_questions","survey-likert","316","1173524","0.0-6.0-2.44","3046366","co38125","norming","","","{""curiosity"":2,""confidence"":1}","[0,1]","../img/tt/440tt.jpg","",""
"11070.125000000233","","","recognition","survey-text","317","1184591","0.0-6.0-3.44","3046366","co38125","norming","","","{""guess"":""schaap""}","","../img/tt/440tt.jpg","",""
"null","../img/gs/440gs.jpg","null","reveal","image-keyboard-response","318","1186598","0.0-6.0-4.44","3046366","co38125","norming","","","","","","",""
"null","../img/tt/440tt.jpg","null","mooney2","image-keyboard-response","319","1188603","0.0-6.0-5.44","3046366","co38125","norming","","","","","","",""
"4865.344999999972","","","post_reveal_questions","survey-likert","320","1193471","0.0-6.0-6.44","3046366","co38125","norming","","","{""aha"":4}","[0]","../img/tt/440tt.jpg","",""
"null","<div style=""font-size:60px;""> </div>","null","fixation","html-keyboard-response","321","1193679","0.0-6.0-0.45","3046366","co38125","norming","","","","","","",""
"null","../img/tt/1275tt.jpg","null","mooney1","image-keyboard-response","322","1196683","0.0-6.0-1.45","3046366","co38125","norming","","","","","","",""
"2745.5950000004377","","","post_mooney1_questions","survey-likert","323","1199431","0.0-6.0-2.45","3046366","co38125","norming","","","{""curiosity"":6,""confidence"":5}","[0,1]","../img/tt/1275tt.jpg","",""
"2790.1700000001583","","","recognition","survey-text","324","1202223","0.0-6.0-3.45","3046366","co38125","norming","","","{""guess"":""varken""}","","../img/tt/1275tt.jpg","",""
"null","../img/gs/1275gs.jpg","null","reveal","image-keyboard-response","325","1204226","0.0-6.0-4.45","3046366","co38125","norming","","","","","","",""
"null","../img/tt/1275tt.jpg","null","mooney2","image-keyboard-response","326","1206227","0.0-6.0-5.45","3046366","co38125","norming","","","","","","",""
"2137.2200000006706","","","post_reveal_questions","survey-likert","327","1208367","0.0-6.0-6.45","3046366","co38125","norming","","","{""aha"":1}","[0]","../img/tt/1275tt.jpg","",""
"null","<div style=""font-size:60px;""> </div>","null","fixation","html-keyboard-response","328","1208576","0.0-6.0-0.46","3046366","co38125","norming","","","","","","",""
"null","../img/tt/1101tt.jpg","null","mooney1","image-keyboard-response","329","1211586","0.0-6.0-1.46","3046366","co38125","norming","","","","","","",""
"5577.709999999497","","","post_mooney1_questions","survey-likert","330","1217167","0.0-6.0-2.46","3046366","co38125","norming","","","{""curiosity"":5,""confidence"":3}","[0,1]","../img/tt/1101tt.jpg","",""
"2509.935000000056","","","recognition","survey-text","331","1219679","0.0-6.0-3.46","3046366","co38125","norming","","","{""guess"":""karate""}","","../img/tt/1101tt.jpg","",""
"null","../img/gs/1101gs.jpg","null","reveal","image-keyboard-response","332","1221688","0.0-6.0-4.46","3046366","co38125","norming","","","","","","",""
"null","../img/tt/1101tt.jpg","null","mooney2","image-keyboard-response","333","1223690","0.0-6.0-5.46","3046366","co38125","norming","","","","","","",""
"3122.424999999581","","","post_reveal_questions","survey-likert","334","1226815","0.0-6.0-6.46","3046366","co38125","norming","","","{""aha"":3}","[0]","../img/tt/1101tt.jpg","",""
"null","<div style=""font-size:60px;""> </div>","null","fixation","html-keyboard-response","335","1227018","0.0-6.0-0.47","3046366","co38125","norming","","","","","","",""
"null","../img/tt/1159tt.jpg","null","mooney1","image-keyboard-response","336","1230023","0.0-6.0-1.47","3046366","co38125","norming","","","","","","",""
"8580.850000000326","","","post_mooney1_questions","survey-likert","337","1238607","0.0-6.0-2.47","3046366","co38125","norming","","","{""curiosity"":4,""confidence"":1}","[0,1]","../img/tt/1159tt.jpg","",""
"1933.4599999985658","","","recognition","survey-text","338","1240543","0.0-6.0-3.47","3046366","co38125","norming","","","{""guess"":""gans""}","","../img/tt/1159tt.jpg","",""
"null","../img/gs/1159gs.jpg","null","reveal","image-keyboard-response","339","1242553","0.0-6.0-4.47","3046366","co38125","norming","","","","","","",""
"null","../img/tt/1159tt.jpg","null","mooney2","image-keyboard-response","340","1244557","0.0-6.0-5.47","3046366","co38125","norming","","","","","","",""
"1444.4749999984633","","","post_reveal_questions","survey-likert","341","1246004","0.0-6.0-6.47","3046366","co38125","norming","","","{""aha"":5}","[0]","../img/tt/1159tt.jpg","",""
"null","<div style=""font-size:60px;""> </div>","null","fixation","html-keyboard-response","342","1246209","0.0-6.0-0.48","3046366","co38125","norming","","","","","","",""
"null","../img/tt/1362tt.jpg","null","mooney1","image-keyboard-response","343","1249213","0.0-6.0-1.48","3046366","co38125","norming","","","","","","",""
"6038.035000001313","","","post_mooney1_questions","survey-likert","344","1255252","0.0-6.0-2.48","3046366","co38125","norming","","","{""curiosity"":4,""confidence"":2}","[0,1]","../img/tt/1362tt.jpg","",""
"2126.0550000006333","","","recognition","survey-text","345","1257380","0.0-6.0-3.48","3046366","co38125","norming","","","{""guess"":""hoed""}","","../img/tt/1362tt.jpg","",""
"null","../img/gs/1362gs.jpg","null","reveal","image-keyboard-response","346","1259382","0.0-6.0-4.48","3046366","co38125","norming","","","","","","",""
"null","../img/tt/1362tt.jpg","null","mooney2","image-keyboard-response","347","1261385","0.0-6.0-5.48","3046366","co38125","norming","","","","","","",""
"2041.4650000003166","","","post_reveal_questions","survey-likert","348","1263428","0.0-6.0-6.48","3046366","co38125","norming","","","{""aha"":5}","[0]","../img/tt/1362tt.jpg","",""
"null","<div style=""font-size:60px;""> </div>","null","fixation","html-keyboard-response","349","1263635","0.0-6.0-0.49","3046366","co38125","norming","","","","","","",""
"null","../img/tt/1366tt.jpg","null","mooney1","image-keyboard-response","350","1266648","0.0-6.0-1.49","3046366","co38125","norming","","","","","","",""
"3233.1849999991246","","","post_mooney1_questions","survey-likert","351","1269884","0.0-6.0-2.49","3046366","co38125","norming","","","{""curiosity"":4,""confidence"":2}","[0,1]","../img/tt/1366tt.jpg","",""
"2294.304999999469","","","recognition","survey-text","352","1272180","0.0-6.0-3.49","3046366","co38125","norming","","","{""guess"":""auto""}","","../img/tt/1366tt.jpg","",""
"null","../img/gs/1366gs.jpg","null","reveal","image-keyboard-response","353","1274188","0.0-6.0-4.49","3046366","co38125","norming","","","","","","",""
"null","../img/tt/1366tt.jpg","null","mooney2","image-keyboard-response","354","1276197","0.0-6.0-5.49","3046366","co38125","norming","","","","","","",""
"2277.829999999143","","","post_reveal_questions","survey-likert","355","1278476","0.0-6.0-6.49","3046366","co38125","norming","","","{""aha"":3}","[0]","../img/tt/1366tt.jpg","",""
"null","<div style=""font-size:60px;""> </div>","null","fixation","html-keyboard-response","356","1278684","0.0-6.0-0.50","3046366","co38125","norming","","","","","","",""
"null","../img/tt/1055tt.jpg","null","mooney1","image-keyboard-response","357","1281692","0.0-6.0-1.50","3046366","co38125","norming","","","","","","",""
"6429.455000001239","","","post_mooney1_questions","survey-likert","358","1288124","0.0-6.0-2.50","3046366","co38125","norming","","","{""curiosity"":4,""confidence"":2}","[0,1]","../img/tt/1055tt.jpg","",""
"2390.079999999376","","","recognition","survey-text","359","1290516","0.0-6.0-3.50","3046366","co38125","norming","","","{""guess"":""water""}","","../img/tt/1055tt.jpg","",""
"null","../img/gs/1055gs.jpg","null","reveal","image-keyboard-response","360","1292522","0.0-6.0-4.50","3046366","co38125","norming","","","","","","",""
"null","../img/tt/1055tt.jpg","null","mooney2","image-keyboard-response","361","1294525","0.0-6.0-5.50","3046366","co38125","norming","","","","","","",""
"2740.4650000007823","","","post_reveal_questions","survey-likert","362","1297268","0.0-6.0-6.50","3046366","co38125","norming","","","{""aha"":2}","[0]","../img/tt/1055tt.jpg","",""
"null","<div style=""font-size:60px;""> </div>","null","fixation","html-keyboard-response","363","1297475","0.0-6.0-0.51","3046366","co38125","norming","","","","","","",""
"null","../img/tt/056tt.jpg","null","mooney1","image-keyboard-response","364","1300484","0.0-6.0-1.51","3046366","co38125","norming","","","","","","",""
"5268.285000000149","","","post_mooney1_questions","survey-likert","365","1305756","0.0-6.0-2.51","3046366","co38125","norming","","","{""curiosity"":4,""confidence"":2}","[0,1]","../img/tt/056tt.jpg","",""
"2869.9949999991804","","","recognition","survey-text","366","1308628","0.0-6.0-3.51","3046366","co38125","norming","","","{""guess"":""kangoeroe""}","","../img/tt/056tt.jpg","",""
"null","../img/gs/056gs.jpg","null","reveal","image-keyboard-response","367","1310632","0.0-6.0-4.51","3046366","co38125","norming","","","","","","",""
"null","../img/tt/056tt.jpg","null","mooney2","image-keyboard-response","368","1312642","0.0-6.0-5.51","3046366","co38125","norming","","","","","","",""
"4111.57999999891","","","post_reveal_questions","survey-likert","369","1316756","0.0-6.0-6.51","3046366","co38125","norming","","","{""aha"":2}","[0]","../img/tt/056tt.jpg","",""
"null","<div style=""font-size:60px;""> </div>","null","fixation","html-keyboard-response","370","1316961","0.0-6.0-0.52","3046366","co38125","norming","","","","","","",""
"null","../img/tt/378tt.jpg","null","mooney1","image-keyboard-response","371","1319963","0.0-6.0-1.52","3046366","co38125","norming","","","","","","",""
"4181.6950000009965","","","post_mooney1_questions","survey-likert","372","1324148","0.0-6.0-2.52","3046366","co38125","norming","","","{""curiosity"":5,""confidence"":4}","[0,1]","../img/tt/378tt.jpg","",""
"2061.720000001602","","","recognition","survey-text","373","1326212","0.0-6.0-3.52","3046366","co38125","norming","","","{""guess"":""vogel""}","","../img/tt/378tt.jpg","",""
"null","../img/gs/378gs.jpg","null","reveal","image-keyboard-response","374","1328219","0.0-6.0-4.52","3046366","co38125","norming","","","","","","",""
"null","../img/tt/378tt.jpg","null","mooney2","image-keyboard-response","375","1330222","0.0-6.0-5.52","3046366","co38125","norming","","","","","","",""
"2306.94000000041","","","post_reveal_questions","survey-likert","376","1332532","0.0-6.0-6.52","3046366","co38125","norming","","","{""aha"":5}","[0]","../img/tt/378tt.jpg","",""
"null","<div style=""font-size:60px;""> </div>","null","fixation","html-keyboard-response","377","1332736","0.0-6.0-0.53","3046366","co38125","norming","","","","","","",""
"null","../img/tt/1084tt.jpg","null","mooney1","image-keyboard-response","378","1335748","0.0-6.0-1.53","3046366","co38125","norming","","","","","","",""
"5413.345000000903","","","post_mooney1_questions","survey-likert","379","1341164","0.0-6.0-2.53","3046366","co38125","norming","","","{""curiosity"":4,""confidence"":2}","[0,1]","../img/tt/1084tt.jpg","",""
"1893.9900000004563","","","recognition","survey-text","380","1343060","0.0-6.0-3.53","3046366","co38125","norming","","","{""guess"":""bord""}","","../img/tt/1084tt.jpg","",""
"null","../img/gs/1084gs.jpg","null","reveal","image-keyboard-response","381","1345068","0.0-6.0-4.53","3046366","co38125","norming","","","","","","",""
"null","../img/tt/1084tt.jpg","null","mooney2","image-keyboard-response","382","1347075","0.0-6.0-5.53","3046366","co38125","norming","","","","","","",""
"2551.9149999998044","","","post_reveal_questions","survey-likert","383","1349628","0.0-6.0-6.53","3046366","co38125","norming","","","{""aha"":2}","[0]","../img/tt/1084tt.jpg","",""
"null","<div style=""font-size:60px;""> </div>","null","fixation","html-keyboard-response","384","1349836","0.0-6.0-0.54","3046366","co38125","norming","","","","","","",""
"null","../img/tt/559tt.jpg","null","mooney1","image-keyboard-response","385","1352840","0.0-6.0-1.54","3046366","co38125","norming","","","","","","",""
"5192.520000000717","","","post_mooney1_questions","survey-likert","386","1358036","0.0-6.0-2.54","3046366","co38125","norming","","","{""curiosity"":5,""confidence"":4}","[0,1]","../img/tt/559tt.jpg","",""
"4862.054999999469","","","recognition","survey-text","387","1362900","0.0-6.0-3.54","3046366","co38125","norming","","","{""guess"":""naaimachine""}","","../img/tt/559tt.jpg","",""
"null","../img/gs/559gs.jpg","null","reveal","image-keyboard-response","388","1364907","0.0-6.0-4.54","3046366","co38125","norming","","","","","","",""
"null","../img/tt/559tt.jpg","null","mooney2","image-keyboard-response","389","1366917","0.0-6.0-5.54","3046366","co38125","norming","","","","","","",""
"3988.729999999283","","","post_reveal_questions","survey-likert","390","1370908","0.0-6.0-6.54","3046366","co38125","norming","","","{""aha"":1}","[0]","../img/tt/559tt.jpg","",""
"null","<div style=""font-size:60px;""> </div>","null","fixation","html-keyboard-response","391","1371114","0.0-6.0-0.55","3046366","co38125","norming","","","","","","",""
"null","../img/tt/111tt.jpg","null","mooney1","image-keyboard-response","392","1374117","0.0-6.0-1.55","3046366","co38125","norming","","","","","","",""
"3515.2450000005774","","","post_mooney1_questions","survey-likert","393","1377636","0.0-6.0-2.55","3046366","co38125","norming","","","{""curiosity"":4,""confidence"":3}","[0,1]","../img/tt/111tt.jpg","",""
"2861.815000000177","","","recognition","survey-text","394","1380500","0.0-6.0-3.55","3046366","co38125","norming","","","{""guess"":""telefoon""}","","../img/tt/111tt.jpg","",""
"null","../img/gs/111gs.jpg","null","reveal","image-keyboard-response","395","1382506","0.0-6.0-4.55","3046366","co38125","norming","","","","","","",""
"null","../img/tt/111tt.jpg","null","mooney2","image-keyboard-response","396","1384509","0.0-6.0-5.55","3046366","co38125","norming","","","","","","",""
"2740.3699999994133","","","post_reveal_questions","survey-likert","397","1387252","0.0-6.0-6.55","3046366","co38125","norming","","","{""aha"":5}","[0]","../img/tt/111tt.jpg","",""
"null","<div style=""font-size:60px;""> </div>","null","fixation","html-keyboard-response","398","1387460","0.0-6.0-0.56","3046366","co38125","norming","","","","","","",""
"null","../img/tt/1063tt.jpg","null","mooney1","image-keyboard-response","399","1390466","0.0-6.0-1.56","3046366","co38125","norming","","","","","","",""
"4567.2349999987055","","","post_mooney1_questions","survey-likert","400","1395036","0.0-6.0-2.56","3046366","co38125","norming","","","{""curiosity"":5,""confidence"":2}","[0,1]","../img/tt/1063tt.jpg","",""
"2182.0399999995716","","","recognition","survey-text","401","1397220","0.0-6.0-3.56","3046366","co38125","norming","","","{""guess"":""paard""}","","../img/tt/1063tt.jpg","",""
"null","../img/gs/1063gs.jpg","null","reveal","image-keyboard-response","402","1399222","0.0-6.0-4.56","3046366","co38125","norming","","","","","","",""
"null","../img/tt/1063tt.jpg","null","mooney2","image-keyboard-response","403","1401226","0.0-6.0-5.56","3046366","co38125","norming","","","","","","",""
"1838.8850000009406","","","post_reveal_questions","survey-likert","404","1403068","0.0-6.0-6.56","3046366","co38125","norming","","","{""aha"":2}","[0]","../img/tt/1063tt.jpg","",""
"null","<div style=""font-size:60px;""> </div>","null","fixation","html-keyboard-response","405","1403273","0.0-6.0-0.57","3046366","co38125","norming","","","","","","",""
"null","../img/tt/123tt.jpg","null","mooney1","image-keyboard-response","406","1406280","0.0-6.0-1.57","3046366","co38125","norming","","","","","","",""
"2744.865000000689","","","post_mooney1_questions","survey-likert","407","1409028","0.0-6.0-2.57","3046366","co38125","norming","","","{""curiosity"":5,""confidence"":4}","[0,1]","../img/tt/123tt.jpg","",""
"3949.860000000801","","","recognition","survey-text","408","1412980","0.0-6.0-3.57","3046366","co38125","norming","","","{""guess"":""strijkijzer""}","","../img/tt/123tt.jpg","",""
"null","../img/gs/123gs.jpg","null","reveal","image-keyboard-response","409","1414982","0.0-6.0-4.57","3046366","co38125","norming","","","","","","",""
"null","../img/tt/123tt.jpg","null","mooney2","image-keyboard-response","410","1416987","0.0-6.0-5.57","3046366","co38125","norming","","","","","","",""
"2111.410000001313","","","post_reveal_questions","survey-likert","411","1419100","0.0-6.0-6.57","3046366","co38125","norming","","","{""aha"":5}","[0]","../img/tt/123tt.jpg","",""
"null","<div style=""font-size:60px;""> </div>","null","fixation","html-keyboard-response","412","1419304","0.0-6.0-0.58","3046366","co38125","norming","","","","","","",""
"null","../img/tt/1033tt.jpg","null","mooney1","image-keyboard-response","413","1422310","0.0-6.0-1.58","3046366","co38125","norming","","","","","","",""
"4922.590000000084","","","post_mooney1_questions","survey-likert","414","1427234","0.0-6.0-2.58","3046366","co38125","norming","","","{""curiosity"":5,""confidence"":6}","[0,1]","../img/tt/1033tt.jpg","",""
"2525.734999999171","","","recognition","survey-text","415","1429762","0.0-6.0-3.58","3046366","co38125","norming","","","{""guess"":""hockey""}","","../img/tt/1033tt.jpg","",""
"null","../img/gs/1033gs.jpg","null","reveal","image-keyboard-response","416","1431769","0.0-6.0-4.58","3046366","co38125","norming","","","","","","",""
"null","../img/tt/1033tt.jpg","null","mooney2","image-keyboard-response","417","1433772","0.0-6.0-5.58","3046366","co38125","norming","","","","","","",""
"2139.9000000001397","","","post_reveal_questions","survey-likert","418","1435914","0.0-6.0-6.58","3046366","co38125","norming","","","{""aha"":1}","[0]","../img/tt/1033tt.jpg","",""
"null","<div style=""font-size:60px;""> </div>","null","fixation","html-keyboard-response","419","1436120","0.0-6.0-0.59","3046366","co38125","norming","","","","","","",""
"null","../img/tt/1250tt.jpg","null","mooney1","image-keyboard-response","420","1439123","0.0-6.0-1.59","3046366","co38125","norming","","","","","","",""
"4612.510000000941","","","post_mooney1_questions","survey-likert","421","1443738","0.0-6.0-2.59","3046366","co38125","norming","","","{""curiosity"":4,""confidence"":2}","[0,1]","../img/tt/1250tt.jpg","",""
"2998.2650000001304","","","recognition","survey-text","422","1446738","0.0-6.0-3.59","3046366","co38125","norming","","","{""guess"":""zadel""}","","../img/tt/1250tt.jpg","",""
"null","../img/gs/1250gs.jpg","null","reveal","image-keyboard-response","423","1448747","0.0-6.0-4.59","3046366","co38125","norming","","","","","","",""
"null","../img/tt/1250tt.jpg","null","mooney2","image-keyboard-response","424","1450758","0.0-6.0-5.59","3046366","co38125","norming","","","","","","",""
"5922.039999999339","","","post_reveal_questions","survey-likert","425","1456682","0.0-6.0-6.59","3046366","co38125","norming","","","{""aha"":4}","[0]","../img/tt/1250tt.jpg","",""
"null","<div style=""font-size:60px;""> </div>","null","fixation","html-keyboard-response","426","1456887","0.0-6.0-0.60","3046366","co38125","norming","","","","","","",""
"null","../img/tt/020tt.jpg","null","mooney1","image-keyboard-response","427","1459891","0.0-6.0-1.60","3046366","co38125","norming","","","","","","",""
"5860.404999999562","","","post_mooney1_questions","survey-likert","428","1465754","0.0-6.0-2.60","3046366","co38125","norming","","","{""curiosity"":4,""confidence"":0}","[0,1]","../img/tt/020tt.jpg","",""
"773.93500000122","","","recognition","survey-text","429","1466530","0.0-6.0-3.60","3046366","co38125","norming","","","{""guess"":""""}","","../img/tt/020tt.jpg","",""
"null","../img/gs/020gs.jpg","null","reveal","image-keyboard-response","430","1468539","0.0-6.0-4.60","3046366","co38125","norming","","","","","","",""
"null","../img/tt/020tt.jpg","null","mooney2","image-keyboard-response","431","1470543","0.0-6.0-5.60","3046366","co38125","norming","","","","","","",""
"2968.26999999932","","","post_reveal_questions","survey-likert","432","1473514","0.0-6.0-6.60","3046366","co38125","norming","","","{""aha"":4}","[0]","../img/tt/020tt.jpg","",""
"null","<div style=""font-size:60px;""> </div>","null","fixation","html-keyboard-response","433","1473716","0.0-6.0-0.61","3046366","co38125","norming","","","","","","",""
"null","../img/tt/1200tt.jpg","null","mooney1","image-keyboard-response","434","1476721","0.0-6.0-1.61","3046366","co38125","norming","","","","","","",""
"2856.6850000007544","","","post_mooney1_questions","survey-likert","435","1479579","0.0-6.0-2.61","3046366","co38125","norming","","","{""curiosity"":5,""confidence"":4}","[0,1]","../img/tt/1200tt.jpg","",""
"2562.0499999986496","","","recognition","survey-text","436","1482146","0.0-6.0-3.61","3046366","co38125","norming","","","{""guess"":""kajak""}","","../img/tt/1200tt.jpg","",""
"null","../img/gs/1200gs.jpg","null","reveal","image-keyboard-response","437","1484154","0.0-6.0-4.61","3046366","co38125","norming","","","","","","",""
"null","../img/tt/1200tt.jpg","null","mooney2","image-keyboard-response","438","1486164","0.0-6.0-5.61","3046366","co38125","norming","","","","","","",""
"2213.460000000894","","","post_reveal_questions","survey-likert","439","1488380","0.0-6.0-6.61","3046366","co38125","norming","","","{""aha"":1}","[0]","../img/tt/1200tt.jpg","",""
"null","<div style=""font-size:60px;""> </div>","null","fixation","html-keyboard-response","440","1488582","0.0-6.0-0.62","3046366","co38125","norming","","","","","","",""
"null","../img/tt/1044tt.jpg","null","mooney1","image-keyboard-response","441","1491591","0.0-6.0-1.62","3046366","co38125","norming","","","","","","",""
"9305.964999999618","","","post_mooney1_questions","survey-likert","442","1500900","0.0-6.0-2.62","3046366","co38125","norming","","","{""curiosity"":3,""confidence"":2}","[0,1]","../img/tt/1044tt.jpg","",""
"3389.854999999283","","","recognition","survey-text","443","1504292","0.0-6.0-3.62","3046366","co38125","norming","","","{""guess"":""hoed""}","","../img/tt/1044tt.jpg","",""
"null","../img/gs/1044gs.jpg","null","reveal","image-keyboard-response","444","1506294","0.0-6.0-4.62","3046366","co38125","norming","","","","","","",""
"null","../img/tt/1044tt.jpg","null","mooney2","image-keyboard-response","445","1508296","0.0-6.0-5.62","3046366","co38125","norming","","","","","","",""
"4665.054999999469","","","post_reveal_questions","survey-likert","446","1512964","0.0-6.0-6.62","3046366","co38125","norming","","","{""aha"":4}","[0]","../img/tt/1044tt.jpg","",""
"null","<div style=""font-size:60px;""> </div>","null","fixation","html-keyboard-response","447","1513169","0.0-6.0-0.63","3046366","co38125","norming","","","","","","",""
"null","../img/tt/019tt.jpg","null","mooney1","image-keyboard-response","448","1516178","0.0-6.0-1.63","3046366","co38125","norming","","","","","","",""
"7078.690000000177","","","post_mooney1_questions","survey-likert","449","1523260","0.0-6.0-2.63","3046366","co38125","norming","","","{""curiosity"":4,""confidence"":1}","[0,1]","../img/tt/019tt.jpg","",""
"6022.014999998501","","","recognition","survey-text","450","1529284","0.0-6.0-3.63","3046366","co38125","norming","","","{""guess"":""strijkijzer""}","","../img/tt/019tt.jpg","",""
"null","../img/gs/019gs.jpg","null","reveal","image-keyboard-response","451","1531290","0.0-6.0-4.63","3046366","co38125","norming","","","","","","",""
"null","../img/tt/019tt.jpg","null","mooney2","image-keyboard-response","452","1533294","0.0-6.0-5.63","3046366","co38125","norming","","","","","","",""
"3171.4350000002887","","","post_reveal_questions","survey-likert","453","1536468","0.0-6.0-6.63","3046366","co38125","norming","","","{""aha"":3}","[0]","../img/tt/019tt.jpg","",""
"null","<div style=""font-size:60px;""> </div>","null","fixation","html-keyboard-response","454","1536675","0.0-6.0-0.64","3046366","co38125","norming","","","","","","",""
"null","../img/tt/001tt.jpg","null","mooney1","image-keyboard-response","455","1539684","0.0-6.0-1.64","3046366","co38125","norming","","","","","","",""
"4468.6499999989755","","","post_mooney1_questions","survey-likert","456","1544156","0.0-6.0-2.64","3046366","co38125","norming","","","{""curiosity"":4,""confidence"":1}","[0,1]","../img/tt/001tt.jpg","",""
"2357.6200000008103","","","recognition","survey-text","457","1546515","0.0-6.0-3.64","3046366","co38125","norming","","","{""guess"":""buffel""}","","../img/tt/001tt.jpg","",""
"null","../img/gs/001gs.jpg","null","reveal","image-keyboard-response","458","1548517","0.0-6.0-4.64","3046366","co38125","norming","","","","","","",""
"null","../img/tt/001tt.jpg","null","mooney2","image-keyboard-response","459","1550519","0.0-6.0-5.64","3046366","co38125","norming","","","","","","",""
"3001.5849999999627","","","post_reveal_questions","survey-likert","460","1553523","0.0-6.0-6.64","3046366","co38125","norming","","","{""aha"":4}","[0]","../img/tt/001tt.jpg","",""
"null","<div style=""font-size:60px;""> </div>","null","fixation","html-keyboard-response","461","1553727","0.0-6.0-0.65","3046366","co38125","norming","","","","","","",""
"null","../img/tt/358tt.jpg","null","mooney1","image-keyboard-response","462","1556737","0.0-6.0-1.65","3046366","co38125","norming","","","","","","",""
"6254.3050000004005","","","post_mooney1_questions","survey-likert","463","1562995","0.0-6.0-2.65","3046366","co38125","norming","","","{""curiosity"":4,""confidence"":0}","[0,1]","../img/tt/358tt.jpg","",""
"1366.0499999986496","","","recognition","survey-text","464","1564363","0.0-6.0-3.65","3046366","co38125","norming","","","{""guess"":""""}","","../img/tt/358tt.jpg","",""
"null","../img/gs/358gs.jpg","null","reveal","image-keyboard-response","465","1566367","0.0-6.0-4.65","3046366","co38125","norming","","","","","","",""
"null","../img/tt/358tt.jpg","null","mooney2","image-keyboard-response","466","1568369","0.0-6.0-5.65","3046366","co38125","norming","","","","","","",""
"4462.980000000214","","","post_reveal_questions","survey-likert","467","1572835","0.0-6.0-6.65","3046366","co38125","norming","","","{""aha"":3}","[0]","../img/tt/358tt.jpg","",""
"null","<div style=""font-size:60px;""> </div>","null","fixation","html-keyboard-response","468","1573045","0.0-6.0-0.66","3046366","co38125","norming","","","","","","",""
"null","../img/tt/524tt.jpg","null","mooney1","image-keyboard-response","469","1576053","0.0-6.0-1.66","3046366","co38125","norming","","","","","","",""
"5323.010000000009","","","post_mooney1_questions","survey-likert","470","1581379","0.0-6.0-2.66","3046366","co38125","norming","","","{""curiosity"":4,""confidence"":2}","[0,1]","../img/tt/524tt.jpg","",""
"1517.9799999985844","","","recognition","survey-text","471","1582899","0.0-6.0-3.66","3046366","co38125","norming","","","{""guess"":""koe""}","","../img/tt/524tt.jpg","",""
"null","../img/gs/524gs.jpg","null","reveal","image-keyboard-response","472","1584907","0.0-6.0-4.66","3046366","co38125","norming","","","","","","",""
"null","../img/tt/524tt.jpg","null","mooney2","image-keyboard-response","473","1586909","0.0-6.0-5.66","3046366","co38125","norming","","","","","","",""
"2876.9300000004005","","","post_reveal_questions","survey-likert","474","1589787","0.0-6.0-6.66","3046366","co38125","norming","","","{""aha"":3}","[0]","../img/tt/524tt.jpg","",""
"null","<div style=""font-size:60px;""> </div>","null","fixation","html-keyboard-response","475","1589997","0.0-6.0-0.67","3046366","co38125","norming","","","","","","",""
"null","../img/tt/1004tt.jpg","null","mooney1","image-keyboard-response","476","1593006","0.0-6.0-1.67","3046366","co38125","norming","","","","","","",""
"5675.774999999674","","","post_mooney1_questions","survey-likert","477","1598683","0.0-6.0-2.67","3046366","co38125","norming","","","{""curiosity"":3,""confidence"":1}","[0,1]","../img/tt/1004tt.jpg","",""
"6757.480000000214","","","recognition","survey-text","478","1605443","0.0-6.0-3.67","3046366","co38125","norming","","","{""guess"":""kameel""}","","../img/tt/1004tt.jpg","",""
"null","../img/gs/1004gs.jpg","null","reveal","image-keyboard-response","479","1607452","0.0-6.0-4.67","3046366","co38125","norming","","","","","","",""
"null","../img/tt/1004tt.jpg","null","mooney2","image-keyboard-response","480","1609457","0.0-6.0-5.67","3046366","co38125","norming","","","","","","",""
"3018.1400000001304","","","post_reveal_questions","survey-likert","481","1612478","0.0-6.0-6.67","3046366","co38125","norming","","","{""aha"":3}","[0]","../img/tt/1004tt.jpg","",""
"null","<div style=""font-size:60px;""> </div>","null","fixation","html-keyboard-response","482","1612685","0.0-6.0-0.68","3046366","co38125","norming","","","","","","",""
"null","../img/tt/1226tt.jpg","null","mooney1","image-keyboard-response","483","1615695","0.0-6.0-1.68","3046366","co38125","norming","","","","","","",""
"4378.775000001071","","","post_mooney1_questions","survey-likert","484","1620078","0.0-6.0-2.68","3046366","co38125","norming","","","{""curiosity"":3,""confidence"":2}","[0,1]","../img/tt/1226tt.jpg","",""
"2278.244999999646","","","recognition","survey-text","485","1622358","0.0-6.0-3.68","3046366","co38125","norming","","","{""guess"":""bloem""}","","../img/tt/1226tt.jpg","",""
"null","../img/gs/1226gs.jpg","null","reveal","image-keyboard-response","486","1624359","0.0-6.0-4.68","3046366","co38125","norming","","","","","","",""
"null","../img/tt/1226tt.jpg","null","mooney2","image-keyboard-response","487","1626368","0.0-6.0-5.68","3046366","co38125","norming","","","","","","",""
"2075.2749999992084","","","post_reveal_questions","survey-likert","488","1628446","0.0-6.0-6.68","3046366","co38125","norming","","","{""aha"":4}","[0]","../img/tt/1226tt.jpg","",""
"null","<div style=""font-size:60px;""> </div>","null","fixation","html-keyboard-response","489","1628650","0.0-6.0-0.69","3046366","co38125","norming","","","","","","",""
"null","../img/tt/1260tt.jpg","null","mooney1","image-keyboard-response","490","1631655","0.0-6.0-1.69","3046366","co38125","norming","","","","","","",""
"2819.859999999637","","","post_mooney1_questions","survey-likert","491","1634478","0.0-6.0-2.69","3046366","co38125","norming","","","{""curiosity"":4,""confidence"":2}","[0,1]","../img/tt/1260tt.jpg","",""
"1926.0699999995995","","","recognition","survey-text","492","1636406","0.0-6.0-3.69","3046366","co38125","norming","","","{""guess"":""brood""}","","../img/tt/1260tt.jpg","",""
"null","../img/gs/1260gs.jpg","null","reveal","image-keyboard-response","493","1638408","0.0-6.0-4.69","3046366","co38125","norming","","","","","","",""
"null","../img/tt/1260tt.jpg","null","mooney2","image-keyboard-response","494","1640415","0.0-6.0-5.69","3046366","co38125","norming","","","","","","",""
"5379.675000000047","","","post_reveal_questions","survey-likert","495","1645798","0.0-6.0-6.69","3046366","co38125","norming","","","{""aha"":4}","[0]","../img/tt/1260tt.jpg","",""
"null","<div style=""font-size:60px;""> </div>","null","fixation","html-keyboard-response","496","1646001","0.0-6.0-0.70","3046366","co38125","norming","","","","","","",""
"null","../img/tt/1232tt.jpg","null","mooney1","image-keyboard-response","497","1649007","0.0-6.0-1.70","3046366","co38125","norming","","","","","","",""
"7630.110000000102","","","post_mooney1_questions","survey-likert","498","1656638","0.0-6.0-2.70","3046366","co38125","norming","","","{""curiosity"":4,""confidence"":2}","[0,1]","../img/tt/1232tt.jpg","",""
"1781.9550000003073","","","recognition","survey-text","499","1658422","0.0-6.0-3.70","3046366","co38125","norming","","","{""guess"":""eten""}","","../img/tt/1232tt.jpg","",""
"null","../img/gs/1232gs.jpg","null","reveal","image-keyboard-response","500","1660429","0.0-6.0-4.70","3046366","co38125","norming","","","","","","",""
"null","../img/tt/1232tt.jpg","null","mooney2","image-keyboard-response","501","1662433","0.0-6.0-5.70","3046366","co38125","norming","","","","","","",""
"2939.1049999995157","","","post_reveal_questions","survey-likert","502","1665374","0.0-6.0-6.70","3046366","co38125","norming","","","{""aha"":4}","[0]","../img/tt/1232tt.jpg","",""
"null","<div style=""font-size:60px;""> </div>","null","fixation","html-keyboard-response","503","1665580","0.0-6.0-0.71","3046366","co38125","norming","","","","","","",""
"null","../img/tt/1161tt.jpg","null","mooney1","image-keyboard-response","504","1668585","0.0-6.0-1.71","3046366","co38125","norming","","","","","","",""
"3803.234999999404","","","post_mooney1_questions","survey-likert","505","1672391","0.0-6.0-2.71","3046366","co38125","norming","","","{""curiosity"":5,""confidence"":4}","[0,1]","../img/tt/1161tt.jpg","",""
"10381.90500000026","","","recognition","survey-text","506","1682775","0.0-6.0-3.71","3046366","co38125","norming","","","{""guess"":""skin""}","","../img/tt/1161tt.jpg","",""
"null","../img/gs/1161gs.jpg","null","reveal","image-keyboard-response","507","1684780","0.0-6.0-4.71","3046366","co38125","norming","","","","","","",""
"null","../img/tt/1161tt.jpg","null","mooney2","image-keyboard-response","508","1686790","0.0-6.0-5.71","3046366","co38125","norming","","","","","","",""
"3174.9900000013877","","","post_reveal_questions","survey-likert","509","1689967","0.0-6.0-6.71","3046366","co38125","norming","","","{""aha"":5}","[0]","../img/tt/1161tt.jpg","",""
"null","<div style=""font-size:60px;""> </div>","null","fixation","html-keyboard-response","510","1690171","0.0-6.0-0.72","3046366","co38125","norming","","","","","","",""
"null","../img/tt/121tt.jpg","null","mooney1","image-keyboard-response","511","1693183","0.0-6.0-1.72","3046366","co38125","norming","","","","","","",""
"3772.9650000003166","","","post_mooney1_questions","survey-likert","512","1696959","0.0-6.0-2.72","3046366","co38125","norming","","","{""curiosity"":5,""confidence"":3}","[0,1]","../img/tt/121tt.jpg","",""
"1814.434999998426","","","recognition","survey-text","513","1698775","0.0-6.0-3.72","3046366","co38125","norming","","","{""guess"":""stier""}","","../img/tt/121tt.jpg","",""
"null","../img/gs/121gs.jpg","null","reveal","image-keyboard-response","514","1700776","0.0-6.0-4.72","3046366","co38125","norming","","","","","","",""
"null","../img/tt/121tt.jpg","null","mooney2","image-keyboard-response","515","1702779","0.0-6.0-5.72","3046366","co38125","norming","","","","","","",""
"2752.5650000006426","","","post_reveal_questions","survey-likert","516","1705535","0.0-6.0-6.72","3046366","co38125","norming","","","{""aha"":5}","[0]","../img/tt/121tt.jpg","",""
"null","<div style=""font-size:60px;""> </div>","null","fixation","html-keyboard-response","517","1705746","0.0-6.0-0.73","3046366","co38125","norming","","","","","","",""
"null","../img/tt/105tt.jpg","null","mooney1","image-keyboard-response","518","1708755","0.0-6.0-1.73","3046366","co38125","norming","","","","","","",""
"5897.184999999823","","","post_mooney1_questions","survey-likert","519","1714655","0.0-6.0-2.73","3046366","co38125","norming","","","{""curiosity"":4,""confidence"":0}","[0,1]","../img/tt/105tt.jpg","",""
"677.875000001397","","","recognition","survey-text","520","1715335","0.0-6.0-3.73","3046366","co38125","norming","","","{""guess"":""""}","","../img/tt/105tt.jpg","",""
"null","../img/gs/105gs.jpg","null","reveal","image-keyboard-response","521","1717346","0.0-6.0-4.73","3046366","co38125","norming","","","","","","",""
"null","../img/tt/105tt.jpg","null","mooney2","image-keyboard-response","522","1719355","0.0-6.0-5.73","3046366","co38125","norming","","","","","","",""
"3993.2299999999814","","","post_reveal_questions","survey-likert","523","1723351","0.0-6.0-6.73","3046366","co38125","norming","","","{""aha"":3}","[0]","../img/tt/105tt.jpg","",""
"null","<div style=""font-size:60px;""> </div>","null","fixation","html-keyboard-response","524","1723554","0.0-6.0-0.74","3046366","co38125","norming","","","","","","",""
"null","../img/tt/436tt.jpg","null","mooney1","image-keyboard-response","525","1726566","0.0-6.0-1.74","3046366","co38125","norming","","","","","","",""
"5541.325000000186","","","post_mooney1_questions","survey-likert","526","1732108","0.0-6.0-2.74","3046366","co38125","norming","","","{""curiosity"":3,""confidence"":1}","[0,1]","../img/tt/436tt.jpg","",""
"5206.430000000168","","","recognition","survey-text","527","1737317","0.0-6.0-3.74","3046366","co38125","norming","","","{""guess"":""boek""}","","../img/tt/436tt.jpg","",""
"null","../img/gs/436gs.jpg","null","reveal","image-keyboard-response","528","1739324","0.0-6.0-4.74","3046366","co38125","norming","","","","","","",""
"null","../img/tt/436tt.jpg","null","mooney2","image-keyboard-response","529","1741334","0.0-6.0-5.74","3046366","co38125","norming","","","","","","",""
"4212.950000001118","","","post_reveal_questions","survey-likert","530","1745548","0.0-6.0-6.74","3046366","co38125","norming","","","{""aha"":4}","[0]","../img/tt/436tt.jpg","",""
"null","<div style=""font-size:60px;""> </div>","null","fixation","html-keyboard-response","531","1745756","0.0-6.0-0.75","3046366","co38125","norming","","","","","","",""
"null","../img/tt/031tt.jpg","null","mooney1","image-keyboard-response","532","1748765","0.0-6.0-1.75","3046366","co38125","norming","","","","","","",""
"3251.939999999944","","","post_mooney1_questions","survey-likert","533","1752020","0.0-6.0-2.75","3046366","co38125","norming","","","{""curiosity"":5,""confidence"":3}","[0,1]","../img/tt/031tt.jpg","",""
"1453.8650000013877","","","recognition","survey-text","534","1753476","0.0-6.0-3.75","3046366","co38125","norming","","","{""guess"":""beer""}","","../img/tt/031tt.jpg","",""
"null","../img/gs/031gs.jpg","null","reveal","image-keyboard-response","535","1755481","0.0-6.0-4.75","3046366","co38125","norming","","","","","","",""
"null","../img/tt/031tt.jpg","null","mooney2","image-keyboard-response","536","1757488","0.0-6.0-5.75","3046366","co38125","norming","","","","","","",""
"1912.485000000801","","","post_reveal_questions","survey-likert","537","1759404","0.0-6.0-6.75","3046366","co38125","norming","","","{""aha"":1}","[0]","../img/tt/031tt.jpg","",""
"null","<div style=""font-size:60px;""> </div>","null","fixation","html-keyboard-response","538","1759613","0.0-6.0-0.76","3046366","co38125","norming","","","","","","",""
"null","../img/tt/126tt.jpg","null","mooney1","image-keyboard-response","539","1762619","0.0-6.0-1.76","3046366","co38125","norming","","","","","","",""
"8536.570000000298","","","post_mooney1_questions","survey-likert","540","1771156","0.0-6.0-2.76","3046366","co38125","norming","","","{""curiosity"":5,""confidence"":1}","[0,1]","../img/tt/126tt.jpg","",""
"9677.859999999637","","","recognition","survey-text","541","1780836","0.0-6.0-3.76","3046366","co38125","norming","","","{""guess"":""landschap""}","","../img/tt/126tt.jpg","",""
"null","../img/gs/126gs.jpg","null","reveal","image-keyboard-response","542","1782837","0.0-6.0-4.76","3046366","co38125","norming","","","","","","",""
"null","../img/tt/126tt.jpg","null","mooney2","image-keyboard-response","543","1784843","0.0-6.0-5.76","3046366","co38125","norming","","","","","","",""
"3750.6900000006426","","","post_reveal_questions","survey-likert","544","1788596","0.0-6.0-6.76","3046366","co38125","norming","","","{""aha"":3}","[0]","../img/tt/126tt.jpg","",""
"null","<div style=""font-size:60px;""> </div>","null","fixation","html-keyboard-response","545","1788801","0.0-6.0-0.77","3046366","co38125","norming","","","","","","",""
"null","../img/tt/1027tt.jpg","null","mooney1","image-keyboard-response","546","1791819","0.0-6.0-1.77","3046366","co38125","norming","","","","","","",""
"3050.774999999674","","","post_mooney1_questions","survey-likert","547","1794873","0.0-6.0-2.77","3046366","co38125","norming","","","{""curiosity"":5,""confidence"":4}","[0,1]","../img/tt/1027tt.jpg","",""
"2334.25","","","recognition","survey-text","548","1797209","0.0-6.0-3.77","3046366","co38125","norming","","","{""guess"":""kus""}","","../img/tt/1027tt.jpg","",""
"null","../img/gs/1027gs.jpg","null","reveal","image-keyboard-response","549","1799218","0.0-6.0-4.77","3046366","co38125","norming","","","","","","",""
"null","../img/tt/1027tt.jpg","null","mooney2","image-keyboard-response","550","1801220","0.0-6.0-5.77","3046366","co38125","norming","","","","","","",""
"2649.9500000008848","","","post_reveal_questions","survey-likert","551","1803873","0.0-6.0-6.77","3046366","co38125","norming","","","{""aha"":6}","[0]","../img/tt/1027tt.jpg","",""
