"rt","stimulus","key_press","test_part","trial_type","trial_index","time_elapsed","internal_node_id","totalTime","subject","experiment_name","button_pressed","success","responses","question_order","currentStim","old","correct"
"36067.32000000011","Welcome to the experiment. This is an online experiment so please don't close the tab/window until we say goodbye.  Press any key to begin.","74","instructions","html-keyboard-response","0","36074","0.0-0.0","2938582","co38140","norming","","","","","","",""
"42879.15500000054","<div style='word-wrap: break-word; width: 900px'><h3>Please consider this information carefully before deciding whether to participate in this research</h3><ul style='text-align: left; font-size: .8em;'><li><b>Purpose of the research</b>: To examine how people process images.</li><li><b>What you will do in this research</b>:  Stimuli (images) will be presented on the computer and you will be asked different questions about them.</li><li><b>Time required</b>: Participation will take between 45 and 60 minutes to complete.</li><li><b>Risks</b>:  There are no anticipated risks associated with participating in this study. The effects of participating should be comparable to those you would experience from viewing a computer monitor for 30 minutes and using a mouse or keyboard.</li><li><b>Benefits</b>:  This study provides no benefits to you individually except for the credit. The study provides important information about the nature of perception and learning.</li><li><b>Confidentiality</b>:  Your participation in this study will remain confidential. No personally identifiable information will be associated with your data. Your de-identified data may be shared with other researchers and used in future projects.</li><li><b>Participation and withdrawal</b>:  Your participation in this study is completely voluntary and you may refuse to participate or you may choose to withdraw at any time without penalty.</li><li><b>How to contact the researchers</b>: If you have questions or concerns about your participation or payment, or want to request a summary of research findings, please contact Sander Van de Cruys (KU Leuven), at sander.vandecruys@kuleuven.be.</li></ul><p>The nature and purpose of this research have been sufficiently explained and I agree to participate in this study.  I understand that I am free to withdraw at any time without incurring any penalty.</p><p>Please consent by clicking the button below to continue. Otherwise, please exit the study at this time.</p></div>","","instructions","html-button-response","1","78956","0.0-1.0","2938582","co38140","norming","0","","","","","",""
"","","","instructions","fullscreen","2","89569","0.0-2.0","2938582","co38140","norming","","true","","","","",""
"38239.99999999978","","","sona","survey-html-form","3","127821","0.0-3.0","2938582","co38140","norming","","","[{""name"":""sonaid"",""value"":""38140""},{""name"":""debrief"",""value"":""no""},{""name"":""datajoin"",""value"":""yes""}]","","","",""
"78876.25999999909","<div style='word-wrap: break-word; width: 900px'><h3>Instructions</h3><p>This experiment will have 3 parts. In the first part you will see a series of distorted images like the one below on the left. As you can see in the righthand image, the distorted images are derived from actual photographs. In what follows, you will <strong>briefly</strong> be presented with <strong>only</strong> the distorted image.</p> <div style='float: left; margin-right: 20px;'><img src='../img/018tt.jpg' height='250' width='250'></img></div><div style='float: right; margin-left: 20px;'><img src='../img/018gs.jpg' height='250' width='250'></img></div><p>Subsequently you will be asked a few questions about the image: One question on how <strong>curious</strong> you are about the solution and one on how <strong>confident</strong> you are that you know the solution.</p>Next, we ask you to make a guess on what is in the image. Note that it is OK to name just the <strong>basic level category</strong>. For example when you see a parrot in the image, 'parrot' will obviously be a correct answer but also correct is 'bird'. However, 'animal' will <strong>not</strong> be counted as a correct response. For the example above, 'rose' would be correct or 'flower', but not 'plant'. When soccer players are depicted, 'soccer', 'football', 'soccer players' will be correct, but not 'humans', 'outdoors', or 'sports'. You do not need to describe the image in full, just name the main object in it <strong>in one or two words</strong>. All images depict objects from one of the following broad level categories: animals, inanimate objects, plants, sports, vehicles, and food. Recognizing means knowing <strong>more</strong> than these broad labels for a given image. But we always encourage you to <strong>make a guess</strong> if you can. Note that you are allowed to use <strong>Dutch and English</strong> in your answers, whatever comes easiest for you.</p><p>Press any key to continue.</p></div>","72","instructions","html-keyboard-response","4","206703","0.0-4.0","2938582","co38140","norming","","","","","","",""
"130684.98499999987","<div style='word-wrap: break-word; width: 900px'><h3>Instructions</h3> <p>Next, the solution image will be revealed to you and you'll be asked to indicate how strong your <strong>aha-experience</strong> was after seeing the solution. This describes the positive feeling of the 'click' you sometimes experience, when the pieces of the 'puzzle' fall together and you suddenly have 'insight' in the image.</p><img src='aha.jpg' height='188' width='250'></img><p>Note that there are no right or wrong answers. We are interested in what <strong>you</strong> see in the image and how <strong>you</strong> feel about it.</p><p>Press any key to start the experiment.</p></div>","70","instructions","html-keyboard-response","5","337387","0.0-5.0","2938582","co38140","norming","","","","","","",""
"null","<div style=""font-size:60px;""> </div>","null","fixation","html-keyboard-response","6","337597","0.0-6.0-0.0","2938582","co38140","norming","","","","","","",""
"null","../img/tt/085tt.jpg","null","mooney1","image-keyboard-response","7","340607","0.0-6.0-1.0","2938582","co38140","norming","","","","","","",""
"8169.1599999994505","","","post_mooney1_questions","survey-likert","8","348779","0.0-6.0-2.0","2938582","co38140","norming","","","{""curiosity"":3,""confidence"":0}","[0,1]","../img/tt/085tt.jpg","",""
"9645.539999999572","","","recognition","survey-text","9","358427","0.0-6.0-3.0","2938582","co38140","norming","","","{""guess"":""bloem""}","","../img/tt/085tt.jpg","",""
"null","../img/gs/085gs.jpg","null","reveal","image-keyboard-response","10","360429","0.0-6.0-4.0","2938582","co38140","norming","","","","","","",""
"null","../img/tt/085tt.jpg","null","mooney2","image-keyboard-response","11","362435","0.0-6.0-5.0","2938582","co38140","norming","","","","","","",""
"3908.7450000006356","","","post_reveal_questions","survey-likert","12","366346","0.0-6.0-6.0","2938582","co38140","norming","","","{""aha"":0}","[0]","../img/tt/085tt.jpg","",""
"null","<div style=""font-size:60px;""> </div>","null","fixation","html-keyboard-response","13","366558","0.0-6.0-0.1","2938582","co38140","norming","","","","","","",""
"null","../img/tt/1055tt.jpg","null","mooney1","image-keyboard-response","14","369561","0.0-6.0-1.1","2938582","co38140","norming","","","","","","",""
"7166.810000000638","","","post_mooney1_questions","survey-likert","15","376730","0.0-6.0-2.1","2938582","co38140","norming","","","{""curiosity"":6,""confidence"":3}","[0,1]","../img/tt/1055tt.jpg","",""
"1822.1450000000768","","","recognition","survey-text","16","378555","0.0-6.0-3.1","2938582","co38140","norming","","","{""guess"":""vijver""}","","../img/tt/1055tt.jpg","",""
"null","../img/gs/1055gs.jpg","null","reveal","image-keyboard-response","17","380556","0.0-6.0-4.1","2938582","co38140","norming","","","","","","",""
"null","../img/tt/1055tt.jpg","null","mooney2","image-keyboard-response","18","382558","0.0-6.0-5.1","2938582","co38140","norming","","","","","","",""
"3042.260000000184","","","post_reveal_questions","survey-likert","19","385602","0.0-6.0-6.1","2938582","co38140","norming","","","{""aha"":3}","[0]","../img/tt/1055tt.jpg","",""
"null","<div style=""font-size:60px;""> </div>","null","fixation","html-keyboard-response","20","385804","0.0-6.0-0.2","2938582","co38140","norming","","","","","","",""
"null","../img/tt/524tt.jpg","null","mooney1","image-keyboard-response","21","388813","0.0-6.0-1.2","2938582","co38140","norming","","","","","","",""
"4010.659999999916","","","post_mooney1_questions","survey-likert","22","392826","0.0-6.0-2.2","2938582","co38140","norming","","","{""curiosity"":0,""confidence"":0}","[0,1]","../img/tt/524tt.jpg","",""
"4078.195000000065","","","recognition","survey-text","23","396906","0.0-6.0-3.2","2938582","co38140","norming","","","{""guess"":""een berg""}","","../img/tt/524tt.jpg","",""
"null","../img/gs/524gs.jpg","null","reveal","image-keyboard-response","24","398915","0.0-6.0-4.2","2938582","co38140","norming","","","","","","",""
"null","../img/tt/524tt.jpg","null","mooney2","image-keyboard-response","25","400918","0.0-6.0-5.2","2938582","co38140","norming","","","","","","",""
"2809.479999999865","","","post_reveal_questions","survey-likert","26","403729","0.0-6.0-6.2","2938582","co38140","norming","","","{""aha"":0}","[0]","../img/tt/524tt.jpg","",""
"null","<div style=""font-size:60px;""> </div>","null","fixation","html-keyboard-response","27","403944","0.0-6.0-0.3","2938582","co38140","norming","","","","","","",""
"null","../img/tt/096tt.jpg","null","mooney1","image-keyboard-response","28","406956","0.0-6.0-1.3","2938582","co38140","norming","","","","","","",""
"6002.984999999171","","","post_mooney1_questions","survey-likert","29","412961","0.0-6.0-2.3","2938582","co38140","norming","","","{""curiosity"":6,""confidence"":3}","[0,1]","../img/tt/096tt.jpg","",""
"2558.119999999646","","","recognition","survey-text","30","415521","0.0-6.0-3.3","2938582","co38140","norming","","","{""guess"":""vliegtuig""}","","../img/tt/096tt.jpg","",""
"null","../img/gs/096gs.jpg","null","reveal","image-keyboard-response","31","417523","0.0-6.0-4.3","2938582","co38140","norming","","","","","","",""
"null","../img/tt/096tt.jpg","null","mooney2","image-keyboard-response","32","419532","0.0-6.0-5.3","2938582","co38140","norming","","","","","","",""
"2682.694999999483","","","post_reveal_questions","survey-likert","33","422217","0.0-6.0-6.3","2938582","co38140","norming","","","{""aha"":5}","[0]","../img/tt/096tt.jpg","",""
"null","<div style=""font-size:60px;""> </div>","null","fixation","html-keyboard-response","34","422418","0.0-6.0-0.4","2938582","co38140","norming","","","","","","",""
"null","../img/tt/1279tt.jpg","null","mooney1","image-keyboard-response","35","425426","0.0-6.0-1.4","2938582","co38140","norming","","","","","","",""
"4669.024999999267","","","post_mooney1_questions","survey-likert","36","430097","0.0-6.0-2.4","2938582","co38140","norming","","","{""curiosity"":0,""confidence"":0}","[0,1]","../img/tt/1279tt.jpg","",""
"989.8450000000303","","","recognition","survey-text","37","431089","0.0-6.0-3.4","2938582","co38140","norming","","","{""guess"":""""}","","../img/tt/1279tt.jpg","",""
"null","../img/gs/1279gs.jpg","null","reveal","image-keyboard-response","38","433090","0.0-6.0-4.4","2938582","co38140","norming","","","","","","",""
"null","../img/tt/1279tt.jpg","null","mooney2","image-keyboard-response","39","435093","0.0-6.0-5.4","2938582","co38140","norming","","","","","","",""
"3147.6650000004447","","","post_reveal_questions","survey-likert","40","438241","0.0-6.0-6.4","2938582","co38140","norming","","","{""aha"":6}","[0]","../img/tt/1279tt.jpg","",""
"null","<div style=""font-size:60px;""> </div>","null","fixation","html-keyboard-response","41","438442","0.0-6.0-0.5","2938582","co38140","norming","","","","","","",""
"null","../img/tt/1175tt.jpg","null","mooney1","image-keyboard-response","42","441446","0.0-6.0-1.5","2938582","co38140","norming","","","","","","",""
"3783.980000000156","","","post_mooney1_questions","survey-likert","43","445233","0.0-6.0-2.5","2938582","co38140","norming","","","{""curiosity"":4,""confidence"":3}","[0,1]","../img/tt/1175tt.jpg","",""
"1598.045000000624","","","recognition","survey-text","44","446832","0.0-6.0-3.5","2938582","co38140","norming","","","{""guess"":""dieren""}","","../img/tt/1175tt.jpg","",""
"null","../img/gs/1175gs.jpg","null","reveal","image-keyboard-response","45","448834","0.0-6.0-4.5","2938582","co38140","norming","","","","","","",""
"null","../img/tt/1175tt.jpg","null","mooney2","image-keyboard-response","46","450840","0.0-6.0-5.5","2938582","co38140","norming","","","","","","",""
"4118.619999999297","","","post_reveal_questions","survey-likert","47","454961","0.0-6.0-6.5","2938582","co38140","norming","","","{""aha"":0}","[0]","../img/tt/1175tt.jpg","",""
"null","<div style=""font-size:60px;""> </div>","null","fixation","html-keyboard-response","48","455162","0.0-6.0-0.6","2938582","co38140","norming","","","","","","",""
"null","../img/tt/307tt.jpg","null","mooney1","image-keyboard-response","49","458167","0.0-6.0-1.6","2938582","co38140","norming","","","","","","",""
"3487.6100000001024","","","post_mooney1_questions","survey-likert","50","461655","0.0-6.0-2.6","2938582","co38140","norming","","","{""curiosity"":4,""confidence"":2}","[0,1]","../img/tt/307tt.jpg","",""
"6421.889999999665","","","recognition","survey-text","51","468079","0.0-6.0-3.6","2938582","co38140","norming","","","{""guess"":""schoenen""}","","../img/tt/307tt.jpg","",""
"null","../img/gs/307gs.jpg","null","reveal","image-keyboard-response","52","470088","0.0-6.0-4.6","2938582","co38140","norming","","","","","","",""
"null","../img/tt/307tt.jpg","null","mooney2","image-keyboard-response","53","472099","0.0-6.0-5.6","2938582","co38140","norming","","","","","","",""
"1850.1649999998626","","","post_reveal_questions","survey-likert","54","473951","0.0-6.0-6.6","2938582","co38140","norming","","","{""aha"":3}","[0]","../img/tt/307tt.jpg","",""
"null","<div style=""font-size:60px;""> </div>","null","fixation","html-keyboard-response","55","474152","0.0-6.0-0.7","2938582","co38140","norming","","","","","","",""
"null","../img/tt/1012tt.jpg","null","mooney1","image-keyboard-response","56","477158","0.0-6.0-1.7","2938582","co38140","norming","","","","","","",""
"5296.044999999111","","","post_mooney1_questions","survey-likert","57","482455","0.0-6.0-2.7","2938582","co38140","norming","","","{""curiosity"":0,""confidence"":0}","[0,1]","../img/tt/1012tt.jpg","",""
"3718.254999999772","","","recognition","survey-text","58","486175","0.0-6.0-3.7","2938582","co38140","norming","","","{""guess"":""""}","","../img/tt/1012tt.jpg","",""
"null","../img/gs/1012gs.jpg","null","reveal","image-keyboard-response","59","488179","0.0-6.0-4.7","2938582","co38140","norming","","","","","","",""
"null","../img/tt/1012tt.jpg","null","mooney2","image-keyboard-response","60","490190","0.0-6.0-5.7","2938582","co38140","norming","","","","","","",""
"3918.405000000377","","","post_reveal_questions","survey-likert","61","494111","0.0-6.0-6.7","2938582","co38140","norming","","","{""aha"":1}","[0]","../img/tt/1012tt.jpg","",""
"null","<div style=""font-size:60px;""> </div>","null","fixation","html-keyboard-response","62","494321","0.0-6.0-0.8","2938582","co38140","norming","","","","","","",""
"null","../img/tt/1066tt.jpg","null","mooney1","image-keyboard-response","63","497323","0.0-6.0-1.8","2938582","co38140","norming","","","","","","",""
"5202.119999999937","","","post_mooney1_questions","survey-likert","64","502527","0.0-6.0-2.8","2938582","co38140","norming","","","{""curiosity"":0,""confidence"":6}","[0,1]","../img/tt/1066tt.jpg","",""
"2125.8549999984098","","","recognition","survey-text","65","504655","0.0-6.0-3.8","2938582","co38140","norming","","","{""guess"":""bus""}","","../img/tt/1066tt.jpg","",""
"null","../img/gs/1066gs.jpg","null","reveal","image-keyboard-response","66","506656","0.0-6.0-4.8","2938582","co38140","norming","","","","","","",""
"null","../img/tt/1066tt.jpg","null","mooney2","image-keyboard-response","67","508658","0.0-6.0-5.8","2938582","co38140","norming","","","","","","",""
"2898.890000000363","","","post_reveal_questions","survey-likert","68","511559","0.0-6.0-6.8","2938582","co38140","norming","","","{""aha"":0}","[0]","../img/tt/1066tt.jpg","",""
"null","<div style=""font-size:60px;""> </div>","null","fixation","html-keyboard-response","69","511765","0.0-6.0-0.9","2938582","co38140","norming","","","","","","",""
"null","../img/tt/056tt.jpg","null","mooney1","image-keyboard-response","70","514776","0.0-6.0-1.9","2938582","co38140","norming","","","","","","",""
"6020.804999998305","","","post_mooney1_questions","survey-likert","71","520800","0.0-6.0-2.9","2938582","co38140","norming","","","{""curiosity"":2,""confidence"":3}","[0,1]","../img/tt/056tt.jpg","",""
"1966.109999999404","","","recognition","survey-text","72","522768","0.0-6.0-3.9","2938582","co38140","norming","","","{""guess"":""dier""}","","../img/tt/056tt.jpg","",""
"null","../img/gs/056gs.jpg","null","reveal","image-keyboard-response","73","524769","0.0-6.0-4.9","2938582","co38140","norming","","","","","","",""
"null","../img/tt/056tt.jpg","null","mooney2","image-keyboard-response","74","526771","0.0-6.0-5.9","2938582","co38140","norming","","","","","","",""
"3059.1949999998324","","","post_reveal_questions","survey-likert","75","529832","0.0-6.0-6.9","2938582","co38140","norming","","","{""aha"":4}","[0]","../img/tt/056tt.jpg","",""
"null","<div style=""font-size:60px;""> </div>","null","fixation","html-keyboard-response","76","530033","0.0-6.0-0.10","2938582","co38140","norming","","","","","","",""
"null","../img/tt/515tt.jpg","null","mooney1","image-keyboard-response","77","533037","0.0-6.0-1.10","2938582","co38140","norming","","","","","","",""
"5154.384999999893","","","post_mooney1_questions","survey-likert","78","538192","0.0-6.0-2.10","2938582","co38140","norming","","","{""curiosity"":4,""confidence"":0}","[0,1]","../img/tt/515tt.jpg","",""
"414.08000000042375","","","recognition","survey-text","79","538608","0.0-6.0-3.10","2938582","co38140","norming","","","{""guess"":""""}","","../img/tt/515tt.jpg","",""
"null","../img/gs/515gs.jpg","null","reveal","image-keyboard-response","80","540611","0.0-6.0-4.10","2938582","co38140","norming","","","","","","",""
"null","../img/tt/515tt.jpg","null","mooney2","image-keyboard-response","81","542613","0.0-6.0-5.10","2938582","co38140","norming","","","","","","",""
"2080.830000000773","","","post_reveal_questions","survey-likert","82","544696","0.0-6.0-6.10","2938582","co38140","norming","","","{""aha"":3}","[0]","../img/tt/515tt.jpg","",""
"null","<div style=""font-size:60px;""> </div>","null","fixation","html-keyboard-response","83","544897","0.0-6.0-0.11","2938582","co38140","norming","","","","","","",""
"null","../img/tt/436tt.jpg","null","mooney1","image-keyboard-response","84","547901","0.0-6.0-1.11","2938582","co38140","norming","","","","","","",""
"3399.5699999995995","","","post_mooney1_questions","survey-likert","85","551303","0.0-6.0-2.11","2938582","co38140","norming","","","{""curiosity"":2,""confidence"":2}","[0,1]","../img/tt/436tt.jpg","",""
"3638.3750000004657","","","recognition","survey-text","86","554944","0.0-6.0-3.11","2938582","co38140","norming","","","{""guess"":""krokodil""}","","../img/tt/436tt.jpg","",""
"null","../img/gs/436gs.jpg","null","reveal","image-keyboard-response","87","556945","0.0-6.0-4.11","2938582","co38140","norming","","","","","","",""
"null","../img/tt/436tt.jpg","null","mooney2","image-keyboard-response","88","558956","0.0-6.0-5.11","2938582","co38140","norming","","","","","","",""
"2889.909999999916","","","post_reveal_questions","survey-likert","89","561848","0.0-6.0-6.11","2938582","co38140","norming","","","{""aha"":4}","[0]","../img/tt/436tt.jpg","",""
"null","<div style=""font-size:60px;""> </div>","null","fixation","html-keyboard-response","90","562050","0.0-6.0-0.12","2938582","co38140","norming","","","","","","",""
"null","../img/tt/1224tt.jpg","null","mooney1","image-keyboard-response","91","565061","0.0-6.0-1.12","2938582","co38140","norming","","","","","","",""
"6345.965000000433","","","post_mooney1_questions","survey-likert","92","571408","0.0-6.0-2.12","2938582","co38140","norming","","","{""curiosity"":5,""confidence"":3}","[0,1]","../img/tt/1224tt.jpg","",""
"1694.504999999539","","","recognition","survey-text","93","573104","0.0-6.0-3.12","2938582","co38140","norming","","","{""guess"":""persoon""}","","../img/tt/1224tt.jpg","",""
"null","../img/gs/1224gs.jpg","null","reveal","image-keyboard-response","94","575109","0.0-6.0-4.12","2938582","co38140","norming","","","","","","",""
"null","../img/tt/1224tt.jpg","null","mooney2","image-keyboard-response","95","577119","0.0-6.0-5.12","2938582","co38140","norming","","","","","","",""
"3111.869999998831","","","post_reveal_questions","survey-likert","96","580234","0.0-6.0-6.12","2938582","co38140","norming","","","{""aha"":5}","[0]","../img/tt/1224tt.jpg","",""
"null","<div style=""font-size:60px;""> </div>","null","fixation","html-keyboard-response","97","580435","0.0-6.0-0.13","2938582","co38140","norming","","","","","","",""
"null","../img/tt/040tt.jpg","null","mooney1","image-keyboard-response","98","583437","0.0-6.0-1.13","2938582","co38140","norming","","","","","","",""
"4505.849999999511","","","post_mooney1_questions","survey-likert","99","587946","0.0-6.0-2.13","2938582","co38140","norming","","","{""curiosity"":4,""confidence"":0}","[0,1]","../img/tt/040tt.jpg","",""
"4838.109999998822","","","recognition","survey-text","100","592786","0.0-6.0-3.13","2938582","co38140","norming","","","{""guess"":""geen ide""}","","../img/tt/040tt.jpg","",""
"null","../img/gs/040gs.jpg","null","reveal","image-keyboard-response","101","594788","0.0-6.0-4.13","2938582","co38140","norming","","","","","","",""
"null","../img/tt/040tt.jpg","null","mooney2","image-keyboard-response","102","596795","0.0-6.0-5.13","2938582","co38140","norming","","","","","","",""
"2876.675000001327","","","post_reveal_questions","survey-likert","103","599674","0.0-6.0-6.13","2938582","co38140","norming","","","{""aha"":0}","[0]","../img/tt/040tt.jpg","",""
"null","<div style=""font-size:60px;""> </div>","null","fixation","html-keyboard-response","104","599878","0.0-6.0-0.14","2938582","co38140","norming","","","","","","",""
"null","../img/tt/1123tt.jpg","null","mooney1","image-keyboard-response","105","602883","0.0-6.0-1.14","2938582","co38140","norming","","","","","","",""
"7771.8150000000605","","","post_mooney1_questions","survey-likert","106","610658","0.0-6.0-2.14","2938582","co38140","norming","","","{""curiosity"":2,""confidence"":4}","[0,1]","../img/tt/1123tt.jpg","",""
"3534.2799999999115","","","recognition","survey-text","107","614194","0.0-6.0-3.14","2938582","co38140","norming","","","{""guess"":""landschap""}","","../img/tt/1123tt.jpg","",""
"null","../img/gs/1123gs.jpg","null","reveal","image-keyboard-response","108","616195","0.0-6.0-4.14","2938582","co38140","norming","","","","","","",""
"null","../img/tt/1123tt.jpg","null","mooney2","image-keyboard-response","109","618196","0.0-6.0-5.14","2938582","co38140","norming","","","","","","",""
"2363.080000001006","","","post_reveal_questions","survey-likert","110","620562","0.0-6.0-6.14","2938582","co38140","norming","","","{""aha"":3}","[0]","../img/tt/1123tt.jpg","",""
"null","<div style=""font-size:60px;""> </div>","null","fixation","html-keyboard-response","111","620764","0.0-6.0-0.15","2938582","co38140","norming","","","","","","",""
"null","../img/tt/270tt.jpg","null","mooney1","image-keyboard-response","112","623768","0.0-6.0-1.15","2938582","co38140","norming","","","","","","",""
"5829.765000000363","","","post_mooney1_questions","survey-likert","113","629602","0.0-6.0-2.15","2938582","co38140","norming","","","{""curiosity"":2,""confidence"":2}","[0,1]","../img/tt/270tt.jpg","",""
"3494.015000000247","","","recognition","survey-text","114","633097","0.0-6.0-3.15","2938582","co38140","norming","","","{""guess"":""een hek""}","","../img/tt/270tt.jpg","",""
"null","../img/gs/270gs.jpg","null","reveal","image-keyboard-response","115","635101","0.0-6.0-4.15","2938582","co38140","norming","","","","","","",""
"null","../img/tt/270tt.jpg","null","mooney2","image-keyboard-response","116","637103","0.0-6.0-5.15","2938582","co38140","norming","","","","","","",""
"4913.995000000694","","","post_reveal_questions","survey-likert","117","642010","0.0-6.0-6.15","2938582","co38140","norming","","","{""aha"":3}","[0]","../img/tt/270tt.jpg","",""
"null","<div style=""font-size:60px;""> </div>","null","fixation","html-keyboard-response","118","642212","0.0-6.0-0.16","2938582","co38140","norming","","","","","","",""
"null","../img/tt/020tt.jpg","null","mooney1","image-keyboard-response","119","645223","0.0-6.0-1.16","2938582","co38140","norming","","","","","","",""
"4952.129999999655","","","post_mooney1_questions","survey-likert","120","650178","0.0-6.0-2.16","2938582","co38140","norming","","","{""curiosity"":3,""confidence"":3}","[0,1]","../img/tt/020tt.jpg","",""
"3446.1200000005774","","","recognition","survey-text","121","653626","0.0-6.0-3.16","2938582","co38140","norming","","","{""guess"":""een vrouw""}","","../img/tt/020tt.jpg","",""
"null","../img/gs/020gs.jpg","null","reveal","image-keyboard-response","122","655627","0.0-6.0-4.16","2938582","co38140","norming","","","","","","",""
"null","../img/tt/020tt.jpg","null","mooney2","image-keyboard-response","123","657634","0.0-6.0-5.16","2938582","co38140","norming","","","","","","",""
"3077.9799999999814","","","post_reveal_questions","survey-likert","124","660714","0.0-6.0-6.16","2938582","co38140","norming","","","{""aha"":4}","[0]","../img/tt/020tt.jpg","",""
"null","<div style=""font-size:60px;""> </div>","null","fixation","html-keyboard-response","125","660915","0.0-6.0-0.17","2938582","co38140","norming","","","","","","",""
"null","../img/tt/438tt.jpg","null","mooney1","image-keyboard-response","126","663926","0.0-6.0-1.17","2938582","co38140","norming","","","","","","",""
"4497.2250000010245","","","post_mooney1_questions","survey-likert","127","668426","0.0-6.0-2.17","2938582","co38140","norming","","","{""curiosity"":2,""confidence"":2}","[0,1]","../img/tt/438tt.jpg","",""
"5886.055000000866","","","recognition","survey-text","128","674314","0.0-6.0-3.17","2938582","co38140","norming","","","{""guess"":""geen idee""}","","../img/tt/438tt.jpg","",""
"null","../img/gs/438gs.jpg","null","reveal","image-keyboard-response","129","676325","0.0-6.0-4.17","2938582","co38140","norming","","","","","","",""
"null","../img/tt/438tt.jpg","null","mooney2","image-keyboard-response","130","678327","0.0-6.0-5.17","2938582","co38140","norming","","","","","","",""
"2495.9749999998603","","","post_reveal_questions","survey-likert","131","680826","0.0-6.0-6.17","2938582","co38140","norming","","","{""aha"":5}","[0]","../img/tt/438tt.jpg","",""
"null","<div style=""font-size:60px;""> </div>","null","fixation","html-keyboard-response","132","681028","0.0-6.0-0.18","2938582","co38140","norming","","","","","","",""
"null","../img/tt/1272tt.jpg","null","mooney1","image-keyboard-response","133","684032","0.0-6.0-1.18","2938582","co38140","norming","","","","","","",""
"3487.4450000006473","","","post_mooney1_questions","survey-likert","134","687522","0.0-6.0-2.18","2938582","co38140","norming","","","{""curiosity"":4,""confidence"":4}","[0,1]","../img/tt/1272tt.jpg","",""
"3925.8849999987287","","","recognition","survey-text","135","691449","0.0-6.0-3.18","2938582","co38140","norming","","","{""guess"":""hert""}","","../img/tt/1272tt.jpg","",""
"null","../img/gs/1272gs.jpg","null","reveal","image-keyboard-response","136","693454","0.0-6.0-4.18","2938582","co38140","norming","","","","","","",""
"null","../img/tt/1272tt.jpg","null","mooney2","image-keyboard-response","137","695466","0.0-6.0-5.18","2938582","co38140","norming","","","","","","",""
"2309.8699999991804","","","post_reveal_questions","survey-likert","138","697778","0.0-6.0-6.18","2938582","co38140","norming","","","{""aha"":4}","[0]","../img/tt/1272tt.jpg","",""
"null","<div style=""font-size:60px;""> </div>","null","fixation","html-keyboard-response","139","697982","0.0-6.0-0.19","2938582","co38140","norming","","","","","","",""
"null","../img/tt/353tt.jpg","null","mooney1","image-keyboard-response","140","700997","0.0-6.0-1.19","2938582","co38140","norming","","","","","","",""
"4826.24000000034","","","post_mooney1_questions","survey-likert","141","705826","0.0-6.0-2.19","2938582","co38140","norming","","","{""curiosity"":2,""confidence"":5}","[0,1]","../img/tt/353tt.jpg","",""
"5846.120000000112","","","recognition","survey-text","142","711673","0.0-6.0-3.19","2938582","co38140","norming","","","{""guess"":""kangoeroe""}","","../img/tt/353tt.jpg","",""
"null","../img/gs/353gs.jpg","null","reveal","image-keyboard-response","143","713676","0.0-6.0-4.19","2938582","co38140","norming","","","","","","",""
"null","../img/tt/353tt.jpg","null","mooney2","image-keyboard-response","144","715679","0.0-6.0-5.19","2938582","co38140","norming","","","","","","",""
"5424.170000000275","","","post_reveal_questions","survey-likert","145","721105","0.0-6.0-6.19","2938582","co38140","norming","","","{""aha"":5}","[0]","../img/tt/353tt.jpg","",""
"null","<div style=""font-size:60px;""> </div>","null","fixation","html-keyboard-response","146","721306","0.0-6.0-0.20","2938582","co38140","norming","","","","","","",""
"null","../img/tt/1046tt.jpg","null","mooney1","image-keyboard-response","147","724316","0.0-6.0-1.20","2938582","co38140","norming","","","","","","",""
"3883.190000000526","","","post_mooney1_questions","survey-likert","148","728202","0.0-6.0-2.20","2938582","co38140","norming","","","{""curiosity"":4,""confidence"":1}","[0,1]","../img/tt/1046tt.jpg","",""
"6205.995000000228","","","recognition","survey-text","149","734409","0.0-6.0-3.20","2938582","co38140","norming","","","{""guess"":""everzwijn""}","","../img/tt/1046tt.jpg","",""
"null","../img/gs/1046gs.jpg","null","reveal","image-keyboard-response","150","736411","0.0-6.0-4.20","2938582","co38140","norming","","","","","","",""
"null","../img/tt/1046tt.jpg","null","mooney2","image-keyboard-response","151","738419","0.0-6.0-5.20","2938582","co38140","norming","","","","","","",""
"3724.07500000007","","","post_reveal_questions","survey-likert","152","742145","0.0-6.0-6.20","2938582","co38140","norming","","","{""aha"":2}","[0]","../img/tt/1046tt.jpg","",""
"null","<div style=""font-size:60px;""> </div>","null","fixation","html-keyboard-response","153","742347","0.0-6.0-0.21","2938582","co38140","norming","","","","","","",""
"null","../img/tt/1242tt.jpg","null","mooney1","image-keyboard-response","154","745352","0.0-6.0-1.21","2938582","co38140","norming","","","","","","",""
"5894.79000000027","","","post_mooney1_questions","survey-likert","155","751250","0.0-6.0-2.21","2938582","co38140","norming","","","{""curiosity"":5,""confidence"":2}","[0,1]","../img/tt/1242tt.jpg","",""
"3269.974999999278","","","recognition","survey-text","156","754521","0.0-6.0-3.21","2938582","co38140","norming","","","{""guess"":""slang""}","","../img/tt/1242tt.jpg","",""
"null","../img/gs/1242gs.jpg","null","reveal","image-keyboard-response","157","756523","0.0-6.0-4.21","2938582","co38140","norming","","","","","","",""
"null","../img/tt/1242tt.jpg","null","mooney2","image-keyboard-response","158","758527","0.0-6.0-5.21","2938582","co38140","norming","","","","","","",""
"2320.5749999997206","","","post_reveal_questions","survey-likert","159","760850","0.0-6.0-6.21","2938582","co38140","norming","","","{""aha"":6}","[0]","../img/tt/1242tt.jpg","",""
"null","<div style=""font-size:60px;""> </div>","null","fixation","html-keyboard-response","160","761052","0.0-6.0-0.22","2938582","co38140","norming","","","","","","",""
"null","../img/tt/1048tt.jpg","null","mooney1","image-keyboard-response","161","764054","0.0-6.0-1.22","2938582","co38140","norming","","","","","","",""
"4601.540000001551","","","post_mooney1_questions","survey-likert","162","768658","0.0-6.0-2.22","2938582","co38140","norming","","","{""curiosity"":4,""confidence"":3}","[0,1]","../img/tt/1048tt.jpg","",""
"2982.1049999991665","","","recognition","survey-text","163","771642","0.0-6.0-3.22","2938582","co38140","norming","","","{""guess"":""giraf""}","","../img/tt/1048tt.jpg","",""
"null","../img/gs/1048gs.jpg","null","reveal","image-keyboard-response","164","773644","0.0-6.0-4.22","2938582","co38140","norming","","","","","","",""
"null","../img/tt/1048tt.jpg","null","mooney2","image-keyboard-response","165","775645","0.0-6.0-5.22","2938582","co38140","norming","","","","","","",""
"2090.4900000005728","","","post_reveal_questions","survey-likert","166","777738","0.0-6.0-6.22","2938582","co38140","norming","","","{""aha"":5}","[0]","../img/tt/1048tt.jpg","",""
"null","<div style=""font-size:60px;""> </div>","null","fixation","html-keyboard-response","167","777946","0.0-6.0-0.23","2938582","co38140","norming","","","","","","",""
"null","../img/tt/1063tt.jpg","null","mooney1","image-keyboard-response","168","780955","0.0-6.0-1.23","2938582","co38140","norming","","","","","","",""
"4860.635000000941","","","post_mooney1_questions","survey-likert","169","785818","0.0-6.0-2.23","2938582","co38140","norming","","","{""curiosity"":5,""confidence"":0}","[0,1]","../img/tt/1063tt.jpg","",""
"3294.239999999292","","","recognition","survey-text","170","789114","0.0-6.0-3.23","2938582","co38140","norming","","","{""guess"":""kameel""}","","../img/tt/1063tt.jpg","",""
"null","../img/gs/1063gs.jpg","null","reveal","image-keyboard-response","171","791120","0.0-6.0-4.23","2938582","co38140","norming","","","","","","",""
"null","../img/tt/1063tt.jpg","null","mooney2","image-keyboard-response","172","793122","0.0-6.0-5.23","2938582","co38140","norming","","","","","","",""
"5910.389999999083","","","post_reveal_questions","survey-likert","173","799034","0.0-6.0-6.23","2938582","co38140","norming","","","{""aha"":3}","[0]","../img/tt/1063tt.jpg","",""
"null","<div style=""font-size:60px;""> </div>","null","fixation","html-keyboard-response","174","799238","0.0-6.0-0.24","2938582","co38140","norming","","","","","","",""
"null","../img/tt/435tt.jpg","null","mooney1","image-keyboard-response","175","802244","0.0-6.0-1.24","2938582","co38140","norming","","","","","","",""
"3619.4149999992223","","","post_mooney1_questions","survey-likert","176","805866","0.0-6.0-2.24","2938582","co38140","norming","","","{""curiosity"":4,""confidence"":1}","[0,1]","../img/tt/435tt.jpg","",""
"2558.0800000006566","","","recognition","survey-text","177","808426","0.0-6.0-3.24","2938582","co38140","norming","","","{""guess"":""huizen""}","","../img/tt/435tt.jpg","",""
"null","../img/gs/435gs.jpg","null","reveal","image-keyboard-response","178","810428","0.0-6.0-4.24","2938582","co38140","norming","","","","","","",""
"null","../img/tt/435tt.jpg","null","mooney2","image-keyboard-response","179","812433","0.0-6.0-5.24","2938582","co38140","norming","","","","","","",""
"3438.3299999990268","","","post_reveal_questions","survey-likert","180","815874","0.0-6.0-6.24","2938582","co38140","norming","","","{""aha"":0}","[0]","../img/tt/435tt.jpg","",""
"null","<div style=""font-size:60px;""> </div>","null","fixation","html-keyboard-response","181","816082","0.0-6.0-0.25","2938582","co38140","norming","","","","","","",""
"null","../img/tt/559tt.jpg","null","mooney1","image-keyboard-response","182","819086","0.0-6.0-1.25","2938582","co38140","norming","","","","","","",""
"7730.910000000149","","","post_mooney1_questions","survey-likert","183","826817","0.0-6.0-2.25","2938582","co38140","norming","","","{""curiosity"":2,""confidence"":0}","[0,1]","../img/tt/559tt.jpg","",""
"1246.3850000003586","","","recognition","survey-text","184","828066","0.0-6.0-3.25","2938582","co38140","norming","","","{""guess"":""""}","","../img/tt/559tt.jpg","",""
"null","../img/gs/559gs.jpg","null","reveal","image-keyboard-response","185","830067","0.0-6.0-4.25","2938582","co38140","norming","","","","","","",""
"null","../img/tt/559tt.jpg","null","mooney2","image-keyboard-response","186","832076","0.0-6.0-5.25","2938582","co38140","norming","","","","","","",""
"3627.395000001299","","","post_reveal_questions","survey-likert","187","835706","0.0-6.0-6.25","2938582","co38140","norming","","","{""aha"":6}","[0]","../img/tt/559tt.jpg","",""
"null","<div style=""font-size:60px;""> </div>","null","fixation","html-keyboard-response","188","835907","0.0-6.0-0.26","2938582","co38140","norming","","","","","","",""
"null","../img/tt/1156tt.jpg","null","mooney1","image-keyboard-response","189","838913","0.0-6.0-1.26","2938582","co38140","norming","","","","","","",""
"4406.385000000242","","","post_mooney1_questions","survey-likert","190","843322","0.0-6.0-2.26","2938582","co38140","norming","","","{""curiosity"":1,""confidence"":5}","[0,1]","../img/tt/1156tt.jpg","",""
"2870.0399999998044","","","recognition","survey-text","191","846193","0.0-6.0-3.26","2938582","co38140","norming","","","{""guess"":""zwmmer""}","","../img/tt/1156tt.jpg","",""
"null","../img/gs/1156gs.jpg","null","reveal","image-keyboard-response","192","848204","0.0-6.0-4.26","2938582","co38140","norming","","","","","","",""
"null","../img/tt/1156tt.jpg","null","mooney2","image-keyboard-response","193","850213","0.0-6.0-5.26","2938582","co38140","norming","","","","","","",""
"4099.110000001034","","","post_reveal_questions","survey-likert","194","854314","0.0-6.0-6.26","2938582","co38140","norming","","","{""aha"":1}","[0]","../img/tt/1156tt.jpg","",""
"null","<div style=""font-size:60px;""> </div>","null","fixation","html-keyboard-response","195","854515","0.0-6.0-0.27","2938582","co38140","norming","","","","","","",""
"null","../img/tt/1363tt.jpg","null","mooney1","image-keyboard-response","196","857518","0.0-6.0-1.27","2938582","co38140","norming","","","","","","",""
"7824.809999998193","","","post_mooney1_questions","survey-likert","197","865346","0.0-6.0-2.27","2938582","co38140","norming","","","{""curiosity"":1,""confidence"":5}","[0,1]","../img/tt/1363tt.jpg","",""
"9806.039999999572","","","recognition","survey-text","198","875154","0.0-6.0-3.27","2938582","co38140","norming","","","{""guess"":""een theepot""}","","../img/tt/1363tt.jpg","",""
"null","../img/gs/1363gs.jpg","null","reveal","image-keyboard-response","199","877158","0.0-6.0-4.27","2938582","co38140","norming","","","","","","",""
"null","../img/tt/1363tt.jpg","null","mooney2","image-keyboard-response","200","879164","0.0-6.0-5.27","2938582","co38140","norming","","","","","","",""
"2396.5499999994645","","","post_reveal_questions","survey-likert","201","881562","0.0-6.0-6.27","2938582","co38140","norming","","","{""aha"":4}","[0]","../img/tt/1363tt.jpg","",""
"null","<div style=""font-size:60px;""> </div>","null","fixation","html-keyboard-response","202","881763","0.0-6.0-0.28","2938582","co38140","norming","","","","","","",""
"null","../img/tt/319tt.jpg","null","mooney1","image-keyboard-response","203","884767","0.0-6.0-1.28","2938582","co38140","norming","","","","","","",""
"3536.7150000002002","","","post_mooney1_questions","survey-likert","204","888306","0.0-6.0-2.28","2938582","co38140","norming","","","{""curiosity"":5,""confidence"":1}","[0,1]","../img/tt/319tt.jpg","",""
"2206.0749999999534","","","recognition","survey-text","205","890514","0.0-6.0-3.28","2938582","co38140","norming","","","{""guess"":""stier""}","","../img/tt/319tt.jpg","",""
"null","../img/gs/319gs.jpg","null","reveal","image-keyboard-response","206","892520","0.0-6.0-4.28","2938582","co38140","norming","","","","","","",""
"null","../img/tt/319tt.jpg","null","mooney2","image-keyboard-response","207","894528","0.0-6.0-5.28","2938582","co38140","norming","","","","","","",""
"3607.684999999008","","","post_reveal_questions","survey-likert","208","898138","0.0-6.0-6.28","2938582","co38140","norming","","","{""aha"":4}","[0]","../img/tt/319tt.jpg","",""
"null","<div style=""font-size:60px;""> </div>","null","fixation","html-keyboard-response","209","898346","0.0-6.0-0.29","2938582","co38140","norming","","","","","","",""
"null","../img/tt/1191tt.jpg","null","mooney1","image-keyboard-response","210","901349","0.0-6.0-1.29","2938582","co38140","norming","","","","","","",""
"3203.975000000326","","","post_mooney1_questions","survey-likert","211","904554","0.0-6.0-2.29","2938582","co38140","norming","","","{""curiosity"":4,""confidence"":4}","[0,1]","../img/tt/1191tt.jpg","",""
"2670.044999998994","","","recognition","survey-text","212","907226","0.0-6.0-3.29","2938582","co38140","norming","","","{""guess"":""skiers""}","","../img/tt/1191tt.jpg","",""
"null","../img/gs/1191gs.jpg","null","reveal","image-keyboard-response","213","909232","0.0-6.0-4.29","2938582","co38140","norming","","","","","","",""
"null","../img/tt/1191tt.jpg","null","mooney2","image-keyboard-response","214","911238","0.0-6.0-5.29","2938582","co38140","norming","","","","","","",""
"3963.72500000149","","","post_reveal_questions","survey-likert","215","915202","0.0-6.0-6.29","2938582","co38140","norming","","","{""aha"":6}","[0]","../img/tt/1191tt.jpg","",""
"null","<div style=""font-size:60px;""> </div>","null","fixation","html-keyboard-response","216","915403","0.0-6.0-0.30","2938582","co38140","norming","","","","","","",""
"null","../img/tt/273tt.jpg","null","mooney1","image-keyboard-response","217","918410","0.0-6.0-1.30","2938582","co38140","norming","","","","","","",""
"3158.6050000005635","","","post_mooney1_questions","survey-likert","218","921570","0.0-6.0-2.30","2938582","co38140","norming","","","{""curiosity"":0,""confidence"":0}","[0,1]","../img/tt/273tt.jpg","",""
"2814.2500000012806","","","recognition","survey-text","219","924386","0.0-6.0-3.30","2938582","co38140","norming","","","{""guess"":""/""}","","../img/tt/273tt.jpg","",""
"null","../img/gs/273gs.jpg","null","reveal","image-keyboard-response","220","926389","0.0-6.0-4.30","2938582","co38140","norming","","","","","","",""
"null","../img/tt/273tt.jpg","null","mooney2","image-keyboard-response","221","928391","0.0-6.0-5.30","2938582","co38140","norming","","","","","","",""
"2144.720000000205","","","post_reveal_questions","survey-likert","222","930538","0.0-6.0-6.30","2938582","co38140","norming","","","{""aha"":4}","[0]","../img/tt/273tt.jpg","",""
"null","<div style=""font-size:60px;""> </div>","null","fixation","html-keyboard-response","223","930739","0.0-6.0-0.31","2938582","co38140","norming","","","","","","",""
"null","../img/tt/1278tt.jpg","null","mooney1","image-keyboard-response","224","933742","0.0-6.0-1.31","2938582","co38140","norming","","","","","","",""
"3473.7450000011595","","","post_mooney1_questions","survey-likert","225","937219","0.0-6.0-2.31","2938582","co38140","norming","","","{""curiosity"":2,""confidence"":2}","[0,1]","../img/tt/1278tt.jpg","",""
"2981.6100000006845","","","recognition","survey-text","226","940202","0.0-6.0-3.31","2938582","co38140","norming","","","{""guess"":""persoon""}","","../img/tt/1278tt.jpg","",""
"null","../img/gs/1278gs.jpg","null","reveal","image-keyboard-response","227","942204","0.0-6.0-4.31","2938582","co38140","norming","","","","","","",""
"null","../img/tt/1278tt.jpg","null","mooney2","image-keyboard-response","228","944207","0.0-6.0-5.31","2938582","co38140","norming","","","","","","",""
"3800.6299999996554","","","post_reveal_questions","survey-likert","229","948006","0.0-6.0-6.31","2938582","co38140","norming","","","{""aha"":4}","[0]","../img/tt/1278tt.jpg","",""
"null","<div style=""font-size:60px;""> </div>","null","fixation","html-keyboard-response","230","948213","0.0-6.0-0.32","2938582","co38140","norming","","","","","","",""
"null","../img/tt/598tt.jpg","null","mooney1","image-keyboard-response","231","951221","0.0-6.0-1.32","2938582","co38140","norming","","","","","","",""
"6030.510000000475","","","post_mooney1_questions","survey-likert","232","957254","0.0-6.0-2.32","2938582","co38140","norming","","","{""curiosity"":2,""confidence"":3}","[0,1]","../img/tt/598tt.jpg","",""
"4053.9700000009034","","","recognition","survey-text","233","961310","0.0-6.0-3.32","2938582","co38140","norming","","","{""guess"":""egel""}","","../img/tt/598tt.jpg","",""
"null","../img/gs/598gs.jpg","null","reveal","image-keyboard-response","234","963315","0.0-6.0-4.32","2938582","co38140","norming","","","","","","",""
"null","../img/tt/598tt.jpg","null","mooney2","image-keyboard-response","235","965318","0.0-6.0-5.32","2938582","co38140","norming","","","","","","",""
"3029.7699999992037","","","post_reveal_questions","survey-likert","236","968350","0.0-6.0-6.32","2938582","co38140","norming","","","{""aha"":5}","[0]","../img/tt/598tt.jpg","",""
"null","<div style=""font-size:60px;""> </div>","null","fixation","html-keyboard-response","237","968551","0.0-6.0-0.33","2938582","co38140","norming","","","","","","",""
"null","../img/tt/1128tt.jpg","null","mooney1","image-keyboard-response","238","971560","0.0-6.0-1.33","2938582","co38140","norming","","","","","","",""
"3020.0449999993434","","","post_mooney1_questions","survey-likert","239","974583","0.0-6.0-2.33","2938582","co38140","norming","","","{""curiosity"":4,""confidence"":4}","[0,1]","../img/tt/1128tt.jpg","",""
"2518.0799999997253","","","recognition","survey-text","240","977102","0.0-6.0-3.33","2938582","co38140","norming","","","{""guess"":""panda""}","","../img/tt/1128tt.jpg","",""
"null","../img/gs/1128gs.jpg","null","reveal","image-keyboard-response","241","979110","0.0-6.0-4.33","2938582","co38140","norming","","","","","","",""
"null","../img/tt/1128tt.jpg","null","mooney2","image-keyboard-response","242","981120","0.0-6.0-5.33","2938582","co38140","norming","","","","","","",""
"2493.445000000065","","","post_reveal_questions","survey-likert","243","983614","0.0-6.0-6.33","2938582","co38140","norming","","","{""aha"":5}","[0]","../img/tt/1128tt.jpg","",""
"null","<div style=""font-size:60px;""> </div>","null","fixation","html-keyboard-response","244","983815","0.0-6.0-0.34","2938582","co38140","norming","","","","","","",""
"null","../img/tt/118tt.jpg","null","mooney1","image-keyboard-response","245","986826","0.0-6.0-1.34","2938582","co38140","norming","","","","","","",""
"5441.855000000913","","","post_mooney1_questions","survey-likert","246","992270","0.0-6.0-2.34","2938582","co38140","norming","","","{""curiosity"":5,""confidence"":5}","[0,1]","../img/tt/118tt.jpg","",""
"2678.069999999949","","","recognition","survey-text","247","994950","0.0-6.0-3.34","2938582","co38140","norming","","","{""guess"":""harp""}","","../img/tt/118tt.jpg","",""
"null","../img/gs/118gs.jpg","null","reveal","image-keyboard-response","248","996955","0.0-6.0-4.34","2938582","co38140","norming","","","","","","",""
"null","../img/tt/118tt.jpg","null","mooney2","image-keyboard-response","249","998966","0.0-6.0-5.34","2938582","co38140","norming","","","","","","",""
"3230.125","","","post_reveal_questions","survey-likert","250","1002198","0.0-6.0-6.34","2938582","co38140","norming","","","{""aha"":5}","[0]","../img/tt/118tt.jpg","",""
"null","<div style=""font-size:60px;""> </div>","null","fixation","html-keyboard-response","251","1002400","0.0-6.0-0.35","2938582","co38140","norming","","","","","","",""
"null","../img/tt/1254tt.jpg","null","mooney1","image-keyboard-response","252","1005407","0.0-6.0-1.35","2938582","co38140","norming","","","","","","",""
"4780.515000000363","","","post_mooney1_questions","survey-likert","253","1010196","0.0-6.0-2.35","2938582","co38140","norming","","","{""curiosity"":6,""confidence"":0}","[0,1]","../img/tt/1254tt.jpg","",""
"1853.8900000003632","","","recognition","survey-text","254","1012052","0.0-6.0-3.35","2938582","co38140","norming","","","{""guess"":""kat""}","","../img/tt/1254tt.jpg","",""
"null","../img/gs/1254gs.jpg","null","reveal","image-keyboard-response","255","1014053","0.0-6.0-4.35","2938582","co38140","norming","","","","","","",""
"null","../img/tt/1254tt.jpg","null","mooney2","image-keyboard-response","256","1016056","0.0-6.0-5.35","2938582","co38140","norming","","","","","","",""
"2450.3199999998324","","","post_reveal_questions","survey-likert","257","1018508","0.0-6.0-6.35","2938582","co38140","norming","","","{""aha"":6}","[0]","../img/tt/1254tt.jpg","",""
"null","<div style=""font-size:60px;""> </div>","null","fixation","html-keyboard-response","258","1018710","0.0-6.0-0.36","2938582","co38140","norming","","","","","","",""
"null","../img/tt/060tt.jpg","null","mooney1","image-keyboard-response","259","1021717","0.0-6.0-1.36","2938582","co38140","norming","","","","","","",""
"4749.640000000014","","","post_mooney1_questions","survey-likert","260","1026468","0.0-6.0-2.36","2938582","co38140","norming","","","{""curiosity"":0,""confidence"":0}","[0,1]","../img/tt/060tt.jpg","",""
"1214.3750000012806","","","recognition","survey-text","261","1027684","0.0-6.0-3.36","2938582","co38140","norming","","","{""guess"":""/""}","","../img/tt/060tt.jpg","",""
"null","../img/gs/060gs.jpg","null","reveal","image-keyboard-response","262","1029685","0.0-6.0-4.36","2938582","co38140","norming","","","","","","",""
"null","../img/tt/060tt.jpg","null","mooney2","image-keyboard-response","263","1031687","0.0-6.0-5.36","2938582","co38140","norming","","","","","","",""
"2955.545000000624","","","post_reveal_questions","survey-likert","264","1034644","0.0-6.0-6.36","2938582","co38140","norming","","","{""aha"":6}","[0]","../img/tt/060tt.jpg","",""
"null","<div style=""font-size:60px;""> </div>","null","fixation","html-keyboard-response","265","1034849","0.0-6.0-0.37","2938582","co38140","norming","","","","","","",""
"null","../img/tt/1154tt.jpg","null","mooney1","image-keyboard-response","266","1037859","0.0-6.0-1.37","2938582","co38140","norming","","","","","","",""
"3823.9099999991013","","","post_mooney1_questions","survey-likert","267","1041684","0.0-6.0-2.37","2938582","co38140","norming","","","{""curiosity"":5,""confidence"":2}","[0,1]","../img/tt/1154tt.jpg","",""
"8053.645000000019","","","recognition","survey-text","268","1049740","0.0-6.0-3.37","2938582","co38140","norming","","","{""guess"":""surfende mensen""}","","../img/tt/1154tt.jpg","",""
"null","../img/gs/1154gs.jpg","null","reveal","image-keyboard-response","269","1051750","0.0-6.0-4.37","2938582","co38140","norming","","","","","","",""
"null","../img/tt/1154tt.jpg","null","mooney2","image-keyboard-response","270","1053751","0.0-6.0-5.37","2938582","co38140","norming","","","","","","",""
"2171.7450000015087","","","post_reveal_questions","survey-likert","271","1055924","0.0-6.0-6.37","2938582","co38140","norming","","","{""aha"":6}","[0]","../img/tt/1154tt.jpg","",""
"null","<div style=""font-size:60px;""> </div>","null","fixation","html-keyboard-response","272","1056125","0.0-6.0-0.38","2938582","co38140","norming","","","","","","",""
"null","../img/tt/405tt.jpg","null","mooney1","image-keyboard-response","273","1059133","0.0-6.0-1.38","2938582","co38140","norming","","","","","","",""
"3174.2450000001118","","","post_mooney1_questions","survey-likert","274","1062308","0.0-6.0-2.38","2938582","co38140","norming","","","{""curiosity"":0,""confidence"":0}","[0,1]","../img/tt/405tt.jpg","",""
"3566.094999999972","","","recognition","survey-text","275","1065876","0.0-6.0-3.38","2938582","co38140","norming","","","{""guess"":""/""}","","../img/tt/405tt.jpg","",""
"null","../img/gs/405gs.jpg","null","reveal","image-keyboard-response","276","1067882","0.0-6.0-4.38","2938582","co38140","norming","","","","","","",""
"null","../img/tt/405tt.jpg","null","mooney2","image-keyboard-response","277","1069885","0.0-6.0-5.38","2938582","co38140","norming","","","","","","",""
"4198.304999999935","","","post_reveal_questions","survey-likert","278","1074085","0.0-6.0-6.38","2938582","co38140","norming","","","{""aha"":5}","[0]","../img/tt/405tt.jpg","",""
"null","<div style=""font-size:60px;""> </div>","null","fixation","html-keyboard-response","279","1074291","0.0-6.0-0.39","2938582","co38140","norming","","","","","","",""
"null","../img/tt/477tt.jpg","null","mooney1","image-keyboard-response","280","1077300","0.0-6.0-1.39","2938582","co38140","norming","","","","","","",""
"3470.415000001667","","","post_mooney1_questions","survey-likert","281","1080773","0.0-6.0-2.39","2938582","co38140","norming","","","{""curiosity"":5,""confidence"":4}","[0,1]","../img/tt/477tt.jpg","",""
"2485.9749999996275","","","recognition","survey-text","282","1083261","0.0-6.0-3.39","2938582","co38140","norming","","","{""guess"":""tijger""}","","../img/tt/477tt.jpg","",""
"null","../img/gs/477gs.jpg","null","reveal","image-keyboard-response","283","1085263","0.0-6.0-4.39","2938582","co38140","norming","","","","","","",""
"null","../img/tt/477tt.jpg","null","mooney2","image-keyboard-response","284","1087268","0.0-6.0-5.39","2938582","co38140","norming","","","","","","",""
"3616.195000000531","","","post_reveal_questions","survey-likert","285","1090885","0.0-6.0-6.39","2938582","co38140","norming","","","{""aha"":0}","[0]","../img/tt/477tt.jpg","",""
"null","<div style=""font-size:60px;""> </div>","null","fixation","html-keyboard-response","286","1091086","0.0-6.0-0.40","2938582","co38140","norming","","","","","","",""
"null","../img/tt/1205tt.jpg","null","mooney1","image-keyboard-response","287","1094090","0.0-6.0-1.40","2938582","co38140","norming","","","","","","",""
"4314.559999998892","","","post_mooney1_questions","survey-likert","288","1098405","0.0-6.0-2.40","2938582","co38140","norming","","","{""curiosity"":0,""confidence"":3}","[0,1]","../img/tt/1205tt.jpg","",""
"7286.145000000019","","","recognition","survey-text","289","1105693","0.0-6.0-3.40","2938582","co38140","norming","","","{""guess"":""afbrokkelende muur""}","","../img/tt/1205tt.jpg","",""
"null","../img/gs/1205gs.jpg","null","reveal","image-keyboard-response","290","1107695","0.0-6.0-4.40","2938582","co38140","norming","","","","","","",""
"null","../img/tt/1205tt.jpg","null","mooney2","image-keyboard-response","291","1109697","0.0-6.0-5.40","2938582","co38140","norming","","","","","","",""
"3811.2099999999627","","","post_reveal_questions","survey-likert","292","1113509","0.0-6.0-6.40","2938582","co38140","norming","","","{""aha"":6}","[0]","../img/tt/1205tt.jpg","",""
"null","<div style=""font-size:60px;""> </div>","null","fixation","html-keyboard-response","293","1113712","0.0-6.0-0.41","2938582","co38140","norming","","","","","","",""
"null","../img/tt/1006tt.jpg","null","mooney1","image-keyboard-response","294","1116713","0.0-6.0-1.41","2938582","co38140","norming","","","","","","",""
"4587.545000000391","","","post_mooney1_questions","survey-likert","295","1121301","0.0-6.0-2.41","2938582","co38140","norming","","","{""curiosity"":5,""confidence"":5}","[0,1]","../img/tt/1006tt.jpg","",""
"8045.89499999932","","","recognition","survey-text","296","1129341","0.0-6.0-3.41","2938582","co38140","norming","","","{""guess"":""weide met paarden""}","","../img/tt/1006tt.jpg","",""
"null","../img/gs/1006gs.jpg","null","reveal","image-keyboard-response","297","1131344","0.0-6.0-4.41","2938582","co38140","norming","","","","","","",""
"null","../img/tt/1006tt.jpg","null","mooney2","image-keyboard-response","298","1133348","0.0-6.0-5.41","2938582","co38140","norming","","","","","","",""
"3760.7199999983422","","","post_reveal_questions","survey-likert","299","1137110","0.0-6.0-6.41","2938582","co38140","norming","","","{""aha"":5}","[0]","../img/tt/1006tt.jpg","",""
"null","<div style=""font-size:60px;""> </div>","null","fixation","html-keyboard-response","300","1137312","0.0-6.0-0.42","2938582","co38140","norming","","","","","","",""
"null","../img/tt/079tt.jpg","null","mooney1","image-keyboard-response","301","1140323","0.0-6.0-1.42","2938582","co38140","norming","","","","","","",""
"2953.545000000391","","","post_mooney1_questions","survey-likert","302","1143278","0.0-6.0-2.42","2938582","co38140","norming","","","{""curiosity"":4,""confidence"":2}","[0,1]","../img/tt/079tt.jpg","",""
"2230.0649999997113","","","recognition","survey-text","303","1145510","0.0-6.0-3.42","2938582","co38140","norming","","","{""guess"":""beer""}","","../img/tt/079tt.jpg","",""
"null","../img/gs/079gs.jpg","null","reveal","image-keyboard-response","304","1147511","0.0-6.0-4.42","2938582","co38140","norming","","","","","","",""
"null","../img/tt/079tt.jpg","null","mooney2","image-keyboard-response","305","1149517","0.0-6.0-5.42","2938582","co38140","norming","","","","","","",""
"1951.5699999991339","","","post_reveal_questions","survey-likert","306","1151470","0.0-6.0-6.42","2938582","co38140","norming","","","{""aha"":4}","[0]","../img/tt/079tt.jpg","",""
"null","<div style=""font-size:60px;""> </div>","null","fixation","html-keyboard-response","307","1151671","0.0-6.0-0.43","2938582","co38140","norming","","","","","","",""
"null","../img/tt/497tt.jpg","null","mooney1","image-keyboard-response","308","1154680","0.0-6.0-1.43","2938582","co38140","norming","","","","","","",""
"7916.689999999944","","","post_mooney1_questions","survey-likert","309","1162598","0.0-6.0-2.43","2938582","co38140","norming","","","{""curiosity"":4,""confidence"":3}","[0,1]","../img/tt/497tt.jpg","",""
"4997.944999999134","","","recognition","survey-text","310","1167597","0.0-6.0-3.43","2938582","co38140","norming","","","{""guess"":""roulette tafel""}","","../img/tt/497tt.jpg","",""
"null","../img/gs/497gs.jpg","null","reveal","image-keyboard-response","311","1169606","0.0-6.0-4.43","2938582","co38140","norming","","","","","","",""
"null","../img/tt/497tt.jpg","null","mooney2","image-keyboard-response","312","1171616","0.0-6.0-5.43","2938582","co38140","norming","","","","","","",""
"2460.430000001099","","","post_reveal_questions","survey-likert","313","1174078","0.0-6.0-6.43","2938582","co38140","norming","","","{""aha"":6}","[0]","../img/tt/497tt.jpg","",""
"null","<div style=""font-size:60px;""> </div>","null","fixation","html-keyboard-response","314","1174280","0.0-6.0-0.44","2938582","co38140","norming","","","","","","",""
"null","../img/tt/111tt.jpg","null","mooney1","image-keyboard-response","315","1177282","0.0-6.0-1.44","2938582","co38140","norming","","","","","","",""
"5074.9550000000745","","","post_mooney1_questions","survey-likert","316","1182358","0.0-6.0-2.44","2938582","co38140","norming","","","{""curiosity"":0,""confidence"":6}","[0,1]","../img/tt/111tt.jpg","",""
"3413.9499999983236","","","recognition","survey-text","317","1185773","0.0-6.0-3.44","2938582","co38140","norming","","","{""guess"":""douchekop""}","","../img/tt/111tt.jpg","",""
"null","../img/gs/111gs.jpg","null","reveal","image-keyboard-response","318","1187777","0.0-6.0-4.44","2938582","co38140","norming","","","","","","",""
"null","../img/tt/111tt.jpg","null","mooney2","image-keyboard-response","319","1189797","0.0-6.0-5.44","2938582","co38140","norming","","","","","","",""
"2529.3449999990407","","","post_reveal_questions","survey-likert","320","1192327","0.0-6.0-6.44","2938582","co38140","norming","","","{""aha"":0}","[0]","../img/tt/111tt.jpg","",""
"null","<div style=""font-size:60px;""> </div>","null","fixation","html-keyboard-response","321","1192529","0.0-6.0-0.45","2938582","co38140","norming","","","","","","",""
"null","../img/tt/416tt.jpg","null","mooney1","image-keyboard-response","322","1195538","0.0-6.0-1.45","2938582","co38140","norming","","","","","","",""
"5803.8850000011735","","","post_mooney1_questions","survey-likert","323","1201343","0.0-6.0-2.45","2938582","co38140","norming","","","{""curiosity"":3,""confidence"":4}","[0,1]","../img/tt/416tt.jpg","",""
"2229.9650000003166","","","recognition","survey-text","324","1203575","0.0-6.0-3.45","2938582","co38140","norming","","","{""guess"":""zetel""}","","../img/tt/416tt.jpg","",""
"null","../img/gs/416gs.jpg","null","reveal","image-keyboard-response","325","1205584","0.0-6.0-4.45","2938582","co38140","norming","","","","","","",""
"null","../img/tt/416tt.jpg","null","mooney2","image-keyboard-response","326","1207585","0.0-6.0-5.45","2938582","co38140","norming","","","","","","",""
"2253.225000000326","","","post_reveal_questions","survey-likert","327","1209839","0.0-6.0-6.45","2938582","co38140","norming","","","{""aha"":6}","[0]","../img/tt/416tt.jpg","",""
"null","<div style=""font-size:60px;""> </div>","null","fixation","html-keyboard-response","328","1210040","0.0-6.0-0.46","2938582","co38140","norming","","","","","","",""
"null","../img/tt/091tt.jpg","null","mooney1","image-keyboard-response","329","1213047","0.0-6.0-1.46","2938582","co38140","norming","","","","","","",""
"2918.5500000002794","","","post_mooney1_questions","survey-likert","330","1215967","0.0-6.0-2.46","2938582","co38140","norming","","","{""curiosity"":4,""confidence"":4}","[0,1]","../img/tt/091tt.jpg","",""
"2773.7899999993388","","","recognition","survey-text","331","1218742","0.0-6.0-3.46","2938582","co38140","norming","","","{""guess"":""vogel""}","","../img/tt/091tt.jpg","",""
"null","../img/gs/091gs.jpg","null","reveal","image-keyboard-response","332","1220747","0.0-6.0-4.46","2938582","co38140","norming","","","","","","",""
"null","../img/tt/091tt.jpg","null","mooney2","image-keyboard-response","333","1222757","0.0-6.0-5.46","2938582","co38140","norming","","","","","","",""
"2552.5500000002794","","","post_reveal_questions","survey-likert","334","1225311","0.0-6.0-6.46","2938582","co38140","norming","","","{""aha"":4}","[0]","../img/tt/091tt.jpg","",""
"null","<div style=""font-size:60px;""> </div>","null","fixation","html-keyboard-response","335","1225513","0.0-6.0-0.47","2938582","co38140","norming","","","","","","",""
"null","../img/tt/1189tt.jpg","null","mooney1","image-keyboard-response","336","1228519","0.0-6.0-1.47","2938582","co38140","norming","","","","","","",""
"4190.9350000005215","","","post_mooney1_questions","survey-likert","337","1232711","0.0-6.0-2.47","2938582","co38140","norming","","","{""curiosity"":2,""confidence"":5}","[0,1]","../img/tt/1189tt.jpg","",""
"3293.669999999227","","","recognition","survey-text","338","1236007","0.0-6.0-3.47","2938582","co38140","norming","","","{""guess"":""krokodil""}","","../img/tt/1189tt.jpg","",""
"null","../img/gs/1189gs.jpg","null","reveal","image-keyboard-response","339","1238008","0.0-6.0-4.47","2938582","co38140","norming","","","","","","",""
"null","../img/tt/1189tt.jpg","null","mooney2","image-keyboard-response","340","1240009","0.0-6.0-5.47","2938582","co38140","norming","","","","","","",""
"3973.19000000041","","","post_reveal_questions","survey-likert","341","1243983","0.0-6.0-6.47","2938582","co38140","norming","","","{""aha"":5}","[0]","../img/tt/1189tt.jpg","",""
"null","<div style=""font-size:60px;""> </div>","null","fixation","html-keyboard-response","342","1244185","0.0-6.0-0.48","2938582","co38140","norming","","","","","","",""
"null","../img/tt/1236tt.jpg","null","mooney1","image-keyboard-response","343","1247187","0.0-6.0-1.48","2938582","co38140","norming","","","","","","",""
"5578.494999999879","","","post_mooney1_questions","survey-likert","344","1252759","0.0-6.0-2.48","2938582","co38140","norming","","","{""curiosity"":4,""confidence"":0}","[0,1]","../img/tt/1236tt.jpg","",""
"1686.190000000177","","","recognition","survey-text","345","1254447","0.0-6.0-3.48","2938582","co38140","norming","","","{""guess"":""/""}","","../img/tt/1236tt.jpg","",""
"null","../img/gs/1236gs.jpg","null","reveal","image-keyboard-response","346","1256450","0.0-6.0-4.48","2938582","co38140","norming","","","","","","",""
"null","../img/tt/1236tt.jpg","null","mooney2","image-keyboard-response","347","1258457","0.0-6.0-5.48","2938582","co38140","norming","","","","","","",""
"5300.750000000233","","","post_reveal_questions","survey-likert","348","1263759","0.0-6.0-6.48","2938582","co38140","norming","","","{""aha"":0}","[0]","../img/tt/1236tt.jpg","",""
"null","<div style=""font-size:60px;""> </div>","null","fixation","html-keyboard-response","349","1263961","0.0-6.0-0.49","2938582","co38140","norming","","","","","","",""
"null","../img/tt/1027tt.jpg","null","mooney1","image-keyboard-response","350","1266962","0.0-6.0-1.49","2938582","co38140","norming","","","","","","",""
"3483.700000000652","","","post_mooney1_questions","survey-likert","351","1270447","0.0-6.0-2.49","2938582","co38140","norming","","","{""curiosity"":3,""confidence"":4}","[0,1]","../img/tt/1027tt.jpg","",""
"3814.1899999992456","","","recognition","survey-text","352","1274263","0.0-6.0-3.49","2938582","co38140","norming","","","{""guess"":""koeien""}","","../img/tt/1027tt.jpg","",""
"null","../img/gs/1027gs.jpg","null","reveal","image-keyboard-response","353","1276268","0.0-6.0-4.49","2938582","co38140","norming","","","","","","",""
"null","../img/tt/1027tt.jpg","null","mooney2","image-keyboard-response","354","1278277","0.0-6.0-5.49","2938582","co38140","norming","","","","","","",""
"3993.2150000003166","","","post_reveal_questions","survey-likert","355","1282271","0.0-6.0-6.49","2938582","co38140","norming","","","{""aha"":2}","[0]","../img/tt/1027tt.jpg","",""
"null","<div style=""font-size:60px;""> </div>","null","fixation","html-keyboard-response","356","1282474","0.0-6.0-0.50","2938582","co38140","norming","","","","","","",""
"null","../img/tt/300tt.jpg","null","mooney1","image-keyboard-response","357","1285481","0.0-6.0-1.50","2938582","co38140","norming","","","","","","",""
"3541.45500000054","","","post_mooney1_questions","survey-likert","358","1289023","0.0-6.0-2.50","2938582","co38140","norming","","","{""curiosity"":5,""confidence"":2}","[0,1]","../img/tt/300tt.jpg","",""
"4197.989999998594","","","recognition","survey-text","359","1293223","0.0-6.0-3.50","2938582","co38140","norming","","","{""guess"":""persoon""}","","../img/tt/300tt.jpg","",""
"null","../img/gs/300gs.jpg","null","reveal","image-keyboard-response","360","1295225","0.0-6.0-4.50","2938582","co38140","norming","","","","","","",""
"null","../img/tt/300tt.jpg","null","mooney2","image-keyboard-response","361","1297234","0.0-6.0-5.50","2938582","co38140","norming","","","","","","",""
"4203.954999999143","","","post_reveal_questions","survey-likert","362","1301439","0.0-6.0-6.50","2938582","co38140","norming","","","{""aha"":1}","[0]","../img/tt/300tt.jpg","",""
"null","<div style=""font-size:60px;""> </div>","null","fixation","html-keyboard-response","363","1301647","0.0-6.0-0.51","2938582","co38140","norming","","","","","","",""
"null","../img/tt/580tt.jpg","null","mooney1","image-keyboard-response","364","1304652","0.0-6.0-1.51","2938582","co38140","norming","","","","","","",""
"5265.584999999031","","","post_mooney1_questions","survey-likert","365","1309919","0.0-6.0-2.51","2938582","co38140","norming","","","{""curiosity"":0,""confidence"":0}","[0,1]","../img/tt/580tt.jpg","",""
"2477.4749999998603","","","recognition","survey-text","366","1312406","0.0-6.0-3.51","2938582","co38140","norming","","","{""guess"":""/""}","","../img/tt/580tt.jpg","",""
"null","../img/gs/580gs.jpg","null","reveal","image-keyboard-response","367","1314417","0.0-6.0-4.51","2938582","co38140","norming","","","","","","",""
"null","../img/tt/580tt.jpg","null","mooney2","image-keyboard-response","368","1316427","0.0-6.0-5.51","2938582","co38140","norming","","","","","","",""
"2762.4350000005215","","","post_reveal_questions","survey-likert","369","1319191","0.0-6.0-6.51","2938582","co38140","norming","","","{""aha"":1}","[0]","../img/tt/580tt.jpg","",""
"null","<div style=""font-size:60px;""> </div>","null","fixation","html-keyboard-response","370","1319393","0.0-6.0-0.52","2938582","co38140","norming","","","","","","",""
"null","../img/tt/080tt.jpg","null","mooney1","image-keyboard-response","371","1322400","0.0-6.0-1.52","2938582","co38140","norming","","","","","","",""
"3717.445000000065","","","post_mooney1_questions","survey-likert","372","1326119","0.0-6.0-2.52","2938582","co38140","norming","","","{""curiosity"":0,""confidence"":0}","[0,1]","../img/tt/080tt.jpg","",""
"1518.0350000010803","","","recognition","survey-text","373","1327638","0.0-6.0-3.52","2938582","co38140","norming","","","{""guess"":""/""}","","../img/tt/080tt.jpg","",""
"null","../img/gs/080gs.jpg","null","reveal","image-keyboard-response","374","1329648","0.0-6.0-4.52","2938582","co38140","norming","","","","","","",""
"null","../img/tt/080tt.jpg","null","mooney2","image-keyboard-response","375","1331654","0.0-6.0-5.52","2938582","co38140","norming","","","","","","",""
"3511.560000000987","","","post_reveal_questions","survey-likert","376","1335166","0.0-6.0-6.52","2938582","co38140","norming","","","{""aha"":6}","[0]","../img/tt/080tt.jpg","",""
"null","<div style=""font-size:60px;""> </div>","null","fixation","html-keyboard-response","377","1335368","0.0-6.0-0.53","2938582","co38140","norming","","","","","","",""
"null","../img/tt/1044tt.jpg","null","mooney1","image-keyboard-response","378","1338374","0.0-6.0-1.53","2938582","co38140","norming","","","","","","",""
"3743.3849999997765","","","post_mooney1_questions","survey-likert","379","1342119","0.0-6.0-2.53","2938582","co38140","norming","","","{""curiosity"":4,""confidence"":1}","[0,1]","../img/tt/1044tt.jpg","",""
"1950.0150000003632","","","recognition","survey-text","380","1344070","0.0-6.0-3.53","2938582","co38140","norming","","","{""guess"":""NET""}","","../img/tt/1044tt.jpg","",""
"null","../img/gs/1044gs.jpg","null","reveal","image-keyboard-response","381","1346073","0.0-6.0-4.53","2938582","co38140","norming","","","","","","",""
"null","../img/tt/1044tt.jpg","null","mooney2","image-keyboard-response","382","1348075","0.0-6.0-5.53","2938582","co38140","norming","","","","","","",""
"2250.869999999879","","","post_reveal_questions","survey-likert","383","1350326","0.0-6.0-6.53","2938582","co38140","norming","","","{""aha"":4}","[0]","../img/tt/1044tt.jpg","",""
"null","<div style=""font-size:60px;""> </div>","null","fixation","html-keyboard-response","384","1350529","0.0-6.0-0.54","2938582","co38140","norming","","","","","","",""
"null","../img/tt/603tt.jpg","null","mooney1","image-keyboard-response","385","1353532","0.0-6.0-1.54","2938582","co38140","norming","","","","","","",""
"3017.6849999988917","","","post_mooney1_questions","survey-likert","386","1356551","0.0-6.0-2.54","2938582","co38140","norming","","","{""curiosity"":4,""confidence"":4}","[0,1]","../img/tt/603tt.jpg","",""
"2381.580000001006","","","recognition","survey-text","387","1358934","0.0-6.0-3.54","2938582","co38140","norming","","","{""guess"":""TIJGER""}","","../img/tt/603tt.jpg","",""
"null","../img/gs/603gs.jpg","null","reveal","image-keyboard-response","388","1360939","0.0-6.0-4.54","2938582","co38140","norming","","","","","","",""
"null","../img/tt/603tt.jpg","null","mooney2","image-keyboard-response","389","1362948","0.0-6.0-5.54","2938582","co38140","norming","","","","","","",""
"3209.2900000007357","","","post_reveal_questions","survey-likert","390","1366158","0.0-6.0-6.54","2938582","co38140","norming","","","{""aha"":5}","[0]","../img/tt/603tt.jpg","",""
"null","<div style=""font-size:60px;""> </div>","null","fixation","html-keyboard-response","391","1366361","0.0-6.0-0.55","2938582","co38140","norming","","","","","","",""
"null","../img/tt/1080tt.jpg","null","mooney1","image-keyboard-response","392","1369369","0.0-6.0-1.55","2938582","co38140","norming","","","","","","",""
"3971.884999999078","","","post_mooney1_questions","survey-likert","393","1373345","0.0-6.0-2.55","2938582","co38140","norming","","","{""curiosity"":4,""confidence"":2}","[0,1]","../img/tt/1080tt.jpg","",""
"5077.854999999516","","","recognition","survey-text","394","1378424","0.0-6.0-3.55","2938582","co38140","norming","","","{""guess"":""BERGLANDSCHAP""}","","../img/tt/1080tt.jpg","",""
"null","../img/gs/1080gs.jpg","null","reveal","image-keyboard-response","395","1380431","0.0-6.0-4.55","2938582","co38140","norming","","","","","","",""
"null","../img/tt/1080tt.jpg","null","mooney2","image-keyboard-response","396","1382437","0.0-6.0-5.55","2938582","co38140","norming","","","","","","",""
"3658.059999999823","","","post_reveal_questions","survey-likert","397","1386096","0.0-6.0-6.55","2938582","co38140","norming","","","{""aha"":0}","[0]","../img/tt/1080tt.jpg","",""
"null","<div style=""font-size:60px;""> </div>","null","fixation","html-keyboard-response","398","1386298","0.0-6.0-0.56","2938582","co38140","norming","","","","","","",""
"null","../img/tt/1043tt.jpg","null","mooney1","image-keyboard-response","399","1389300","0.0-6.0-1.56","2938582","co38140","norming","","","","","","",""
"3755.14499999932","","","post_mooney1_questions","survey-likert","400","1393056","0.0-6.0-2.56","2938582","co38140","norming","","","{""curiosity"":5,""confidence"":1}","[0,1]","../img/tt/1043tt.jpg","",""
"3638.1099999998696","","","recognition","survey-text","401","1396696","0.0-6.0-3.56","2938582","co38140","norming","","","{""guess"":""botsauto""}","","../img/tt/1043tt.jpg","",""
"null","../img/gs/1043gs.jpg","null","reveal","image-keyboard-response","402","1398697","0.0-6.0-4.56","2938582","co38140","norming","","","","","","",""
"null","../img/tt/1043tt.jpg","null","mooney2","image-keyboard-response","403","1400707","0.0-6.0-5.56","2938582","co38140","norming","","","","","","",""
"5052.239999999059","","","post_reveal_questions","survey-likert","404","1405760","0.0-6.0-6.56","2938582","co38140","norming","","","{""aha"":5}","[0]","../img/tt/1043tt.jpg","",""
"null","<div style=""font-size:60px;""> </div>","null","fixation","html-keyboard-response","405","1405964","0.0-6.0-0.57","2938582","co38140","norming","","","","","","",""
"null","../img/tt/036tt.jpg","null","mooney1","image-keyboard-response","406","1408967","0.0-6.0-1.57","2938582","co38140","norming","","","","","","",""
"4439.945000000065","","","post_mooney1_questions","survey-likert","407","1413408","0.0-6.0-2.57","2938582","co38140","norming","","","{""curiosity"":4,""confidence"":0}","[0,1]","../img/tt/036tt.jpg","",""
"1574.075000000419","","","recognition","survey-text","408","1414984","0.0-6.0-3.57","2938582","co38140","norming","","","{""guess"":""/""}","","../img/tt/036tt.jpg","",""
"null","../img/gs/036gs.jpg","null","reveal","image-keyboard-response","409","1416986","0.0-6.0-4.57","2938582","co38140","norming","","","","","","",""
"null","../img/tt/036tt.jpg","null","mooney2","image-keyboard-response","410","1418991","0.0-6.0-5.57","2938582","co38140","norming","","","","","","",""
"2960.239999998361","","","post_reveal_questions","survey-likert","411","1421952","0.0-6.0-6.57","2938582","co38140","norming","","","{""aha"":6}","[0]","../img/tt/036tt.jpg","",""
"null","<div style=""font-size:60px;""> </div>","null","fixation","html-keyboard-response","412","1422154","0.0-6.0-0.58","2938582","co38140","norming","","","","","","",""
"null","../img/tt/1260tt.jpg","null","mooney1","image-keyboard-response","413","1425156","0.0-6.0-1.58","2938582","co38140","norming","","","","","","",""
"4922.860000000568","","","post_mooney1_questions","survey-likert","414","1430080","0.0-6.0-2.58","2938582","co38140","norming","","","{""curiosity"":5,""confidence"":2}","[0,1]","../img/tt/1260tt.jpg","",""
"3213.9050000004936","","","recognition","survey-text","415","1433291","0.0-6.0-3.58","2938582","co38140","norming","","","{""guess"":""landschap""}","","../img/tt/1260tt.jpg","",""
"null","../img/gs/1260gs.jpg","null","reveal","image-keyboard-response","416","1435300","0.0-6.0-4.58","2938582","co38140","norming","","","","","","",""
"null","../img/tt/1260tt.jpg","null","mooney2","image-keyboard-response","417","1437304","0.0-6.0-5.58","2938582","co38140","norming","","","","","","",""
"2401.3149999992456","","","post_reveal_questions","survey-likert","418","1439707","0.0-6.0-6.58","2938582","co38140","norming","","","{""aha"":4}","[0]","../img/tt/1260tt.jpg","",""
"null","<div style=""font-size:60px;""> </div>","null","fixation","html-keyboard-response","419","1439909","0.0-6.0-0.59","2938582","co38140","norming","","","","","","",""
"null","../img/tt/1101tt.jpg","null","mooney1","image-keyboard-response","420","1442913","0.0-6.0-1.59","2938582","co38140","norming","","","","","","",""
"4168.680000000633","","","post_mooney1_questions","survey-likert","421","1447083","0.0-6.0-2.59","2938582","co38140","norming","","","{""curiosity"":5,""confidence"":4}","[0,1]","../img/tt/1101tt.jpg","",""
"3917.610000000568","","","recognition","survey-text","422","1451003","0.0-6.0-3.59","2938582","co38140","norming","","","{""guess"":""liggend persoon""}","","../img/tt/1101tt.jpg","",""
"null","../img/gs/1101gs.jpg","null","reveal","image-keyboard-response","423","1453011","0.0-6.0-4.59","2938582","co38140","norming","","","","","","",""
"null","../img/tt/1101tt.jpg","null","mooney2","image-keyboard-response","424","1455019","0.0-6.0-5.59","2938582","co38140","norming","","","","","","",""
"2903.0400000012014","","","post_reveal_questions","survey-likert","425","1457923","0.0-6.0-6.59","2938582","co38140","norming","","","{""aha"":6}","[0]","../img/tt/1101tt.jpg","",""
"null","<div style=""font-size:60px;""> </div>","null","fixation","html-keyboard-response","426","1458126","0.0-6.0-0.60","2938582","co38140","norming","","","","","","",""
"null","../img/tt/1228tt.jpg","null","mooney1","image-keyboard-response","427","1461129","0.0-6.0-1.60","2938582","co38140","norming","","","","","","",""
"4240.069999999832","","","post_mooney1_questions","survey-likert","428","1465371","0.0-6.0-2.60","2938582","co38140","norming","","","{""curiosity"":3,""confidence"":3}","[0,1]","../img/tt/1228tt.jpg","",""
"3430.0849999999627","","","recognition","survey-text","429","1468803","0.0-6.0-3.60","2938582","co38140","norming","","","{""guess"":""vogel""}","","../img/tt/1228tt.jpg","",""
"null","../img/gs/1228gs.jpg","null","reveal","image-keyboard-response","430","1470811","0.0-6.0-4.60","2938582","co38140","norming","","","","","","",""
"null","../img/tt/1228tt.jpg","null","mooney2","image-keyboard-response","431","1472821","0.0-6.0-5.60","2938582","co38140","norming","","","","","","",""
"2900.79499999946","","","post_reveal_questions","survey-likert","432","1475723","0.0-6.0-6.60","2938582","co38140","norming","","","{""aha"":3}","[0]","../img/tt/1228tt.jpg","",""
"null","<div style=""font-size:60px;""> </div>","null","fixation","html-keyboard-response","433","1475925","0.0-6.0-0.61","2938582","co38140","norming","","","","","","",""
"null","../img/tt/1200tt.jpg","null","mooney1","image-keyboard-response","434","1478927","0.0-6.0-1.61","2938582","co38140","norming","","","","","","",""
"4810.439999999246","","","post_mooney1_questions","survey-likert","435","1483739","0.0-6.0-2.61","2938582","co38140","norming","","","{""curiosity"":2,""confidence"":0}","[0,1]","../img/tt/1200tt.jpg","",""
"750.0300000011921","","","recognition","survey-text","436","1484491","0.0-6.0-3.61","2938582","co38140","norming","","","{""guess"":""""}","","../img/tt/1200tt.jpg","",""
"null","../img/gs/1200gs.jpg","null","reveal","image-keyboard-response","437","1486497","0.0-6.0-4.61","2938582","co38140","norming","","","","","","",""
"null","../img/tt/1200tt.jpg","null","mooney2","image-keyboard-response","438","1488503","0.0-6.0-5.61","2938582","co38140","norming","","","","","","",""
"4226.319999999832","","","post_reveal_questions","survey-likert","439","1492736","0.0-6.0-6.61","2938582","co38140","norming","","","{""aha"":5}","[0]","../img/tt/1200tt.jpg","",""
"null","<div style=""font-size:60px;""> </div>","null","fixation","html-keyboard-response","440","1492946","0.0-6.0-0.62","2938582","co38140","norming","","","","","","",""
"null","../img/tt/049tt.jpg","null","mooney1","image-keyboard-response","441","1495951","0.0-6.0-1.62","2938582","co38140","norming","","","","","","",""
"5303.81000000122","","","post_mooney1_questions","survey-likert","442","1501256","0.0-6.0-2.62","2938582","co38140","norming","","","{""curiosity"":4,""confidence"":4}","[0,1]","../img/tt/049tt.jpg","",""
"3517.864999999758","","","recognition","survey-text","443","1504776","0.0-6.0-3.62","2938582","co38140","norming","","","{""guess"":""varken""}","","../img/tt/049tt.jpg","",""
"null","../img/gs/049gs.jpg","null","reveal","image-keyboard-response","444","1506778","0.0-6.0-4.62","2938582","co38140","norming","","","","","","",""
"null","../img/tt/049tt.jpg","null","mooney2","image-keyboard-response","445","1508779","0.0-6.0-5.62","2938582","co38140","norming","","","","","","",""
"2012.4599999999627","","","post_reveal_questions","survey-likert","446","1510792","0.0-6.0-6.62","2938582","co38140","norming","","","{""aha"":6}","[0]","../img/tt/049tt.jpg","",""
"null","<div style=""font-size:60px;""> </div>","null","fixation","html-keyboard-response","447","1511000","0.0-6.0-0.63","2938582","co38140","norming","","","","","","",""
"null","../img/tt/1255tt.jpg","null","mooney1","image-keyboard-response","448","1514003","0.0-6.0-1.63","2938582","co38140","norming","","","","","","",""
"3570.2500000006985","","","post_mooney1_questions","survey-likert","449","1517576","0.0-6.0-2.63","2938582","co38140","norming","","","{""curiosity"":0,""confidence"":0}","[0,1]","../img/tt/1255tt.jpg","",""
"974.1250000004657","","","recognition","survey-text","450","1518552","0.0-6.0-3.63","2938582","co38140","norming","","","{""guess"":""""}","","../img/tt/1255tt.jpg","",""
"null","../img/gs/1255gs.jpg","null","reveal","image-keyboard-response","451","1520553","0.0-6.0-4.63","2938582","co38140","norming","","","","","","",""
"null","../img/tt/1255tt.jpg","null","mooney2","image-keyboard-response","452","1522555","0.0-6.0-5.63","2938582","co38140","norming","","","","","","",""
"1812.090000001248","","","post_reveal_questions","survey-likert","453","1524368","0.0-6.0-6.63","2938582","co38140","norming","","","{""aha"":5}","[0]","../img/tt/1255tt.jpg","",""
"null","<div style=""font-size:60px;""> </div>","null","fixation","html-keyboard-response","454","1524571","0.0-6.0-0.64","2938582","co38140","norming","","","","","","",""
"null","../img/tt/121tt.jpg","null","mooney1","image-keyboard-response","455","1527573","0.0-6.0-1.64","2938582","co38140","norming","","","","","","",""
"4306.529999999795","","","post_mooney1_questions","survey-likert","456","1531880","0.0-6.0-2.64","2938582","co38140","norming","","","{""curiosity"":5,""confidence"":3}","[0,1]","../img/tt/121tt.jpg","",""
"2533.7650000001304","","","recognition","survey-text","457","1534416","0.0-6.0-3.64","2938582","co38140","norming","","","{""guess"":""vijver""}","","../img/tt/121tt.jpg","",""
"null","../img/gs/121gs.jpg","null","reveal","image-keyboard-response","458","1536418","0.0-6.0-4.64","2938582","co38140","norming","","","","","","",""
"null","../img/tt/121tt.jpg","null","mooney2","image-keyboard-response","459","1538426","0.0-6.0-5.64","2938582","co38140","norming","","","","","","",""
"2277.4900000004563","","","post_reveal_questions","survey-likert","460","1540704","0.0-6.0-6.64","2938582","co38140","norming","","","{""aha"":6}","[0]","../img/tt/121tt.jpg","",""
"null","<div style=""font-size:60px;""> </div>","null","fixation","html-keyboard-response","461","1540906","0.0-6.0-0.65","2938582","co38140","norming","","","","","","",""
"null","../img/tt/1243tt.jpg","null","mooney1","image-keyboard-response","462","1543916","0.0-6.0-1.65","2938582","co38140","norming","","","","","","",""
"4210.95500000054","","","post_mooney1_questions","survey-likert","463","1548128","0.0-6.0-2.65","2938582","co38140","norming","","","{""curiosity"":4,""confidence"":6}","[0,1]","../img/tt/1243tt.jpg","",""
"3942.100000000093","","","recognition","survey-text","464","1552071","0.0-6.0-3.65","2938582","co38140","norming","","","{""guess"":""aap""}","","../img/tt/1243tt.jpg","",""
"null","../img/gs/1243gs.jpg","null","reveal","image-keyboard-response","465","1554077","0.0-6.0-4.65","2938582","co38140","norming","","","","","","",""
"null","../img/tt/1243tt.jpg","null","mooney2","image-keyboard-response","466","1556085","0.0-6.0-5.65","2938582","co38140","norming","","","","","","",""
"4295.675000001211","","","post_reveal_questions","survey-likert","467","1560383","0.0-6.0-6.65","2938582","co38140","norming","","","{""aha"":1}","[0]","../img/tt/1243tt.jpg","",""
"null","<div style=""font-size:60px;""> </div>","null","fixation","html-keyboard-response","468","1560585","0.0-6.0-0.66","2938582","co38140","norming","","","","","","",""
"null","../img/tt/019tt.jpg","null","mooney1","image-keyboard-response","469","1563594","0.0-6.0-1.66","2938582","co38140","norming","","","","","","",""
"5507.765000000363","","","post_mooney1_questions","survey-likert","470","1569103","0.0-6.0-2.66","2938582","co38140","norming","","","{""curiosity"":6,""confidence"":6}","[0,1]","../img/tt/019tt.jpg","",""
"4038.0800000000745","","","recognition","survey-text","471","1573143","0.0-6.0-3.66","2938582","co38140","norming","","","{""guess"":""kniptang""}","","../img/tt/019tt.jpg","",""
"null","../img/gs/019gs.jpg","null","reveal","image-keyboard-response","472","1575152","0.0-6.0-4.66","2938582","co38140","norming","","","","","","",""
"null","../img/tt/019tt.jpg","null","mooney2","image-keyboard-response","473","1577162","0.0-6.0-5.66","2938582","co38140","norming","","","","","","",""
"5516.149999999674","","","post_reveal_questions","survey-likert","474","1582679","0.0-6.0-6.66","2938582","co38140","norming","","","{""aha"":1}","[0]","../img/tt/019tt.jpg","",""
"null","<div style=""font-size:60px;""> </div>","null","fixation","html-keyboard-response","475","1582880","0.0-6.0-0.67","2938582","co38140","norming","","","","","","",""
"null","../img/tt/1040tt.jpg","null","mooney1","image-keyboard-response","476","1585883","0.0-6.0-1.67","2938582","co38140","norming","","","","","","",""
"3658.840000000084","","","post_mooney1_questions","survey-likert","477","1589543","0.0-6.0-2.67","2938582","co38140","norming","","","{""curiosity"":5,""confidence"":1}","[0,1]","../img/tt/1040tt.jpg","",""
"4926.025000000605","","","recognition","survey-text","478","1594471","0.0-6.0-3.67","2938582","co38140","norming","","","{""guess"":""hongerig dier""}","","../img/tt/1040tt.jpg","",""
"null","../img/gs/1040gs.jpg","null","reveal","image-keyboard-response","479","1596474","0.0-6.0-4.67","2938582","co38140","norming","","","","","","",""
"null","../img/tt/1040tt.jpg","null","mooney2","image-keyboard-response","480","1598485","0.0-6.0-5.67","2938582","co38140","norming","","","","","","",""
"3783.405000000028","","","post_reveal_questions","survey-likert","481","1602271","0.0-6.0-6.67","2938582","co38140","norming","","","{""aha"":4}","[0]","../img/tt/1040tt.jpg","",""
"null","<div style=""font-size:60px;""> </div>","null","fixation","html-keyboard-response","482","1602473","0.0-6.0-0.68","2938582","co38140","norming","","","","","","",""
"null","../img/tt/1118tt.jpg","null","mooney1","image-keyboard-response","483","1605480","0.0-6.0-1.68","2938582","co38140","norming","","","","","","",""
"4221.659999999218","","","post_mooney1_questions","survey-likert","484","1609703","0.0-6.0-2.68","2938582","co38140","norming","","","{""curiosity"":5,""confidence"":2}","[0,1]","../img/tt/1118tt.jpg","",""
"3150.20999999973","","","recognition","survey-text","485","1612848","0.0-6.0-3.68","2938582","co38140","norming","","","{""guess"":""bootje""}","","../img/tt/1118tt.jpg","",""
"null","../img/gs/1118gs.jpg","null","reveal","image-keyboard-response","486","1614856","0.0-6.0-4.68","2938582","co38140","norming","","","","","","",""
"null","../img/tt/1118tt.jpg","null","mooney2","image-keyboard-response","487","1616866","0.0-6.0-5.68","2938582","co38140","norming","","","","","","",""
"2923.3500000010245","","","post_reveal_questions","survey-likert","488","1619792","0.0-6.0-6.68","2938582","co38140","norming","","","{""aha"":0}","[0]","../img/tt/1118tt.jpg","",""
"null","<div style=""font-size:60px;""> </div>","null","fixation","html-keyboard-response","489","1619993","0.0-6.0-0.69","2938582","co38140","norming","","","","","","",""
"null","../img/tt/1262tt.jpg","null","mooney1","image-keyboard-response","490","1623001","0.0-6.0-1.69","2938582","co38140","norming","","","","","","",""
"3268.7299999997485","","","post_mooney1_questions","survey-likert","491","1626273","0.0-6.0-2.69","2938582","co38140","norming","","","{""curiosity"":4,""confidence"":2}","[0,1]","../img/tt/1262tt.jpg","",""
"2381.9500000008848","","","recognition","survey-text","492","1628656","0.0-6.0-3.69","2938582","co38140","norming","","","{""guess"":""dier""}","","../img/tt/1262tt.jpg","",""
"null","../img/gs/1262gs.jpg","null","reveal","image-keyboard-response","493","1630664","0.0-6.0-4.69","2938582","co38140","norming","","","","","","",""
"null","../img/tt/1262tt.jpg","null","mooney2","image-keyboard-response","494","1632665","0.0-6.0-5.69","2938582","co38140","norming","","","","","","",""
"2724.3600000003353","","","post_reveal_questions","survey-likert","495","1635393","0.0-6.0-6.69","2938582","co38140","norming","","","{""aha"":3}","[0]","../img/tt/1262tt.jpg","",""
"null","<div style=""font-size:60px;""> </div>","null","fixation","html-keyboard-response","496","1635595","0.0-6.0-0.70","2938582","co38140","norming","","","","","","",""
"null","../img/tt/534tt.jpg","null","mooney1","image-keyboard-response","497","1638601","0.0-6.0-1.70","2938582","co38140","norming","","","","","","",""
"5491.615000000922","","","post_mooney1_questions","survey-likert","498","1644097","0.0-6.0-2.70","2938582","co38140","norming","","","{""curiosity"":4,""confidence"":2}","[0,1]","../img/tt/534tt.jpg","",""
"1726.0449999994598","","","recognition","survey-text","499","1645824","0.0-6.0-3.70","2938582","co38140","norming","","","{""guess"":""haan""}","","../img/tt/534tt.jpg","",""
"null","../img/gs/534gs.jpg","null","reveal","image-keyboard-response","500","1647826","0.0-6.0-4.70","2938582","co38140","norming","","","","","","",""
"null","../img/tt/534tt.jpg","null","mooney2","image-keyboard-response","501","1649834","0.0-6.0-5.70","2938582","co38140","norming","","","","","","",""
"2547.5850000004284","","","post_reveal_questions","survey-likert","502","1652384","0.0-6.0-6.70","2938582","co38140","norming","","","{""aha"":6}","[0]","../img/tt/534tt.jpg","",""
"null","<div style=""font-size:60px;""> </div>","null","fixation","html-keyboard-response","503","1652586","0.0-6.0-0.71","2938582","co38140","norming","","","","","","",""
"null","../img/tt/1037tt.jpg","null","mooney1","image-keyboard-response","504","1655597","0.0-6.0-1.71","2938582","co38140","norming","","","","","","",""
"3615.280000000028","","","post_mooney1_questions","survey-likert","505","1659216","0.0-6.0-2.71","2938582","co38140","norming","","","{""curiosity"":3,""confidence"":4}","[0,1]","../img/tt/1037tt.jpg","",""
"3637.9599999999627","","","recognition","survey-text","506","1662856","0.0-6.0-3.71","2938582","co38140","norming","","","{""guess"":""kangoeroe""}","","../img/tt/1037tt.jpg","",""
"null","../img/gs/1037gs.jpg","null","reveal","image-keyboard-response","507","1664857","0.0-6.0-4.71","2938582","co38140","norming","","","","","","",""
"null","../img/tt/1037tt.jpg","null","mooney2","image-keyboard-response","508","1666869","0.0-6.0-5.71","2938582","co38140","norming","","","","","","",""
"3433.3249999999534","","","post_reveal_questions","survey-likert","509","1670305","0.0-6.0-6.71","2938582","co38140","norming","","","{""aha"":5}","[0]","../img/tt/1037tt.jpg","",""
"null","<div style=""font-size:60px;""> </div>","null","fixation","html-keyboard-response","510","1670506","0.0-6.0-0.72","2938582","co38140","norming","","","","","","",""
"null","../img/tt/301tt.jpg","null","mooney1","image-keyboard-response","511","1673524","0.0-6.0-1.72","2938582","co38140","norming","","","","","","",""
"2705.6849999991246","","","post_mooney1_questions","survey-likert","512","1676233","0.0-6.0-2.72","2938582","co38140","norming","","","{""curiosity"":4,""confidence"":2}","[0,1]","../img/tt/301tt.jpg","",""
"3502.1199999991804","","","recognition","survey-text","513","1679737","0.0-6.0-3.72","2938582","co38140","norming","","","{""guess"":""tongen""}","","../img/tt/301tt.jpg","",""
"null","../img/gs/301gs.jpg","null","reveal","image-keyboard-response","514","1681738","0.0-6.0-4.72","2938582","co38140","norming","","","","","","",""
"null","../img/tt/301tt.jpg","null","mooney2","image-keyboard-response","515","1683741","0.0-6.0-5.72","2938582","co38140","norming","","","","","","",""
"3881.4149999998044","","","post_reveal_questions","survey-likert","516","1687625","0.0-6.0-6.72","2938582","co38140","norming","","","{""aha"":5}","[0]","../img/tt/301tt.jpg","",""
"null","<div style=""font-size:60px;""> </div>","null","fixation","html-keyboard-response","517","1687826","0.0-6.0-0.73","2938582","co38140","norming","","","","","","",""
"null","../img/tt/1002tt.jpg","null","mooney1","image-keyboard-response","518","1690834","0.0-6.0-1.73","2938582","co38140","norming","","","","","","",""
"4932.029999999795","","","post_mooney1_questions","survey-likert","519","1695769","0.0-6.0-2.73","2938582","co38140","norming","","","{""curiosity"":0,""confidence"":0}","[0,1]","../img/tt/1002tt.jpg","",""
"2038.0249999999069","","","recognition","survey-text","520","1697809","0.0-6.0-3.73","2938582","co38140","norming","","","{""guess"":""""}","","../img/tt/1002tt.jpg","",""
"null","../img/gs/1002gs.jpg","null","reveal","image-keyboard-response","521","1699816","0.0-6.0-4.73","2938582","co38140","norming","","","","","","",""
"null","../img/tt/1002tt.jpg","null","mooney2","image-keyboard-response","522","1701819","0.0-6.0-5.73","2938582","co38140","norming","","","","","","",""
"2131.5849999992643","","","post_reveal_questions","survey-likert","523","1703953","0.0-6.0-6.73","2938582","co38140","norming","","","{""aha"":5}","[0]","../img/tt/1002tt.jpg","",""
"null","<div style=""font-size:60px;""> </div>","null","fixation","html-keyboard-response","524","1704157","0.0-6.0-0.74","2938582","co38140","norming","","","","","","",""
"null","../img/tt/108tt.jpg","null","mooney1","image-keyboard-response","525","1707169","0.0-6.0-1.74","2938582","co38140","norming","","","","","","",""
"3262.1749999998137","","","post_mooney1_questions","survey-likert","526","1710433","0.0-6.0-2.74","2938582","co38140","norming","","","{""curiosity"":4,""confidence"":2}","[0,1]","../img/tt/108tt.jpg","",""
"5909.940000001341","","","recognition","survey-text","527","1716345","0.0-6.0-3.74","2938582","co38140","norming","","","{""guess"":""kikkers""}","","../img/tt/108tt.jpg","",""
"null","../img/gs/108gs.jpg","null","reveal","image-keyboard-response","528","1718346","0.0-6.0-4.74","2938582","co38140","norming","","","","","","",""
"null","../img/tt/108tt.jpg","null","mooney2","image-keyboard-response","529","1720356","0.0-6.0-5.74","2938582","co38140","norming","","","","","","",""
"4169.704999998445","","","post_reveal_questions","survey-likert","530","1724529","0.0-6.0-6.74","2938582","co38140","norming","","","{""aha"":5}","[0]","../img/tt/108tt.jpg","",""
"null","<div style=""font-size:60px;""> </div>","null","fixation","html-keyboard-response","531","1724734","0.0-6.0-0.75","2938582","co38140","norming","","","","","","",""
"null","../img/tt/507tt.jpg","null","mooney1","image-keyboard-response","532","1727739","0.0-6.0-1.75","2938582","co38140","norming","","","","","","",""
"4988.450000000652","","","post_mooney1_questions","survey-likert","533","1732729","0.0-6.0-2.75","2938582","co38140","norming","","","{""curiosity"":5,""confidence"":2}","[0,1]","../img/tt/507tt.jpg","",""
"5213.869999999646","","","recognition","survey-text","534","1737937","0.0-6.0-3.75","2938582","co38140","norming","","","{""guess"":""paarden""}","","../img/tt/507tt.jpg","",""
"null","../img/gs/507gs.jpg","null","reveal","image-keyboard-response","535","1739939","0.0-6.0-4.75","2938582","co38140","norming","","","","","","",""
"null","../img/tt/507tt.jpg","null","mooney2","image-keyboard-response","536","1741941","0.0-6.0-5.75","2938582","co38140","norming","","","","","","",""
"2761.575000000419","","","post_reveal_questions","survey-likert","537","1744705","0.0-6.0-6.75","2938582","co38140","norming","","","{""aha"":5}","[0]","../img/tt/507tt.jpg","",""
"null","<div style=""font-size:60px;""> </div>","null","fixation","html-keyboard-response","538","1744913","0.0-6.0-0.76","2938582","co38140","norming","","","","","","",""
"null","../img/tt/1142tt.jpg","null","mooney1","image-keyboard-response","539","1747917","0.0-6.0-1.76","2938582","co38140","norming","","","","","","",""
"4793.549999998417","","","post_mooney1_questions","survey-likert","540","1752714","0.0-6.0-2.76","2938582","co38140","norming","","","{""curiosity"":0,""confidence"":6}","[0,1]","../img/tt/1142tt.jpg","",""
"3565.9950000008103","","","recognition","survey-text","541","1756281","0.0-6.0-3.76","2938582","co38140","norming","","","{""guess"":""danseres""}","","../img/tt/1142tt.jpg","",""
"null","../img/gs/1142gs.jpg","null","reveal","image-keyboard-response","542","1758285","0.0-6.0-4.76","2938582","co38140","norming","","","","","","",""
"null","../img/tt/1142tt.jpg","null","mooney2","image-keyboard-response","543","1760296","0.0-6.0-5.76","2938582","co38140","norming","","","","","","",""
"2566.9400000006426","","","post_reveal_questions","survey-likert","544","1762865","0.0-6.0-6.76","2938582","co38140","norming","","","{""aha"":6}","[0]","../img/tt/1142tt.jpg","",""
"null","<div style=""font-size:60px;""> </div>","null","fixation","html-keyboard-response","545","1763067","0.0-6.0-0.77","2938582","co38140","norming","","","","","","",""
"null","../img/tt/032tt.jpg","null","mooney1","image-keyboard-response","546","1766069","0.0-6.0-1.77","2938582","co38140","norming","","","","","","",""
"3544.98000000068","","","post_mooney1_questions","survey-likert","547","1769617","0.0-6.0-2.77","2938582","co38140","norming","","","{""curiosity"":4,""confidence"":2}","[0,1]","../img/tt/032tt.jpg","",""
"2269.7550000010524","","","recognition","survey-text","548","1771889","0.0-6.0-3.77","2938582","co38140","norming","","","{""guess"":""dier""}","","../img/tt/032tt.jpg","",""
"null","../img/gs/032gs.jpg","null","reveal","image-keyboard-response","549","1773898","0.0-6.0-4.77","2938582","co38140","norming","","","","","","",""
"null","../img/tt/032tt.jpg","null","mooney2","image-keyboard-response","550","1775901","0.0-6.0-5.77","2938582","co38140","norming","","","","","","",""
"3065.775000000838","","","post_reveal_questions","survey-likert","551","1778969","0.0-6.0-6.77","2938582","co38140","norming","","","{""aha"":6}","[0]","../img/tt/032tt.jpg","",""
