"rt","stimulus","key_press","test_part","trial_type","trial_index","time_elapsed","internal_node_id","totalTime","subject","experiment_name","button_pressed","success","responses","question_order","currentStim","old","correct"
"6771.515000000363","Welcome to the experiment. This is an online experiment so please don't close the tab/window until we say goodbye.  Press any key to begin.","32","instructions","html-keyboard-response","0","6785","0.0-0.0","2847935","co38701","norming","","","","","","",""
"13910.27000000031","<div style='word-wrap: break-word; width: 900px'><h3>Please consider this information carefully before deciding whether to participate in this research</h3><ul style='text-align: left; font-size: .8em;'><li><b>Purpose of the research</b>: To examine how people process images.</li><li><b>What you will do in this research</b>:  Stimuli (images) will be presented on the computer and you will be asked different questions about them.</li><li><b>Time required</b>: Participation will take between 45 and 60 minutes to complete.</li><li><b>Risks</b>:  There are no anticipated risks associated with participating in this study. The effects of participating should be comparable to those you would experience from viewing a computer monitor for 30 minutes and using a mouse or keyboard.</li><li><b>Benefits</b>:  This study provides no benefits to you individually except for the credit. The study provides important information about the nature of perception and learning.</li><li><b>Confidentiality</b>:  Your participation in this study will remain confidential. No personally identifiable information will be associated with your data. Your de-identified data may be shared with other researchers and used in future projects.</li><li><b>Participation and withdrawal</b>:  Your participation in this study is completely voluntary and you may refuse to participate or you may choose to withdraw at any time without penalty.</li><li><b>How to contact the researchers</b>: If you have questions or concerns about your participation or payment, or want to request a summary of research findings, please contact Sander Van de Cruys (KU Leuven), at sander.vandecruys@kuleuven.be.</li></ul><p>The nature and purpose of this research have been sufficiently explained and I agree to participate in this study.  I understand that I am free to withdraw at any time without incurring any penalty.</p><p>Please consent by clicking the button below to continue. Otherwise, please exit the study at this time.</p></div>","","instructions","html-button-response","1","20702","0.0-1.0","2847935","co38701","norming","0","","","","","",""
"","","","instructions","fullscreen","2","22806","0.0-2.0","2847935","co38701","norming","","true","","","","",""
"40478.41000000153","","","sona","survey-html-form","3","63290","0.0-3.0","2847935","co38701","norming","","","[{""name"":""sonaid"",""value"":""38701""},{""name"":""debrief"",""value"":""yes""},{""name"":""datajoin"",""value"":""yes""}]","","","",""
"42922.91000000114","<div style='word-wrap: break-word; width: 900px'><h3>Instructions</h3><p>This experiment will have 3 parts. In the first part you will see a series of distorted images like the one below on the left. As you can see in the righthand image, the distorted images are derived from actual photographs. In what follows, you will <strong>briefly</strong> be presented with <strong>only</strong> the distorted image.</p> <div style='float: left; margin-right: 20px;'><img src='../img/018tt.jpg' height='250' width='250'></img></div><div style='float: right; margin-left: 20px;'><img src='../img/018gs.jpg' height='250' width='250'></img></div><p>Subsequently you will be asked a few questions about the image: One question on how <strong>curious</strong> you are about the solution and one on how <strong>confident</strong> you are that you know the solution.</p>Next, we ask you to make a guess on what is in the image. Note that it is OK to name just the <strong>basic level category</strong>. For example when you see a parrot in the image, 'parrot' will obviously be a correct answer but also correct is 'bird'. However, 'animal' will <strong>not</strong> be counted as a correct response. For the example above, 'rose' would be correct or 'flower', but not 'plant'. When soccer players are depicted, 'soccer', 'football', 'soccer players' will be correct, but not 'humans', 'outdoors', or 'sports'. You do not need to describe the image in full, just name the main object in it <strong>in one or two words</strong>. All images depict objects from one of the following broad level categories: animals, inanimate objects, plants, sports, vehicles, and food. Recognizing means knowing <strong>more</strong> than these broad labels for a given image. But we always encourage you to <strong>make a guess</strong> if you can. Note that you are allowed to use <strong>Dutch and English</strong> in your answers, whatever comes easiest for you.</p><p>Press any key to continue.</p></div>","32","instructions","html-keyboard-response","4","106211","0.0-4.0","2847935","co38701","norming","","","","","","",""
"181103.93999999907","<div style='word-wrap: break-word; width: 900px'><h3>Instructions</h3> <p>Next, the solution image will be revealed to you and you'll be asked to indicate how strong your <strong>aha-experience</strong> was after seeing the solution. This describes the positive feeling of the 'click' you sometimes experience, when the pieces of the 'puzzle' fall together and you suddenly have 'insight' in the image.</p><img src='aha.jpg' height='188' width='250'></img><p>Note that there are no right or wrong answers. We are interested in what <strong>you</strong> see in the image and how <strong>you</strong> feel about it.</p><p>Press any key to start the experiment.</p></div>","32","instructions","html-keyboard-response","5","287318","0.0-5.0","2847935","co38701","norming","","","","","","",""
"null","<div style=""font-size:60px;""> </div>","null","fixation","html-keyboard-response","6","287521","0.0-6.0-0.0","2847935","co38701","norming","","","","","","",""
"null","../img/tt/1224tt.jpg","null","mooney1","image-keyboard-response","7","290524","0.0-6.0-1.0","2847935","co38701","norming","","","","","","",""
"14961.205000001413","","","post_mooney1_questions","survey-likert","8","305487","0.0-6.0-2.0","2847935","co38701","norming","","","{""curiosity"":2,""confidence"":6}","[0,1]","../img/tt/1224tt.jpg","",""
"7861.3100000002305","","","recognition","survey-text","9","313350","0.0-6.0-3.0","2847935","co38701","norming","","","{""guess"":""person""}","","../img/tt/1224tt.jpg","",""
"null","../img/gs/1224gs.jpg","null","reveal","image-keyboard-response","10","315358","0.0-6.0-4.0","2847935","co38701","norming","","","","","","",""
"null","../img/tt/1224tt.jpg","null","mooney2","image-keyboard-response","11","317367","0.0-6.0-5.0","2847935","co38701","norming","","","","","","",""
"4334.140000000887","","","post_reveal_questions","survey-likert","12","321702","0.0-6.0-6.0","2847935","co38701","norming","","","{""aha"":2}","[0]","../img/tt/1224tt.jpg","",""
"null","<div style=""font-size:60px;""> </div>","null","fixation","html-keyboard-response","13","321904","0.0-6.0-0.1","2847935","co38701","norming","","","","","","",""
"null","../img/tt/436tt.jpg","null","mooney1","image-keyboard-response","14","324905","0.0-6.0-1.1","2847935","co38701","norming","","","","","","",""
"6364.550000000221","","","post_mooney1_questions","survey-likert","15","331270","0.0-6.0-2.1","2847935","co38701","norming","","","{""curiosity"":6,""confidence"":0}","[0,1]","../img/tt/436tt.jpg","",""
"7693.6900000000605","","","recognition","survey-text","16","338966","0.0-6.0-3.1","2847935","co38701","norming","","","{""guess"":""/""}","","../img/tt/436tt.jpg","",""
"null","../img/gs/436gs.jpg","null","reveal","image-keyboard-response","17","340970","0.0-6.0-4.1","2847935","co38701","norming","","","","","","",""
"null","../img/tt/436tt.jpg","null","mooney2","image-keyboard-response","18","342975","0.0-6.0-5.1","2847935","co38701","norming","","","","","","",""
"7430.259999999136","","","post_reveal_questions","survey-likert","19","350409","0.0-6.0-6.1","2847935","co38701","norming","","","{""aha"":6}","[0]","../img/tt/436tt.jpg","",""
"null","<div style=""font-size:60px;""> </div>","null","fixation","html-keyboard-response","20","350615","0.0-6.0-0.2","2847935","co38701","norming","","","","","","",""
"null","../img/tt/1154tt.jpg","null","mooney1","image-keyboard-response","21","353621","0.0-6.0-1.2","2847935","co38701","norming","","","","","","",""
"7387.4300000006915","","","post_mooney1_questions","survey-likert","22","361010","0.0-6.0-2.2","2847935","co38701","norming","","","{""curiosity"":5,""confidence"":2}","[0,1]","../img/tt/1154tt.jpg","",""
"2469.580000000831","","","recognition","survey-text","23","363481","0.0-6.0-3.2","2847935","co38701","norming","","","{""guess"":""boat""}","","../img/tt/1154tt.jpg","",""
"null","../img/gs/1154gs.jpg","null","reveal","image-keyboard-response","24","365483","0.0-6.0-4.2","2847935","co38701","norming","","","","","","",""
"null","../img/tt/1154tt.jpg","null","mooney2","image-keyboard-response","25","367489","0.0-6.0-5.2","2847935","co38701","norming","","","","","","",""
"5759.950000001467","","","post_reveal_questions","survey-likert","26","373249","0.0-6.0-6.2","2847935","co38701","norming","","","{""aha"":4}","[0]","../img/tt/1154tt.jpg","",""
"null","<div style=""font-size:60px;""> </div>","null","fixation","html-keyboard-response","27","373451","0.0-6.0-0.3","2847935","co38701","norming","","","","","","",""
"null","../img/tt/1097tt.jpg","null","mooney1","image-keyboard-response","28","376460","0.0-6.0-1.3","2847935","co38701","norming","","","","","","",""
"8340.94499999989","","","post_mooney1_questions","survey-likert","29","384802","0.0-6.0-2.3","2847935","co38701","norming","","","{""curiosity"":2,""confidence"":2}","[0,1]","../img/tt/1097tt.jpg","",""
"6741.945000001579","","","recognition","survey-text","30","391545","0.0-6.0-3.3","2847935","co38701","norming","","","{""guess"":""paddle""}","","../img/tt/1097tt.jpg","",""
"null","../img/gs/1097gs.jpg","null","reveal","image-keyboard-response","31","393553","0.0-6.0-4.3","2847935","co38701","norming","","","","","","",""
"null","../img/tt/1097tt.jpg","null","mooney2","image-keyboard-response","32","395560","0.0-6.0-5.3","2847935","co38701","norming","","","","","","",""
"2472.305000001157","","","post_reveal_questions","survey-likert","33","398034","0.0-6.0-6.3","2847935","co38701","norming","","","{""aha"":4}","[0]","../img/tt/1097tt.jpg","",""
"null","<div style=""font-size:60px;""> </div>","null","fixation","html-keyboard-response","34","398235","0.0-6.0-0.4","2847935","co38701","norming","","","","","","",""
"null","../img/tt/405tt.jpg","null","mooney1","image-keyboard-response","35","401236","0.0-6.0-1.4","2847935","co38701","norming","","","","","","",""
"4420.615000000922","","","post_mooney1_questions","survey-likert","36","405658","0.0-6.0-2.4","2847935","co38701","norming","","","{""curiosity"":1,""confidence"":5}","[0,1]","../img/tt/405tt.jpg","",""
"3149.8549999996903","","","recognition","survey-text","37","408810","0.0-6.0-3.4","2847935","co38701","norming","","","{""guess"":""koala""}","","../img/tt/405tt.jpg","",""
"null","../img/gs/405gs.jpg","null","reveal","image-keyboard-response","38","410812","0.0-6.0-4.4","2847935","co38701","norming","","","","","","",""
"null","../img/tt/405tt.jpg","null","mooney2","image-keyboard-response","39","412818","0.0-6.0-5.4","2847935","co38701","norming","","","","","","",""
"1902.4399999998277","","","post_reveal_questions","survey-likert","40","414722","0.0-6.0-6.4","2847935","co38701","norming","","","{""aha"":1}","[0]","../img/tt/405tt.jpg","",""
"null","<div style=""font-size:60px;""> </div>","null","fixation","html-keyboard-response","41","414927","0.0-6.0-0.5","2847935","co38701","norming","","","","","","",""
"null","../img/tt/085tt.jpg","null","mooney1","image-keyboard-response","42","417930","0.0-6.0-1.5","2847935","co38701","norming","","","","","","",""
"5982.210000000079","","","post_mooney1_questions","survey-likert","43","423914","0.0-6.0-2.5","2847935","co38701","norming","","","{""curiosity"":5,""confidence"":1}","[0,1]","../img/tt/085tt.jpg","",""
"3469.8199999984354","","","recognition","survey-text","44","427386","0.0-6.0-3.5","2847935","co38701","norming","","","{""guess"":""/""}","","../img/tt/085tt.jpg","",""
"null","../img/gs/085gs.jpg","null","reveal","image-keyboard-response","45","429388","0.0-6.0-4.5","2847935","co38701","norming","","","","","","",""
"null","../img/tt/085tt.jpg","null","mooney2","image-keyboard-response","46","431389","0.0-6.0-5.5","2847935","co38701","norming","","","","","","",""
"5291.480000001669","","","post_reveal_questions","survey-likert","47","436682","0.0-6.0-6.5","2847935","co38701","norming","","","{""aha"":5}","[0]","../img/tt/085tt.jpg","",""
"null","<div style=""font-size:60px;""> </div>","null","fixation","html-keyboard-response","48","436890","0.0-6.0-0.6","2847935","co38701","norming","","","","","","",""
"null","../img/tt/1107tt.jpg","null","mooney1","image-keyboard-response","49","439898","0.0-6.0-1.6","2847935","co38701","norming","","","","","","",""
"4294.41000000044","","","post_mooney1_questions","survey-likert","50","444194","0.0-6.0-2.6","2847935","co38701","norming","","","{""curiosity"":4,""confidence"":2}","[0,1]","../img/tt/1107tt.jpg","",""
"2053.6250000004657","","","recognition","survey-text","51","446250","0.0-6.0-3.6","2847935","co38701","norming","","","{""guess"":""cat""}","","../img/tt/1107tt.jpg","",""
"null","../img/gs/1107gs.jpg","null","reveal","image-keyboard-response","52","448256","0.0-6.0-4.6","2847935","co38701","norming","","","","","","",""
"null","../img/tt/1107tt.jpg","null","mooney2","image-keyboard-response","53","450257","0.0-6.0-5.6","2847935","co38701","norming","","","","","","",""
"2048.534999999916","","","post_reveal_questions","survey-likert","54","452306","0.0-6.0-6.6","2847935","co38701","norming","","","{""aha"":2}","[0]","../img/tt/1107tt.jpg","",""
"null","<div style=""font-size:60px;""> </div>","null","fixation","html-keyboard-response","55","452512","0.0-6.0-0.7","2847935","co38701","norming","","","","","","",""
"null","../img/tt/1270tt.jpg","null","mooney1","image-keyboard-response","56","455515","0.0-6.0-1.7","2847935","co38701","norming","","","","","","",""
"6581.880000001576","","","post_mooney1_questions","survey-likert","57","462098","0.0-6.0-2.7","2847935","co38701","norming","","","{""curiosity"":2,""confidence"":4}","[0,1]","../img/tt/1270tt.jpg","",""
"5029.590000000084","","","recognition","survey-text","58","467130","0.0-6.0-3.7","2847935","co38701","norming","","","{""guess"":""mouse""}","","../img/tt/1270tt.jpg","",""
"null","../img/gs/1270gs.jpg","null","reveal","image-keyboard-response","59","469136","0.0-6.0-4.7","2847935","co38701","norming","","","","","","",""
"null","../img/tt/1270tt.jpg","null","mooney2","image-keyboard-response","60","471141","0.0-6.0-5.7","2847935","co38701","norming","","","","","","",""
"4420.190000000701","","","post_reveal_questions","survey-likert","61","475562","0.0-6.0-6.7","2847935","co38701","norming","","","{""aha"":1}","[0]","../img/tt/1270tt.jpg","",""
"null","<div style=""font-size:60px;""> </div>","null","fixation","html-keyboard-response","62","475767","0.0-6.0-0.8","2847935","co38701","norming","","","","","","",""
"null","../img/tt/1159tt.jpg","null","mooney1","image-keyboard-response","63","478777","0.0-6.0-1.8","2847935","co38701","norming","","","","","","",""
"4808.619999999821","","","post_mooney1_questions","survey-likert","64","483586","0.0-6.0-2.8","2847935","co38701","norming","","","{""curiosity"":6,""confidence"":0}","[0,1]","../img/tt/1159tt.jpg","",""
"1046.2500000012806","","","recognition","survey-text","65","484634","0.0-6.0-3.8","2847935","co38701","norming","","","{""guess"":""/""}","","../img/tt/1159tt.jpg","",""
"null","../img/gs/1159gs.jpg","null","reveal","image-keyboard-response","66","486639","0.0-6.0-4.8","2847935","co38701","norming","","","","","","",""
"null","../img/tt/1159tt.jpg","null","mooney2","image-keyboard-response","67","488641","0.0-6.0-5.8","2847935","co38701","norming","","","","","","",""
"1863.8250000003027","","","post_reveal_questions","survey-likert","68","490506","0.0-6.0-6.8","2847935","co38701","norming","","","{""aha"":6}","[0]","../img/tt/1159tt.jpg","",""
"null","<div style=""font-size:60px;""> </div>","null","fixation","html-keyboard-response","69","490717","0.0-6.0-0.9","2847935","co38701","norming","","","","","","",""
"null","../img/tt/1046tt.jpg","null","mooney1","image-keyboard-response","70","493724","0.0-6.0-1.9","2847935","co38701","norming","","","","","","",""
"3356.7000000003027","","","post_mooney1_questions","survey-likert","71","497082","0.0-6.0-2.9","2847935","co38701","norming","","","{""curiosity"":6,""confidence"":0}","[0,1]","../img/tt/1046tt.jpg","",""
"1310.165000000794","","","recognition","survey-text","72","498394","0.0-6.0-3.9","2847935","co38701","norming","","","{""guess"":""/""}","","../img/tt/1046tt.jpg","",""
"null","../img/gs/1046gs.jpg","null","reveal","image-keyboard-response","73","500396","0.0-6.0-4.9","2847935","co38701","norming","","","","","","",""
"null","../img/tt/1046tt.jpg","null","mooney2","image-keyboard-response","74","502402","0.0-6.0-5.9","2847935","co38701","norming","","","","","","",""
"3957.829999999376","","","post_reveal_questions","survey-likert","75","506362","0.0-6.0-6.9","2847935","co38701","norming","","","{""aha"":6}","[0]","../img/tt/1046tt.jpg","",""
"null","<div style=""font-size:60px;""> </div>","null","fixation","html-keyboard-response","76","506569","0.0-6.0-0.10","2847935","co38701","norming","","","","","","",""
"null","../img/tt/1146tt.jpg","null","mooney1","image-keyboard-response","77","509572","0.0-6.0-1.10","2847935","co38701","norming","","","","","","",""
"8292.38500000065","","","post_mooney1_questions","survey-likert","78","517866","0.0-6.0-2.10","2847935","co38701","norming","","","{""curiosity"":6,""confidence"":1}","[0,1]","../img/tt/1146tt.jpg","",""
"1949.2499999996508","","","recognition","survey-text","79","519819","0.0-6.0-3.10","2847935","co38701","norming","","","{""guess"":""/""}","","../img/tt/1146tt.jpg","",""
"null","../img/gs/1146gs.jpg","null","reveal","image-keyboard-response","80","521829","0.0-6.0-4.10","2847935","co38701","norming","","","","","","",""
"null","../img/tt/1146tt.jpg","null","mooney2","image-keyboard-response","81","523834","0.0-6.0-5.10","2847935","co38701","norming","","","","","","",""
"4238.755000000354","","","post_reveal_questions","survey-likert","82","528074","0.0-6.0-6.10","2847935","co38701","norming","","","{""aha"":4}","[0]","../img/tt/1146tt.jpg","",""
"null","<div style=""font-size:60px;""> </div>","null","fixation","html-keyboard-response","83","528281","0.0-6.0-0.11","2847935","co38701","norming","","","","","","",""
"null","../img/tt/378tt.jpg","null","mooney1","image-keyboard-response","84","531290","0.0-6.0-1.11","2847935","co38701","norming","","","","","","",""
"5813.824999999255","","","post_mooney1_questions","survey-likert","85","537107","0.0-6.0-2.11","2847935","co38701","norming","","","{""curiosity"":6,""confidence"":1}","[0,1]","../img/tt/378tt.jpg","",""
"3526.1550000013085","","","recognition","survey-text","86","540634","0.0-6.0-3.11","2847935","co38701","norming","","","{""guess"":""snake""}","","../img/tt/378tt.jpg","",""
"null","../img/gs/378gs.jpg","null","reveal","image-keyboard-response","87","542636","0.0-6.0-4.11","2847935","co38701","norming","","","","","","",""
"null","../img/tt/378tt.jpg","null","mooney2","image-keyboard-response","88","544641","0.0-6.0-5.11","2847935","co38701","norming","","","","","","",""
"2295.1599999996834","","","post_reveal_questions","survey-likert","89","546938","0.0-6.0-6.11","2847935","co38701","norming","","","{""aha"":5}","[0]","../img/tt/378tt.jpg","",""
"null","<div style=""font-size:60px;""> </div>","null","fixation","html-keyboard-response","90","547146","0.0-6.0-0.12","2847935","co38701","norming","","","","","","",""
"null","../img/tt/1091tt.jpg","null","mooney1","image-keyboard-response","91","550152","0.0-6.0-1.12","2847935","co38701","norming","","","","","","",""
"4480.080000001239","","","post_mooney1_questions","survey-likert","92","554635","0.0-6.0-2.12","2847935","co38701","norming","","","{""curiosity"":1,""confidence"":6}","[0,1]","../img/tt/1091tt.jpg","",""
"2029.5999999998603","","","recognition","survey-text","93","556666","0.0-6.0-3.12","2847935","co38701","norming","","","{""guess"":""horse""}","","../img/tt/1091tt.jpg","",""
"null","../img/gs/1091gs.jpg","null","reveal","image-keyboard-response","94","558668","0.0-6.0-4.12","2847935","co38701","norming","","","","","","",""
"null","../img/tt/1091tt.jpg","null","mooney2","image-keyboard-response","95","560671","0.0-6.0-5.12","2847935","co38701","norming","","","","","","",""
"2922.275000000838","","","post_reveal_questions","survey-likert","96","563595","0.0-6.0-6.12","2847935","co38701","norming","","","{""aha"":1}","[0]","../img/tt/1091tt.jpg","",""
"null","<div style=""font-size:60px;""> </div>","null","fixation","html-keyboard-response","97","563796","0.0-6.0-0.13","2847935","co38701","norming","","","","","","",""
"null","../img/tt/140tt.jpg","null","mooney1","image-keyboard-response","98","566806","0.0-6.0-1.13","2847935","co38701","norming","","","","","","",""
"7091.779999998864","","","post_mooney1_questions","survey-likert","99","573899","0.0-6.0-2.13","2847935","co38701","norming","","","{""curiosity"":6,""confidence"":0}","[0,1]","../img/tt/140tt.jpg","",""
"1150.1049999988172","","","recognition","survey-text","100","575050","0.0-6.0-3.13","2847935","co38701","norming","","","{""guess"":""/""}","","../img/tt/140tt.jpg","",""
"null","../img/gs/140gs.jpg","null","reveal","image-keyboard-response","101","577052","0.0-6.0-4.13","2847935","co38701","norming","","","","","","",""
"null","../img/tt/140tt.jpg","null","mooney2","image-keyboard-response","102","579053","0.0-6.0-5.13","2847935","co38701","norming","","","","","","",""
"2338.82000000088","","","post_reveal_questions","survey-likert","103","581394","0.0-6.0-6.13","2847935","co38701","norming","","","{""aha"":6}","[0]","../img/tt/140tt.jpg","",""
"null","<div style=""font-size:60px;""> </div>","null","fixation","html-keyboard-response","104","581600","0.0-6.0-0.14","2847935","co38701","norming","","","","","","",""
"null","../img/tt/515tt.jpg","null","mooney1","image-keyboard-response","105","584610","0.0-6.0-1.14","2847935","co38701","norming","","","","","","",""
"5845.575000001118","","","post_mooney1_questions","survey-likert","106","590459","0.0-6.0-2.14","2847935","co38701","norming","","","{""curiosity"":5,""confidence"":1}","[0,1]","../img/tt/515tt.jpg","",""
"2605.859999999753","","","recognition","survey-text","107","593060","0.0-6.0-3.14","2847935","co38701","norming","","","{""guess"":""book""}","","../img/tt/515tt.jpg","",""
"null","../img/gs/515gs.jpg","null","reveal","image-keyboard-response","108","595061","0.0-6.0-4.14","2847935","co38701","norming","","","","","","",""
"null","../img/tt/515tt.jpg","null","mooney2","image-keyboard-response","109","597063","0.0-6.0-5.14","2847935","co38701","norming","","","","","","",""
"3010.8000000000466","","","post_reveal_questions","survey-likert","110","600075","0.0-6.0-6.14","2847935","co38701","norming","","","{""aha"":6}","[0]","../img/tt/515tt.jpg","",""
"null","<div style=""font-size:60px;""> </div>","null","fixation","html-keyboard-response","111","600276","0.0-6.0-0.15","2847935","co38701","norming","","","","","","",""
"null","../img/tt/358tt.jpg","null","mooney1","image-keyboard-response","112","603278","0.0-6.0-1.15","2847935","co38701","norming","","","","","","",""
"3988.1549999990966","","","post_mooney1_questions","survey-likert","113","607268","0.0-6.0-2.15","2847935","co38701","norming","","","{""curiosity"":6,""confidence"":1}","[0,1]","../img/tt/358tt.jpg","",""
"1550.2450000003446","","","recognition","survey-text","114","608820","0.0-6.0-3.15","2847935","co38701","norming","","","{""guess"":""ape""}","","../img/tt/358tt.jpg","",""
"null","../img/gs/358gs.jpg","null","reveal","image-keyboard-response","115","610826","0.0-6.0-4.15","2847935","co38701","norming","","","","","","",""
"null","../img/tt/358tt.jpg","null","mooney2","image-keyboard-response","116","612836","0.0-6.0-5.15","2847935","co38701","norming","","","","","","",""
"4757.775000000023","","","post_reveal_questions","survey-likert","117","617596","0.0-6.0-6.15","2847935","co38701","norming","","","{""aha"":5}","[0]","../img/tt/358tt.jpg","",""
"null","<div style=""font-size:60px;""> </div>","null","fixation","html-keyboard-response","118","617797","0.0-6.0-0.16","2847935","co38701","norming","","","","","","",""
"null","../img/tt/1200tt.jpg","null","mooney1","image-keyboard-response","119","620800","0.0-6.0-1.16","2847935","co38701","norming","","","","","","",""
"8906.269999999437","","","post_mooney1_questions","survey-likert","120","629708","0.0-6.0-2.16","2847935","co38701","norming","","","{""curiosity"":6,""confidence"":1}","[0,1]","../img/tt/1200tt.jpg","",""
"2038.0850000000792","","","recognition","survey-text","121","631747","0.0-6.0-3.16","2847935","co38701","norming","","","{""guess"":""game""}","","../img/tt/1200tt.jpg","",""
"null","../img/gs/1200gs.jpg","null","reveal","image-keyboard-response","122","633749","0.0-6.0-4.16","2847935","co38701","norming","","","","","","",""
"null","../img/tt/1200tt.jpg","null","mooney2","image-keyboard-response","123","635759","0.0-6.0-5.16","2847935","co38701","norming","","","","","","",""
"3218.5599999993574","","","post_reveal_questions","survey-likert","124","638979","0.0-6.0-6.16","2847935","co38701","norming","","","{""aha"":6}","[0]","../img/tt/1200tt.jpg","",""
"null","<div style=""font-size:60px;""> </div>","null","fixation","html-keyboard-response","125","639186","0.0-6.0-0.17","2847935","co38701","norming","","","","","","",""
"null","../img/tt/1247tt.jpg","null","mooney1","image-keyboard-response","126","642194","0.0-6.0-1.17","2847935","co38701","norming","","","","","","",""
"5510.634999998729","","","post_mooney1_questions","survey-likert","127","647708","0.0-6.0-2.17","2847935","co38701","norming","","","{""curiosity"":4,""confidence"":3}","[0,1]","../img/tt/1247tt.jpg","",""
"2742.1100000010338","","","recognition","survey-text","128","650451","0.0-6.0-3.17","2847935","co38701","norming","","","{""guess"":""puma""}","","../img/tt/1247tt.jpg","",""
"null","../img/gs/1247gs.jpg","null","reveal","image-keyboard-response","129","652465","0.0-6.0-4.17","2847935","co38701","norming","","","","","","",""
"null","../img/tt/1247tt.jpg","null","mooney2","image-keyboard-response","130","654473","0.0-6.0-5.17","2847935","co38701","norming","","","","","","",""
"6127.51500000013","","","post_reveal_questions","survey-likert","131","660603","0.0-6.0-6.17","2847935","co38701","norming","","","{""aha"":2}","[0]","../img/tt/1247tt.jpg","",""
"null","<div style=""font-size:60px;""> </div>","null","fixation","html-keyboard-response","132","660808","0.0-6.0-0.18","2847935","co38701","norming","","","","","","",""
"null","../img/tt/1275tt.jpg","null","mooney1","image-keyboard-response","133","663809","0.0-6.0-1.18","2847935","co38701","norming","","","","","","",""
"13943.769999999902","","","post_mooney1_questions","survey-likert","134","677755","0.0-6.0-2.18","2847935","co38701","norming","","","{""curiosity"":1,""confidence"":4}","[0,1]","../img/tt/1275tt.jpg","",""
"6685.805000000983","","","recognition","survey-text","135","684443","0.0-6.0-3.18","2847935","co38701","norming","","","{""guess"":""pig""}","","../img/tt/1275tt.jpg","",""
"null","../img/gs/1275gs.jpg","null","reveal","image-keyboard-response","136","686444","0.0-6.0-4.18","2847935","co38701","norming","","","","","","",""
"null","../img/tt/1275tt.jpg","null","mooney2","image-keyboard-response","137","688446","0.0-6.0-5.18","2847935","co38701","norming","","","","","","",""
"2514.890000000363","","","post_reveal_questions","survey-likert","138","690963","0.0-6.0-6.18","2847935","co38701","norming","","","{""aha"":1}","[0]","../img/tt/1275tt.jpg","",""
"null","<div style=""font-size:60px;""> </div>","null","fixation","html-keyboard-response","139","691167","0.0-6.0-0.19","2847935","co38701","norming","","","","","","",""
"null","../img/tt/584tt.jpg","null","mooney1","image-keyboard-response","140","694174","0.0-6.0-1.19","2847935","co38701","norming","","","","","","",""
"3634.430000000051","","","post_mooney1_questions","survey-likert","141","697811","0.0-6.0-2.19","2847935","co38701","norming","","","{""curiosity"":4,""confidence"":2}","[0,1]","../img/tt/584tt.jpg","",""
"3030.134999999078","","","recognition","survey-text","142","700843","0.0-6.0-3.19","2847935","co38701","norming","","","{""guess"":""flower""}","","../img/tt/584tt.jpg","",""
"null","../img/gs/584gs.jpg","null","reveal","image-keyboard-response","143","702850","0.0-6.0-4.19","2847935","co38701","norming","","","","","","",""
"null","../img/tt/584tt.jpg","null","mooney2","image-keyboard-response","144","704860","0.0-6.0-5.19","2847935","co38701","norming","","","","","","",""
"2749.4900000002235","","","post_reveal_questions","survey-likert","145","707611","0.0-6.0-6.19","2847935","co38701","norming","","","{""aha"":6}","[0]","../img/tt/584tt.jpg","",""
"null","<div style=""font-size:60px;""> </div>","null","fixation","html-keyboard-response","146","707821","0.0-6.0-0.20","2847935","co38701","norming","","","","","","",""
"null","../img/tt/1362tt.jpg","null","mooney1","image-keyboard-response","147","710823","0.0-6.0-1.20","2847935","co38701","norming","","","","","","",""
"6890.439999999129","","","post_mooney1_questions","survey-likert","148","717708","0.0-6.0-2.20","2847935","co38701","norming","","","{""curiosity"":6,""confidence"":1}","[0,1]","../img/tt/1362tt.jpg","",""
"3878.160000000149","","","recognition","survey-text","149","721588","0.0-6.0-3.20","2847935","co38701","norming","","","{""guess"":""phone""}","","../img/tt/1362tt.jpg","",""
"null","../img/gs/1362gs.jpg","null","reveal","image-keyboard-response","150","723590","0.0-6.0-4.20","2847935","co38701","norming","","","","","","",""
"null","../img/tt/1362tt.jpg","null","mooney2","image-keyboard-response","151","725592","0.0-6.0-5.20","2847935","co38701","norming","","","","","","",""
"2946.0500000005122","","","post_reveal_questions","survey-likert","152","728540","0.0-6.0-6.20","2847935","co38701","norming","","","{""aha"":5}","[0]","../img/tt/1362tt.jpg","",""
"null","<div style=""font-size:60px;""> </div>","null","fixation","html-keyboard-response","153","728745","0.0-6.0-0.21","2847935","co38701","norming","","","","","","",""
"null","../img/tt/036tt.jpg","null","mooney1","image-keyboard-response","154","731749","0.0-6.0-1.21","2847935","co38701","norming","","","","","","",""
"5676.375000000931","","","post_mooney1_questions","survey-likert","155","737428","0.0-6.0-2.21","2847935","co38701","norming","","","{""curiosity"":6,""confidence"":1}","[0,1]","../img/tt/036tt.jpg","",""
"2926.5049999994226","","","recognition","survey-text","156","740356","0.0-6.0-3.21","2847935","co38701","norming","","","{""guess"":""food""}","","../img/tt/036tt.jpg","",""
"null","../img/gs/036gs.jpg","null","reveal","image-keyboard-response","157","742366","0.0-6.0-4.21","2847935","co38701","norming","","","","","","",""
"null","../img/tt/036tt.jpg","null","mooney2","image-keyboard-response","158","744375","0.0-6.0-5.21","2847935","co38701","norming","","","","","","",""
"3275.43499999959","","","post_reveal_questions","survey-likert","159","747652","0.0-6.0-6.21","2847935","co38701","norming","","","{""aha"":6}","[0]","../img/tt/036tt.jpg","",""
"null","<div style=""font-size:60px;""> </div>","null","fixation","html-keyboard-response","160","747853","0.0-6.0-0.22","2847935","co38701","norming","","","","","","",""
"null","../img/tt/1161tt.jpg","null","mooney1","image-keyboard-response","161","750857","0.0-6.0-1.22","2847935","co38701","norming","","","","","","",""
"3984.440000000177","","","post_mooney1_questions","survey-likert","162","754844","0.0-6.0-2.22","2847935","co38701","norming","","","{""curiosity"":6,""confidence"":1}","[0,1]","../img/tt/1161tt.jpg","",""
"1526.1150000005728","","","recognition","survey-text","163","756372","0.0-6.0-3.22","2847935","co38701","norming","","","{""guess"":""/""}","","../img/tt/1161tt.jpg","",""
"null","../img/gs/1161gs.jpg","null","reveal","image-keyboard-response","164","758377","0.0-6.0-4.22","2847935","co38701","norming","","","","","","",""
"null","../img/tt/1161tt.jpg","null","mooney2","image-keyboard-response","165","760379","0.0-6.0-5.22","2847935","co38701","norming","","","","","","",""
"2151.284999999916","","","post_reveal_questions","survey-likert","166","762532","0.0-6.0-6.22","2847935","co38701","norming","","","{""aha"":6}","[0]","../img/tt/1161tt.jpg","",""
"null","<div style=""font-size:60px;""> </div>","null","fixation","html-keyboard-response","167","762734","0.0-6.0-0.23","2847935","co38701","norming","","","","","","",""
"null","../img/tt/1217tt.jpg","null","mooney1","image-keyboard-response","168","765743","0.0-6.0-1.23","2847935","co38701","norming","","","","","","",""
"6082.694999999134","","","post_mooney1_questions","survey-likert","169","771828","0.0-6.0-2.23","2847935","co38701","norming","","","{""curiosity"":6,""confidence"":2}","[0,1]","../img/tt/1217tt.jpg","",""
"2205.9599999993807","","","recognition","survey-text","170","774036","0.0-6.0-3.23","2847935","co38701","norming","","","{""guess"":""cows""}","","../img/tt/1217tt.jpg","",""
"null","../img/gs/1217gs.jpg","null","reveal","image-keyboard-response","171","776053","0.0-6.0-4.23","2847935","co38701","norming","","","","","","",""
"null","../img/tt/1217tt.jpg","null","mooney2","image-keyboard-response","172","778060","0.0-6.0-5.23","2847935","co38701","norming","","","","","","",""
"6255.194999999716","","","post_reveal_questions","survey-likert","173","784317","0.0-6.0-6.23","2847935","co38701","norming","","","{""aha"":6}","[0]","../img/tt/1217tt.jpg","",""
"null","<div style=""font-size:60px;""> </div>","null","fixation","html-keyboard-response","174","784522","0.0-6.0-0.24","2847935","co38701","norming","","","","","","",""
"null","../img/tt/1002tt.jpg","null","mooney1","image-keyboard-response","175","787525","0.0-6.0-1.24","2847935","co38701","norming","","","","","","",""
"6134.254999998957","","","post_mooney1_questions","survey-likert","176","793662","0.0-6.0-2.24","2847935","co38701","norming","","","{""curiosity"":6,""confidence"":0}","[0,1]","../img/tt/1002tt.jpg","",""
"4189.870000000112","","","recognition","survey-text","177","797853","0.0-6.0-3.24","2847935","co38701","norming","","","{""guess"":""*""}","","../img/tt/1002tt.jpg","",""
"null","../img/gs/1002gs.jpg","null","reveal","image-keyboard-response","178","799862","0.0-6.0-4.24","2847935","co38701","norming","","","","","","",""
"null","../img/tt/1002tt.jpg","null","mooney2","image-keyboard-response","179","801866","0.0-6.0-5.24","2847935","co38701","norming","","","","","","",""
"3953.0250000006054","","","post_reveal_questions","survey-likert","180","805822","0.0-6.0-6.24","2847935","co38701","norming","","","{""aha"":6}","[0]","../img/tt/1002tt.jpg","",""
"null","<div style=""font-size:60px;""> </div>","null","fixation","html-keyboard-response","181","806023","0.0-6.0-0.25","2847935","co38701","norming","","","","","","",""
"null","../img/tt/1243tt.jpg","null","mooney1","image-keyboard-response","182","809026","0.0-6.0-1.25","2847935","co38701","norming","","","","","","",""
"3345.679999998538","","","post_mooney1_questions","survey-likert","183","812374","0.0-6.0-2.25","2847935","co38701","norming","","","{""curiosity"":6,""confidence"":1}","[0,1]","../img/tt/1243tt.jpg","",""
"1670.145000000135","","","recognition","survey-text","184","814046","0.0-6.0-3.25","2847935","co38701","norming","","","{""guess"":""ape""}","","../img/tt/1243tt.jpg","",""
"null","../img/gs/1243gs.jpg","null","reveal","image-keyboard-response","185","816048","0.0-6.0-4.25","2847935","co38701","norming","","","","","","",""
"null","../img/tt/1243tt.jpg","null","mooney2","image-keyboard-response","186","818051","0.0-6.0-5.25","2847935","co38701","norming","","","","","","",""
"3792.0950000006706","","","post_reveal_questions","survey-likert","187","821846","0.0-6.0-6.25","2847935","co38701","norming","","","{""aha"":6}","[0]","../img/tt/1243tt.jpg","",""
"null","<div style=""font-size:60px;""> </div>","null","fixation","html-keyboard-response","188","822049","0.0-6.0-0.26","2847935","co38701","norming","","","","","","",""
"null","../img/tt/296tt.jpg","null","mooney1","image-keyboard-response","189","825061","0.0-6.0-1.26","2847935","co38701","norming","","","","","","",""
"3782.234999998822","","","post_mooney1_questions","survey-likert","190","828846","0.0-6.0-2.26","2847935","co38701","norming","","","{""curiosity"":4,""confidence"":4}","[0,1]","../img/tt/296tt.jpg","",""
"5598.120000000577","","","recognition","survey-text","191","834446","0.0-6.0-3.26","2847935","co38701","norming","","","{""guess"":""desk""}","","../img/tt/296tt.jpg","",""
"null","../img/gs/296gs.jpg","null","reveal","image-keyboard-response","192","836452","0.0-6.0-4.26","2847935","co38701","norming","","","","","","",""
"null","../img/tt/296tt.jpg","null","mooney2","image-keyboard-response","193","838456","0.0-6.0-5.26","2847935","co38701","norming","","","","","","",""
"2268.5249999995576","","","post_reveal_questions","survey-likert","194","840727","0.0-6.0-6.26","2847935","co38701","norming","","","{""aha"":6}","[0]","../img/tt/296tt.jpg","",""
"null","<div style=""font-size:60px;""> </div>","null","fixation","html-keyboard-response","195","840928","0.0-6.0-0.27","2847935","co38701","norming","","","","","","",""
"null","../img/tt/001tt.jpg","null","mooney1","image-keyboard-response","196","843934","0.0-6.0-1.27","2847935","co38701","norming","","","","","","",""
"4280.695000001229","","","post_mooney1_questions","survey-likert","197","848215","0.0-6.0-2.27","2847935","co38701","norming","","","{""curiosity"":6,""confidence"":2}","[0,1]","../img/tt/001tt.jpg","",""
"4485.735000000102","","","recognition","survey-text","198","852703","0.0-6.0-3.27","2847935","co38701","norming","","","{""guess"":""lion""}","","../img/tt/001tt.jpg","",""
"null","../img/gs/001gs.jpg","null","reveal","image-keyboard-response","199","854710","0.0-6.0-4.27","2847935","co38701","norming","","","","","","",""
"null","../img/tt/001tt.jpg","null","mooney2","image-keyboard-response","200","856711","0.0-6.0-5.27","2847935","co38701","norming","","","","","","",""
"6423.394999999902","","","post_reveal_questions","survey-likert","201","863135","0.0-6.0-6.27","2847935","co38701","norming","","","{""aha"":6}","[0]","../img/tt/001tt.jpg","",""
"null","<div style=""font-size:60px;""> </div>","null","fixation","html-keyboard-response","202","863342","0.0-6.0-0.28","2847935","co38701","norming","","","","","","",""
"null","../img/tt/105tt.jpg","null","mooney1","image-keyboard-response","203","866345","0.0-6.0-1.28","2847935","co38701","norming","","","","","","",""
"4053.724999999744","","","post_mooney1_questions","survey-likert","204","870399","0.0-6.0-2.28","2847935","co38701","norming","","","{""curiosity"":6,""confidence"":1}","[0,1]","../img/tt/105tt.jpg","",""
"4990.2700000002515","","","recognition","survey-text","205","875391","0.0-6.0-3.28","2847935","co38701","norming","","","{""guess"":""""}","","../img/tt/105tt.jpg","",""
"null","../img/gs/105gs.jpg","null","reveal","image-keyboard-response","206","877399","0.0-6.0-4.28","2847935","co38701","norming","","","","","","",""
"null","../img/tt/105tt.jpg","null","mooney2","image-keyboard-response","207","879408","0.0-6.0-5.28","2847935","co38701","norming","","","","","","",""
"4428.515000001527","","","post_reveal_questions","survey-likert","208","883839","0.0-6.0-6.28","2847935","co38701","norming","","","{""aha"":6}","[0]","../img/tt/105tt.jpg","",""
"null","<div style=""font-size:60px;""> </div>","null","fixation","html-keyboard-response","209","884042","0.0-6.0-0.29","2847935","co38701","norming","","","","","","",""
"null","../img/tt/1156tt.jpg","null","mooney1","image-keyboard-response","210","887052","0.0-6.0-1.29","2847935","co38701","norming","","","","","","",""
"5456.770000000717","","","post_mooney1_questions","survey-likert","211","892512","0.0-6.0-2.29","2847935","co38701","norming","","","{""curiosity"":6,""confidence"":0}","[0,1]","../img/tt/1156tt.jpg","",""
"333.4400000004098","","","recognition","survey-text","212","892847","0.0-6.0-3.29","2847935","co38701","norming","","","{""guess"":""""}","","../img/tt/1156tt.jpg","",""
"null","../img/gs/1156gs.jpg","null","reveal","image-keyboard-response","213","894857","0.0-6.0-4.29","2847935","co38701","norming","","","","","","",""
"null","../img/tt/1156tt.jpg","null","mooney2","image-keyboard-response","214","896861","0.0-6.0-5.29","2847935","co38701","norming","","","","","","",""
"3849.4099999988684","","","post_reveal_questions","survey-likert","215","900713","0.0-6.0-6.29","2847935","co38701","norming","","","{""aha"":6}","[0]","../img/tt/1156tt.jpg","",""
"null","<div style=""font-size:60px;""> </div>","null","fixation","html-keyboard-response","216","900923","0.0-6.0-0.30","2847935","co38701","norming","","","","","","",""
"null","../img/tt/1006tt.jpg","null","mooney1","image-keyboard-response","217","903926","0.0-6.0-1.30","2847935","co38701","norming","","","","","","",""
"5209.505000000703","","","post_mooney1_questions","survey-likert","218","909137","0.0-6.0-2.30","2847935","co38701","norming","","","{""curiosity"":0,""confidence"":6}","[0,1]","../img/tt/1006tt.jpg","",""
"2413.870000000228","","","recognition","survey-text","219","911552","0.0-6.0-3.30","2847935","co38701","norming","","","{""guess"":""sheep""}","","../img/tt/1006tt.jpg","",""
"null","../img/gs/1006gs.jpg","null","reveal","image-keyboard-response","220","913553","0.0-6.0-4.30","2847935","co38701","norming","","","","","","",""
"null","../img/tt/1006tt.jpg","null","mooney2","image-keyboard-response","221","915555","0.0-6.0-5.30","2847935","co38701","norming","","","","","","",""
"3276.539999998873","","","post_reveal_questions","survey-likert","222","918832","0.0-6.0-6.30","2847935","co38701","norming","","","{""aha"":0}","[0]","../img/tt/1006tt.jpg","",""
"null","<div style=""font-size:60px;""> </div>","null","fixation","html-keyboard-response","223","919034","0.0-6.0-0.31","2847935","co38701","norming","","","","","","",""
"null","../img/tt/456tt.jpg","null","mooney1","image-keyboard-response","224","922038","0.0-6.0-1.31","2847935","co38701","norming","","","","","","",""
"5417.330000000307","","","post_mooney1_questions","survey-likert","225","927457","0.0-6.0-2.31","2847935","co38701","norming","","","{""curiosity"":3,""confidence"":3}","[0,1]","../img/tt/456tt.jpg","",""
"8157.639999999432","","","recognition","survey-text","226","935617","0.0-6.0-3.31","2847935","co38701","norming","","","{""guess"":""crokodiale""}","","../img/tt/456tt.jpg","",""
"null","../img/gs/456gs.jpg","null","reveal","image-keyboard-response","227","937627","0.0-6.0-4.31","2847935","co38701","norming","","","","","","",""
"null","../img/tt/456tt.jpg","null","mooney2","image-keyboard-response","228","939628","0.0-6.0-5.31","2847935","co38701","norming","","","","","","",""
"3459.360000000801","","","post_reveal_questions","survey-likert","229","943088","0.0-6.0-6.31","2847935","co38701","norming","","","{""aha"":6}","[0]","../img/tt/456tt.jpg","",""
"null","<div style=""font-size:60px;""> </div>","null","fixation","html-keyboard-response","230","943290","0.0-6.0-0.32","2847935","co38701","norming","","","","","","",""
"null","../img/tt/1126tt.jpg","null","mooney1","image-keyboard-response","231","946292","0.0-6.0-1.32","2847935","co38701","norming","","","","","","",""
"2507.055000000051","","","post_mooney1_questions","survey-likert","232","948801","0.0-6.0-2.32","2847935","co38701","norming","","","{""curiosity"":6,""confidence"":1}","[0,1]","../img/tt/1126tt.jpg","",""
"7166.449999998789","","","recognition","survey-text","233","955969","0.0-6.0-3.32","2847935","co38701","norming","","","{""guess"":""mountain""}","","../img/tt/1126tt.jpg","",""
"null","../img/gs/1126gs.jpg","null","reveal","image-keyboard-response","234","957972","0.0-6.0-4.32","2847935","co38701","norming","","","","","","",""
"null","../img/tt/1126tt.jpg","null","mooney2","image-keyboard-response","235","959974","0.0-6.0-5.32","2847935","co38701","norming","","","","","","",""
"2777.2849999982864","","","post_reveal_questions","survey-likert","236","962754","0.0-6.0-6.32","2847935","co38701","norming","","","{""aha"":4}","[0]","../img/tt/1126tt.jpg","",""
"null","<div style=""font-size:60px;""> </div>","null","fixation","html-keyboard-response","237","962965","0.0-6.0-0.33","2847935","co38701","norming","","","","","","",""
"null","../img/tt/549tt.jpg","null","mooney1","image-keyboard-response","238","965971","0.0-6.0-1.33","2847935","co38701","norming","","","","","","",""
"3581.880000001518","","","post_mooney1_questions","survey-likert","239","969555","0.0-6.0-2.33","2847935","co38701","norming","","","{""curiosity"":6,""confidence"":0}","[0,1]","../img/tt/549tt.jpg","",""
"238.10000000044238","","","recognition","survey-text","240","969794","0.0-6.0-3.33","2847935","co38701","norming","","","{""guess"":""""}","","../img/tt/549tt.jpg","",""
"null","../img/gs/549gs.jpg","null","reveal","image-keyboard-response","241","971802","0.0-6.0-4.33","2847935","co38701","norming","","","","","","",""
"null","../img/tt/549tt.jpg","null","mooney2","image-keyboard-response","242","973803","0.0-6.0-5.33","2847935","co38701","norming","","","","","","",""
"4444.895000000601","","","post_reveal_questions","survey-likert","243","978250","0.0-6.0-6.33","2847935","co38701","norming","","","{""aha"":5}","[0]","../img/tt/549tt.jpg","",""
"null","<div style=""font-size:60px;""> </div>","null","fixation","html-keyboard-response","244","978457","0.0-6.0-0.34","2847935","co38701","norming","","","","","","",""
"null","../img/tt/1363tt.jpg","null","mooney1","image-keyboard-response","245","981468","0.0-6.0-1.34","2847935","co38701","norming","","","","","","",""
"9171.869999998366","","","post_mooney1_questions","survey-likert","246","990643","0.0-6.0-2.34","2847935","co38701","norming","","","{""curiosity"":6,""confidence"":0}","[0,1]","../img/tt/1363tt.jpg","",""
"3166.0699999993667","","","recognition","survey-text","247","993810","0.0-6.0-3.34","2847935","co38701","norming","","","{""guess"":"" ""}","","../img/tt/1363tt.jpg","",""
"null","../img/gs/1363gs.jpg","null","reveal","image-keyboard-response","248","995819","0.0-6.0-4.34","2847935","co38701","norming","","","","","","",""
"null","../img/tt/1363tt.jpg","null","mooney2","image-keyboard-response","249","997828","0.0-6.0-5.34","2847935","co38701","norming","","","","","","",""
"3645.524999999907","","","post_reveal_questions","survey-likert","250","1001474","0.0-6.0-6.34","2847935","co38701","norming","","","{""aha"":6}","[0]","../img/tt/1363tt.jpg","",""
"null","<div style=""font-size:60px;""> </div>","null","fixation","html-keyboard-response","251","1001676","0.0-6.0-0.35","2847935","co38701","norming","","","","","","",""
"null","../img/tt/1241tt.jpg","null","mooney1","image-keyboard-response","252","1004679","0.0-6.0-1.35","2847935","co38701","norming","","","","","","",""
"4474.329999999143","","","post_mooney1_questions","survey-likert","253","1009154","0.0-6.0-2.35","2847935","co38701","norming","","","{""curiosity"":1,""confidence"":5}","[0,1]","../img/tt/1241tt.jpg","",""
"1854.0050000010524","","","recognition","survey-text","254","1011010","0.0-6.0-3.35","2847935","co38701","norming","","","{""guess"":""dog""}","","../img/tt/1241tt.jpg","",""
"null","../img/gs/1241gs.jpg","null","reveal","image-keyboard-response","255","1013020","0.0-6.0-4.35","2847935","co38701","norming","","","","","","",""
"null","../img/tt/1241tt.jpg","null","mooney2","image-keyboard-response","256","1015029","0.0-6.0-5.35","2847935","co38701","norming","","","","","","",""
"2659.499999999767","","","post_reveal_questions","survey-likert","257","1017690","0.0-6.0-6.35","2847935","co38701","norming","","","{""aha"":6}","[0]","../img/tt/1241tt.jpg","",""
"null","<div style=""font-size:60px;""> </div>","null","fixation","html-keyboard-response","258","1017893","0.0-6.0-0.36","2847935","co38701","norming","","","","","","",""
"null","../img/tt/416tt.jpg","null","mooney1","image-keyboard-response","259","1020906","0.0-6.0-1.36","2847935","co38701","norming","","","","","","",""
"3157.9950000013923","","","post_mooney1_questions","survey-likert","260","1024068","0.0-6.0-2.36","2847935","co38701","norming","","","{""curiosity"":6,""confidence"":0}","[0,1]","../img/tt/416tt.jpg","",""
"1661.994999998482","","","recognition","survey-text","261","1025731","0.0-6.0-3.36","2847935","co38701","norming","","","{""guess"":""""}","","../img/tt/416tt.jpg","",""
"null","../img/gs/416gs.jpg","null","reveal","image-keyboard-response","262","1027741","0.0-6.0-4.36","2847935","co38701","norming","","","","","","",""
"null","../img/tt/416tt.jpg","null","mooney2","image-keyboard-response","263","1029743","0.0-6.0-5.36","2847935","co38701","norming","","","","","","",""
"3121.4749999998603","","","post_reveal_questions","survey-likert","264","1032868","0.0-6.0-6.36","2847935","co38701","norming","","","{""aha"":4}","[0]","../img/tt/416tt.jpg","",""
"null","<div style=""font-size:60px;""> </div>","null","fixation","html-keyboard-response","265","1033070","0.0-6.0-0.37","2847935","co38701","norming","","","","","","",""
"null","../img/tt/1033tt.jpg","null","mooney1","image-keyboard-response","266","1036073","0.0-6.0-1.37","2847935","co38701","norming","","","","","","",""
"8015.844999999856","","","post_mooney1_questions","survey-likert","267","1044092","0.0-6.0-2.37","2847935","co38701","norming","","","{""curiosity"":5,""confidence"":3}","[0,1]","../img/tt/1033tt.jpg","",""
"5109.860000000335","","","recognition","survey-text","268","1049204","0.0-6.0-3.37","2847935","co38701","norming","","","{""guess"":""  ""}","","../img/tt/1033tt.jpg","",""
"null","../img/gs/1033gs.jpg","null","reveal","image-keyboard-response","269","1051212","0.0-6.0-4.37","2847935","co38701","norming","","","","","","",""
"null","../img/tt/1033tt.jpg","null","mooney2","image-keyboard-response","270","1053214","0.0-6.0-5.37","2847935","co38701","norming","","","","","","",""
"3251.530000001425","","","post_reveal_questions","survey-likert","271","1056468","0.0-6.0-6.37","2847935","co38701","norming","","","{""aha"":5}","[0]","../img/tt/1033tt.jpg","",""
"null","<div style=""font-size:60px;""> </div>","null","fixation","html-keyboard-response","272","1056671","0.0-6.0-0.38","2847935","co38701","norming","","","","","","",""
"null","../img/tt/1226tt.jpg","null","mooney1","image-keyboard-response","273","1059679","0.0-6.0-1.38","2847935","co38701","norming","","","","","","",""
"4042.3800000008196","","","post_mooney1_questions","survey-likert","274","1063724","0.0-6.0-2.38","2847935","co38701","norming","","","{""curiosity"":5,""confidence"":2}","[0,1]","../img/tt/1226tt.jpg","",""
"2981.9250000000466","","","recognition","survey-text","275","1066707","0.0-6.0-3.38","2847935","co38701","norming","","","{""guess"":""swan""}","","../img/tt/1226tt.jpg","",""
"null","../img/gs/1226gs.jpg","null","reveal","image-keyboard-response","276","1068716","0.0-6.0-4.38","2847935","co38701","norming","","","","","","",""
"null","../img/tt/1226tt.jpg","null","mooney2","image-keyboard-response","277","1070720","0.0-6.0-5.38","2847935","co38701","norming","","","","","","",""
"2570.385000000708","","","post_reveal_questions","survey-likert","278","1073292","0.0-6.0-6.38","2847935","co38701","norming","","","{""aha"":6}","[0]","../img/tt/1226tt.jpg","",""
"null","<div style=""font-size:60px;""> </div>","null","fixation","html-keyboard-response","279","1073498","0.0-6.0-0.39","2847935","co38701","norming","","","","","","",""
"null","../img/tt/301tt.jpg","null","mooney1","image-keyboard-response","280","1076502","0.0-6.0-1.39","2847935","co38701","norming","","","","","","",""
"5676.84999999986","","","post_mooney1_questions","survey-likert","281","1082173","0.0-6.0-2.39","2847935","co38701","norming","","","{""curiosity"":4,""confidence"":2}","[0,1]","../img/tt/301tt.jpg","",""
"9022.175000000047","","","recognition","survey-text","282","1091197","0.0-6.0-3.39","2847935","co38701","norming","","","{""guess"":""theater""}","","../img/tt/301tt.jpg","",""
"null","../img/gs/301gs.jpg","null","reveal","image-keyboard-response","283","1093203","0.0-6.0-4.39","2847935","co38701","norming","","","","","","",""
"null","../img/tt/301tt.jpg","null","mooney2","image-keyboard-response","284","1095208","0.0-6.0-5.39","2847935","co38701","norming","","","","","","",""
"2506.554999999935","","","post_reveal_questions","survey-likert","285","1097717","0.0-6.0-6.39","2847935","co38701","norming","","","{""aha"":6}","[0]","../img/tt/301tt.jpg","",""
"null","<div style=""font-size:60px;""> </div>","null","fixation","html-keyboard-response","286","1097918","0.0-6.0-0.40","2847935","co38701","norming","","","","","","",""
"null","../img/tt/1211tt.jpg","null","mooney1","image-keyboard-response","287","1100920","0.0-6.0-1.40","2847935","co38701","norming","","","","","","",""
"4249.924999998417","","","post_mooney1_questions","survey-likert","288","1105173","0.0-6.0-2.40","2847935","co38701","norming","","","{""curiosity"":5,""confidence"":2}","[0,1]","../img/tt/1211tt.jpg","",""
"2950.0399999998044","","","recognition","survey-text","289","1108125","0.0-6.0-3.40","2847935","co38701","norming","","","{""guess"":""boat""}","","../img/tt/1211tt.jpg","",""
"null","../img/gs/1211gs.jpg","null","reveal","image-keyboard-response","290","1110132","0.0-6.0-4.40","2847935","co38701","norming","","","","","","",""
"null","../img/tt/1211tt.jpg","null","mooney2","image-keyboard-response","291","1112142","0.0-6.0-5.40","2847935","co38701","norming","","","","","","",""
"2292.2799999995623","","","post_reveal_questions","survey-likert","292","1114437","0.0-6.0-6.40","2847935","co38701","norming","","","{""aha"":5}","[0]","../img/tt/1211tt.jpg","",""
"null","<div style=""font-size:60px;""> </div>","null","fixation","html-keyboard-response","293","1114645","0.0-6.0-0.41","2847935","co38701","norming","","","","","","",""
"null","../img/tt/126tt.jpg","null","mooney1","image-keyboard-response","294","1117648","0.0-6.0-1.41","2847935","co38701","norming","","","","","","",""
"3049.9099999996834","","","post_mooney1_questions","survey-likert","295","1120701","0.0-6.0-2.41","2847935","co38701","norming","","","{""curiosity"":1,""confidence"":5}","[0,1]","../img/tt/126tt.jpg","",""
"2718.179999999935","","","recognition","survey-text","296","1123421","0.0-6.0-3.41","2847935","co38701","norming","","","{""guess"":""cow""}","","../img/tt/126tt.jpg","",""
"null","../img/gs/126gs.jpg","null","reveal","image-keyboard-response","297","1125427","0.0-6.0-4.41","2847935","co38701","norming","","","","","","",""
"null","../img/tt/126tt.jpg","null","mooney2","image-keyboard-response","298","1127433","0.0-6.0-5.41","2847935","co38701","norming","","","","","","",""
"2809.3699999991804","","","post_reveal_questions","survey-likert","299","1130245","0.0-6.0-6.41","2847935","co38701","norming","","","{""aha"":0}","[0]","../img/tt/126tt.jpg","",""
"null","<div style=""font-size:60px;""> </div>","null","fixation","html-keyboard-response","300","1130447","0.0-6.0-0.42","2847935","co38701","norming","","","","","","",""
"null","../img/tt/1188tt.jpg","null","mooney1","image-keyboard-response","301","1133451","0.0-6.0-1.42","2847935","co38701","norming","","","","","","",""
"4119.049999999348","","","post_mooney1_questions","survey-likert","302","1137573","0.0-6.0-2.42","2847935","co38701","norming","","","{""curiosity"":6,""confidence"":0}","[0,1]","../img/tt/1188tt.jpg","",""
"821.5749999999534","","","recognition","survey-text","303","1138397","0.0-6.0-3.42","2847935","co38701","norming","","","{""guess"":""""}","","../img/tt/1188tt.jpg","",""
"null","../img/gs/1188gs.jpg","null","reveal","image-keyboard-response","304","1140402","0.0-6.0-4.42","2847935","co38701","norming","","","","","","",""
"null","../img/tt/1188tt.jpg","null","mooney2","image-keyboard-response","305","1142412","0.0-6.0-5.42","2847935","co38701","norming","","","","","","",""
"2307.360000000568","","","post_reveal_questions","survey-likert","306","1144725","0.0-6.0-6.42","2847935","co38701","norming","","","{""aha"":6}","[0]","../img/tt/1188tt.jpg","",""
"null","<div style=""font-size:60px;""> </div>","null","fixation","html-keyboard-response","307","1144935","0.0-6.0-0.43","2847935","co38701","norming","","","","","","",""
"null","../img/tt/1290tt.jpg","null","mooney1","image-keyboard-response","308","1147944","0.0-6.0-1.43","2847935","co38701","norming","","","","","","",""
"3338.2000000001863","","","post_mooney1_questions","survey-likert","309","1151285","0.0-6.0-2.43","2847935","co38701","norming","","","{""curiosity"":5,""confidence"":1}","[0,1]","../img/tt/1290tt.jpg","",""
"2702.179999998305","","","recognition","survey-text","310","1153989","0.0-6.0-3.43","2847935","co38701","norming","","","{""guess"":""money""}","","../img/tt/1290tt.jpg","",""
"null","../img/gs/1290gs.jpg","null","reveal","image-keyboard-response","311","1155992","0.0-6.0-4.43","2847935","co38701","norming","","","","","","",""
"null","../img/tt/1290tt.jpg","null","mooney2","image-keyboard-response","312","1157995","0.0-6.0-5.43","2847935","co38701","norming","","","","","","",""
"3520.8349999992643","","","post_reveal_questions","survey-likert","313","1161517","0.0-6.0-6.43","2847935","co38701","norming","","","{""aha"":6}","[0]","../img/tt/1290tt.jpg","",""
"null","<div style=""font-size:60px;""> </div>","null","fixation","html-keyboard-response","314","1161720","0.0-6.0-0.44","2847935","co38701","norming","","","","","","",""
"null","../img/tt/1043tt.jpg","null","mooney1","image-keyboard-response","315","1164728","0.0-6.0-1.44","2847935","co38701","norming","","","","","","",""
"2588.2700000000186","","","post_mooney1_questions","survey-likert","316","1167317","0.0-6.0-2.44","2847935","co38701","norming","","","{""curiosity"":6,""confidence"":1}","[0,1]","../img/tt/1043tt.jpg","",""
"1582.1649999998044","","","recognition","survey-text","317","1168901","0.0-6.0-3.44","2847935","co38701","norming","","","{""guess"":""snake""}","","../img/tt/1043tt.jpg","",""
"null","../img/gs/1043gs.jpg","null","reveal","image-keyboard-response","318","1170910","0.0-6.0-4.44","2847935","co38701","norming","","","","","","",""
"null","../img/tt/1043tt.jpg","null","mooney2","image-keyboard-response","319","1172913","0.0-6.0-5.44","2847935","co38701","norming","","","","","","",""
"2434.060000001453","","","post_reveal_questions","survey-likert","320","1175349","0.0-6.0-6.44","2847935","co38701","norming","","","{""aha"":5}","[0]","../img/tt/1043tt.jpg","",""
"null","<div style=""font-size:60px;""> </div>","null","fixation","html-keyboard-response","321","1175557","0.0-6.0-0.45","2847935","co38701","norming","","","","","","",""
"null","../img/tt/010tt.jpg","null","mooney1","image-keyboard-response","322","1178569","0.0-6.0-1.45","2847935","co38701","norming","","","","","","",""
"2632.7099999999627","","","post_mooney1_questions","survey-likert","323","1181205","0.0-6.0-2.45","2847935","co38701","norming","","","{""curiosity"":6,""confidence"":0}","[0,1]","../img/tt/010tt.jpg","",""
"701.9249999993481","","","recognition","survey-text","324","1181909","0.0-6.0-3.45","2847935","co38701","norming","","","{""guess"":""""}","","../img/tt/010tt.jpg","",""
"null","../img/gs/010gs.jpg","null","reveal","image-keyboard-response","325","1183911","0.0-6.0-4.45","2847935","co38701","norming","","","","","","",""
"null","../img/tt/010tt.jpg","null","mooney2","image-keyboard-response","326","1185915","0.0-6.0-5.45","2847935","co38701","norming","","","","","","",""
"2536.1100000010338","","","post_reveal_questions","survey-likert","327","1188453","0.0-6.0-6.45","2847935","co38701","norming","","","{""aha"":6}","[0]","../img/tt/010tt.jpg","",""
"null","<div style=""font-size:60px;""> </div>","null","fixation","html-keyboard-response","328","1188662","0.0-6.0-0.46","2847935","co38701","norming","","","","","","",""
"null","../img/tt/1237tt.jpg","null","mooney1","image-keyboard-response","329","1191668","0.0-6.0-1.46","2847935","co38701","norming","","","","","","",""
"4062.200000000419","","","post_mooney1_questions","survey-likert","330","1195733","0.0-6.0-2.46","2847935","co38701","norming","","","{""curiosity"":6,""confidence"":0}","[0,1]","../img/tt/1237tt.jpg","",""
"574.3949999997858","","","recognition","survey-text","331","1196309","0.0-6.0-3.46","2847935","co38701","norming","","","{""guess"":""""}","","../img/tt/1237tt.jpg","",""
"null","../img/gs/1237gs.jpg","null","reveal","image-keyboard-response","332","1198312","0.0-6.0-4.46","2847935","co38701","norming","","","","","","",""
"null","../img/tt/1237tt.jpg","null","mooney2","image-keyboard-response","333","1200322","0.0-6.0-5.46","2847935","co38701","norming","","","","","","",""
"3593.2200000006706","","","post_reveal_questions","survey-likert","334","1203910","0.0-6.0-6.46","2847935","co38701","norming","","","{""aha"":6}","[0]","../img/tt/1237tt.jpg","",""
"null","<div style=""font-size:60px;""> </div>","null","fixation","html-keyboard-response","335","1204112","0.0-6.0-0.47","2847935","co38701","norming","","","","","","",""
"null","../img/tt/567tt.jpg","null","mooney1","image-keyboard-response","336","1207115","0.0-6.0-1.47","2847935","co38701","norming","","","","","","",""
"3975.9250000005122","","","post_mooney1_questions","survey-likert","337","1211094","0.0-6.0-2.47","2847935","co38701","norming","","","{""curiosity"":6,""confidence"":0}","[0,1]","../img/tt/567tt.jpg","",""
"1077.6349999997765","","","recognition","survey-text","338","1212174","0.0-6.0-3.47","2847935","co38701","norming","","","{""guess"":""""}","","../img/tt/567tt.jpg","",""
"null","../img/gs/567gs.jpg","null","reveal","image-keyboard-response","339","1214179","0.0-6.0-4.47","2847935","co38701","norming","","","","","","",""
"null","../img/tt/567tt.jpg","null","mooney2","image-keyboard-response","340","1216183","0.0-6.0-5.47","2847935","co38701","norming","","","","","","",""
"2197.535000001313","","","post_reveal_questions","survey-likert","341","1218382","0.0-6.0-6.47","2847935","co38701","norming","","","{""aha"":6}","[0]","../img/tt/567tt.jpg","",""
"null","<div style=""font-size:60px;""> </div>","null","fixation","html-keyboard-response","342","1218584","0.0-6.0-0.48","2847935","co38701","norming","","","","","","",""
"null","../img/tt/081tt.jpg","null","mooney1","image-keyboard-response","343","1221588","0.0-6.0-1.48","2847935","co38701","norming","","","","","","",""
"3190.9550000000745","","","post_mooney1_questions","survey-likert","344","1224782","0.0-6.0-2.48","2847935","co38701","norming","","","{""curiosity"":5,""confidence"":4}","[0,1]","../img/tt/081tt.jpg","",""
"2430.270000000717","","","recognition","survey-text","345","1227214","0.0-6.0-3.48","2847935","co38701","norming","","","{""guess"":""frog""}","","../img/tt/081tt.jpg","",""
"null","../img/gs/081gs.jpg","null","reveal","image-keyboard-response","346","1229216","0.0-6.0-4.48","2847935","co38701","norming","","","","","","",""
"null","../img/tt/081tt.jpg","null","mooney2","image-keyboard-response","347","1231220","0.0-6.0-5.48","2847935","co38701","norming","","","","","","",""
"4750.790000000037","","","post_reveal_questions","survey-likert","348","1235974","0.0-6.0-6.48","2847935","co38701","norming","","","{""aha"":1}","[0]","../img/tt/081tt.jpg","",""
"null","<div style=""font-size:60px;""> </div>","null","fixation","html-keyboard-response","349","1236176","0.0-6.0-0.49","2847935","co38701","norming","","","","","","",""
"null","../img/tt/412tt.jpg","null","mooney1","image-keyboard-response","350","1239182","0.0-6.0-1.49","2847935","co38701","norming","","","","","","",""
"3556.3199999998324","","","post_mooney1_questions","survey-likert","351","1242741","0.0-6.0-2.49","2847935","co38701","norming","","","{""curiosity"":6,""confidence"":0}","[0,1]","../img/tt/412tt.jpg","",""
"702.1100000003353","","","recognition","survey-text","352","1243445","0.0-6.0-3.49","2847935","co38701","norming","","","{""guess"":""""}","","../img/tt/412tt.jpg","",""
"null","../img/gs/412gs.jpg","null","reveal","image-keyboard-response","353","1245447","0.0-6.0-4.49","2847935","co38701","norming","","","","","","",""
"null","../img/tt/412tt.jpg","null","mooney2","image-keyboard-response","354","1247456","0.0-6.0-5.49","2847935","co38701","norming","","","","","","",""
"2034.1999999999534","","","post_reveal_questions","survey-likert","355","1249493","0.0-6.0-6.49","2847935","co38701","norming","","","{""aha"":6}","[0]","../img/tt/412tt.jpg","",""
"null","<div style=""font-size:60px;""> </div>","null","fixation","html-keyboard-response","356","1249701","0.0-6.0-0.50","2847935","co38701","norming","","","","","","",""
"null","../img/tt/1078tt.jpg","null","mooney1","image-keyboard-response","357","1252704","0.0-6.0-1.50","2847935","co38701","norming","","","","","","",""
"7043.20999999973","","","post_mooney1_questions","survey-likert","358","1259750","0.0-6.0-2.50","2847935","co38701","norming","","","{""curiosity"":4,""confidence"":2}","[0,1]","../img/tt/1078tt.jpg","",""
"3974.030000001192","","","recognition","survey-text","359","1263727","0.0-6.0-3.50","2847935","co38701","norming","","","{""guess"":""eating""}","","../img/tt/1078tt.jpg","",""
"null","../img/gs/1078gs.jpg","null","reveal","image-keyboard-response","360","1265730","0.0-6.0-4.50","2847935","co38701","norming","","","","","","",""
"null","../img/tt/1078tt.jpg","null","mooney2","image-keyboard-response","361","1267735","0.0-6.0-5.50","2847935","co38701","norming","","","","","","",""
"2422.8000000002794","","","post_reveal_questions","survey-likert","362","1270159","0.0-6.0-6.50","2847935","co38701","norming","","","{""aha"":6}","[0]","../img/tt/1078tt.jpg","",""
"null","<div style=""font-size:60px;""> </div>","null","fixation","html-keyboard-response","363","1270364","0.0-6.0-0.51","2847935","co38701","norming","","","","","","",""
"null","../img/tt/318tt.jpg","null","mooney1","image-keyboard-response","364","1273367","0.0-6.0-1.51","2847935","co38701","norming","","","","","","",""
"3573.0800000000745","","","post_mooney1_questions","survey-likert","365","1276943","0.0-6.0-2.51","2847935","co38701","norming","","","{""curiosity"":1,""confidence"":5}","[0,1]","../img/tt/318tt.jpg","",""
"2254.184999999823","","","recognition","survey-text","366","1279199","0.0-6.0-3.51","2847935","co38701","norming","","","{""guess"":""car""}","","../img/tt/318tt.jpg","",""
"null","../img/gs/318gs.jpg","null","reveal","image-keyboard-response","367","1281201","0.0-6.0-4.51","2847935","co38701","norming","","","","","","",""
"null","../img/tt/318tt.jpg","null","mooney2","image-keyboard-response","368","1283208","0.0-6.0-5.51","2847935","co38701","norming","","","","","","",""
"4372.2399999988265","","","post_reveal_questions","survey-likert","369","1287583","0.0-6.0-6.51","2847935","co38701","norming","","","{""aha"":0}","[0]","../img/tt/318tt.jpg","",""
"null","<div style=""font-size:60px;""> </div>","null","fixation","html-keyboard-response","370","1287785","0.0-6.0-0.52","2847935","co38701","norming","","","","","","",""
"null","../img/tt/091tt.jpg","null","mooney1","image-keyboard-response","371","1290787","0.0-6.0-1.52","2847935","co38701","norming","","","","","","",""
"2986.9050000016578","","","post_mooney1_questions","survey-likert","372","1293775","0.0-6.0-2.52","2847935","co38701","norming","","","{""curiosity"":6,""confidence"":0}","[0,1]","../img/tt/091tt.jpg","",""
"638.5050000008196","","","recognition","survey-text","373","1294415","0.0-6.0-3.52","2847935","co38701","norming","","","{""guess"":""""}","","../img/tt/091tt.jpg","",""
"null","../img/gs/091gs.jpg","null","reveal","image-keyboard-response","374","1296418","0.0-6.0-4.52","2847935","co38701","norming","","","","","","",""
"null","../img/tt/091tt.jpg","null","mooney2","image-keyboard-response","375","1298420","0.0-6.0-5.52","2847935","co38701","norming","","","","","","",""
"1799.9150000014342","","","post_reveal_questions","survey-likert","376","1300223","0.0-6.0-6.52","2847935","co38701","norming","","","{""aha"":6}","[0]","../img/tt/091tt.jpg","",""
"null","<div style=""font-size:60px;""> </div>","null","fixation","html-keyboard-response","377","1300424","0.0-6.0-0.53","2847935","co38701","norming","","","","","","",""
"null","../img/tt/096tt.jpg","null","mooney1","image-keyboard-response","378","1303427","0.0-6.0-1.53","2847935","co38701","norming","","","","","","",""
"4256.45500000054","","","post_mooney1_questions","survey-likert","379","1307687","0.0-6.0-2.53","2847935","co38701","norming","","","{""curiosity"":1,""confidence"":5}","[0,1]","../img/tt/096tt.jpg","",""
"6070.024999999208","","","recognition","survey-text","380","1313759","0.0-6.0-3.53","2847935","co38701","norming","","","{""guess"":""piano""}","","../img/tt/096tt.jpg","",""
"null","../img/gs/096gs.jpg","null","reveal","image-keyboard-response","381","1315761","0.0-6.0-4.53","2847935","co38701","norming","","","","","","",""
"null","../img/tt/096tt.jpg","null","mooney2","image-keyboard-response","382","1317771","0.0-6.0-5.53","2847935","co38701","norming","","","","","","",""
"4984.864999998594","","","post_reveal_questions","survey-likert","383","1322759","0.0-6.0-6.53","2847935","co38701","norming","","","{""aha"":1}","[0]","../img/tt/096tt.jpg","",""
"null","<div style=""font-size:60px;""> </div>","null","fixation","html-keyboard-response","384","1322961","0.0-6.0-0.54","2847935","co38701","norming","","","","","","",""
"null","../img/tt/1251tt.jpg","null","mooney1","image-keyboard-response","385","1325979","0.0-6.0-1.54","2847935","co38701","norming","","","","","","",""
"4401.5800000014715","","","post_mooney1_questions","survey-likert","386","1330383","0.0-6.0-2.54","2847935","co38701","norming","","","{""curiosity"":6,""confidence"":0}","[0,1]","../img/tt/1251tt.jpg","",""
"1702.43500000122","","","recognition","survey-text","387","1332087","0.0-6.0-3.54","2847935","co38701","norming","","","{""guess"":""""}","","../img/tt/1251tt.jpg","",""
"null","../img/gs/1251gs.jpg","null","reveal","image-keyboard-response","388","1334096","0.0-6.0-4.54","2847935","co38701","norming","","","","","","",""
"null","../img/tt/1251tt.jpg","null","mooney2","image-keyboard-response","389","1336099","0.0-6.0-5.54","2847935","co38701","norming","","","","","","",""
"2745.2799999993294","","","post_reveal_questions","survey-likert","390","1338847","0.0-6.0-6.54","2847935","co38701","norming","","","{""aha"":6}","[0]","../img/tt/1251tt.jpg","",""
"null","<div style=""font-size:60px;""> </div>","null","fixation","html-keyboard-response","391","1339052","0.0-6.0-0.55","2847935","co38701","norming","","","","","","",""
"null","../img/tt/1130tt.jpg","null","mooney1","image-keyboard-response","392","1342057","0.0-6.0-1.55","2847935","co38701","norming","","","","","","",""
"4722.96499999892","","","post_mooney1_questions","survey-likert","393","1346783","0.0-6.0-2.55","2847935","co38701","norming","","","{""curiosity"":1,""confidence"":5}","[0,1]","../img/tt/1130tt.jpg","",""
"1718.2850000008475","","","recognition","survey-text","394","1348503","0.0-6.0-3.55","2847935","co38701","norming","","","{""guess"":""bike""}","","../img/tt/1130tt.jpg","",""
"null","../img/gs/1130gs.jpg","null","reveal","image-keyboard-response","395","1350513","0.0-6.0-4.55","2847935","co38701","norming","","","","","","",""
"null","../img/tt/1130tt.jpg","null","mooney2","image-keyboard-response","396","1352516","0.0-6.0-5.55","2847935","co38701","norming","","","","","","",""
"3248.784999999916","","","post_reveal_questions","survey-likert","397","1355767","0.0-6.0-6.55","2847935","co38701","norming","","","{""aha"":0}","[0]","../img/tt/1130tt.jpg","",""
"null","<div style=""font-size:60px;""> </div>","null","fixation","html-keyboard-response","398","1355975","0.0-6.0-0.56","2847935","co38701","norming","","","","","","",""
"null","../img/tt/1307tt.jpg","null","mooney1","image-keyboard-response","399","1358986","0.0-6.0-1.56","2847935","co38701","norming","","","","","","",""
"4073.594999999972","","","post_mooney1_questions","survey-likert","400","1363063","0.0-6.0-2.56","2847935","co38701","norming","","","{""curiosity"":6,""confidence"":0}","[0,1]","../img/tt/1307tt.jpg","",""
"254.1949999993667","","","recognition","survey-text","401","1363319","0.0-6.0-3.56","2847935","co38701","norming","","","{""guess"":""""}","","../img/tt/1307tt.jpg","",""
"null","../img/gs/1307gs.jpg","null","reveal","image-keyboard-response","402","1365329","0.0-6.0-4.56","2847935","co38701","norming","","","","","","",""
"null","../img/tt/1307tt.jpg","null","mooney2","image-keyboard-response","403","1367338","0.0-6.0-5.56","2847935","co38701","norming","","","","","","",""
"4594.98499999987","","","post_reveal_questions","survey-likert","404","1371935","0.0-6.0-6.56","2847935","co38701","norming","","","{""aha"":6}","[0]","../img/tt/1307tt.jpg","",""
"null","<div style=""font-size:60px;""> </div>","null","fixation","html-keyboard-response","405","1372141","0.0-6.0-0.57","2847935","co38701","norming","","","","","","",""
"null","../img/tt/1118tt.jpg","null","mooney1","image-keyboard-response","406","1375145","0.0-6.0-1.57","2847935","co38701","norming","","","","","","",""
"4245.289999998873","","","post_mooney1_questions","survey-likert","407","1379391","0.0-6.0-2.57","2847935","co38701","norming","","","{""curiosity"":6,""confidence"":1}","[0,1]","../img/tt/1118tt.jpg","",""
"1910.1649999993388","","","recognition","survey-text","408","1381303","0.0-6.0-3.57","2847935","co38701","norming","","","{""guess"":""boat""}","","../img/tt/1118tt.jpg","",""
"null","../img/gs/1118gs.jpg","null","reveal","image-keyboard-response","409","1383305","0.0-6.0-4.57","2847935","co38701","norming","","","","","","",""
"null","../img/tt/1118tt.jpg","null","mooney2","image-keyboard-response","410","1385314","0.0-6.0-5.57","2847935","co38701","norming","","","","","","",""
"1858.5000000002328","","","post_reveal_questions","survey-likert","411","1387167","0.0-6.0-6.57","2847935","co38701","norming","","","{""aha"":6}","[0]","../img/tt/1118tt.jpg","",""
"null","<div style=""font-size:60px;""> </div>","null","fixation","html-keyboard-response","412","1387368","0.0-6.0-0.58","2847935","co38701","norming","","","","","","",""
"null","../img/tt/1202tt.jpg","null","mooney1","image-keyboard-response","413","1390373","0.0-6.0-1.58","2847935","co38701","norming","","","","","","",""
"9912.89499999932","","","post_mooney1_questions","survey-likert","414","1400287","0.0-6.0-2.58","2847935","co38701","norming","","","{""curiosity"":6,""confidence"":0}","[0,1]","../img/tt/1202tt.jpg","",""
"854.0400000002701","","","recognition","survey-text","415","1401143","0.0-6.0-3.58","2847935","co38701","norming","","","{""guess"":""""}","","../img/tt/1202tt.jpg","",""
"null","../img/gs/1202gs.jpg","null","reveal","image-keyboard-response","416","1403154","0.0-6.0-4.58","2847935","co38701","norming","","","","","","",""
"null","../img/tt/1202tt.jpg","null","mooney2","image-keyboard-response","417","1405156","0.0-6.0-5.58","2847935","co38701","norming","","","","","","",""
"5248.650000001304","","","post_reveal_questions","survey-likert","418","1410407","0.0-6.0-6.58","2847935","co38701","norming","","","{""aha"":6}","[0]","../img/tt/1202tt.jpg","",""
"null","<div style=""font-size:60px;""> </div>","null","fixation","html-keyboard-response","419","1410608","0.0-6.0-0.59","2847935","co38701","norming","","","","","","",""
"null","../img/tt/1151tt.jpg","null","mooney1","image-keyboard-response","420","1413611","0.0-6.0-1.59","2847935","co38701","norming","","","","","","",""
"5016.924999999814","","","post_mooney1_questions","survey-likert","421","1418631","0.0-6.0-2.59","2847935","co38701","norming","","","{""curiosity"":6,""confidence"":1}","[0,1]","../img/tt/1151tt.jpg","",""
"2117.7950000001583","","","recognition","survey-text","422","1420751","0.0-6.0-3.59","2847935","co38701","norming","","","{""guess"":""panda""}","","../img/tt/1151tt.jpg","",""
"null","../img/gs/1151gs.jpg","null","reveal","image-keyboard-response","423","1422754","0.0-6.0-4.59","2847935","co38701","norming","","","","","","",""
"null","../img/tt/1151tt.jpg","null","mooney2","image-keyboard-response","424","1424755","0.0-6.0-5.59","2847935","co38701","norming","","","","","","",""
"3219.1150000016205","","","post_reveal_questions","survey-likert","425","1427975","0.0-6.0-6.59","2847935","co38701","norming","","","{""aha"":6}","[0]","../img/tt/1151tt.jpg","",""
"null","<div style=""font-size:60px;""> </div>","null","fixation","html-keyboard-response","426","1428181","0.0-6.0-0.60","2847935","co38701","norming","","","","","","",""
"null","../img/tt/1142tt.jpg","null","mooney1","image-keyboard-response","427","1431187","0.0-6.0-1.60","2847935","co38701","norming","","","","","","",""
"5128.660000000382","","","post_mooney1_questions","survey-likert","428","1436319","0.0-6.0-2.60","2847935","co38701","norming","","","{""curiosity"":4,""confidence"":2}","[0,1]","../img/tt/1142tt.jpg","",""
"3198.1050000013784","","","recognition","survey-text","429","1439519","0.0-6.0-3.60","2847935","co38701","norming","","","{""guess"":""tennis""}","","../img/tt/1142tt.jpg","",""
"null","../img/gs/1142gs.jpg","null","reveal","image-keyboard-response","430","1441529","0.0-6.0-4.60","2847935","co38701","norming","","","","","","",""
"null","../img/tt/1142tt.jpg","null","mooney2","image-keyboard-response","431","1443540","0.0-6.0-5.60","2847935","co38701","norming","","","","","","",""
"3380.8250000001863","","","post_reveal_questions","survey-likert","432","1446930","0.0-6.0-6.60","2847935","co38701","norming","","","{""aha"":5}","[0]","../img/tt/1142tt.jpg","",""
"null","<div style=""font-size:60px;""> </div>","null","fixation","html-keyboard-response","433","1447132","0.0-6.0-0.61","2847935","co38701","norming","","","","","","",""
"null","../img/tt/1205tt.jpg","null","mooney1","image-keyboard-response","434","1450135","0.0-6.0-1.61","2847935","co38701","norming","","","","","","",""
"7824.35500000068","","","post_mooney1_questions","survey-likert","435","1457963","0.0-6.0-2.61","2847935","co38701","norming","","","{""curiosity"":5,""confidence"":1}","[0,1]","../img/tt/1205tt.jpg","",""
"6277.465000001015","","","recognition","survey-text","436","1464242","0.0-6.0-3.61","2847935","co38701","norming","","","{""guess"":""fight sport""}","","../img/tt/1205tt.jpg","",""
"null","../img/gs/1205gs.jpg","null","reveal","image-keyboard-response","437","1466248","0.0-6.0-4.61","2847935","co38701","norming","","","","","","",""
"null","../img/tt/1205tt.jpg","null","mooney2","image-keyboard-response","438","1468255","0.0-6.0-5.61","2847935","co38701","norming","","","","","","",""
"3161.019999999553","","","post_reveal_questions","survey-likert","439","1471418","0.0-6.0-6.61","2847935","co38701","norming","","","{""aha"":1}","[0]","../img/tt/1205tt.jpg","",""
"null","<div style=""font-size:60px;""> </div>","null","fixation","html-keyboard-response","440","1471622","0.0-6.0-0.62","2847935","co38701","norming","","","","","","",""
"null","../img/tt/007tt.jpg","null","mooney1","image-keyboard-response","441","1474630","0.0-6.0-1.62","2847935","co38701","norming","","","","","","",""
"5481.650000001537","","","post_mooney1_questions","survey-likert","442","1480115","0.0-6.0-2.62","2847935","co38701","norming","","","{""curiosity"":6,""confidence"":0}","[0,1]","../img/tt/007tt.jpg","",""
"382.09000000101514","","","recognition","survey-text","443","1480499","0.0-6.0-3.62","2847935","co38701","norming","","","{""guess"":""""}","","../img/tt/007tt.jpg","",""
"null","../img/gs/007gs.jpg","null","reveal","image-keyboard-response","444","1482500","0.0-6.0-4.62","2847935","co38701","norming","","","","","","",""
"null","../img/tt/007tt.jpg","null","mooney2","image-keyboard-response","445","1484504","0.0-6.0-5.62","2847935","co38701","norming","","","","","","",""
"4079.3300000003073","","","post_reveal_questions","survey-likert","446","1488587","0.0-6.0-6.62","2847935","co38701","norming","","","{""aha"":6}","[0]","../img/tt/007tt.jpg","",""
"null","<div style=""font-size:60px;""> </div>","null","fixation","html-keyboard-response","447","1488788","0.0-6.0-0.63","2847935","co38701","norming","","","","","","",""
"null","../img/tt/1070tt.jpg","null","mooney1","image-keyboard-response","448","1491792","0.0-6.0-1.63","2847935","co38701","norming","","","","","","",""
"4567.540000000037","","","post_mooney1_questions","survey-likert","449","1496363","0.0-6.0-2.63","2847935","co38701","norming","","","{""curiosity"":1,""confidence"":4}","[0,1]","../img/tt/1070tt.jpg","",""
"2469.984999999637","","","recognition","survey-text","450","1498834","0.0-6.0-3.63","2847935","co38701","norming","","","{""guess"":""food""}","","../img/tt/1070tt.jpg","",""
"null","../img/gs/1070gs.jpg","null","reveal","image-keyboard-response","451","1500835","0.0-6.0-4.63","2847935","co38701","norming","","","","","","",""
"null","../img/tt/1070tt.jpg","null","mooney2","image-keyboard-response","452","1502840","0.0-6.0-5.63","2847935","co38701","norming","","","","","","",""
"2857.900000001071","","","post_reveal_questions","survey-likert","453","1505699","0.0-6.0-6.63","2847935","co38701","norming","","","{""aha"":4}","[0]","../img/tt/1070tt.jpg","",""
"null","<div style=""font-size:60px;""> </div>","null","fixation","html-keyboard-response","454","1505900","0.0-6.0-0.64","2847935","co38701","norming","","","","","","",""
"null","../img/tt/112tt.jpg","null","mooney1","image-keyboard-response","455","1508908","0.0-6.0-1.64","2847935","co38701","norming","","","","","","",""
"4946.734999999404","","","post_mooney1_questions","survey-likert","456","1513856","0.0-6.0-2.64","2847935","co38701","norming","","","{""curiosity"":2,""confidence"":4}","[0,1]","../img/tt/112tt.jpg","",""
"3430.3250000011176","","","recognition","survey-text","457","1517289","0.0-6.0-3.64","2847935","co38701","norming","","","{""guess"":""wine""}","","../img/tt/112tt.jpg","",""
"null","../img/gs/112gs.jpg","null","reveal","image-keyboard-response","458","1519295","0.0-6.0-4.64","2847935","co38701","norming","","","","","","",""
"null","../img/tt/112tt.jpg","null","mooney2","image-keyboard-response","459","1521297","0.0-6.0-5.64","2847935","co38701","norming","","","","","","",""
"2108.7600000009406","","","post_reveal_questions","survey-likert","460","1523408","0.0-6.0-6.64","2847935","co38701","norming","","","{""aha"":6}","[0]","../img/tt/112tt.jpg","",""
"null","<div style=""font-size:60px;""> </div>","null","fixation","html-keyboard-response","461","1523609","0.0-6.0-0.65","2847935","co38701","norming","","","","","","",""
"null","../img/tt/111tt.jpg","null","mooney1","image-keyboard-response","462","1526620","0.0-6.0-1.65","2847935","co38701","norming","","","","","","",""
"3417.3300000003073","","","post_mooney1_questions","survey-likert","463","1530041","0.0-6.0-2.65","2847935","co38701","norming","","","{""curiosity"":6,""confidence"":0}","[0,1]","../img/tt/111tt.jpg","",""
"557.9199999994598","","","recognition","survey-text","464","1530600","0.0-6.0-3.65","2847935","co38701","norming","","","{""guess"":""""}","","../img/tt/111tt.jpg","",""
"null","../img/gs/111gs.jpg","null","reveal","image-keyboard-response","465","1532602","0.0-6.0-4.65","2847935","co38701","norming","","","","","","",""
"null","../img/tt/111tt.jpg","null","mooney2","image-keyboard-response","466","1534610","0.0-6.0-5.65","2847935","co38701","norming","","","","","","",""
"3203.644999999553","","","post_reveal_questions","survey-likert","467","1537817","0.0-6.0-6.65","2847935","co38701","norming","","","{""aha"":6}","[0]","../img/tt/111tt.jpg","",""
"null","<div style=""font-size:60px;""> </div>","null","fixation","html-keyboard-response","468","1538026","0.0-6.0-0.66","2847935","co38701","norming","","","","","","",""
"null","../img/tt/1175tt.jpg","null","mooney1","image-keyboard-response","469","1541029","0.0-6.0-1.66","2847935","co38701","norming","","","","","","",""
"3802.5249999992084","","","post_mooney1_questions","survey-likert","470","1544832","0.0-6.0-2.66","2847935","co38701","norming","","","{""curiosity"":6,""confidence"":1}","[0,1]","../img/tt/1175tt.jpg","",""
"2262.075000000652","","","recognition","survey-text","471","1547096","0.0-6.0-3.66","2847935","co38701","norming","","","{""guess"":""table""}","","../img/tt/1175tt.jpg","",""
"null","../img/gs/1175gs.jpg","null","reveal","image-keyboard-response","472","1549099","0.0-6.0-4.66","2847935","co38701","norming","","","","","","",""
"null","../img/tt/1175tt.jpg","null","mooney2","image-keyboard-response","473","1551101","0.0-6.0-5.66","2847935","co38701","norming","","","","","","",""
"2144.2950000001583","","","post_reveal_questions","survey-likert","474","1553248","0.0-6.0-6.66","2847935","co38701","norming","","","{""aha"":6}","[0]","../img/tt/1175tt.jpg","",""
"null","<div style=""font-size:60px;""> </div>","null","fixation","html-keyboard-response","475","1553457","0.0-6.0-0.67","2847935","co38701","norming","","","","","","",""
"null","../img/tt/440tt.jpg","null","mooney1","image-keyboard-response","476","1556463","0.0-6.0-1.67","2847935","co38701","norming","","","","","","",""
"3286.884999999311","","","post_mooney1_questions","survey-likert","477","1559753","0.0-6.0-2.67","2847935","co38701","norming","","","{""curiosity"":6,""confidence"":0}","[0,1]","../img/tt/440tt.jpg","",""
"253.8800000003539","","","recognition","survey-text","478","1560008","0.0-6.0-3.67","2847935","co38701","norming","","","{""guess"":""""}","","../img/tt/440tt.jpg","",""
"null","../img/gs/440gs.jpg","null","reveal","image-keyboard-response","479","1562017","0.0-6.0-4.67","2847935","co38701","norming","","","","","","",""
"null","../img/tt/440tt.jpg","null","mooney2","image-keyboard-response","480","1564022","0.0-6.0-5.67","2847935","co38701","norming","","","","","","",""
"2287.9649999993853","","","post_reveal_questions","survey-likert","481","1566313","0.0-6.0-6.67","2847935","co38701","norming","","","{""aha"":6}","[0]","../img/tt/440tt.jpg","",""
"null","<div style=""font-size:60px;""> </div>","null","fixation","html-keyboard-response","482","1566520","0.0-6.0-0.68","2847935","co38701","norming","","","","","","",""
"null","../img/tt/1268tt.jpg","null","mooney1","image-keyboard-response","483","1569530","0.0-6.0-1.68","2847935","co38701","norming","","","","","","",""
"7691.839999999618","","","post_mooney1_questions","survey-likert","484","1577225","0.0-6.0-2.68","2847935","co38701","norming","","","{""curiosity"":3,""confidence"":3}","[0,1]","../img/tt/1268tt.jpg","",""
"2797.8650000002235","","","recognition","survey-text","485","1580025","0.0-6.0-3.68","2847935","co38701","norming","","","{""guess"":""rabbit""}","","../img/tt/1268tt.jpg","",""
"null","../img/gs/1268gs.jpg","null","reveal","image-keyboard-response","486","1582027","0.0-6.0-4.68","2847935","co38701","norming","","","","","","",""
"null","../img/tt/1268tt.jpg","null","mooney2","image-keyboard-response","487","1584030","0.0-6.0-5.68","2847935","co38701","norming","","","","","","",""
"1687.6050000009127","","","post_reveal_questions","survey-likert","488","1585721","0.0-6.0-6.68","2847935","co38701","norming","","","{""aha"":6}","[0]","../img/tt/1268tt.jpg","",""
"null","<div style=""font-size:60px;""> </div>","null","fixation","html-keyboard-response","489","1585922","0.0-6.0-0.69","2847935","co38701","norming","","","","","","",""
"null","../img/tt/1272tt.jpg","null","mooney1","image-keyboard-response","490","1588926","0.0-6.0-1.69","2847935","co38701","norming","","","","","","",""
"4887.58000000054","","","post_mooney1_questions","survey-likert","491","1593817","0.0-6.0-2.69","2847935","co38701","norming","","","{""curiosity"":6,""confidence"":0}","[0,1]","../img/tt/1272tt.jpg","",""
"765.9600000006612","","","recognition","survey-text","492","1594585","0.0-6.0-3.69","2847935","co38701","norming","","","{""guess"":""""}","","../img/tt/1272tt.jpg","",""
"null","../img/gs/1272gs.jpg","null","reveal","image-keyboard-response","493","1596587","0.0-6.0-4.69","2847935","co38701","norming","","","","","","",""
"null","../img/tt/1272tt.jpg","null","mooney2","image-keyboard-response","494","1598592","0.0-6.0-5.69","2847935","co38701","norming","","","","","","",""
"3334.114999999758","","","post_reveal_questions","survey-likert","495","1601929","0.0-6.0-6.69","2847935","co38701","norming","","","{""aha"":6}","[0]","../img/tt/1272tt.jpg","",""
"null","<div style=""font-size:60px;""> </div>","null","fixation","html-keyboard-response","496","1602139","0.0-6.0-0.70","2847935","co38701","norming","","","","","","",""
"null","../img/tt/1254tt.jpg","null","mooney1","image-keyboard-response","497","1605141","0.0-6.0-1.70","2847935","co38701","norming","","","","","","",""
"2400.3899999989662","","","post_mooney1_questions","survey-likert","498","1607545","0.0-6.0-2.70","2847935","co38701","norming","","","{""curiosity"":6,""confidence"":0}","[0,1]","../img/tt/1254tt.jpg","",""
"333.7400000002235","","","recognition","survey-text","499","1607880","0.0-6.0-3.70","2847935","co38701","norming","","","{""guess"":""""}","","../img/tt/1254tt.jpg","",""
"null","../img/gs/1254gs.jpg","null","reveal","image-keyboard-response","500","1609882","0.0-6.0-4.70","2847935","co38701","norming","","","","","","",""
"null","../img/tt/1254tt.jpg","null","mooney2","image-keyboard-response","501","1611891","0.0-6.0-5.70","2847935","co38701","norming","","","","","","",""
"2946.695000000531","","","post_reveal_questions","survey-likert","502","1614841","0.0-6.0-6.70","2847935","co38701","norming","","","{""aha"":6}","[0]","../img/tt/1254tt.jpg","",""
"null","<div style=""font-size:60px;""> </div>","null","fixation","html-keyboard-response","503","1615049","0.0-6.0-0.71","2847935","co38701","norming","","","","","","",""
"null","../img/tt/1102tt.jpg","null","mooney1","image-keyboard-response","504","1618054","0.0-6.0-1.71","2847935","co38701","norming","","","","","","",""
"6334.799999998882","","","post_mooney1_questions","survey-likert","505","1624393","0.0-6.0-2.71","2847935","co38701","norming","","","{""curiosity"":6,""confidence"":0}","[0,1]","../img/tt/1102tt.jpg","",""
"317.4650000000838","","","recognition","survey-text","506","1624713","0.0-6.0-3.71","2847935","co38701","norming","","","{""guess"":""""}","","../img/tt/1102tt.jpg","",""
"null","../img/gs/1102gs.jpg","null","reveal","image-keyboard-response","507","1626719","0.0-6.0-4.71","2847935","co38701","norming","","","","","","",""
"null","../img/tt/1102tt.jpg","null","mooney2","image-keyboard-response","508","1628721","0.0-6.0-5.71","2847935","co38701","norming","","","","","","",""
"2317.554999999702","","","post_reveal_questions","survey-likert","509","1631041","0.0-6.0-6.71","2847935","co38701","norming","","","{""aha"":6}","[0]","../img/tt/1102tt.jpg","",""
"null","<div style=""font-size:60px;""> </div>","null","fixation","html-keyboard-response","510","1631242","0.0-6.0-0.72","2847935","co38701","norming","","","","","","",""
"null","../img/tt/580tt.jpg","null","mooney1","image-keyboard-response","511","1634249","0.0-6.0-1.72","2847935","co38701","norming","","","","","","",""
"2844.6100000001024","","","post_mooney1_questions","survey-likert","512","1637098","0.0-6.0-2.72","2847935","co38701","norming","","","{""curiosity"":6,""confidence"":0}","[0,1]","../img/tt/580tt.jpg","",""
"238.01500000082888","","","recognition","survey-text","513","1637337","0.0-6.0-3.72","2847935","co38701","norming","","","{""guess"":""""}","","../img/tt/580tt.jpg","",""
"null","../img/gs/580gs.jpg","null","reveal","image-keyboard-response","514","1639342","0.0-6.0-4.72","2847935","co38701","norming","","","","","","",""
"null","../img/tt/580tt.jpg","null","mooney2","image-keyboard-response","515","1641344","0.0-6.0-5.72","2847935","co38701","norming","","","","","","",""
"2495.134999999078","","","post_reveal_questions","survey-likert","516","1643841","0.0-6.0-6.72","2847935","co38701","norming","","","{""aha"":6}","[0]","../img/tt/580tt.jpg","",""
"null","<div style=""font-size:60px;""> </div>","null","fixation","html-keyboard-response","517","1644048","0.0-6.0-0.73","2847935","co38701","norming","","","","","","",""
"null","../img/tt/1181tt.jpg","null","mooney1","image-keyboard-response","518","1647051","0.0-6.0-1.73","2847935","co38701","norming","","","","","","",""
"6786.330000000773","","","post_mooney1_questions","survey-likert","519","1653841","0.0-6.0-2.73","2847935","co38701","norming","","","{""curiosity"":5,""confidence"":0}","[0,1]","../img/tt/1181tt.jpg","",""
"630.0899999986868","","","recognition","survey-text","520","1654473","0.0-6.0-3.73","2847935","co38701","norming","","","{""guess"":""""}","","../img/tt/1181tt.jpg","",""
"null","../img/gs/1181gs.jpg","null","reveal","image-keyboard-response","521","1656484","0.0-6.0-4.73","2847935","co38701","norming","","","","","","",""
"null","../img/tt/1181tt.jpg","null","mooney2","image-keyboard-response","522","1658486","0.0-6.0-5.73","2847935","co38701","norming","","","","","","",""
"3448.979999999283","","","post_reveal_questions","survey-likert","523","1661937","0.0-6.0-6.73","2847935","co38701","norming","","","{""aha"":5}","[0]","../img/tt/1181tt.jpg","",""
"null","<div style=""font-size:60px;""> </div>","null","fixation","html-keyboard-response","524","1662147","0.0-6.0-0.74","2847935","co38701","norming","","","","","","",""
"null","../img/tt/1173tt.jpg","null","mooney1","image-keyboard-response","525","1665153","0.0-6.0-1.74","2847935","co38701","norming","","","","","","",""
"4324.619999999413","","","post_mooney1_questions","survey-likert","526","1669481","0.0-6.0-2.74","2847935","co38701","norming","","","{""curiosity"":5,""confidence"":2}","[0,1]","../img/tt/1173tt.jpg","",""
"7822.1050000011455","","","recognition","survey-text","527","1677305","0.0-6.0-3.74","2847935","co38701","norming","","","{""guess"":""baseball""}","","../img/tt/1173tt.jpg","",""
"null","../img/gs/1173gs.jpg","null","reveal","image-keyboard-response","528","1679313","0.0-6.0-4.74","2847935","co38701","norming","","","","","","",""
"null","../img/tt/1173tt.jpg","null","mooney2","image-keyboard-response","529","1681315","0.0-6.0-5.74","2847935","co38701","norming","","","","","","",""
"2603.8950000002515","","","post_reveal_questions","survey-likert","530","1683921","0.0-6.0-6.74","2847935","co38701","norming","","","{""aha"":5}","[0]","../img/tt/1173tt.jpg","",""
"null","<div style=""font-size:60px;""> </div>","null","fixation","html-keyboard-response","531","1684124","0.0-6.0-0.75","2847935","co38701","norming","","","","","","",""
"null","../img/tt/1279tt.jpg","null","mooney1","image-keyboard-response","532","1687128","0.0-6.0-1.75","2847935","co38701","norming","","","","","","",""
"4973.384999999311","","","post_mooney1_questions","survey-likert","533","1692099","0.0-6.0-2.75","2847935","co38701","norming","","","{""curiosity"":6,""confidence"":1}","[0,1]","../img/tt/1279tt.jpg","",""
"9502.280000000726","","","recognition","survey-text","534","1701603","0.0-6.0-3.75","2847935","co38701","norming","","","{""guess"":"" ""}","","../img/tt/1279tt.jpg","",""
"null","../img/gs/1279gs.jpg","null","reveal","image-keyboard-response","535","1703604","0.0-6.0-4.75","2847935","co38701","norming","","","","","","",""
"null","../img/tt/1279tt.jpg","null","mooney2","image-keyboard-response","536","1705606","0.0-6.0-5.75","2847935","co38701","norming","","","","","","",""
"3804.1799999992363","","","post_reveal_questions","survey-likert","537","1709411","0.0-6.0-6.75","2847935","co38701","norming","","","{""aha"":5}","[0]","../img/tt/1279tt.jpg","",""
"null","<div style=""font-size:60px;""> </div>","null","fixation","html-keyboard-response","538","1709613","0.0-6.0-0.76","2847935","co38701","norming","","","","","","",""
"null","../img/tt/524tt.jpg","null","mooney1","image-keyboard-response","539","1712625","0.0-6.0-1.76","2847935","co38701","norming","","","","","","",""
"4271.18499999959","","","post_mooney1_questions","survey-likert","540","1716899","0.0-6.0-2.76","2847935","co38701","norming","","","{""curiosity"":6,""confidence"":0}","[0,1]","../img/tt/524tt.jpg","",""
"237.9749999998603","","","recognition","survey-text","541","1717139","0.0-6.0-3.76","2847935","co38701","norming","","","{""guess"":""""}","","../img/tt/524tt.jpg","",""
"null","../img/gs/524gs.jpg","null","reveal","image-keyboard-response","542","1719146","0.0-6.0-4.76","2847935","co38701","norming","","","","","","",""
"null","../img/tt/524tt.jpg","null","mooney2","image-keyboard-response","543","1721155","0.0-6.0-5.76","2847935","co38701","norming","","","","","","",""
"3149.6850000002887","","","post_reveal_questions","survey-likert","544","1724307","0.0-6.0-6.76","2847935","co38701","norming","","","{""aha"":6}","[0]","../img/tt/524tt.jpg","",""
"null","<div style=""font-size:60px;""> </div>","null","fixation","html-keyboard-response","545","1724510","0.0-6.0-0.77","2847935","co38701","norming","","","","","","",""
"null","../img/tt/1012tt.jpg","null","mooney1","image-keyboard-response","546","1727523","0.0-6.0-1.77","2847935","co38701","norming","","","","","","",""
"3965.0600000005215","","","post_mooney1_questions","survey-likert","547","1731491","0.0-6.0-2.77","2847935","co38701","norming","","","{""curiosity"":6,""confidence"":2}","[0,1]","../img/tt/1012tt.jpg","",""
"1406.2400000002235","","","recognition","survey-text","548","1732899","0.0-6.0-3.77","2847935","co38701","norming","","","{""guess"":""""}","","../img/tt/1012tt.jpg","",""
"null","../img/gs/1012gs.jpg","null","reveal","image-keyboard-response","549","1734900","0.0-6.0-4.77","2847935","co38701","norming","","","","","","",""
"null","../img/tt/1012tt.jpg","null","mooney2","image-keyboard-response","550","1736908","0.0-6.0-5.77","2847935","co38701","norming","","","","","","",""
"3028.3999999992084","","","post_reveal_questions","survey-likert","551","1739939","0.0-6.0-6.77","2847935","co38701","norming","","","{""aha"":6}","[0]","../img/tt/1012tt.jpg","",""
"null","<div style=""font-size:60px;""> </div>","null","fixation","html-keyboard-response","552","1740142","0.0-6.0-0.78","2847935","co38701","norming","","","","","","",""
