"rt","stimulus","key_press","test_part","trial_type","trial_index","time_elapsed","internal_node_id","totalTime","subject","experiment_name","button_pressed","success","responses","question_order","currentStim","old","correct"
"7626.000000000005","Welcome to the experiment. This is an online experiment so please don't close the tab/window until we say goodbye.  Press any key to begin.","32","instructions","html-keyboard-response","0","7639","0.0-0.0","2667932","co38557","norming","","","","","","",""
"47022.80500000001","<div style='word-wrap: break-word; width: 900px'><h3>Please consider this information carefully before deciding whether to participate in this research</h3><ul style='text-align: left; font-size: .8em;'><li><b>Purpose of the research</b>: To examine how people process images.</li><li><b>What you will do in this research</b>:  Stimuli (images) will be presented on the computer and you will be asked different questions about them.</li><li><b>Time required</b>: Participation will take between 45 and 60 minutes to complete.</li><li><b>Risks</b>:  There are no anticipated risks associated with participating in this study. The effects of participating should be comparable to those you would experience from viewing a computer monitor for 30 minutes and using a mouse or keyboard.</li><li><b>Benefits</b>:  This study provides no benefits to you individually except for the credit. The study provides important information about the nature of perception and learning.</li><li><b>Confidentiality</b>:  Your participation in this study will remain confidential. No personally identifiable information will be associated with your data. Your de-identified data may be shared with other researchers and used in future projects.</li><li><b>Participation and withdrawal</b>:  Your participation in this study is completely voluntary and you may refuse to participate or you may choose to withdraw at any time without penalty.</li><li><b>How to contact the researchers</b>: If you have questions or concerns about your participation or payment, or want to request a summary of research findings, please contact Sander Van de Cruys (KU Leuven), at sander.vandecruys@kuleuven.be.</li></ul><p>The nature and purpose of this research have been sufficiently explained and I agree to participate in this study.  I understand that I am free to withdraw at any time without incurring any penalty.</p><p>Please consent by clicking the button below to continue. Otherwise, please exit the study at this time.</p></div>","","instructions","html-button-response","1","54663","0.0-1.0","2667932","co38557","norming","0","","","","","",""
"","","","instructions","fullscreen","2","59110","0.0-2.0","2667932","co38557","norming","","true","","","","",""
"30847.18","","","sona","survey-html-form","3","89962","0.0-3.0","2667932","co38557","norming","","","[{""name"":""sonaid"",""value"":""38557""},{""name"":""debrief"",""value"":""yes""},{""name"":""datajoin"",""value"":""yes""}]","","","",""
"92746.91000000002","<div style='word-wrap: break-word; width: 900px'><h3>Instructions</h3><p>This experiment will have 3 parts. In the first part you will see a series of distorted images like the one below on the left. As you can see in the righthand image, the distorted images are derived from actual photographs. In what follows, you will <strong>briefly</strong> be presented with <strong>only</strong> the distorted image.</p> <div style='float: left; margin-right: 20px;'><img src='../img/018tt.jpg' height='250' width='250'></img></div><div style='float: right; margin-left: 20px;'><img src='../img/018gs.jpg' height='250' width='250'></img></div><p>Subsequently you will be asked a few questions about the image: One question on how <strong>curious</strong> you are about the solution and one on how <strong>confident</strong> you are that you know the solution.</p>Next, we ask you to make a guess on what is in the image. Note that it is OK to name just the <strong>basic level category</strong>. For example when you see a parrot in the image, 'parrot' will obviously be a correct answer but also correct is 'bird'. However, 'animal' will <strong>not</strong> be counted as a correct response. For the example above, 'rose' would be correct or 'flower', but not 'plant'. When soccer players are depicted, 'soccer', 'football', 'soccer players' will be correct, but not 'humans', 'outdoors', or 'sports'. You do not need to describe the image in full, just name the main object in it <strong>in one or two words</strong>. All images depict objects from one of the following broad level categories: animals, inanimate objects, plants, sports, vehicles, and food. Recognizing means knowing <strong>more</strong> than these broad labels for a given image. But we always encourage you to <strong>make a guess</strong> if you can. Note that you are allowed to use <strong>Dutch and English</strong> in your answers, whatever comes easiest for you.</p><p>Press any key to continue.</p></div>","32","instructions","html-keyboard-response","4","182705","0.0-4.0","2667932","co38557","norming","","","","","","",""
"75791.37500000006","<div style='word-wrap: break-word; width: 900px'><h3>Instructions</h3> <p>Next, the solution image will be revealed to you and you'll be asked to indicate how strong your <strong>aha-experience</strong> was after seeing the solution. This describes the positive feeling of the 'click' you sometimes experience, when the pieces of the 'puzzle' fall together and you suddenly have 'insight' in the image.</p><img src='aha.jpg' height='188' width='250'></img><p>Note that there are no right or wrong answers. We are interested in what <strong>you</strong> see in the image and how <strong>you</strong> feel about it.</p><p>Press any key to start the experiment.</p></div>","32","instructions","html-keyboard-response","5","258453","0.0-5.0","2667932","co38557","norming","","","","","","",""
"null","<div style=""font-size:60px;""> </div>","null","fixation","html-keyboard-response","6","258660","0.0-6.0-0.0","2667932","co38557","norming","","","","","","",""
"null","../img/tt/1205tt.jpg","null","mooney1","image-keyboard-response","7","261666","0.0-6.0-1.0","2667932","co38557","norming","","","","","","",""
"10487.514999999898","","","post_mooney1_questions","survey-likert","8","272158","0.0-6.0-2.0","2667932","co38557","norming","","","{""curiosity"":4,""confidence"":0}","[0,1]","../img/tt/1205tt.jpg","",""
"9781.434999999998","","","recognition","survey-text","9","281941","0.0-6.0-3.0","2667932","co38557","norming","","","{""guess"":""skull""}","","../img/tt/1205tt.jpg","",""
"null","../img/gs/1205gs.jpg","null","reveal","image-keyboard-response","10","283943","0.0-6.0-4.0","2667932","co38557","norming","","","","","","",""
"null","../img/tt/1205tt.jpg","null","mooney2","image-keyboard-response","11","285951","0.0-6.0-5.0","2667932","co38557","norming","","","","","","",""
"8299.60500000004","","","post_reveal_questions","survey-likert","12","294253","0.0-6.0-6.0","2667932","co38557","norming","","","{""aha"":1}","[0]","../img/tt/1205tt.jpg","",""
"null","<div style=""font-size:60px;""> </div>","null","fixation","html-keyboard-response","13","294456","0.0-6.0-0.1","2667932","co38557","norming","","","","","","",""
"null","../img/tt/1202tt.jpg","null","mooney1","image-keyboard-response","14","297463","0.0-6.0-1.1","2667932","co38557","norming","","","","","","",""
"6084.209999999963","","","post_mooney1_questions","survey-likert","15","303549","0.0-6.0-2.1","2667932","co38557","norming","","","{""curiosity"":4,""confidence"":1}","[0,1]","../img/tt/1202tt.jpg","",""
"8254.199999999953","","","recognition","survey-text","16","311805","0.0-6.0-3.1","2667932","co38557","norming","","","{""guess"":""judo""}","","../img/tt/1202tt.jpg","",""
"null","../img/gs/1202gs.jpg","null","reveal","image-keyboard-response","17","313813","0.0-6.0-4.1","2667932","co38557","norming","","","","","","",""
"null","../img/tt/1202tt.jpg","null","mooney2","image-keyboard-response","18","315817","0.0-6.0-5.1","2667932","co38557","norming","","","","","","",""
"2745.605000000098","","","post_reveal_questions","survey-likert","19","318508","0.0-6.0-6.1","2667932","co38557","norming","","","{""aha"":5}","[0]","../img/tt/1202tt.jpg","",""
"null","<div style=""font-size:60px;""> </div>","null","fixation","html-keyboard-response","20","318709","0.0-6.0-0.2","2667932","co38557","norming","","","","","","",""
"null","../img/tt/1033tt.jpg","null","mooney1","image-keyboard-response","21","321720","0.0-6.0-1.2","2667932","co38557","norming","","","","","","",""
"7921.2249999999185","","","post_mooney1_questions","survey-likert","22","329644","0.0-6.0-2.2","2667932","co38557","norming","","","{""curiosity"":3,""confidence"":1}","[0,1]","../img/tt/1033tt.jpg","",""
"5086.285000000091","","","recognition","survey-text","23","334732","0.0-6.0-3.2","2667932","co38557","norming","","","{""guess"":""zwaard""}","","../img/tt/1033tt.jpg","",""
"null","../img/gs/1033gs.jpg","null","reveal","image-keyboard-response","24","336738","0.0-6.0-4.2","2667932","co38557","norming","","","","","","",""
"null","../img/tt/1033tt.jpg","null","mooney2","image-keyboard-response","25","338746","0.0-6.0-5.2","2667932","co38557","norming","","","","","","",""
"4127.460000000021","","","post_reveal_questions","survey-likert","26","342876","0.0-6.0-6.2","2667932","co38557","norming","","","{""aha"":5}","[0]","../img/tt/1033tt.jpg","",""
"null","<div style=""font-size:60px;""> </div>","null","fixation","html-keyboard-response","27","343078","0.0-6.0-0.3","2667932","co38557","norming","","","","","","",""
"null","../img/tt/497tt.jpg","null","mooney1","image-keyboard-response","28","346082","0.0-6.0-1.3","2667932","co38557","norming","","","","","","",""
"8007.050000000047","","","post_mooney1_questions","survey-likert","29","354092","0.0-6.0-2.3","2667932","co38557","norming","","","{""curiosity"":5,""confidence"":2}","[0,1]","../img/tt/497tt.jpg","",""
"3278.100000000035","","","recognition","survey-text","30","357372","0.0-6.0-3.3","2667932","co38557","norming","","","{""guess"":""wiel""}","","../img/tt/497tt.jpg","",""
"null","../img/gs/497gs.jpg","null","reveal","image-keyboard-response","31","359373","0.0-6.0-4.3","2667932","co38557","norming","","","","","","",""
"null","../img/tt/497tt.jpg","null","mooney2","image-keyboard-response","32","361379","0.0-6.0-5.3","2667932","co38557","norming","","","","","","",""
"2142.4000000000815","","","post_reveal_questions","survey-likert","33","363524","0.0-6.0-6.3","2667932","co38557","norming","","","{""aha"":5}","[0]","../img/tt/497tt.jpg","",""
"null","<div style=""font-size:60px;""> </div>","null","fixation","html-keyboard-response","34","363725","0.0-6.0-0.4","2667932","co38557","norming","","","","","","",""
"null","../img/tt/1128tt.jpg","null","mooney1","image-keyboard-response","35","366734","0.0-6.0-1.4","2667932","co38557","norming","","","","","","",""
"5866.820000000065","","","post_mooney1_questions","survey-likert","36","372604","0.0-6.0-2.4","2667932","co38557","norming","","","{""curiosity"":3,""confidence"":0}","[0,1]","../img/tt/1128tt.jpg","",""
"3510.344999999972","","","recognition","survey-text","37","376116","0.0-6.0-3.4","2667932","co38557","norming","","","{""guess"":""""}","","../img/tt/1128tt.jpg","",""
"null","../img/gs/1128gs.jpg","null","reveal","image-keyboard-response","38","378124","0.0-6.0-4.4","2667932","co38557","norming","","","","","","",""
"null","../img/tt/1128tt.jpg","null","mooney2","image-keyboard-response","39","380081","0.0-6.0-5.4","2667932","co38557","norming","","","","","","",""
"2774.9700000000303","","","post_reveal_questions","survey-likert","40","382858","0.0-6.0-6.4","2667932","co38557","norming","","","{""aha"":3}","[0]","../img/tt/1128tt.jpg","",""
"null","<div style=""font-size:60px;""> </div>","null","fixation","html-keyboard-response","41","383060","0.0-6.0-0.5","2667932","co38557","norming","","","","","","",""
"null","../img/tt/273tt.jpg","null","mooney1","image-keyboard-response","42","386066","0.0-6.0-1.5","2667932","co38557","norming","","","","","","",""
"7157.320000000007","","","post_mooney1_questions","survey-likert","43","393226","0.0-6.0-2.5","2667932","co38557","norming","","","{""curiosity"":2,""confidence"":5}","[0,1]","../img/tt/273tt.jpg","",""
"5430.124999999942","","","recognition","survey-text","44","398658","0.0-6.0-3.5","2667932","co38557","norming","","","{""guess"":""jongen""}","","../img/tt/273tt.jpg","",""
"null","../img/gs/273gs.jpg","null","reveal","image-keyboard-response","45","400662","0.0-6.0-4.5","2667932","co38557","norming","","","","","","",""
"null","../img/tt/273tt.jpg","null","mooney2","image-keyboard-response","46","402665","0.0-6.0-5.5","2667932","co38557","norming","","","","","","",""
"3959.039999999979","","","post_reveal_questions","survey-likert","47","406626","0.0-6.0-6.5","2667932","co38557","norming","","","{""aha"":1}","[0]","../img/tt/273tt.jpg","",""
"null","<div style=""font-size:60px;""> </div>","null","fixation","html-keyboard-response","48","406827","0.0-6.0-0.6","2667932","co38557","norming","","","","","","",""
"null","../img/tt/1188tt.jpg","null","mooney1","image-keyboard-response","49","409839","0.0-6.0-1.6","2667932","co38557","norming","","","","","","",""
"3794.1449999999604","","","post_mooney1_questions","survey-likert","50","413634","0.0-6.0-2.6","2667932","co38557","norming","","","{""curiosity"":5,""confidence"":1}","[0,1]","../img/tt/1188tt.jpg","",""
"4022.365000000049","","","recognition","survey-text","51","417658","0.0-6.0-3.6","2667932","co38557","norming","","","{""guess"":""""}","","../img/tt/1188tt.jpg","",""
"null","../img/gs/1188gs.jpg","null","reveal","image-keyboard-response","52","419664","0.0-6.0-4.6","2667932","co38557","norming","","","","","","",""
"null","../img/tt/1188tt.jpg","null","mooney2","image-keyboard-response","53","421666","0.0-6.0-5.6","2667932","co38557","norming","","","","","","",""
"1574.9500000000698","","","post_reveal_questions","survey-likert","54","423242","0.0-6.0-6.6","2667932","co38557","norming","","","{""aha"":5}","[0]","../img/tt/1188tt.jpg","",""
"null","<div style=""font-size:60px;""> </div>","null","fixation","html-keyboard-response","55","423443","0.0-6.0-0.7","2667932","co38557","norming","","","","","","",""
"null","../img/tt/1283tt.jpg","null","mooney1","image-keyboard-response","56","426446","0.0-6.0-1.7","2667932","co38557","norming","","","","","","",""
"7291.419999999984","","","post_mooney1_questions","survey-likert","57","433738","0.0-6.0-2.7","2667932","co38557","norming","","","{""curiosity"":3,""confidence"":1}","[0,1]","../img/tt/1283tt.jpg","",""
"4350.104999999981","","","recognition","survey-text","58","438090","0.0-6.0-3.7","2667932","co38557","norming","","","{""guess"":""vos""}","","../img/tt/1283tt.jpg","",""
"null","../img/gs/1283gs.jpg","null","reveal","image-keyboard-response","59","440042","0.0-6.0-4.7","2667932","co38557","norming","","","","","","",""
"null","../img/tt/1283tt.jpg","null","mooney2","image-keyboard-response","60","442047","0.0-6.0-5.7","2667932","co38557","norming","","","","","","",""
"3089.070000000007","","","post_reveal_questions","survey-likert","61","445138","0.0-6.0-6.7","2667932","co38557","norming","","","{""aha"":5}","[0]","../img/tt/1283tt.jpg","",""
"null","<div style=""font-size:60px;""> </div>","null","fixation","html-keyboard-response","62","445342","0.0-6.0-0.8","2667932","co38557","norming","","","","","","",""
"null","../img/tt/1161tt.jpg","null","mooney1","image-keyboard-response","63","448345","0.0-6.0-1.8","2667932","co38557","norming","","","","","","",""
"5232.54999999993","","","post_mooney1_questions","survey-likert","64","453579","0.0-6.0-2.8","2667932","co38557","norming","","","{""curiosity"":3,""confidence"":1}","[0,1]","../img/tt/1161tt.jpg","",""
"3078.0849999999627","","","recognition","survey-text","65","456658","0.0-6.0-3.8","2667932","co38557","norming","","","{""guess"":""beer""}","","../img/tt/1161tt.jpg","",""
"null","../img/gs/1161gs.jpg","null","reveal","image-keyboard-response","66","458667","0.0-6.0-4.8","2667932","co38557","norming","","","","","","",""
"null","../img/tt/1161tt.jpg","null","mooney2","image-keyboard-response","67","460669","0.0-6.0-5.8","2667932","co38557","norming","","","","","","",""
"2275.3950000000186","","","post_reveal_questions","survey-likert","68","462947","0.0-6.0-6.8","2667932","co38557","norming","","","{""aha"":4}","[0]","../img/tt/1161tt.jpg","",""
"null","<div style=""font-size:60px;""> </div>","null","fixation","html-keyboard-response","69","463152","0.0-6.0-0.9","2667932","co38557","norming","","","","","","",""
"null","../img/tt/559tt.jpg","null","mooney1","image-keyboard-response","70","466162","0.0-6.0-1.9","2667932","co38557","norming","","","","","","",""
"6158.040000000037","","","post_mooney1_questions","survey-likert","71","472323","0.0-6.0-2.9","2667932","co38557","norming","","","{""curiosity"":2,""confidence"":1}","[0,1]","../img/tt/559tt.jpg","",""
"5486.195000000065","","","recognition","survey-text","72","477810","0.0-6.0-3.9","2667932","co38557","norming","","","{""guess"":""naaimachine""}","","../img/tt/559tt.jpg","",""
"null","../img/gs/559gs.jpg","null","reveal","image-keyboard-response","73","479820","0.0-6.0-4.9","2667932","co38557","norming","","","","","","",""
"null","../img/tt/559tt.jpg","null","mooney2","image-keyboard-response","74","481829","0.0-6.0-5.9","2667932","co38557","norming","","","","","","",""
"2130.9499999999534","","","post_reveal_questions","survey-likert","75","483962","0.0-6.0-6.9","2667932","co38557","norming","","","{""aha"":3}","[0]","../img/tt/559tt.jpg","",""
"null","<div style=""font-size:60px;""> </div>","null","fixation","html-keyboard-response","76","484164","0.0-6.0-0.10","2667932","co38557","norming","","","","","","",""
"null","../img/tt/108tt.jpg","null","mooney1","image-keyboard-response","77","487174","0.0-6.0-1.10","2667932","co38557","norming","","","","","","",""
"5162.5","","","post_mooney1_questions","survey-likert","78","492339","0.0-6.0-2.10","2667932","co38557","norming","","","{""curiosity"":2,""confidence"":0}","[0,1]","../img/tt/108tt.jpg","",""
"1414.0800000000163","","","recognition","survey-text","79","493754","0.0-6.0-3.10","2667932","co38557","norming","","","{""guess"":""""}","","../img/tt/108tt.jpg","",""
"null","../img/gs/108gs.jpg","null","reveal","image-keyboard-response","80","495762","0.0-6.0-4.10","2667932","co38557","norming","","","","","","",""
"null","../img/tt/108tt.jpg","null","mooney2","image-keyboard-response","81","497772","0.0-6.0-5.10","2667932","co38557","norming","","","","","","",""
"2515.619999999879","","","post_reveal_questions","survey-likert","82","500234","0.0-6.0-6.10","2667932","co38557","norming","","","{""aha"":1}","[0]","../img/tt/108tt.jpg","",""
"null","<div style=""font-size:60px;""> </div>","null","fixation","html-keyboard-response","83","500443","0.0-6.0-0.11","2667932","co38557","norming","","","","","","",""
"null","../img/tt/1228tt.jpg","null","mooney1","image-keyboard-response","84","503450","0.0-6.0-1.11","2667932","co38557","norming","","","","","","",""
"4317.660000000033","","","post_mooney1_questions","survey-likert","85","507771","0.0-6.0-2.11","2667932","co38557","norming","","","{""curiosity"":3,""confidence"":2}","[0,1]","../img/tt/1228tt.jpg","",""
"2061.884999999951","","","recognition","survey-text","86","509834","0.0-6.0-3.11","2667932","co38557","norming","","","{""guess"":""bird""}","","../img/tt/1228tt.jpg","",""
"null","../img/gs/1228gs.jpg","null","reveal","image-keyboard-response","87","511838","0.0-6.0-4.11","2667932","co38557","norming","","","","","","",""
"null","../img/tt/1228tt.jpg","null","mooney2","image-keyboard-response","88","513839","0.0-6.0-5.11","2667932","co38557","norming","","","","","","",""
"1521.039999999979","","","post_reveal_questions","survey-likert","89","515362","0.0-6.0-6.11","2667932","co38557","norming","","","{""aha"":6}","[0]","../img/tt/1228tt.jpg","",""
"null","<div style=""font-size:60px;""> </div>","null","fixation","html-keyboard-response","90","515564","0.0-6.0-0.12","2667932","co38557","norming","","","","","","",""
"null","../img/tt/1186tt.jpg","null","mooney1","image-keyboard-response","91","518572","0.0-6.0-1.12","2667932","co38557","norming","","","","","","",""
"4603.765000000014","","","post_mooney1_questions","survey-likert","92","523178","0.0-6.0-2.12","2667932","co38557","norming","","","{""curiosity"":4,""confidence"":1}","[0,1]","../img/tt/1186tt.jpg","",""
"838.2550000000629","","","recognition","survey-text","93","524018","0.0-6.0-3.12","2667932","co38557","norming","","","{""guess"":""""}","","../img/tt/1186tt.jpg","",""
"null","../img/gs/1186gs.jpg","null","reveal","image-keyboard-response","94","526023","0.0-6.0-4.12","2667932","co38557","norming","","","","","","",""
"null","../img/tt/1186tt.jpg","null","mooney2","image-keyboard-response","95","528026","0.0-6.0-5.12","2667932","co38557","norming","","","","","","",""
"2030.4300000000512","","","post_reveal_questions","survey-likert","96","530058","0.0-6.0-6.12","2667932","co38557","norming","","","{""aha"":5}","[0]","../img/tt/1186tt.jpg","",""
"null","<div style=""font-size:60px;""> </div>","null","fixation","html-keyboard-response","97","530260","0.0-6.0-0.13","2667932","co38557","norming","","","","","","",""
"null","../img/tt/053tt.jpg","null","mooney1","image-keyboard-response","98","533265","0.0-6.0-1.13","2667932","co38557","norming","","","","","","",""
"5944.915000000037","","","post_mooney1_questions","survey-likert","99","539211","0.0-6.0-2.13","2667932","co38557","norming","","","{""curiosity"":4,""confidence"":0}","[0,1]","../img/tt/053tt.jpg","",""
"590.1150000001071","","","recognition","survey-text","100","539802","0.0-6.0-3.13","2667932","co38557","norming","","","{""guess"":""""}","","../img/tt/053tt.jpg","",""
"null","../img/gs/053gs.jpg","null","reveal","image-keyboard-response","101","541809","0.0-6.0-4.13","2667932","co38557","norming","","","","","","",""
"null","../img/tt/053tt.jpg","null","mooney2","image-keyboard-response","102","543810","0.0-6.0-5.13","2667932","co38557","norming","","","","","","",""
"1597.9399999999441","","","post_reveal_questions","survey-likert","103","545410","0.0-6.0-6.13","2667932","co38557","norming","","","{""aha"":6}","[0]","../img/tt/053tt.jpg","",""
"null","<div style=""font-size:60px;""> </div>","null","fixation","html-keyboard-response","104","545611","0.0-6.0-0.14","2667932","co38557","norming","","","","","","",""
"null","../img/tt/1061tt.jpg","null","mooney1","image-keyboard-response","105","548618","0.0-6.0-1.14","2667932","co38557","norming","","","","","","",""
"5013.435000000056","","","post_mooney1_questions","survey-likert","106","553635","0.0-6.0-2.14","2667932","co38557","norming","","","{""curiosity"":3,""confidence"":2}","[0,1]","../img/tt/1061tt.jpg","",""
"10774.109999999986","","","recognition","survey-text","107","564393","0.0-6.0-3.14","2667932","co38557","norming","","","{""guess"":""schaatsen""}","","../img/tt/1061tt.jpg","",""
"null","../img/gs/1061gs.jpg","null","reveal","image-keyboard-response","108","566401","0.0-6.0-4.14","2667932","co38557","norming","","","","","","",""
"null","../img/tt/1061tt.jpg","null","mooney2","image-keyboard-response","109","568403","0.0-6.0-5.14","2667932","co38557","norming","","","","","","",""
"2164.655000000028","","","post_reveal_questions","survey-likert","110","570570","0.0-6.0-6.14","2667932","co38557","norming","","","{""aha"":4}","[0]","../img/tt/1061tt.jpg","",""
"null","<div style=""font-size:60px;""> </div>","null","fixation","html-keyboard-response","111","570772","0.0-6.0-0.15","2667932","co38557","norming","","","","","","",""
"null","../img/tt/096tt.jpg","null","mooney1","image-keyboard-response","112","573775","0.0-6.0-1.15","2667932","co38557","norming","","","","","","",""
"3479.9550000000745","","","post_mooney1_questions","survey-likert","113","577258","0.0-6.0-2.15","2667932","co38557","norming","","","{""curiosity"":3,""confidence"":2}","[0,1]","../img/tt/096tt.jpg","",""
"2638.1249999998836","","","recognition","survey-text","114","579897","0.0-6.0-3.15","2667932","co38557","norming","","","{""guess"":""piano""}","","../img/tt/096tt.jpg","",""
"null","../img/gs/096gs.jpg","null","reveal","image-keyboard-response","115","581903","0.0-6.0-4.15","2667932","co38557","norming","","","","","","",""
"null","../img/tt/096tt.jpg","null","mooney2","image-keyboard-response","116","583904","0.0-6.0-5.15","2667932","co38557","norming","","","","","","",""
"3055.82500000007","","","post_reveal_questions","survey-likert","117","586962","0.0-6.0-6.15","2667932","co38557","norming","","","{""aha"":2}","[0]","../img/tt/096tt.jpg","",""
"null","<div style=""font-size:60px;""> </div>","null","fixation","html-keyboard-response","118","587168","0.0-6.0-0.16","2667932","co38557","norming","","","","","","",""
"null","../img/tt/1118tt.jpg","null","mooney1","image-keyboard-response","119","590177","0.0-6.0-1.16","2667932","co38557","norming","","","","","","",""
"4533.710000000079","","","post_mooney1_questions","survey-likert","120","594714","0.0-6.0-2.16","2667932","co38557","norming","","","{""curiosity"":4,""confidence"":0}","[0,1]","../img/tt/1118tt.jpg","",""
"662.0900000000838","","","recognition","survey-text","121","595377","0.0-6.0-3.16","2667932","co38557","norming","","","{""guess"":""""}","","../img/tt/1118tt.jpg","",""
"null","../img/gs/1118gs.jpg","null","reveal","image-keyboard-response","122","597386","0.0-6.0-4.16","2667932","co38557","norming","","","","","","",""
"null","../img/tt/1118tt.jpg","null","mooney2","image-keyboard-response","123","599397","0.0-6.0-5.16","2667932","co38557","norming","","","","","","",""
"1466.2949999999255","","","post_reveal_questions","survey-likert","124","600865","0.0-6.0-6.16","2667932","co38557","norming","","","{""aha"":4}","[0]","../img/tt/1118tt.jpg","",""
"null","<div style=""font-size:60px;""> </div>","null","fixation","html-keyboard-response","125","601066","0.0-6.0-0.17","2667932","co38557","norming","","","","","","",""
"null","../img/tt/584tt.jpg","null","mooney1","image-keyboard-response","126","604069","0.0-6.0-1.17","2667932","co38557","norming","","","","","","",""
"3234.555000000051","","","post_mooney1_questions","survey-likert","127","607306","0.0-6.0-2.17","2667932","co38557","norming","","","{""curiosity"":2,""confidence"":3}","[0,1]","../img/tt/584tt.jpg","",""
"3429.9799999999814","","","recognition","survey-text","128","610737","0.0-6.0-3.17","2667932","co38557","norming","","","{""guess"":""tangen""}","","../img/tt/584tt.jpg","",""
"null","../img/gs/584gs.jpg","null","reveal","image-keyboard-response","129","612743","0.0-6.0-4.17","2667932","co38557","norming","","","","","","",""
"null","../img/tt/584tt.jpg","null","mooney2","image-keyboard-response","130","614753","0.0-6.0-5.17","2667932","co38557","norming","","","","","","",""
"2942.3150000000605","","","post_reveal_questions","survey-likert","131","617698","0.0-6.0-6.17","2667932","co38557","norming","","","{""aha"":3}","[0]","../img/tt/584tt.jpg","",""
"null","<div style=""font-size:60px;""> </div>","null","fixation","html-keyboard-response","132","617899","0.0-6.0-0.18","2667932","co38557","norming","","","","","","",""
"null","../img/tt/306tt.jpg","null","mooney1","image-keyboard-response","133","620910","0.0-6.0-1.18","2667932","co38557","norming","","","","","","",""
"3625.109999999986","","","post_mooney1_questions","survey-likert","134","624534","0.0-6.0-2.18","2667932","co38557","norming","","","{""curiosity"":5,""confidence"":0}","[0,1]","../img/tt/306tt.jpg","",""
"486.1500000000233","","","recognition","survey-text","135","625022","0.0-6.0-3.18","2667932","co38557","norming","","","{""guess"":""""}","","../img/tt/306tt.jpg","",""
"null","../img/gs/306gs.jpg","null","reveal","image-keyboard-response","136","627029","0.0-6.0-4.18","2667932","co38557","norming","","","","","","",""
"null","../img/tt/306tt.jpg","null","mooney2","image-keyboard-response","137","629040","0.0-6.0-5.18","2667932","co38557","norming","","","","","","",""
"1755.5699999999488","","","post_reveal_questions","survey-likert","138","630798","0.0-6.0-6.18","2667932","co38557","norming","","","{""aha"":4}","[0]","../img/tt/306tt.jpg","",""
"null","<div style=""font-size:60px;""> </div>","null","fixation","html-keyboard-response","139","631000","0.0-6.0-0.19","2667932","co38557","norming","","","","","","",""
"null","../img/tt/044tt.jpg","null","mooney1","image-keyboard-response","140","634011","0.0-6.0-1.19","2667932","co38557","norming","","","","","","",""
"6136.135000000009","","","post_mooney1_questions","survey-likert","141","640150","0.0-6.0-2.19","2667932","co38557","norming","","","{""curiosity"":4,""confidence"":0}","[0,1]","../img/tt/044tt.jpg","",""
"749.9749999999767","","","recognition","survey-text","142","640902","0.0-6.0-3.19","2667932","co38557","norming","","","{""guess"":""""}","","../img/tt/044tt.jpg","",""
"null","../img/gs/044gs.jpg","null","reveal","image-keyboard-response","143","642906","0.0-6.0-4.19","2667932","co38557","norming","","","","","","",""
"null","../img/tt/044tt.jpg","null","mooney2","image-keyboard-response","144","644908","0.0-6.0-5.19","2667932","co38557","norming","","","","","","",""
"1784.3900000001304","","","post_reveal_questions","survey-likert","145","646694","0.0-6.0-6.19","2667932","co38557","norming","","","{""aha"":6}","[0]","../img/tt/044tt.jpg","",""
"null","<div style=""font-size:60px;""> </div>","null","fixation","html-keyboard-response","146","646897","0.0-6.0-0.20","2667932","co38557","norming","","","","","","",""
"null","../img/tt/1151tt.jpg","null","mooney1","image-keyboard-response","147","649901","0.0-6.0-1.20","2667932","co38557","norming","","","","","","",""
"4654.489999999991","","","post_mooney1_questions","survey-likert","148","654558","0.0-6.0-2.20","2667932","co38557","norming","","","{""curiosity"":4,""confidence"":1}","[0,1]","../img/tt/1151tt.jpg","",""
"3518.0899999999674","","","recognition","survey-text","149","658078","0.0-6.0-3.20","2667932","co38557","norming","","","{""guess"":""druiven""}","","../img/tt/1151tt.jpg","",""
"null","../img/gs/1151gs.jpg","null","reveal","image-keyboard-response","150","660088","0.0-6.0-4.20","2667932","co38557","norming","","","","","","",""
"null","../img/tt/1151tt.jpg","null","mooney2","image-keyboard-response","151","662094","0.0-6.0-5.20","2667932","co38557","norming","","","","","","",""
"2221.649999999907","","","post_reveal_questions","survey-likert","152","664318","0.0-6.0-6.20","2667932","co38557","norming","","","{""aha"":5}","[0]","../img/tt/1151tt.jpg","",""
"null","<div style=""font-size:60px;""> </div>","null","fixation","html-keyboard-response","153","664519","0.0-6.0-0.21","2667932","co38557","norming","","","","","","",""
"null","../img/tt/1173tt.jpg","null","mooney1","image-keyboard-response","154","667526","0.0-6.0-1.21","2667932","co38557","norming","","","","","","",""
"4349.454999999958","","","post_mooney1_questions","survey-likert","155","671878","0.0-6.0-2.21","2667932","co38557","norming","","","{""curiosity"":5,""confidence"":2}","[0,1]","../img/tt/1173tt.jpg","",""
"10510.119999999995","","","recognition","survey-text","156","682390","0.0-6.0-3.21","2667932","co38557","norming","","","{""guess"":""cheerleaders""}","","../img/tt/1173tt.jpg","",""
"null","../img/gs/1173gs.jpg","null","reveal","image-keyboard-response","157","684407","0.0-6.0-4.21","2667932","co38557","norming","","","","","","",""
"null","../img/tt/1173tt.jpg","null","mooney2","image-keyboard-response","158","686409","0.0-6.0-5.21","2667932","co38557","norming","","","","","","",""
"2132.4499999999534","","","post_reveal_questions","survey-likert","159","688543","0.0-6.0-6.21","2667932","co38557","norming","","","{""aha"":5}","[0]","../img/tt/1173tt.jpg","",""
"null","<div style=""font-size:60px;""> </div>","null","fixation","html-keyboard-response","160","688745","0.0-6.0-0.22","2667932","co38557","norming","","","","","","",""
"null","../img/tt/590tt.jpg","null","mooney1","image-keyboard-response","161","691754","0.0-6.0-1.22","2667932","co38557","norming","","","","","","",""
"3603.215000000084","","","post_mooney1_questions","survey-likert","162","695359","0.0-6.0-2.22","2667932","co38557","norming","","","{""curiosity"":4,""confidence"":0}","[0,1]","../img/tt/590tt.jpg","",""
"446.04000000003725","","","recognition","survey-text","163","695807","0.0-6.0-3.22","2667932","co38557","norming","","","{""guess"":""""}","","../img/tt/590tt.jpg","",""
"null","../img/gs/590gs.jpg","null","reveal","image-keyboard-response","164","697808","0.0-6.0-4.22","2667932","co38557","norming","","","","","","",""
"null","../img/tt/590tt.jpg","null","mooney2","image-keyboard-response","165","699811","0.0-6.0-5.22","2667932","co38557","norming","","","","","","",""
"1426.3049999999348","","","post_reveal_questions","survey-likert","166","701239","0.0-6.0-6.22","2667932","co38557","norming","","","{""aha"":6}","[0]","../img/tt/590tt.jpg","",""
"null","<div style=""font-size:60px;""> </div>","null","fixation","html-keyboard-response","167","701442","0.0-6.0-0.23","2667932","co38557","norming","","","","","","",""
"null","../img/tt/1126tt.jpg","null","mooney1","image-keyboard-response","168","704443","0.0-6.0-1.23","2667932","co38557","norming","","","","","","",""
"3841.305000000051","","","post_mooney1_questions","survey-likert","169","708287","0.0-6.0-2.23","2667932","co38557","norming","","","{""curiosity"":4,""confidence"":4}","[0,1]","../img/tt/1126tt.jpg","",""
"3422.405000000028","","","recognition","survey-text","170","711711","0.0-6.0-3.23","2667932","co38557","norming","","","{""guess"":""klimmer""}","","../img/tt/1126tt.jpg","",""
"null","../img/gs/1126gs.jpg","null","reveal","image-keyboard-response","171","713712","0.0-6.0-4.23","2667932","co38557","norming","","","","","","",""
"null","../img/tt/1126tt.jpg","null","mooney2","image-keyboard-response","172","715719","0.0-6.0-5.23","2667932","co38557","norming","","","","","","",""
"1541.6849999999395","","","post_reveal_questions","survey-likert","173","717263","0.0-6.0-6.23","2667932","co38557","norming","","","{""aha"":1}","[0]","../img/tt/1126tt.jpg","",""
"null","<div style=""font-size:60px;""> </div>","null","fixation","html-keyboard-response","174","717465","0.0-6.0-0.24","2667932","co38557","norming","","","","","","",""
"null","../img/tt/296tt.jpg","null","mooney1","image-keyboard-response","175","720468","0.0-6.0-1.24","2667932","co38557","norming","","","","","","",""
"3265.0200000000186","","","post_mooney1_questions","survey-likert","176","723735","0.0-6.0-2.24","2667932","co38557","norming","","","{""curiosity"":4,""confidence"":3}","[0,1]","../img/tt/296tt.jpg","",""
"1878.234999999986","","","recognition","survey-text","177","725615","0.0-6.0-3.24","2667932","co38557","norming","","","{""guess"":""kapper""}","","../img/tt/296tt.jpg","",""
"null","../img/gs/296gs.jpg","null","reveal","image-keyboard-response","178","727619","0.0-6.0-4.24","2667932","co38557","norming","","","","","","",""
"null","../img/tt/296tt.jpg","null","mooney2","image-keyboard-response","179","729623","0.0-6.0-5.24","2667932","co38557","norming","","","","","","",""
"1261.484999999986","","","post_reveal_questions","survey-likert","180","730887","0.0-6.0-6.24","2667932","co38557","norming","","","{""aha"":4}","[0]","../img/tt/296tt.jpg","",""
"null","<div style=""font-size:60px;""> </div>","null","fixation","html-keyboard-response","181","731088","0.0-6.0-0.25","2667932","co38557","norming","","","","","","",""
"null","../img/tt/522tt.jpg","null","mooney1","image-keyboard-response","182","734095","0.0-6.0-1.25","2667932","co38557","norming","","","","","","",""
"2893.170000000042","","","post_mooney1_questions","survey-likert","183","736991","0.0-6.0-2.25","2667932","co38557","norming","","","{""curiosity"":4,""confidence"":0}","[0,1]","../img/tt/522tt.jpg","",""
"766.0999999999767","","","recognition","survey-text","184","737759","0.0-6.0-3.25","2667932","co38557","norming","","","{""guess"":""""}","","../img/tt/522tt.jpg","",""
"null","../img/gs/522gs.jpg","null","reveal","image-keyboard-response","185","739766","0.0-6.0-4.25","2667932","co38557","norming","","","","","","",""
"null","../img/tt/522tt.jpg","null","mooney2","image-keyboard-response","186","741768","0.0-6.0-5.25","2667932","co38557","norming","","","","","","",""
"2461.015000000014","","","post_reveal_questions","survey-likert","187","744231","0.0-6.0-6.25","2667932","co38557","norming","","","{""aha"":6}","[0]","../img/tt/522tt.jpg","",""
"null","<div style=""font-size:60px;""> </div>","null","fixation","html-keyboard-response","188","744433","0.0-6.0-0.26","2667932","co38557","norming","","","","","","",""
"null","../img/tt/032tt.jpg","null","mooney1","image-keyboard-response","189","747437","0.0-6.0-1.26","2667932","co38557","norming","","","","","","",""
"3583.795000000042","","","post_mooney1_questions","survey-likert","190","751024","0.0-6.0-2.26","2667932","co38557","norming","","","{""curiosity"":4,""confidence"":2}","[0,1]","../img/tt/032tt.jpg","",""
"4366.244999999879","","","recognition","survey-text","191","755391","0.0-6.0-3.26","2667932","co38557","norming","","","{""guess"":""vogel""}","","../img/tt/032tt.jpg","",""
"null","../img/gs/032gs.jpg","null","reveal","image-keyboard-response","192","757397","0.0-6.0-4.26","2667932","co38557","norming","","","","","","",""
"null","../img/tt/032tt.jpg","null","mooney2","image-keyboard-response","193","759404","0.0-6.0-5.26","2667932","co38557","norming","","","","","","",""
"1505.0050000000047","","","post_reveal_questions","survey-likert","194","760911","0.0-6.0-6.26","2667932","co38557","norming","","","{""aha"":0}","[0]","../img/tt/032tt.jpg","",""
"null","<div style=""font-size:60px;""> </div>","null","fixation","html-keyboard-response","195","761112","0.0-6.0-0.27","2667932","co38557","norming","","","","","","",""
"null","../img/tt/1255tt.jpg","null","mooney1","image-keyboard-response","196","764115","0.0-6.0-1.27","2667932","co38557","norming","","","","","","",""
"2937.219999999972","","","post_mooney1_questions","survey-likert","197","767055","0.0-6.0-2.27","2667932","co38557","norming","","","{""curiosity"":4,""confidence"":1}","[0,1]","../img/tt/1255tt.jpg","",""
"2462.350000000093","","","recognition","survey-text","198","769519","0.0-6.0-3.27","2667932","co38557","norming","","","{""guess"":""ezel""}","","../img/tt/1255tt.jpg","",""
"null","../img/gs/1255gs.jpg","null","reveal","image-keyboard-response","199","771521","0.0-6.0-4.27","2667932","co38557","norming","","","","","","",""
"null","../img/tt/1255tt.jpg","null","mooney2","image-keyboard-response","200","773525","0.0-6.0-5.27","2667932","co38557","norming","","","","","","",""
"2687.6600000000326","","","post_reveal_questions","survey-likert","201","776215","0.0-6.0-6.27","2667932","co38557","norming","","","{""aha"":5}","[0]","../img/tt/1255tt.jpg","",""
"null","<div style=""font-size:60px;""> </div>","null","fixation","html-keyboard-response","202","776422","0.0-6.0-0.28","2667932","co38557","norming","","","","","","",""
"null","../img/tt/064tt.jpg","null","mooney1","image-keyboard-response","203","779426","0.0-6.0-1.28","2667932","co38557","norming","","","","","","",""
"3171.034999999916","","","post_mooney1_questions","survey-likert","204","782599","0.0-6.0-2.28","2667932","co38557","norming","","","{""curiosity"":5,""confidence"":0}","[0,1]","../img/tt/064tt.jpg","",""
"502.3499999999767","","","recognition","survey-text","205","783103","0.0-6.0-3.28","2667932","co38557","norming","","","{""guess"":""""}","","../img/tt/064tt.jpg","",""
"null","../img/gs/064gs.jpg","null","reveal","image-keyboard-response","206","785109","0.0-6.0-4.28","2667932","co38557","norming","","","","","","",""
"null","../img/tt/064tt.jpg","null","mooney2","image-keyboard-response","207","787118","0.0-6.0-5.28","2667932","co38557","norming","","","","","","",""
"2062.4599999999627","","","post_reveal_questions","survey-likert","208","789183","0.0-6.0-6.28","2667932","co38557","norming","","","{""aha"":5}","[0]","../img/tt/064tt.jpg","",""
"null","<div style=""font-size:60px;""> </div>","null","fixation","html-keyboard-response","209","789386","0.0-6.0-0.29","2667932","co38557","norming","","","","","","",""
"null","../img/tt/412tt.jpg","null","mooney1","image-keyboard-response","210","792391","0.0-6.0-1.29","2667932","co38557","norming","","","","","","",""
"5941.514999999898","","","post_mooney1_questions","survey-likert","211","798335","0.0-6.0-2.29","2667932","co38557","norming","","","{""curiosity"":5,""confidence"":0}","[0,1]","../img/tt/412tt.jpg","",""
"670.2049999999581","","","recognition","survey-text","212","799007","0.0-6.0-3.29","2667932","co38557","norming","","","{""guess"":""""}","","../img/tt/412tt.jpg","",""
"null","../img/gs/412gs.jpg","null","reveal","image-keyboard-response","213","801018","0.0-6.0-4.29","2667932","co38557","norming","","","","","","",""
"null","../img/tt/412tt.jpg","null","mooney2","image-keyboard-response","214","803020","0.0-6.0-5.29","2667932","co38557","norming","","","","","","",""
"1457.4250000000466","","","post_reveal_questions","survey-likert","215","804480","0.0-6.0-6.29","2667932","co38557","norming","","","{""aha"":1}","[0]","../img/tt/412tt.jpg","",""
"null","<div style=""font-size:60px;""> </div>","null","fixation","html-keyboard-response","216","804682","0.0-6.0-0.30","2667932","co38557","norming","","","","","","",""
"null","../img/tt/1175tt.jpg","null","mooney1","image-keyboard-response","217","807690","0.0-6.0-1.30","2667932","co38557","norming","","","","","","",""
"4458.77500000014","","","post_mooney1_questions","survey-likert","218","812152","0.0-6.0-2.30","2667932","co38557","norming","","","{""curiosity"":5,""confidence"":1}","[0,1]","../img/tt/1175tt.jpg","",""
"4534.339999999967","","","recognition","survey-text","219","816688","0.0-6.0-3.30","2667932","co38557","norming","","","{""guess"":""machine""}","","../img/tt/1175tt.jpg","",""
"null","../img/gs/1175gs.jpg","null","reveal","image-keyboard-response","220","818697","0.0-6.0-4.30","2667932","co38557","norming","","","","","","",""
"null","../img/tt/1175tt.jpg","null","mooney2","image-keyboard-response","221","820705","0.0-6.0-5.30","2667932","co38557","norming","","","","","","",""
"2045.1049999999814","","","post_reveal_questions","survey-likert","222","822751","0.0-6.0-6.30","2667932","co38557","norming","","","{""aha"":6}","[0]","../img/tt/1175tt.jpg","",""
"null","<div style=""font-size:60px;""> </div>","null","fixation","html-keyboard-response","223","822954","0.0-6.0-0.31","2667932","co38557","norming","","","","","","",""
"null","../img/tt/353tt.jpg","null","mooney1","image-keyboard-response","224","825959","0.0-6.0-1.31","2667932","co38557","norming","","","","","","",""
"2854.5100000000093","","","post_mooney1_questions","survey-likert","225","828816","0.0-6.0-2.31","2667932","co38557","norming","","","{""curiosity"":5,""confidence"":3}","[0,1]","../img/tt/353tt.jpg","",""
"2590.0200000000186","","","recognition","survey-text","226","831408","0.0-6.0-3.31","2667932","co38557","norming","","","{""guess"":""pinguin""}","","../img/tt/353tt.jpg","",""
"null","../img/gs/353gs.jpg","null","reveal","image-keyboard-response","227","833418","0.0-6.0-4.31","2667932","co38557","norming","","","","","","",""
"null","../img/tt/353tt.jpg","null","mooney2","image-keyboard-response","228","835429","0.0-6.0-5.31","2667932","co38557","norming","","","","","","",""
"2857.484999999986","","","post_reveal_questions","survey-likert","229","838287","0.0-6.0-6.31","2667932","co38557","norming","","","{""aha"":4}","[0]","../img/tt/353tt.jpg","",""
"null","<div style=""font-size:60px;""> </div>","null","fixation","html-keyboard-response","230","838488","0.0-6.0-0.32","2667932","co38557","norming","","","","","","",""
"null","../img/tt/438tt.jpg","null","mooney1","image-keyboard-response","231","841497","0.0-6.0-1.32","2667932","co38557","norming","","","","","","",""
"3275.3249999999534","","","post_mooney1_questions","survey-likert","232","844776","0.0-6.0-2.32","2667932","co38557","norming","","","{""curiosity"":4,""confidence"":1}","[0,1]","../img/tt/438tt.jpg","",""
"3478.1149999999907","","","recognition","survey-text","233","848255","0.0-6.0-3.32","2667932","co38557","norming","","","{""guess"":""krokodil""}","","../img/tt/438tt.jpg","",""
"null","../img/gs/438gs.jpg","null","reveal","image-keyboard-response","234","850256","0.0-6.0-4.32","2667932","co38557","norming","","","","","","",""
"null","../img/tt/438tt.jpg","null","mooney2","image-keyboard-response","235","852258","0.0-6.0-5.32","2667932","co38557","norming","","","","","","",""
"1220.8699999999953","","","post_reveal_questions","survey-likert","236","853480","0.0-6.0-6.32","2667932","co38557","norming","","","{""aha"":6}","[0]","../img/tt/438tt.jpg","",""
"null","<div style=""font-size:60px;""> </div>","null","fixation","html-keyboard-response","237","853682","0.0-6.0-0.33","2667932","co38557","norming","","","","","","",""
"null","../img/tt/598tt.jpg","null","mooney1","image-keyboard-response","238","856687","0.0-6.0-1.33","2667932","co38557","norming","","","","","","",""
"3725.0849999998463","","","post_mooney1_questions","survey-likert","239","860416","0.0-6.0-2.33","2667932","co38557","norming","","","{""curiosity"":5,""confidence"":0}","[0,1]","../img/tt/598tt.jpg","",""
"902.1749999999302","","","recognition","survey-text","240","861319","0.0-6.0-3.33","2667932","co38557","norming","","","{""guess"":""""}","","../img/tt/598tt.jpg","",""
"null","../img/gs/598gs.jpg","null","reveal","image-keyboard-response","241","863322","0.0-6.0-4.33","2667932","co38557","norming","","","","","","",""
"null","../img/tt/598tt.jpg","null","mooney2","image-keyboard-response","242","865324","0.0-6.0-5.33","2667932","co38557","norming","","","","","","",""
"1185.3999999999069","","","post_reveal_questions","survey-likert","243","866511","0.0-6.0-6.33","2667932","co38557","norming","","","{""aha"":3}","[0]","../img/tt/598tt.jpg","",""
"null","<div style=""font-size:60px;""> </div>","null","fixation","html-keyboard-response","244","866712","0.0-6.0-0.34","2667932","co38557","norming","","","","","","",""
"null","../img/tt/534tt.jpg","null","mooney1","image-keyboard-response","245","869718","0.0-6.0-1.34","2667932","co38557","norming","","","","","","",""
"3222.7149999999674","","","post_mooney1_questions","survey-likert","246","872944","0.0-6.0-2.34","2667932","co38557","norming","","","{""curiosity"":4,""confidence"":1}","[0,1]","../img/tt/534tt.jpg","",""
"3486.07500000007","","","recognition","survey-text","247","876431","0.0-6.0-3.34","2667932","co38557","norming","","","{""guess"":""cactus""}","","../img/tt/534tt.jpg","",""
"null","../img/gs/534gs.jpg","null","reveal","image-keyboard-response","248","878432","0.0-6.0-4.34","2667932","co38557","norming","","","","","","",""
"null","../img/tt/534tt.jpg","null","mooney2","image-keyboard-response","249","880435","0.0-6.0-5.34","2667932","co38557","norming","","","","","","",""
"3377.600000000093","","","post_reveal_questions","survey-likert","250","883815","0.0-6.0-6.34","2667932","co38557","norming","","","{""aha"":4}","[0]","../img/tt/534tt.jpg","",""
"null","<div style=""font-size:60px;""> </div>","null","fixation","html-keyboard-response","251","884016","0.0-6.0-0.35","2667932","co38557","norming","","","","","","",""
"null","../img/tt/1239tt.jpg","null","mooney1","image-keyboard-response","252","887025","0.0-6.0-1.35","2667932","co38557","norming","","","","","","",""
"3669.45000000007","","","post_mooney1_questions","survey-likert","253","890695","0.0-6.0-2.35","2667932","co38557","norming","","","{""curiosity"":5,""confidence"":0}","[0,1]","../img/tt/1239tt.jpg","",""
"758.1700000000419","","","recognition","survey-text","254","891455","0.0-6.0-3.35","2667932","co38557","norming","","","{""guess"":""""}","","../img/tt/1239tt.jpg","",""
"null","../img/gs/1239gs.jpg","null","reveal","image-keyboard-response","255","893466","0.0-6.0-4.35","2667932","co38557","norming","","","","","","",""
"null","../img/tt/1239tt.jpg","null","mooney2","image-keyboard-response","256","895469","0.0-6.0-5.35","2667932","co38557","norming","","","","","","",""
"2273.344999999972","","","post_reveal_questions","survey-likert","257","897743","0.0-6.0-6.35","2667932","co38557","norming","","","{""aha"":3}","[0]","../img/tt/1239tt.jpg","",""
"null","<div style=""font-size:60px;""> </div>","null","fixation","html-keyboard-response","258","897945","0.0-6.0-0.36","2667932","co38557","norming","","","","","","",""
"null","../img/tt/270tt.jpg","null","mooney1","image-keyboard-response","259","900951","0.0-6.0-1.36","2667932","co38557","norming","","","","","","",""
"3455.375","","","post_mooney1_questions","survey-likert","260","904407","0.0-6.0-2.36","2667932","co38557","norming","","","{""curiosity"":5,""confidence"":0}","[0,1]","../img/tt/270tt.jpg","",""
"709.4250000000466","","","recognition","survey-text","261","905119","0.0-6.0-3.36","2667932","co38557","norming","","","{""guess"":""""}","","../img/tt/270tt.jpg","",""
"null","../img/gs/270gs.jpg","null","reveal","image-keyboard-response","262","907128","0.0-6.0-4.36","2667932","co38557","norming","","","","","","",""
"null","../img/tt/270tt.jpg","null","mooney2","image-keyboard-response","263","909131","0.0-6.0-5.36","2667932","co38557","norming","","","","","","",""
"931.5200000000186","","","post_reveal_questions","survey-likert","264","910063","0.0-6.0-6.36","2667932","co38557","norming","","","{""aha"":1}","[0]","../img/tt/270tt.jpg","",""
"null","<div style=""font-size:60px;""> </div>","null","fixation","html-keyboard-response","265","910266","0.0-6.0-0.37","2667932","co38557","norming","","","","","","",""
"null","../img/tt/1211tt.jpg","null","mooney1","image-keyboard-response","266","913267","0.0-6.0-1.37","2667932","co38557","norming","","","","","","",""
"6194.935000000056","","","post_mooney1_questions","survey-likert","267","919463","0.0-6.0-2.37","2667932","co38557","norming","","","{""curiosity"":3,""confidence"":0}","[0,1]","../img/tt/1211tt.jpg","",""
"421.9299999999348","","","recognition","survey-text","268","919887","0.0-6.0-3.37","2667932","co38557","norming","","","{""guess"":""""}","","../img/tt/1211tt.jpg","",""
"null","../img/gs/1211gs.jpg","null","reveal","image-keyboard-response","269","921890","0.0-6.0-4.37","2667932","co38557","norming","","","","","","",""
"null","../img/tt/1211tt.jpg","null","mooney2","image-keyboard-response","270","923894","0.0-6.0-5.37","2667932","co38557","norming","","","","","","",""
"2696.7600000000093","","","post_reveal_questions","survey-likert","271","926588","0.0-6.0-6.37","2667932","co38557","norming","","","{""aha"":6}","[0]","../img/tt/1211tt.jpg","",""
"null","<div style=""font-size:60px;""> </div>","null","fixation","html-keyboard-response","272","926792","0.0-6.0-0.38","2667932","co38557","norming","","","","","","",""
"null","../img/tt/552tt.jpg","null","mooney1","image-keyboard-response","273","929795","0.0-6.0-1.38","2667932","co38557","norming","","","","","","",""
"3975.3499999999767","","","post_mooney1_questions","survey-likert","274","933772","0.0-6.0-2.38","2667932","co38557","norming","","","{""curiosity"":5,""confidence"":1}","[0,1]","../img/tt/552tt.jpg","",""
"1774.1700000001583","","","recognition","survey-text","275","935547","0.0-6.0-3.38","2667932","co38557","norming","","","{""guess"":""pot""}","","../img/tt/552tt.jpg","",""
"null","../img/gs/552gs.jpg","null","reveal","image-keyboard-response","276","937556","0.0-6.0-4.38","2667932","co38557","norming","","","","","","",""
"null","../img/tt/552tt.jpg","null","mooney2","image-keyboard-response","277","939561","0.0-6.0-5.38","2667932","co38557","norming","","","","","","",""
"1728.5599999999395","","","post_reveal_questions","survey-likert","278","941292","0.0-6.0-6.38","2667932","co38557","norming","","","{""aha"":0}","[0]","../img/tt/552tt.jpg","",""
"null","<div style=""font-size:60px;""> </div>","null","fixation","html-keyboard-response","279","941500","0.0-6.0-0.39","2667932","co38557","norming","","","","","","",""
"null","../img/tt/496tt.jpg","null","mooney1","image-keyboard-response","280","944504","0.0-6.0-1.39","2667932","co38557","norming","","","","","","",""
"4793.090000000084","","","post_mooney1_questions","survey-likert","281","949300","0.0-6.0-2.39","2667932","co38557","norming","","","{""curiosity"":3,""confidence"":4}","[0,1]","../img/tt/496tt.jpg","",""
"2694.125","","","recognition","survey-text","282","951996","0.0-6.0-3.39","2667932","co38557","norming","","","{""guess"":""hond""}","","../img/tt/496tt.jpg","",""
"null","../img/gs/496gs.jpg","null","reveal","image-keyboard-response","283","953997","0.0-6.0-4.39","2667932","co38557","norming","","","","","","",""
"null","../img/tt/496tt.jpg","null","mooney2","image-keyboard-response","284","956003","0.0-6.0-5.39","2667932","co38557","norming","","","","","","",""
"1679.1799999999348","","","post_reveal_questions","survey-likert","285","957683","0.0-6.0-6.39","2667932","co38557","norming","","","{""aha"":4}","[0]","../img/tt/496tt.jpg","",""
"null","<div style=""font-size:60px;""> </div>","null","fixation","html-keyboard-response","286","957884","0.0-6.0-0.40","2667932","co38557","norming","","","","","","",""
"null","../img/tt/063tt.jpg","null","mooney1","image-keyboard-response","287","960889","0.0-6.0-1.40","2667932","co38557","norming","","","","","","",""
"3343.274999999907","","","post_mooney1_questions","survey-likert","288","964235","0.0-6.0-2.40","2667932","co38557","norming","","","{""curiosity"":4,""confidence"":2}","[0,1]","../img/tt/063tt.jpg","",""
"4718.249999999884","","","recognition","survey-text","289","968956","0.0-6.0-3.40","2667932","co38557","norming","","","{""guess"":""typmachine""}","","../img/tt/063tt.jpg","",""
"null","../img/gs/063gs.jpg","null","reveal","image-keyboard-response","290","970961","0.0-6.0-4.40","2667932","co38557","norming","","","","","","",""
"null","../img/tt/063tt.jpg","null","mooney2","image-keyboard-response","291","972964","0.0-6.0-5.40","2667932","co38557","norming","","","","","","",""
"1180.990000000107","","","post_reveal_questions","survey-likert","292","974148","0.0-6.0-6.40","2667932","co38557","norming","","","{""aha"":6}","[0]","../img/tt/063tt.jpg","",""
"null","<div style=""font-size:60px;""> </div>","null","fixation","html-keyboard-response","293","974348","0.0-6.0-0.41","2667932","co38557","norming","","","","","","",""
"null","../img/tt/468tt.jpg","null","mooney1","image-keyboard-response","294","977353","0.0-6.0-1.41","2667932","co38557","norming","","","","","","",""
"3752.0750000001863","","","post_mooney1_questions","survey-likert","295","981108","0.0-6.0-2.41","2667932","co38557","norming","","","{""curiosity"":5,""confidence"":1}","[0,1]","../img/tt/468tt.jpg","",""
"3494.2150000002002","","","recognition","survey-text","296","984604","0.0-6.0-3.41","2667932","co38557","norming","","","{""guess"":""hoed""}","","../img/tt/468tt.jpg","",""
"null","../img/gs/468gs.jpg","null","reveal","image-keyboard-response","297","986615","0.0-6.0-4.41","2667932","co38557","norming","","","","","","",""
"null","../img/tt/468tt.jpg","null","mooney2","image-keyboard-response","298","988623","0.0-6.0-5.41","2667932","co38557","norming","","","","","","",""
"2313.520000000135","","","post_reveal_questions","survey-likert","299","990938","0.0-6.0-6.41","2667932","co38557","norming","","","{""aha"":4}","[0]","../img/tt/468tt.jpg","",""
"null","<div style=""font-size:60px;""> </div>","null","fixation","html-keyboard-response","300","991140","0.0-6.0-0.42","2667932","co38557","norming","","","","","","",""
"null","../img/tt/358tt.jpg","null","mooney1","image-keyboard-response","301","994144","0.0-6.0-1.42","2667932","co38557","norming","","","","","","",""
"3159.7600000000093","","","post_mooney1_questions","survey-likert","302","997307","0.0-6.0-2.42","2667932","co38557","norming","","","{""curiosity"":5,""confidence"":1}","[0,1]","../img/tt/358tt.jpg","",""
"1846.0750000000698","","","recognition","survey-text","303","999154","0.0-6.0-3.42","2667932","co38557","norming","","","{""guess"":""dier""}","","../img/tt/358tt.jpg","",""
"null","../img/gs/358gs.jpg","null","reveal","image-keyboard-response","304","1001156","0.0-6.0-4.42","2667932","co38557","norming","","","","","","",""
"null","../img/tt/358tt.jpg","null","mooney2","image-keyboard-response","305","1003166","0.0-6.0-5.42","2667932","co38557","norming","","","","","","",""
"2144.0300000001444","","","post_reveal_questions","survey-likert","306","1005315","0.0-6.0-6.42","2667932","co38557","norming","","","{""aha"":4}","[0]","../img/tt/358tt.jpg","",""
"null","<div style=""font-size:60px;""> </div>","null","fixation","html-keyboard-response","307","1005516","0.0-6.0-0.43","2667932","co38557","norming","","","","","","",""
"null","../img/tt/456tt.jpg","null","mooney1","image-keyboard-response","308","1008519","0.0-6.0-1.43","2667932","co38557","norming","","","","","","",""
"2952.5699999998324","","","post_mooney1_questions","survey-likert","309","1011475","0.0-6.0-2.43","2667932","co38557","norming","","","{""curiosity"":5,""confidence"":1}","[0,1]","../img/tt/456tt.jpg","",""
"3598.2050000000745","","","recognition","survey-text","310","1015074","0.0-6.0-3.43","2667932","co38557","norming","","","{""guess"":""leguaan""}","","../img/tt/456tt.jpg","",""
"null","../img/gs/456gs.jpg","null","reveal","image-keyboard-response","311","1017083","0.0-6.0-4.43","2667932","co38557","norming","","","","","","",""
"null","../img/tt/456tt.jpg","null","mooney2","image-keyboard-response","312","1019085","0.0-6.0-5.43","2667932","co38557","norming","","","","","","",""
"1324.4949999999953","","","post_reveal_questions","survey-likert","313","1020411","0.0-6.0-6.43","2667932","co38557","norming","","","{""aha"":5}","[0]","../img/tt/456tt.jpg","",""
"null","<div style=""font-size:60px;""> </div>","null","fixation","html-keyboard-response","314","1020613","0.0-6.0-0.44","2667932","co38557","norming","","","","","","",""
"null","../img/tt/319tt.jpg","null","mooney1","image-keyboard-response","315","1023617","0.0-6.0-1.44","2667932","co38557","norming","","","","","","",""
"3432.42499999993","","","post_mooney1_questions","survey-likert","316","1027051","0.0-6.0-2.44","2667932","co38557","norming","","","{""curiosity"":4,""confidence"":4}","[0,1]","../img/tt/319tt.jpg","",""
"1893.484999999986","","","recognition","survey-text","317","1028946","0.0-6.0-3.44","2667932","co38557","norming","","","{""guess"":""ezels""}","","../img/tt/319tt.jpg","",""
"null","../img/gs/319gs.jpg","null","reveal","image-keyboard-response","318","1030948","0.0-6.0-4.44","2667932","co38557","norming","","","","","","",""
"null","../img/tt/319tt.jpg","null","mooney2","image-keyboard-response","319","1032950","0.0-6.0-5.44","2667932","co38557","norming","","","","","","",""
"1089.4950000002282","","","post_reveal_questions","survey-likert","320","1034042","0.0-6.0-6.44","2667932","co38557","norming","","","{""aha"":2}","[0]","../img/tt/319tt.jpg","",""
"null","<div style=""font-size:60px;""> </div>","null","fixation","html-keyboard-response","321","1034244","0.0-6.0-0.45","2667932","co38557","norming","","","","","","",""
"null","../img/tt/1243tt.jpg","null","mooney1","image-keyboard-response","322","1037247","0.0-6.0-1.45","2667932","co38557","norming","","","","","","",""
"2296.319999999949","","","post_mooney1_questions","survey-likert","323","1039547","0.0-6.0-2.45","2667932","co38557","norming","","","{""curiosity"":5,""confidence"":3}","[0,1]","../img/tt/1243tt.jpg","",""
"1717.869999999879","","","recognition","survey-text","324","1041267","0.0-6.0-3.45","2667932","co38557","norming","","","{""guess"":""aap""}","","../img/tt/1243tt.jpg","",""
"null","../img/gs/1243gs.jpg","null","reveal","image-keyboard-response","325","1043269","0.0-6.0-4.45","2667932","co38557","norming","","","","","","",""
"null","../img/tt/1243tt.jpg","null","mooney2","image-keyboard-response","326","1045273","0.0-6.0-5.45","2667932","co38557","norming","","","","","","",""
"1688.1749999999302","","","post_reveal_questions","survey-likert","327","1046966","0.0-6.0-6.45","2667932","co38557","norming","","","{""aha"":4}","[0]","../img/tt/1243tt.jpg","",""
"null","<div style=""font-size:60px;""> </div>","null","fixation","html-keyboard-response","328","1047168","0.0-6.0-0.46","2667932","co38557","norming","","","","","","",""
"null","../img/tt/1012tt.jpg","null","mooney1","image-keyboard-response","329","1050177","0.0-6.0-1.46","2667932","co38557","norming","","","","","","",""
"3185.7600000000093","","","post_mooney1_questions","survey-likert","330","1053366","0.0-6.0-2.46","2667932","co38557","norming","","","{""curiosity"":4,""confidence"":1}","[0,1]","../img/tt/1012tt.jpg","",""
"1854.5399999998044","","","recognition","survey-text","331","1055222","0.0-6.0-3.46","2667932","co38557","norming","","","{""guess"":""dier""}","","../img/tt/1012tt.jpg","",""
"null","../img/gs/1012gs.jpg","null","reveal","image-keyboard-response","332","1057224","0.0-6.0-4.46","2667932","co38557","norming","","","","","","",""
"null","../img/tt/1012tt.jpg","null","mooney2","image-keyboard-response","333","1059231","0.0-6.0-5.46","2667932","co38557","norming","","","","","","",""
"2085.029999999795","","","post_reveal_questions","survey-likert","334","1061319","0.0-6.0-6.46","2667932","co38557","norming","","","{""aha"":4}","[0]","../img/tt/1012tt.jpg","",""
"null","<div style=""font-size:60px;""> </div>","null","fixation","html-keyboard-response","335","1061519","0.0-6.0-0.47","2667932","co38557","norming","","","","","","",""
"null","../img/tt/1123tt.jpg","null","mooney1","image-keyboard-response","336","1064521","0.0-6.0-1.47","2667932","co38557","norming","","","","","","",""
"3596.6049999999814","","","post_mooney1_questions","survey-likert","337","1068119","0.0-6.0-2.47","2667932","co38557","norming","","","{""curiosity"":5,""confidence"":0}","[0,1]","../img/tt/1123tt.jpg","",""
"661.4549999998417","","","recognition","survey-text","338","1068782","0.0-6.0-3.47","2667932","co38557","norming","","","{""guess"":""""}","","../img/tt/1123tt.jpg","",""
"null","../img/gs/1123gs.jpg","null","reveal","image-keyboard-response","339","1070786","0.0-6.0-4.47","2667932","co38557","norming","","","","","","",""
"null","../img/tt/1123tt.jpg","null","mooney2","image-keyboard-response","340","1072795","0.0-6.0-5.47","2667932","co38557","norming","","","","","","",""
"2113.225000000093","","","post_reveal_questions","survey-likert","341","1074911","0.0-6.0-6.47","2667932","co38557","norming","","","{""aha"":4}","[0]","../img/tt/1123tt.jpg","",""
"null","<div style=""font-size:60px;""> </div>","null","fixation","html-keyboard-response","342","1075112","0.0-6.0-0.48","2667932","co38557","norming","","","","","","",""
"null","../img/tt/1102tt.jpg","null","mooney1","image-keyboard-response","343","1078119","0.0-6.0-1.48","2667932","co38557","norming","","","","","","",""
"3108.4149999998044","","","post_mooney1_questions","survey-likert","344","1081231","0.0-6.0-2.48","2667932","co38557","norming","","","{""curiosity"":4,""confidence"":0}","[0,1]","../img/tt/1102tt.jpg","",""
"390.05999999982305","","","recognition","survey-text","345","1081622","0.0-6.0-3.48","2667932","co38557","norming","","","{""guess"":""""}","","../img/tt/1102tt.jpg","",""
"null","../img/gs/1102gs.jpg","null","reveal","image-keyboard-response","346","1083625","0.0-6.0-4.48","2667932","co38557","norming","","","","","","",""
"null","../img/tt/1102tt.jpg","null","mooney2","image-keyboard-response","347","1085628","0.0-6.0-5.48","2667932","co38557","norming","","","","","","",""
"1839.2999999998137","","","post_reveal_questions","survey-likert","348","1087470","0.0-6.0-6.48","2667932","co38557","norming","","","{""aha"":5}","[0]","../img/tt/1102tt.jpg","",""
"null","<div style=""font-size:60px;""> </div>","null","fixation","html-keyboard-response","349","1087671","0.0-6.0-0.49","2667932","co38557","norming","","","","","","",""
"null","../img/tt/123tt.jpg","null","mooney1","image-keyboard-response","350","1090681","0.0-6.0-1.49","2667932","co38557","norming","","","","","","",""
"5154.074999999953","","","post_mooney1_questions","survey-likert","351","1095839","0.0-6.0-2.49","2667932","co38557","norming","","","{""curiosity"":3,""confidence"":4}","[0,1]","../img/tt/123tt.jpg","",""
"1621.8300000000745","","","recognition","survey-text","352","1097462","0.0-6.0-3.49","2667932","co38557","norming","","","{""guess"":""tas""}","","../img/tt/123tt.jpg","",""
"null","../img/gs/123gs.jpg","null","reveal","image-keyboard-response","353","1099470","0.0-6.0-4.49","2667932","co38557","norming","","","","","","",""
"null","../img/tt/123tt.jpg","null","mooney2","image-keyboard-response","354","1101474","0.0-6.0-5.49","2667932","co38557","norming","","","","","","",""
"2707.465000000084","","","post_reveal_questions","survey-likert","355","1104182","0.0-6.0-6.49","2667932","co38557","norming","","","{""aha"":3}","[0]","../img/tt/123tt.jpg","",""
"null","<div style=""font-size:60px;""> </div>","null","fixation","html-keyboard-response","356","1104384","0.0-6.0-0.50","2667932","co38557","norming","","","","","","",""
"null","../img/tt/094tt.jpg","null","mooney1","image-keyboard-response","357","1107400","0.0-6.0-1.50","2667932","co38557","norming","","","","","","",""
"3153.4850000001024","","","post_mooney1_questions","survey-likert","358","1110555","0.0-6.0-2.50","2667932","co38557","norming","","","{""curiosity"":5,""confidence"":1}","[0,1]","../img/tt/094tt.jpg","",""
"2813.965000000084","","","recognition","survey-text","359","1113370","0.0-6.0-3.50","2667932","co38557","norming","","","{""guess"":""hond""}","","../img/tt/094tt.jpg","",""
"null","../img/gs/094gs.jpg","null","reveal","image-keyboard-response","360","1115375","0.0-6.0-4.50","2667932","co38557","norming","","","","","","",""
"null","../img/tt/094tt.jpg","null","mooney2","image-keyboard-response","361","1117375","0.0-6.0-5.50","2667932","co38557","norming","","","","","","",""
"1130.214999999851","","","post_reveal_questions","survey-likert","362","1118506","0.0-6.0-6.50","2667932","co38557","norming","","","{""aha"":6}","[0]","../img/tt/094tt.jpg","",""
"null","<div style=""font-size:60px;""> </div>","null","fixation","html-keyboard-response","363","1118709","0.0-6.0-0.51","2667932","co38557","norming","","","","","","",""
"null","../img/tt/1156tt.jpg","null","mooney1","image-keyboard-response","364","1121716","0.0-6.0-1.51","2667932","co38557","norming","","","","","","",""
"3397.480000000214","","","post_mooney1_questions","survey-likert","365","1125115","0.0-6.0-2.51","2667932","co38557","norming","","","{""curiosity"":6,""confidence"":0}","[0,1]","../img/tt/1156tt.jpg","",""
"653.8850000002421","","","recognition","survey-text","366","1125770","0.0-6.0-3.51","2667932","co38557","norming","","","{""guess"":""""}","","../img/tt/1156tt.jpg","",""
"null","../img/gs/1156gs.jpg","null","reveal","image-keyboard-response","367","1127776","0.0-6.0-4.51","2667932","co38557","norming","","","","","","",""
"null","../img/tt/1156tt.jpg","null","mooney2","image-keyboard-response","368","1129780","0.0-6.0-5.51","2667932","co38557","norming","","","","","","",""
"2157.3050000001676","","","post_reveal_questions","survey-likert","369","1131938","0.0-6.0-6.51","2667932","co38557","norming","","","{""aha"":6}","[0]","../img/tt/1156tt.jpg","",""
"null","<div style=""font-size:60px;""> </div>","null","fixation","html-keyboard-response","370","1132140","0.0-6.0-0.52","2667932","co38557","norming","","","","","","",""
"null","../img/tt/1078tt.jpg","null","mooney1","image-keyboard-response","371","1135141","0.0-6.0-1.52","2667932","co38557","norming","","","","","","",""
"3036.7350000001024","","","post_mooney1_questions","survey-likert","372","1138179","0.0-6.0-2.52","2667932","co38557","norming","","","{""curiosity"":3,""confidence"":5}","[0,1]","../img/tt/1078tt.jpg","",""
"4694.064999999944","","","recognition","survey-text","373","1142874","0.0-6.0-3.52","2667932","co38557","norming","","","{""guess"":""skateboarder""}","","../img/tt/1078tt.jpg","",""
"null","../img/gs/1078gs.jpg","null","reveal","image-keyboard-response","374","1144877","0.0-6.0-4.52","2667932","co38557","norming","","","","","","",""
"null","../img/tt/1078tt.jpg","null","mooney2","image-keyboard-response","375","1146878","0.0-6.0-5.52","2667932","co38557","norming","","","","","","",""
"2243.465000000084","","","post_reveal_questions","survey-likert","376","1149123","0.0-6.0-6.52","2667932","co38557","norming","","","{""aha"":4}","[0]","../img/tt/1078tt.jpg","",""
"null","<div style=""font-size:60px;""> </div>","null","fixation","html-keyboard-response","377","1149327","0.0-6.0-0.53","2667932","co38557","norming","","","","","","",""
"null","../img/tt/140tt.jpg","null","mooney1","image-keyboard-response","378","1152335","0.0-6.0-1.53","2667932","co38557","norming","","","","","","",""
"3930.4899999999907","","","post_mooney1_questions","survey-likert","379","1156267","0.0-6.0-2.53","2667932","co38557","norming","","","{""curiosity"":5,""confidence"":6}","[0,1]","../img/tt/140tt.jpg","",""
"3134.035000000149","","","recognition","survey-text","380","1159403","0.0-6.0-3.53","2667932","co38557","norming","","","{""guess"":""vorken""}","","../img/tt/140tt.jpg","",""
"null","../img/gs/140gs.jpg","null","reveal","image-keyboard-response","381","1161412","0.0-6.0-4.53","2667932","co38557","norming","","","","","","",""
"null","../img/tt/140tt.jpg","null","mooney2","image-keyboard-response","382","1163421","0.0-6.0-5.53","2667932","co38557","norming","","","","","","",""
"2836.6700000001583","","","post_reveal_questions","survey-likert","383","1166258","0.0-6.0-6.53","2667932","co38557","norming","","","{""aha"":3}","[0]","../img/tt/140tt.jpg","",""
"null","<div style=""font-size:60px;""> </div>","null","fixation","html-keyboard-response","384","1166464","0.0-6.0-0.54","2667932","co38557","norming","","","","","","",""
"null","../img/tt/567tt.jpg","null","mooney1","image-keyboard-response","385","1169471","0.0-6.0-1.54","2667932","co38557","norming","","","","","","",""
"3726.6049999999814","","","post_mooney1_questions","survey-likert","386","1173199","0.0-6.0-2.54","2667932","co38557","norming","","","{""curiosity"":5,""confidence"":5}","[0,1]","../img/tt/567tt.jpg","",""
"4237.270000000019","","","recognition","survey-text","387","1177438","0.0-6.0-3.54","2667932","co38557","norming","","","{""guess"":""broodrooster""}","","../img/tt/567tt.jpg","",""
"null","../img/gs/567gs.jpg","null","reveal","image-keyboard-response","388","1179441","0.0-6.0-4.54","2667932","co38557","norming","","","","","","",""
"null","../img/tt/567tt.jpg","null","mooney2","image-keyboard-response","389","1181446","0.0-6.0-5.54","2667932","co38557","norming","","","","","","",""
"3167.7549999998882","","","post_reveal_questions","survey-likert","390","1184615","0.0-6.0-6.54","2667932","co38557","norming","","","{""aha"":1}","[0]","../img/tt/567tt.jpg","",""
"null","<div style=""font-size:60px;""> </div>","null","fixation","html-keyboard-response","391","1184816","0.0-6.0-0.55","2667932","co38557","norming","","","","","","",""
"null","../img/tt/222tt.jpg","null","mooney1","image-keyboard-response","392","1187826","0.0-6.0-1.55","2667932","co38557","norming","","","","","","",""
"3363.5999999998603","","","post_mooney1_questions","survey-likert","393","1191191","0.0-6.0-2.55","2667932","co38557","norming","","","{""curiosity"":4,""confidence"":2}","[0,1]","../img/tt/222tt.jpg","",""
"3029.7049999998417","","","recognition","survey-text","394","1194222","0.0-6.0-3.55","2667932","co38557","norming","","","{""guess"":""bureau""}","","../img/tt/222tt.jpg","",""
"null","../img/gs/222gs.jpg","null","reveal","image-keyboard-response","395","1196227","0.0-6.0-4.55","2667932","co38557","norming","","","","","","",""
"null","../img/tt/222tt.jpg","null","mooney2","image-keyboard-response","396","1198230","0.0-6.0-5.55","2667932","co38557","norming","","","","","","",""
"2367.279999999795","","","post_reveal_questions","survey-likert","397","1200598","0.0-6.0-6.55","2667932","co38557","norming","","","{""aha"":5}","[0]","../img/tt/222tt.jpg","",""
"null","<div style=""font-size:60px;""> </div>","null","fixation","html-keyboard-response","398","1200801","0.0-6.0-0.56","2667932","co38557","norming","","","","","","",""
"null","../img/tt/1087tt.jpg","null","mooney1","image-keyboard-response","399","1203802","0.0-6.0-1.56","2667932","co38557","norming","","","","","","",""
"2683.094999999972","","","post_mooney1_questions","survey-likert","400","1206486","0.0-6.0-2.56","2667932","co38557","norming","","","{""curiosity"":6,""confidence"":0}","[0,1]","../img/tt/1087tt.jpg","",""
"926.1149999999907","","","recognition","survey-text","401","1207414","0.0-6.0-3.56","2667932","co38557","norming","","","{""guess"":""""}","","../img/tt/1087tt.jpg","",""
"null","../img/gs/1087gs.jpg","null","reveal","image-keyboard-response","402","1209422","0.0-6.0-4.56","2667932","co38557","norming","","","","","","",""
"null","../img/tt/1087tt.jpg","null","mooney2","image-keyboard-response","403","1211423","0.0-6.0-5.56","2667932","co38557","norming","","","","","","",""
"3198.7549999998882","","","post_reveal_questions","survey-likert","404","1214622","0.0-6.0-6.56","2667932","co38557","norming","","","{""aha"":6}","[0]","../img/tt/1087tt.jpg","",""
"null","<div style=""font-size:60px;""> </div>","null","fixation","html-keyboard-response","405","1214824","0.0-6.0-0.57","2667932","co38557","norming","","","","","","",""
"null","../img/tt/1278tt.jpg","null","mooney1","image-keyboard-response","406","1217833","0.0-6.0-1.57","2667932","co38557","norming","","","","","","",""
"3596.0450000001583","","","post_mooney1_questions","survey-likert","407","1221431","0.0-6.0-2.57","2667932","co38557","norming","","","{""curiosity"":6,""confidence"":0}","[0,1]","../img/tt/1278tt.jpg","",""
"726.0449999999255","","","recognition","survey-text","408","1222158","0.0-6.0-3.57","2667932","co38557","norming","","","{""guess"":""""}","","../img/tt/1278tt.jpg","",""
"null","../img/gs/1278gs.jpg","null","reveal","image-keyboard-response","409","1224166","0.0-6.0-4.57","2667932","co38557","norming","","","","","","",""
"null","../img/tt/1278tt.jpg","null","mooney2","image-keyboard-response","410","1226172","0.0-6.0-5.57","2667932","co38557","norming","","","","","","",""
"2625.2050000000745","","","post_reveal_questions","survey-likert","411","1228799","0.0-6.0-6.57","2667932","co38557","norming","","","{""aha"":5}","[0]","../img/tt/1278tt.jpg","",""
"null","<div style=""font-size:60px;""> </div>","null","fixation","html-keyboard-response","412","1229000","0.0-6.0-0.58","2667932","co38557","norming","","","","","","",""
"null","../img/tt/184tt.jpg","null","mooney1","image-keyboard-response","413","1232013","0.0-6.0-1.58","2667932","co38557","norming","","","","","","",""
"3204.005000000121","","","post_mooney1_questions","survey-likert","414","1235219","0.0-6.0-2.58","2667932","co38557","norming","","","{""curiosity"":6,""confidence"":0}","[0,1]","../img/tt/184tt.jpg","",""
"550.1950000000652","","","recognition","survey-text","415","1235770","0.0-6.0-3.58","2667932","co38557","norming","","","{""guess"":""""}","","../img/tt/184tt.jpg","",""
"null","../img/gs/184gs.jpg","null","reveal","image-keyboard-response","416","1237774","0.0-6.0-4.58","2667932","co38557","norming","","","","","","",""
"null","../img/tt/184tt.jpg","null","mooney2","image-keyboard-response","417","1239780","0.0-6.0-5.58","2667932","co38557","norming","","","","","","",""
"1285.5649999999441","","","post_reveal_questions","survey-likert","418","1241067","0.0-6.0-6.58","2667932","co38557","norming","","","{""aha"":6}","[0]","../img/tt/184tt.jpg","",""
"null","<div style=""font-size:60px;""> </div>","null","fixation","html-keyboard-response","419","1241268","0.0-6.0-0.59","2667932","co38557","norming","","","","","","",""
"null","../img/tt/1196tt.jpg","null","mooney1","image-keyboard-response","420","1244275","0.0-6.0-1.59","2667932","co38557","norming","","","","","","",""
"2846.530000000028","","","post_mooney1_questions","survey-likert","421","1247123","0.0-6.0-2.59","2667932","co38557","norming","","","{""curiosity"":5,""confidence"":1}","[0,1]","../img/tt/1196tt.jpg","",""
"3262.1750000000466","","","recognition","survey-text","422","1250387","0.0-6.0-3.59","2667932","co38557","norming","","","{""guess"":""jongens""}","","../img/tt/1196tt.jpg","",""
"null","../img/gs/1196gs.jpg","null","reveal","image-keyboard-response","423","1252391","0.0-6.0-4.59","2667932","co38557","norming","","","","","","",""
"null","../img/tt/1196tt.jpg","null","mooney2","image-keyboard-response","424","1254396","0.0-6.0-5.59","2667932","co38557","norming","","","","","","",""
"1413.3149999997113","","","post_reveal_questions","survey-likert","425","1255811","0.0-6.0-6.59","2667932","co38557","norming","","","{""aha"":4}","[0]","../img/tt/1196tt.jpg","",""
"null","<div style=""font-size:60px;""> </div>","null","fixation","html-keyboard-response","426","1256012","0.0-6.0-0.60","2667932","co38557","norming","","","","","","",""
"null","../img/tt/1004tt.jpg","null","mooney1","image-keyboard-response","427","1259019","0.0-6.0-1.60","2667932","co38557","norming","","","","","","",""
"4302.5449999999255","","","post_mooney1_questions","survey-likert","428","1263323","0.0-6.0-2.60","2667932","co38557","norming","","","{""curiosity"":6,""confidence"":0}","[0,1]","../img/tt/1004tt.jpg","",""
"541.8699999998789","","","recognition","survey-text","429","1263866","0.0-6.0-3.60","2667932","co38557","norming","","","{""guess"":""""}","","../img/tt/1004tt.jpg","",""
"null","../img/gs/1004gs.jpg","null","reveal","image-keyboard-response","430","1265871","0.0-6.0-4.60","2667932","co38557","norming","","","","","","",""
"null","../img/tt/1004tt.jpg","null","mooney2","image-keyboard-response","431","1267874","0.0-6.0-5.60","2667932","co38557","norming","","","","","","",""
"1752.2999999998137","","","post_reveal_questions","survey-likert","432","1269627","0.0-6.0-6.60","2667932","co38557","norming","","","{""aha"":2}","[0]","../img/tt/1004tt.jpg","",""
"null","<div style=""font-size:60px;""> </div>","null","fixation","html-keyboard-response","433","1269831","0.0-6.0-0.61","2667932","co38557","norming","","","","","","",""
"null","../img/tt/307tt.jpg","null","mooney1","image-keyboard-response","434","1272838","0.0-6.0-1.61","2667932","co38557","norming","","","","","","",""
"3947.274999999907","","","post_mooney1_questions","survey-likert","435","1276787","0.0-6.0-2.61","2667932","co38557","norming","","","{""curiosity"":5,""confidence"":0}","[0,1]","../img/tt/307tt.jpg","",""
"838.0449999999255","","","recognition","survey-text","436","1277626","0.0-6.0-3.61","2667932","co38557","norming","","","{""guess"":""""}","","../img/tt/307tt.jpg","",""
"null","../img/gs/307gs.jpg","null","reveal","image-keyboard-response","437","1279627","0.0-6.0-4.61","2667932","co38557","norming","","","","","","",""
"null","../img/tt/307tt.jpg","null","mooney2","image-keyboard-response","438","1281628","0.0-6.0-5.61","2667932","co38557","norming","","","","","","",""
"1445.5150000001304","","","post_reveal_questions","survey-likert","439","1283075","0.0-6.0-6.61","2667932","co38557","norming","","","{""aha"":6}","[0]","../img/tt/307tt.jpg","",""
"null","<div style=""font-size:60px;""> </div>","null","fixation","html-keyboard-response","440","1283276","0.0-6.0-0.62","2667932","co38557","norming","","","","","","",""
"null","../img/tt/1171tt.jpg","null","mooney1","image-keyboard-response","441","1286281","0.0-6.0-1.62","2667932","co38557","norming","","","","","","",""
"3424.475000000093","","","post_mooney1_questions","survey-likert","442","1289707","0.0-6.0-2.62","2667932","co38557","norming","","","{""curiosity"":6,""confidence"":0}","[0,1]","../img/tt/1171tt.jpg","",""
"518.0900000000838","","","recognition","survey-text","443","1290227","0.0-6.0-3.62","2667932","co38557","norming","","","{""guess"":""""}","","../img/tt/1171tt.jpg","",""
"null","../img/gs/1171gs.jpg","null","reveal","image-keyboard-response","444","1292237","0.0-6.0-4.62","2667932","co38557","norming","","","","","","",""
"null","../img/tt/1171tt.jpg","null","mooney2","image-keyboard-response","445","1294238","0.0-6.0-5.62","2667932","co38557","norming","","","","","","",""
"1708.2600000002421","","","post_reveal_questions","survey-likert","446","1295947","0.0-6.0-6.62","2667932","co38557","norming","","","{""aha"":4}","[0]","../img/tt/1171tt.jpg","",""
"null","<div style=""font-size:60px;""> </div>","null","fixation","html-keyboard-response","447","1296148","0.0-6.0-0.63","2667932","co38557","norming","","","","","","",""
"null","../img/tt/1224tt.jpg","null","mooney1","image-keyboard-response","448","1299149","0.0-6.0-1.63","2667932","co38557","norming","","","","","","",""
"2580.8199999998324","","","post_mooney1_questions","survey-likert","449","1301731","0.0-6.0-2.63","2667932","co38557","norming","","","{""curiosity"":5,""confidence"":4}","[0,1]","../img/tt/1224tt.jpg","",""
"2862.435000000056","","","recognition","survey-text","450","1304595","0.0-6.0-3.63","2667932","co38557","norming","","","{""guess"":""judoka""}","","../img/tt/1224tt.jpg","",""
"null","../img/gs/1224gs.jpg","null","reveal","image-keyboard-response","451","1306600","0.0-6.0-4.63","2667932","co38557","norming","","","","","","",""
"null","../img/tt/1224tt.jpg","null","mooney2","image-keyboard-response","452","1308603","0.0-6.0-5.63","2667932","co38557","norming","","","","","","",""
"1670.2849999999162","","","post_reveal_questions","survey-likert","453","1310275","0.0-6.0-6.63","2667932","co38557","norming","","","{""aha"":4}","[0]","../img/tt/1224tt.jpg","",""
"null","<div style=""font-size:60px;""> </div>","null","fixation","html-keyboard-response","454","1310477","0.0-6.0-0.64","2667932","co38557","norming","","","","","","",""
"null","../img/tt/1096tt.jpg","null","mooney1","image-keyboard-response","455","1313485","0.0-6.0-1.64","2667932","co38557","norming","","","","","","",""
"3140.3649999999907","","","post_mooney1_questions","survey-likert","456","1316627","0.0-6.0-2.64","2667932","co38557","norming","","","{""curiosity"":5,""confidence"":0}","[0,1]","../img/tt/1096tt.jpg","",""
"581.8000000000466","","","recognition","survey-text","457","1317211","0.0-6.0-3.64","2667932","co38557","norming","","","{""guess"":""""}","","../img/tt/1096tt.jpg","",""
"null","../img/gs/1096gs.jpg","null","reveal","image-keyboard-response","458","1319217","0.0-6.0-4.64","2667932","co38557","norming","","","","","","",""
"null","../img/tt/1096tt.jpg","null","mooney2","image-keyboard-response","459","1321225","0.0-6.0-5.64","2667932","co38557","norming","","","","","","",""
"2865.08499999973","","","post_reveal_questions","survey-likert","460","1324091","0.0-6.0-6.64","2667932","co38557","norming","","","{""aha"":5}","[0]","../img/tt/1096tt.jpg","",""
"null","<div style=""font-size:60px;""> </div>","null","fixation","html-keyboard-response","461","1324301","0.0-6.0-0.65","2667932","co38557","norming","","","","","","",""
"null","../img/tt/081tt.jpg","null","mooney1","image-keyboard-response","462","1327308","0.0-6.0-1.65","2667932","co38557","norming","","","","","","",""
"2757.965000000084","","","post_mooney1_questions","survey-likert","463","1330067","0.0-6.0-2.65","2667932","co38557","norming","","","{""curiosity"":5,""confidence"":1}","[0,1]","../img/tt/081tt.jpg","",""
"3261.6800000001676","","","recognition","survey-text","464","1333331","0.0-6.0-3.65","2667932","co38557","norming","","","{""guess"":""hockey""}","","../img/tt/081tt.jpg","",""
"null","../img/gs/081gs.jpg","null","reveal","image-keyboard-response","465","1335332","0.0-6.0-4.65","2667932","co38557","norming","","","","","","",""
"null","../img/tt/081tt.jpg","null","mooney2","image-keyboard-response","466","1337337","0.0-6.0-5.65","2667932","co38557","norming","","","","","","",""
"2048.7899999998044","","","post_reveal_questions","survey-likert","467","1339387","0.0-6.0-6.65","2667932","co38557","norming","","","{""aha"":4}","[0]","../img/tt/081tt.jpg","",""
"null","<div style=""font-size:60px;""> </div>","null","fixation","html-keyboard-response","468","1339595","0.0-6.0-0.66","2667932","co38557","norming","","","","","","",""
"null","../img/tt/1146tt.jpg","null","mooney1","image-keyboard-response","469","1342603","0.0-6.0-1.66","2667932","co38557","norming","","","","","","",""
"3238.4350000002887","","","post_mooney1_questions","survey-likert","470","1345843","0.0-6.0-2.66","2667932","co38557","norming","","","{""curiosity"":5,""confidence"":1}","[0,1]","../img/tt/1146tt.jpg","",""
"2221.875","","","recognition","survey-text","471","1348067","0.0-6.0-3.66","2667932","co38557","norming","","","{""guess"":""persoon""}","","../img/tt/1146tt.jpg","",""
"null","../img/gs/1146gs.jpg","null","reveal","image-keyboard-response","472","1350069","0.0-6.0-4.66","2667932","co38557","norming","","","","","","",""
"null","../img/tt/1146tt.jpg","null","mooney2","image-keyboard-response","473","1352070","0.0-6.0-5.66","2667932","co38557","norming","","","","","","",""
"1819.5100000000093","","","post_reveal_questions","survey-likert","474","1353888","0.0-6.0-6.66","2667932","co38557","norming","","","{""aha"":6}","[0]","../img/tt/1146tt.jpg","",""
"null","<div style=""font-size:60px;""> </div>","null","fixation","html-keyboard-response","475","1354089","0.0-6.0-0.67","2667932","co38557","norming","","","","","","",""
"null","../img/tt/082tt.jpg","null","mooney1","image-keyboard-response","476","1357092","0.0-6.0-1.67","2667932","co38557","norming","","","","","","",""
"2795.475000000093","","","post_mooney1_questions","survey-likert","477","1359888","0.0-6.0-2.67","2667932","co38557","norming","","","{""curiosity"":5,""confidence"":3}","[0,1]","../img/tt/082tt.jpg","",""
"2254.554999999935","","","recognition","survey-text","478","1362145","0.0-6.0-3.67","2667932","co38557","norming","","","{""guess"":""vogel""}","","../img/tt/082tt.jpg","",""
"null","../img/gs/082gs.jpg","null","reveal","image-keyboard-response","479","1364153","0.0-6.0-4.67","2667932","co38557","norming","","","","","","",""
"null","../img/tt/082tt.jpg","null","mooney2","image-keyboard-response","480","1366160","0.0-6.0-5.67","2667932","co38557","norming","","","","","","",""
"2847.684999999823","","","post_reveal_questions","survey-likert","481","1369009","0.0-6.0-6.67","2667932","co38557","norming","","","{""aha"":4}","[0]","../img/tt/082tt.jpg","",""
"null","<div style=""font-size:60px;""> </div>","null","fixation","html-keyboard-response","482","1369214","0.0-6.0-0.68","2667932","co38557","norming","","","","","","",""
"null","../img/tt/1069tt.jpg","null","mooney1","image-keyboard-response","483","1372225","0.0-6.0-1.68","2667932","co38557","norming","","","","","","",""
"4685.959999999963","","","post_mooney1_questions","survey-likert","484","1376913","0.0-6.0-2.68","2667932","co38557","norming","","","{""curiosity"":6,""confidence"":0}","[0,1]","../img/tt/1069tt.jpg","",""
"565.9449999995995","","","recognition","survey-text","485","1377480","0.0-6.0-3.68","2667932","co38557","norming","","","{""guess"":""""}","","../img/tt/1069tt.jpg","",""
"null","../img/gs/1069gs.jpg","null","reveal","image-keyboard-response","486","1379490","0.0-6.0-4.68","2667932","co38557","norming","","","","","","",""
"null","../img/tt/1069tt.jpg","null","mooney2","image-keyboard-response","487","1381492","0.0-6.0-5.68","2667932","co38557","norming","","","","","","",""
"1148.219999999972","","","post_reveal_questions","survey-likert","488","1382641","0.0-6.0-6.68","2667932","co38557","norming","","","{""aha"":5}","[0]","../img/tt/1069tt.jpg","",""
"null","<div style=""font-size:60px;""> </div>","null","fixation","html-keyboard-response","489","1382844","0.0-6.0-0.69","2667932","co38557","norming","","","","","","",""
"null","../img/tt/318tt.jpg","null","mooney1","image-keyboard-response","490","1385853","0.0-6.0-1.69","2667932","co38557","norming","","","","","","",""
"4514.27500000014","","","post_mooney1_questions","survey-likert","491","1390369","0.0-6.0-2.69","2667932","co38557","norming","","","{""curiosity"":5,""confidence"":0}","[0,1]","../img/tt/318tt.jpg","",""
"437.78000000002794","","","recognition","survey-text","492","1390809","0.0-6.0-3.69","2667932","co38557","norming","","","{""guess"":""""}","","../img/tt/318tt.jpg","",""
"null","../img/gs/318gs.jpg","null","reveal","image-keyboard-response","493","1392810","0.0-6.0-4.69","2667932","co38557","norming","","","","","","",""
"null","../img/tt/318tt.jpg","null","mooney2","image-keyboard-response","494","1394812","0.0-6.0-5.69","2667932","co38557","norming","","","","","","",""
"1035.5549999999348","","","post_reveal_questions","survey-likert","495","1395849","0.0-6.0-6.69","2667932","co38557","norming","","","{""aha"":4}","[0]","../img/tt/318tt.jpg","",""
"null","<div style=""font-size:60px;""> </div>","null","fixation","html-keyboard-response","496","1396055","0.0-6.0-0.70","2667932","co38557","norming","","","","","","",""
"null","../img/tt/1275tt.jpg","null","mooney1","image-keyboard-response","497","1399058","0.0-6.0-1.70","2667932","co38557","norming","","","","","","",""
"2749.4250000000466","","","post_mooney1_questions","survey-likert","498","1401809","0.0-6.0-2.70","2667932","co38557","norming","","","{""curiosity"":5,""confidence"":3}","[0,1]","../img/tt/1275tt.jpg","",""
"1870.0449999999255","","","recognition","survey-text","499","1403680","0.0-6.0-3.70","2667932","co38557","norming","","","{""guess"":""vos""}","","../img/tt/1275tt.jpg","",""
"null","../img/gs/1275gs.jpg","null","reveal","image-keyboard-response","500","1405690","0.0-6.0-4.70","2667932","co38557","norming","","","","","","",""
"null","../img/tt/1275tt.jpg","null","mooney2","image-keyboard-response","501","1407692","0.0-6.0-5.70","2667932","co38557","norming","","","","","","",""
"1275.755000000121","","","post_reveal_questions","survey-likert","502","1408969","0.0-6.0-6.70","2667932","co38557","norming","","","{""aha"":5}","[0]","../img/tt/1275tt.jpg","",""
"null","<div style=""font-size:60px;""> </div>","null","fixation","html-keyboard-response","503","1409171","0.0-6.0-0.71","2667932","co38557","norming","","","","","","",""
"null","../img/tt/1154tt.jpg","null","mooney1","image-keyboard-response","504","1412173","0.0-6.0-1.71","2667932","co38557","norming","","","","","","",""
"3906.529999999795","","","post_mooney1_questions","survey-likert","505","1416083","0.0-6.0-2.71","2667932","co38557","norming","","","{""curiosity"":4,""confidence"":3}","[0,1]","../img/tt/1154tt.jpg","",""
"2030.0100000002421","","","recognition","survey-text","506","1418115","0.0-6.0-3.71","2667932","co38557","norming","","","{""guess"":""kano""}","","../img/tt/1154tt.jpg","",""
"null","../img/gs/1154gs.jpg","null","reveal","image-keyboard-response","507","1420125","0.0-6.0-4.71","2667932","co38557","norming","","","","","","",""
"null","../img/tt/1154tt.jpg","null","mooney2","image-keyboard-response","508","1422130","0.0-6.0-5.71","2667932","co38557","norming","","","","","","",""
"1503.5549999999348","","","post_reveal_questions","survey-likert","509","1423635","0.0-6.0-6.71","2667932","co38557","norming","","","{""aha"":4}","[0]","../img/tt/1154tt.jpg","",""
"null","<div style=""font-size:60px;""> </div>","null","fixation","html-keyboard-response","510","1423838","0.0-6.0-0.72","2667932","co38557","norming","","","","","","",""
"null","../img/tt/080tt.jpg","null","mooney1","image-keyboard-response","511","1426839","0.0-6.0-1.72","2667932","co38557","norming","","","","","","",""
"3042.594999999972","","","post_mooney1_questions","survey-likert","512","1429883","0.0-6.0-2.72","2667932","co38557","norming","","","{""curiosity"":5,""confidence"":0}","[0,1]","../img/tt/080tt.jpg","",""
"741.8799999998882","","","recognition","survey-text","513","1430627","0.0-6.0-3.72","2667932","co38557","norming","","","{""guess"":""""}","","../img/tt/080tt.jpg","",""
"null","../img/gs/080gs.jpg","null","reveal","image-keyboard-response","514","1432629","0.0-6.0-4.72","2667932","co38557","norming","","","","","","",""
"null","../img/tt/080tt.jpg","null","mooney2","image-keyboard-response","515","1434632","0.0-6.0-5.72","2667932","co38557","norming","","","","","","",""
"1353.440000000177","","","post_reveal_questions","survey-likert","516","1435987","0.0-6.0-6.72","2667932","co38557","norming","","","{""aha"":6}","[0]","../img/tt/080tt.jpg","",""
"null","<div style=""font-size:60px;""> </div>","null","fixation","html-keyboard-response","517","1436188","0.0-6.0-0.73","2667932","co38557","norming","","","","","","",""
"null","../img/tt/524tt.jpg","null","mooney1","image-keyboard-response","518","1439193","0.0-6.0-1.73","2667932","co38557","norming","","","","","","",""
"3096.244999999879","","","post_mooney1_questions","survey-likert","519","1442291","0.0-6.0-2.73","2667932","co38557","norming","","","{""curiosity"":5,""confidence"":2}","[0,1]","../img/tt/524tt.jpg","",""
"2653.784999999916","","","recognition","survey-text","520","1444947","0.0-6.0-3.73","2667932","co38557","norming","","","{""guess"":""olifant""}","","../img/tt/524tt.jpg","",""
"null","../img/gs/524gs.jpg","null","reveal","image-keyboard-response","521","1446952","0.0-6.0-4.73","2667932","co38557","norming","","","","","","",""
"null","../img/tt/524tt.jpg","null","mooney2","image-keyboard-response","522","1448954","0.0-6.0-5.73","2667932","co38557","norming","","","","","","",""
"1167.4899999997579","","","post_reveal_questions","survey-likert","523","1450123","0.0-6.0-6.73","2667932","co38557","norming","","","{""aha"":4}","[0]","../img/tt/524tt.jpg","",""
"null","<div style=""font-size:60px;""> </div>","null","fixation","html-keyboard-response","524","1450324","0.0-6.0-0.74","2667932","co38557","norming","","","","","","",""
"null","../img/tt/1260tt.jpg","null","mooney1","image-keyboard-response","525","1453330","0.0-6.0-1.74","2667932","co38557","norming","","","","","","",""
"4039.7549999998882","","","post_mooney1_questions","survey-likert","526","1457371","0.0-6.0-2.74","2667932","co38557","norming","","","{""curiosity"":5,""confidence"":1}","[0,1]","../img/tt/1260tt.jpg","",""
"2246.274999999907","","","recognition","survey-text","527","1459619","0.0-6.0-3.74","2667932","co38557","norming","","","{""guess"":""beer""}","","../img/tt/1260tt.jpg","",""
"null","../img/gs/1260gs.jpg","null","reveal","image-keyboard-response","528","1461622","0.0-6.0-4.74","2667932","co38557","norming","","","","","","",""
"null","../img/tt/1260tt.jpg","null","mooney2","image-keyboard-response","529","1463623","0.0-6.0-5.74","2667932","co38557","norming","","","","","","",""
"1314.464999999851","","","post_reveal_questions","survey-likert","530","1464939","0.0-6.0-6.74","2667932","co38557","norming","","","{""aha"":6}","[0]","../img/tt/1260tt.jpg","",""
"null","<div style=""font-size:60px;""> </div>","null","fixation","html-keyboard-response","531","1465140","0.0-6.0-0.75","2667932","co38557","norming","","","","","","",""
"null","../img/tt/112tt.jpg","null","mooney1","image-keyboard-response","532","1468147","0.0-6.0-1.75","2667932","co38557","norming","","","","","","",""
"4126.270000000019","","","post_mooney1_questions","survey-likert","533","1472275","0.0-6.0-2.75","2667932","co38557","norming","","","{""curiosity"":5,""confidence"":3}","[0,1]","../img/tt/112tt.jpg","",""
"2445.595000000205","","","recognition","survey-text","534","1474720","0.0-6.0-3.75","2667932","co38557","norming","","","{""guess"":""fluitje""}","","../img/tt/112tt.jpg","",""
"null","../img/gs/112gs.jpg","null","reveal","image-keyboard-response","535","1476723","0.0-6.0-4.75","2667932","co38557","norming","","","","","","",""
"null","../img/tt/112tt.jpg","null","mooney2","image-keyboard-response","536","1478725","0.0-6.0-5.75","2667932","co38557","norming","","","","","","",""
"2186.404999999795","","","post_reveal_questions","survey-likert","537","1480912","0.0-6.0-6.75","2667932","co38557","norming","","","{""aha"":1}","[0]","../img/tt/112tt.jpg","",""
"null","<div style=""font-size:60px;""> </div>","null","fixation","html-keyboard-response","538","1481114","0.0-6.0-0.76","2667932","co38557","norming","","","","","","",""
"null","../img/tt/1159tt.jpg","null","mooney1","image-keyboard-response","539","1484124","0.0-6.0-1.76","2667932","co38557","norming","","","","","","",""
"3971.519999999786","","","post_mooney1_questions","survey-likert","540","1488096","0.0-6.0-2.76","2667932","co38557","norming","","","{""curiosity"":5,""confidence"":0}","[0,1]","../img/tt/1159tt.jpg","",""
"606.1399999998976","","","recognition","survey-text","541","1488704","0.0-6.0-3.76","2667932","co38557","norming","","","{""guess"":""""}","","../img/tt/1159tt.jpg","",""
"null","../img/gs/1159gs.jpg","null","reveal","image-keyboard-response","542","1490711","0.0-6.0-4.76","2667932","co38557","norming","","","","","","",""
"null","../img/tt/1159tt.jpg","null","mooney2","image-keyboard-response","543","1492713","0.0-6.0-5.76","2667932","co38557","norming","","","","","","",""
"1854.3050000001676","","","post_reveal_questions","survey-likert","544","1494569","0.0-6.0-6.76","2667932","co38557","norming","","","{""aha"":5}","[0]","../img/tt/1159tt.jpg","",""
"null","<div style=""font-size:60px;""> </div>","null","fixation","html-keyboard-response","545","1494770","0.0-6.0-0.77","2667932","co38557","norming","","","","","","",""
"null","../img/tt/1148tt.jpg","null","mooney1","image-keyboard-response","546","1497776","0.0-6.0-1.77","2667932","co38557","norming","","","","","","",""
"4190.949999999953","","","post_mooney1_questions","survey-likert","547","1501968","0.0-6.0-2.77","2667932","co38557","norming","","","{""curiosity"":5,""confidence"":1}","[0,1]","../img/tt/1148tt.jpg","",""
"3053.804999999935","","","recognition","survey-text","548","1505024","0.0-6.0-3.77","2667932","co38557","norming","","","{""guess"":""basketter""}","","../img/tt/1148tt.jpg","",""
"null","../img/gs/1148gs.jpg","null","reveal","image-keyboard-response","549","1507027","0.0-6.0-4.77","2667932","co38557","norming","","","","","","",""
"null","../img/tt/1148tt.jpg","null","mooney2","image-keyboard-response","550","1509028","0.0-6.0-5.77","2667932","co38557","norming","","","","","","",""
"1123.5649999997113","","","post_reveal_questions","survey-likert","551","1510152","0.0-6.0-6.77","2667932","co38557","norming","","","{""aha"":3}","[0]","../img/tt/1148tt.jpg","",""
"null","<div style=""font-size:60px;""> </div>","null","fixation","html-keyboard-response","552","1510353","0.0-6.0-0.78","2667932","co38557","norming","","","","","","",""
"null","../img/tt/1048tt.jpg","null","mooney1","image-keyboard-response","553","1513356","0.0-6.0-1.78","2667932","co38557","norming","","","","","","",""
