"rt","stimulus","key_press","test_part","trial_type","trial_index","time_elapsed","internal_node_id","totalTime","subject","experiment_name","button_pressed","success","responses","question_order","currentStim","old","correct"
"11155.005000000529","Welcome to the experiment. This is an online experiment so please don't close the tab/window until we say goodbye.  Press any key to begin.","32","instructions","html-keyboard-response","0","11168","0.0-0.0","3525061","co38752","norming","","","","","","",""
"38037.68999999738","<div style='word-wrap: break-word; width: 900px'><h3>Please consider this information carefully before deciding whether to participate in this research</h3><ul style='text-align: left; font-size: .8em;'><li><b>Purpose of the research</b>: To examine how people process images.</li><li><b>What you will do in this research</b>:  Stimuli (images) will be presented on the computer and you will be asked different questions about them.</li><li><b>Time required</b>: Participation will take between 45 and 60 minutes to complete.</li><li><b>Risks</b>:  There are no anticipated risks associated with participating in this study. The effects of participating should be comparable to those you would experience from viewing a computer monitor for 30 minutes and using a mouse or keyboard.</li><li><b>Benefits</b>:  This study provides no benefits to you individually except for the credit. The study provides important information about the nature of perception and learning.</li><li><b>Confidentiality</b>:  Your participation in this study will remain confidential. No personally identifiable information will be associated with your data. Your de-identified data may be shared with other researchers and used in future projects.</li><li><b>Participation and withdrawal</b>:  Your participation in this study is completely voluntary and you may refuse to participate or you may choose to withdraw at any time without penalty.</li><li><b>How to contact the researchers</b>: If you have questions or concerns about your participation or payment, or want to request a summary of research findings, please contact Sander Van de Cruys (KU Leuven), at sander.vandecruys@kuleuven.be.</li></ul><p>The nature and purpose of this research have been sufficiently explained and I agree to participate in this study.  I understand that I am free to withdraw at any time without incurring any penalty.</p><p>Please consent by clicking the button below to continue. Otherwise, please exit the study at this time.</p></div>","","instructions","html-button-response","1","49207","0.0-1.0","3525061","co38752","norming","0","","","","","",""
"","","","instructions","fullscreen","2","53152","0.0-2.0","3525061","co38752","norming","","true","","","","",""
"38867.93000000034","","","sona","survey-html-form","3","92017","0.0-3.0","3525061","co38752","norming","","","[{""name"":""sonaid"",""value"":""38752""},{""name"":""debrief"",""value"":""yes""},{""name"":""datajoin"",""value"":""yes""}]","","","",""
"86327.82999999836","<div style='word-wrap: break-word; width: 900px'><h3>Instructions</h3><p>This experiment will have 3 parts. In the first part you will see a series of distorted images like the one below on the left. As you can see in the righthand image, the distorted images are derived from actual photographs. In what follows, you will <strong>briefly</strong> be presented with <strong>only</strong> the distorted image.</p> <div style='float: left; margin-right: 20px;'><img src='../img/018tt.jpg' height='250' width='250'></img></div><div style='float: right; margin-left: 20px;'><img src='../img/018gs.jpg' height='250' width='250'></img></div><p>Subsequently you will be asked a few questions about the image: One question on how <strong>curious</strong> you are about the solution and one on how <strong>confident</strong> you are that you know the solution.</p>Next, we ask you to make a guess on what is in the image. Note that it is OK to name just the <strong>basic level category</strong>. For example when you see a parrot in the image, 'parrot' will obviously be a correct answer but also correct is 'bird'. However, 'animal' will <strong>not</strong> be counted as a correct response. For the example above, 'rose' would be correct or 'flower', but not 'plant'. When soccer players are depicted, 'soccer', 'football', 'soccer players' will be correct, but not 'humans', 'outdoors', or 'sports'. You do not need to describe the image in full, just name the main object in it <strong>in one or two words</strong>. All images depict objects from one of the following broad level categories: animals, inanimate objects, plants, sports, vehicles, and food. Recognizing means knowing <strong>more</strong> than these broad labels for a given image. But we always encourage you to <strong>make a guess</strong> if you can. Note that you are allowed to use <strong>Dutch and English</strong> in your answers, whatever comes easiest for you.</p><p>Press any key to continue.</p></div>","32","instructions","html-keyboard-response","4","178350","0.0-4.0","3525061","co38752","norming","","","","","","",""
"19685.700000001816","<div style='word-wrap: break-word; width: 900px'><h3>Instructions</h3> <p>Next, the solution image will be revealed to you and you'll be asked to indicate how strong your <strong>aha-experience</strong> was after seeing the solution. This describes the positive feeling of the 'click' you sometimes experience, when the pieces of the 'puzzle' fall together and you suddenly have 'insight' in the image.</p><img src='aha.jpg' height='188' width='250'></img><p>Note that there are no right or wrong answers. We are interested in what <strong>you</strong> see in the image and how <strong>you</strong> feel about it.</p><p>Press any key to start the experiment.</p></div>","32","instructions","html-keyboard-response","5","198037","0.0-5.0","3525061","co38752","norming","","","","","","",""
"null","<div style=""font-size:60px;""> </div>","null","fixation","html-keyboard-response","6","198245","0.0-6.0-0.0","3525061","co38752","norming","","","","","","",""
"null","../img/tt/098tt.jpg","null","mooney1","image-keyboard-response","7","201252","0.0-6.0-1.0","3525061","co38752","norming","","","","","","",""
"12956.27500000046","","","post_mooney1_questions","survey-likert","8","214213","0.0-6.0-2.0","3525061","co38752","norming","","","{""curiosity"":4,""confidence"":1}","[0,1]","../img/tt/098tt.jpg","",""
"3981.339999998454","","","recognition","survey-text","9","218196","0.0-6.0-3.0","3525061","co38752","norming","","","{""guess"":""""}","","../img/tt/098tt.jpg","",""
"null","../img/gs/098gs.jpg","null","reveal","image-keyboard-response","10","220202","0.0-6.0-4.0","3525061","co38752","norming","","","","","","",""
"null","../img/tt/098tt.jpg","null","mooney2","image-keyboard-response","11","222204","0.0-6.0-5.0","3525061","co38752","norming","","","","","","",""
"6069.8650000013","","","post_reveal_questions","survey-likert","12","228276","0.0-6.0-6.0","3525061","co38752","norming","","","{""aha"":0}","[0]","../img/tt/098tt.jpg","",""
"null","<div style=""font-size:60px;""> </div>","null","fixation","html-keyboard-response","13","228479","0.0-6.0-0.1","3525061","co38752","norming","","","","","","",""
"null","../img/tt/1084tt.jpg","null","mooney1","image-keyboard-response","14","231482","0.0-6.0-1.1","3525061","co38752","norming","","","","","","",""
"7105.199999998149","","","post_mooney1_questions","survey-likert","15","238586","0.0-6.0-2.1","3525061","co38752","norming","","","{""curiosity"":4,""confidence"":4}","[0,1]","../img/tt/1084tt.jpg","",""
"6525.959999999031","","","recognition","survey-text","16","245113","0.0-6.0-3.1","3525061","co38752","norming","","","{""guess"":""taart""}","","../img/tt/1084tt.jpg","",""
"null","../img/gs/1084gs.jpg","null","reveal","image-keyboard-response","17","247116","0.0-6.0-4.1","3525061","co38752","norming","","","","","","",""
"null","../img/tt/1084tt.jpg","null","mooney2","image-keyboard-response","18","249126","0.0-6.0-5.1","3525061","co38752","norming","","","","","","",""
"6665.420000001177","","","post_reveal_questions","survey-likert","19","255794","0.0-6.0-6.1","3525061","co38752","norming","","","{""aha"":0}","[0]","../img/tt/1084tt.jpg","",""
"null","<div style=""font-size:60px;""> </div>","null","fixation","html-keyboard-response","20","255998","0.0-6.0-0.2","3525061","co38752","norming","","","","","","",""
"null","../img/tt/1307tt.jpg","null","mooney1","image-keyboard-response","21","259003","0.0-6.0-1.2","3525061","co38752","norming","","","","","","",""
"12972.444999999396","","","post_mooney1_questions","survey-likert","22","271978","0.0-6.0-2.2","3525061","co38752","norming","","","{""curiosity"":4,""confidence"":2}","[0,1]","../img/tt/1307tt.jpg","",""
"7653.980000002775","","","recognition","survey-text","23","279634","0.0-6.0-3.2","3525061","co38752","norming","","","{""guess"":""ventilator""}","","../img/tt/1307tt.jpg","",""
"null","../img/gs/1307gs.jpg","null","reveal","image-keyboard-response","24","281641","0.0-6.0-4.2","3525061","co38752","norming","","","","","","",""
"null","../img/tt/1307tt.jpg","null","mooney2","image-keyboard-response","25","283650","0.0-6.0-5.2","3525061","co38752","norming","","","","","","",""
"4565.460000001593","","","post_reveal_questions","survey-likert","26","288218","0.0-6.0-6.2","3525061","co38752","norming","","","{""aha"":4}","[0]","../img/tt/1307tt.jpg","",""
"null","<div style=""font-size:60px;""> </div>","null","fixation","html-keyboard-response","27","288423","0.0-6.0-0.3","3525061","co38752","norming","","","","","","",""
"null","../img/tt/549tt.jpg","null","mooney1","image-keyboard-response","28","291425","0.0-6.0-1.3","3525061","co38752","norming","","","","","","",""
"9829.429999997956","","","post_mooney1_questions","survey-likert","29","301255","0.0-6.0-2.3","3525061","co38752","norming","","","{""curiosity"":3,""confidence"":1}","[0,1]","../img/tt/549tt.jpg","",""
"974.0450000026613","","","recognition","survey-text","30","302230","0.0-6.0-3.3","3525061","co38752","norming","","","{""guess"":""""}","","../img/tt/549tt.jpg","",""
"null","../img/gs/549gs.jpg","null","reveal","image-keyboard-response","31","304235","0.0-6.0-4.3","3525061","co38752","norming","","","","","","",""
"null","../img/tt/549tt.jpg","null","mooney2","image-keyboard-response","32","306244","0.0-6.0-5.3","3525061","co38752","norming","","","","","","",""
"9552.305000001099","","","post_reveal_questions","survey-likert","33","315799","0.0-6.0-6.3","3525061","co38752","norming","","","{""aha"":3}","[0]","../img/tt/549tt.jpg","",""
"null","<div style=""font-size:60px;""> </div>","null","fixation","html-keyboard-response","34","316000","0.0-6.0-0.4","3525061","co38752","norming","","","","","","",""
"null","../img/tt/094tt.jpg","null","mooney1","image-keyboard-response","35","319006","0.0-6.0-1.4","3525061","co38752","norming","","","","","","",""
"5406.924999999348","","","post_mooney1_questions","survey-likert","36","324415","0.0-6.0-2.4","3525061","co38752","norming","","","{""curiosity"":4,""confidence"":2}","[0,1]","../img/tt/094tt.jpg","",""
"2006.2399999988265","","","recognition","survey-text","37","326423","0.0-6.0-3.4","3525061","co38752","norming","","","{""guess"":""uil""}","","../img/tt/094tt.jpg","",""
"null","../img/gs/094gs.jpg","null","reveal","image-keyboard-response","38","328426","0.0-6.0-4.4","3525061","co38752","norming","","","","","","",""
"null","../img/tt/094tt.jpg","null","mooney2","image-keyboard-response","39","330435","0.0-6.0-5.4","3525061","co38752","norming","","","","","","",""
"5682.484999997541","","","post_reveal_questions","survey-likert","40","336119","0.0-6.0-6.4","3525061","co38752","norming","","","{""aha"":4}","[0]","../img/tt/094tt.jpg","",""
"null","<div style=""font-size:60px;""> </div>","null","fixation","html-keyboard-response","41","336324","0.0-6.0-0.5","3525061","co38752","norming","","","","","","",""
"null","../img/tt/1202tt.jpg","null","mooney1","image-keyboard-response","42","339336","0.0-6.0-1.5","3525061","co38752","norming","","","","","","",""
"6044.495000001974","","","post_mooney1_questions","survey-likert","43","345383","0.0-6.0-2.5","3525061","co38752","norming","","","{""curiosity"":4,""confidence"":0}","[0,1]","../img/tt/1202tt.jpg","",""
"1237.9399999991292","","","recognition","survey-text","44","346623","0.0-6.0-3.5","3525061","co38752","norming","","","{""guess"":""""}","","../img/tt/1202tt.jpg","",""
"null","../img/gs/1202gs.jpg","null","reveal","image-keyboard-response","45","348629","0.0-6.0-4.5","3525061","co38752","norming","","","","","","",""
"null","../img/tt/1202tt.jpg","null","mooney2","image-keyboard-response","46","350631","0.0-6.0-5.5","3525061","co38752","norming","","","","","","",""
"2565.425000000745","","","post_reveal_questions","survey-likert","47","353199","0.0-6.0-6.5","3525061","co38752","norming","","","{""aha"":3}","[0]","../img/tt/1202tt.jpg","",""
"null","<div style=""font-size:60px;""> </div>","null","fixation","html-keyboard-response","48","353400","0.0-6.0-0.6","3525061","co38752","norming","","","","","","",""
"null","../img/tt/436tt.jpg","null","mooney1","image-keyboard-response","49","356409","0.0-6.0-1.6","3525061","co38752","norming","","","","","","",""
"4051.1650000007357","","","post_mooney1_questions","survey-likert","50","360469","0.0-6.0-2.6","3525061","co38752","norming","","","{""curiosity"":4,""confidence"":0}","[0,1]","../img/tt/436tt.jpg","",""
"1981.9399999978486","","","recognition","survey-text","51","362452","0.0-6.0-3.6","3525061","co38752","norming","","","{""guess"":""""}","","../img/tt/436tt.jpg","",""
"null","../img/gs/436gs.jpg","null","reveal","image-keyboard-response","52","364459","0.0-6.0-4.6","3525061","co38752","norming","","","","","","",""
"null","../img/tt/436tt.jpg","null","mooney2","image-keyboard-response","53","366468","0.0-6.0-5.6","3525061","co38752","norming","","","","","","",""
"3046.3400000007823","","","post_reveal_questions","survey-likert","54","369516","0.0-6.0-6.6","3525061","co38752","norming","","","{""aha"":3}","[0]","../img/tt/436tt.jpg","",""
"null","<div style=""font-size:60px;""> </div>","null","fixation","html-keyboard-response","55","369722","0.0-6.0-0.7","3525061","co38752","norming","","","","","","",""
"null","../img/tt/1053tt.jpg","null","mooney1","image-keyboard-response","56","372726","0.0-6.0-1.7","3525061","co38752","norming","","","","","","",""
"12283.650000001187","","","post_mooney1_questions","survey-likert","57","385013","0.0-6.0-2.7","3525061","co38752","norming","","","{""curiosity"":3,""confidence"":5}","[0,1]","../img/tt/1053tt.jpg","",""
"1550.179999998305","","","recognition","survey-text","58","386565","0.0-6.0-3.7","3525061","co38752","norming","","","{""guess"":""koe""}","","../img/tt/1053tt.jpg","",""
"null","../img/gs/1053gs.jpg","null","reveal","image-keyboard-response","59","388570","0.0-6.0-4.7","3525061","co38752","norming","","","","","","",""
"null","../img/tt/1053tt.jpg","null","mooney2","image-keyboard-response","60","390573","0.0-6.0-5.7","3525061","co38752","norming","","","","","","",""
"3780.894999999844","","","post_reveal_questions","survey-likert","61","394356","0.0-6.0-6.7","3525061","co38752","norming","","","{""aha"":2}","[0]","../img/tt/1053tt.jpg","",""
"null","<div style=""font-size:60px;""> </div>","null","fixation","html-keyboard-response","62","394557","0.0-6.0-0.8","3525061","co38752","norming","","","","","","",""
"null","../img/tt/353tt.jpg","null","mooney1","image-keyboard-response","63","397569","0.0-6.0-1.8","3525061","co38752","norming","","","","","","",""
"6610.76999999932","","","post_mooney1_questions","survey-likert","64","404181","0.0-6.0-2.8","3525061","co38752","norming","","","{""curiosity"":4,""confidence"":3}","[0,1]","../img/tt/353tt.jpg","",""
"4813.709999998508","","","recognition","survey-text","65","408997","0.0-6.0-3.8","3525061","co38752","norming","","","{""guess"":""varken""}","","../img/tt/353tt.jpg","",""
"null","../img/gs/353gs.jpg","null","reveal","image-keyboard-response","66","411000","0.0-6.0-4.8","3525061","co38752","norming","","","","","","",""
"null","../img/tt/353tt.jpg","null","mooney2","image-keyboard-response","67","413004","0.0-6.0-5.8","3525061","co38752","norming","","","","","","",""
"3414.505000000645","","","post_reveal_questions","survey-likert","68","416420","0.0-6.0-6.8","3525061","co38752","norming","","","{""aha"":4}","[0]","../img/tt/353tt.jpg","",""
"null","<div style=""font-size:60px;""> </div>","null","fixation","html-keyboard-response","69","416625","0.0-6.0-0.9","3525061","co38752","norming","","","","","","",""
"null","../img/tt/085tt.jpg","null","mooney1","image-keyboard-response","70","419635","0.0-6.0-1.9","3525061","co38752","norming","","","","","","",""
"5047.500000000582","","","post_mooney1_questions","survey-likert","71","424680","0.0-6.0-2.9","3525061","co38752","norming","","","{""curiosity"":4,""confidence"":3}","[0,1]","../img/tt/085tt.jpg","",""
"5262.190000001225","","","recognition","survey-text","72","429943","0.0-6.0-3.9","3525061","co38752","norming","","","{""guess"":""bidsprinkhaan""}","","../img/tt/085tt.jpg","",""
"null","../img/gs/085gs.jpg","null","reveal","image-keyboard-response","73","431951","0.0-6.0-4.9","3525061","co38752","norming","","","","","","",""
"null","../img/tt/085tt.jpg","null","mooney2","image-keyboard-response","74","433953","0.0-6.0-5.9","3525061","co38752","norming","","","","","","",""
"3180.159999999916","","","post_reveal_questions","survey-likert","75","437135","0.0-6.0-6.9","3525061","co38752","norming","","","{""aha"":1}","[0]","../img/tt/085tt.jpg","",""
"null","<div style=""font-size:60px;""> </div>","null","fixation","html-keyboard-response","76","437341","0.0-6.0-0.10","3525061","co38752","norming","","","","","","",""
"null","../img/tt/1205tt.jpg","null","mooney1","image-keyboard-response","77","440351","0.0-6.0-1.10","3525061","co38752","norming","","","","","","",""
"6862.444999998843","","","post_mooney1_questions","survey-likert","78","447216","0.0-6.0-2.10","3525061","co38752","norming","","","{""curiosity"":5,""confidence"":0}","[0,1]","../img/tt/1205tt.jpg","",""
"901.755000002624","","","recognition","survey-text","79","448119","0.0-6.0-3.10","3525061","co38752","norming","","","{""guess"":""""}","","../img/tt/1205tt.jpg","",""
"null","../img/gs/1205gs.jpg","null","reveal","image-keyboard-response","80","450124","0.0-6.0-4.10","3525061","co38752","norming","","","","","","",""
"null","../img/tt/1205tt.jpg","null","mooney2","image-keyboard-response","81","452135","0.0-6.0-5.10","3525061","co38752","norming","","","","","","",""
"2237.7999999989406","","","post_reveal_questions","survey-likert","82","454375","0.0-6.0-6.10","3525061","co38752","norming","","","{""aha"":4}","[0]","../img/tt/1205tt.jpg","",""
"null","<div style=""font-size:60px;""> </div>","null","fixation","html-keyboard-response","83","454583","0.0-6.0-0.11","3525061","co38752","norming","","","","","","",""
"null","../img/tt/306tt.jpg","null","mooney1","image-keyboard-response","84","457591","0.0-6.0-1.11","3525061","co38752","norming","","","","","","",""
"6583.770000001125","","","post_mooney1_questions","survey-likert","85","464176","0.0-6.0-2.11","3525061","co38752","norming","","","{""curiosity"":4,""confidence"":1}","[0,1]","../img/tt/306tt.jpg","",""
"3022.179999999935","","","recognition","survey-text","86","467200","0.0-6.0-3.11","3525061","co38752","norming","","","{""guess"":""hand""}","","../img/tt/306tt.jpg","",""
"null","../img/gs/306gs.jpg","null","reveal","image-keyboard-response","87","469201","0.0-6.0-4.11","3525061","co38752","norming","","","","","","",""
"null","../img/tt/306tt.jpg","null","mooney2","image-keyboard-response","88","471206","0.0-6.0-5.11","3525061","co38752","norming","","","","","","",""
"4671.444999999949","","","post_reveal_questions","survey-likert","89","475879","0.0-6.0-6.11","3525061","co38752","norming","","","{""aha"":3}","[0]","../img/tt/306tt.jpg","",""
"null","<div style=""font-size:60px;""> </div>","null","fixation","html-keyboard-response","90","476087","0.0-6.0-0.12","3525061","co38752","norming","","","","","","",""
"null","../img/tt/1012tt.jpg","null","mooney1","image-keyboard-response","91","479096","0.0-6.0-1.12","3525061","co38752","norming","","","","","","",""
"9996.684999998193","","","post_mooney1_questions","survey-likert","92","489098","0.0-6.0-2.12","3525061","co38752","norming","","","{""curiosity"":2,""confidence"":0}","[0,1]","../img/tt/1012tt.jpg","",""
"830.2350000012666","","","recognition","survey-text","93","489930","0.0-6.0-3.12","3525061","co38752","norming","","","{""guess"":""""}","","../img/tt/1012tt.jpg","",""
"null","../img/gs/1012gs.jpg","null","reveal","image-keyboard-response","94","491940","0.0-6.0-4.12","3525061","co38752","norming","","","","","","",""
"null","../img/tt/1012tt.jpg","null","mooney2","image-keyboard-response","95","493943","0.0-6.0-5.12","3525061","co38752","norming","","","","","","",""
"4793.3200000007055","","","post_reveal_questions","survey-likert","96","498738","0.0-6.0-6.12","3525061","co38752","norming","","","{""aha"":3}","[0]","../img/tt/1012tt.jpg","",""
"null","<div style=""font-size:60px;""> </div>","null","fixation","html-keyboard-response","97","498946","0.0-6.0-0.13","3525061","co38752","norming","","","","","","",""
"null","../img/tt/1123tt.jpg","null","mooney1","image-keyboard-response","98","501954","0.0-6.0-1.13","3525061","co38752","norming","","","","","","",""
"9909.57999999955","","","post_mooney1_questions","survey-likert","99","511866","0.0-6.0-2.13","3525061","co38752","norming","","","{""curiosity"":3,""confidence"":0}","[0,1]","../img/tt/1123tt.jpg","",""
"2918.2550000005285","","","recognition","survey-text","100","514786","0.0-6.0-3.13","3525061","co38752","norming","","","{""guess"":""bal""}","","../img/tt/1123tt.jpg","",""
"null","../img/gs/1123gs.jpg","null","reveal","image-keyboard-response","101","516788","0.0-6.0-4.13","3525061","co38752","norming","","","","","","",""
"null","../img/tt/1123tt.jpg","null","mooney2","image-keyboard-response","102","518794","0.0-6.0-5.13","3525061","co38752","norming","","","","","","",""
"2061.714999999851","","","post_reveal_questions","survey-likert","103","520858","0.0-6.0-6.13","3525061","co38752","norming","","","{""aha"":4}","[0]","../img/tt/1123tt.jpg","",""
"null","<div style=""font-size:60px;""> </div>","null","fixation","html-keyboard-response","104","521060","0.0-6.0-0.14","3525061","co38752","norming","","","","","","",""
"null","../img/tt/049tt.jpg","null","mooney1","image-keyboard-response","105","524067","0.0-6.0-1.14","3525061","co38752","norming","","","","","","",""
"10100.555000000866","","","post_mooney1_questions","survey-likert","106","534170","0.0-6.0-2.14","3525061","co38752","norming","","","{""curiosity"":2,""confidence"":0}","[0,1]","../img/tt/049tt.jpg","",""
"2758.1650000029476","","","recognition","survey-text","107","536930","0.0-6.0-3.14","3525061","co38752","norming","","","{""guess"":""""}","","../img/tt/049tt.jpg","",""
"null","../img/gs/049gs.jpg","null","reveal","image-keyboard-response","108","538934","0.0-6.0-4.14","3525061","co38752","norming","","","","","","",""
"null","../img/tt/049tt.jpg","null","mooney2","image-keyboard-response","109","540942","0.0-6.0-5.14","3525061","co38752","norming","","","","","","",""
"3834.240000000107","","","post_reveal_questions","survey-likert","110","544779","0.0-6.0-6.14","3525061","co38752","norming","","","{""aha"":2}","[0]","../img/tt/049tt.jpg","",""
"null","<div style=""font-size:60px;""> </div>","null","fixation","html-keyboard-response","111","544980","0.0-6.0-0.15","3525061","co38752","norming","","","","","","",""
"null","../img/tt/497tt.jpg","null","mooney1","image-keyboard-response","112","547984","0.0-6.0-1.15","3525061","co38752","norming","","","","","","",""
"6239.955000001006","","","post_mooney1_questions","survey-likert","113","554227","0.0-6.0-2.15","3525061","co38752","norming","","","{""curiosity"":3,""confidence"":0}","[0,1]","../img/tt/497tt.jpg","",""
"549.8250000018161","","","recognition","survey-text","114","554778","0.0-6.0-3.15","3525061","co38752","norming","","","{""guess"":""""}","","../img/tt/497tt.jpg","",""
"null","../img/gs/497gs.jpg","null","reveal","image-keyboard-response","115","556785","0.0-6.0-4.15","3525061","co38752","norming","","","","","","",""
"null","../img/tt/497tt.jpg","null","mooney2","image-keyboard-response","116","558796","0.0-6.0-5.15","3525061","co38752","norming","","","","","","",""
"5524.554999999935","","","post_reveal_questions","survey-likert","117","564323","0.0-6.0-6.15","3525061","co38752","norming","","","{""aha"":0}","[0]","../img/tt/497tt.jpg","",""
"null","<div style=""font-size:60px;""> </div>","null","fixation","html-keyboard-response","118","564524","0.0-6.0-0.16","3525061","co38752","norming","","","","","","",""
"null","../img/tt/1089tt.jpg","null","mooney1","image-keyboard-response","119","567531","0.0-6.0-1.16","3525061","co38752","norming","","","","","","",""
"11622.839999999967","","","post_mooney1_questions","survey-likert","120","579155","0.0-6.0-2.16","3525061","co38752","norming","","","{""curiosity"":4,""confidence"":1}","[0,1]","../img/tt/1089tt.jpg","",""
"4006.23999999871","","","recognition","survey-text","121","583163","0.0-6.0-3.16","3525061","co38752","norming","","","{""guess"":""koe""}","","../img/tt/1089tt.jpg","",""
"null","../img/gs/1089gs.jpg","null","reveal","image-keyboard-response","122","585172","0.0-6.0-4.16","3525061","co38752","norming","","","","","","",""
"null","../img/tt/1089tt.jpg","null","mooney2","image-keyboard-response","123","587174","0.0-6.0-5.16","3525061","co38752","norming","","","","","","",""
"2002.3900000015274","","","post_reveal_questions","survey-likert","124","589179","0.0-6.0-6.16","3525061","co38752","norming","","","{""aha"":4}","[0]","../img/tt/1089tt.jpg","",""
"null","<div style=""font-size:60px;""> </div>","null","fixation","html-keyboard-response","125","589380","0.0-6.0-0.17","3525061","co38752","norming","","","","","","",""
"null","../img/tt/063tt.jpg","null","mooney1","image-keyboard-response","126","592389","0.0-6.0-1.17","3525061","co38752","norming","","","","","","",""
"10203.460000000661","","","post_mooney1_questions","survey-likert","127","602595","0.0-6.0-2.17","3525061","co38752","norming","","","{""curiosity"":1,""confidence"":0}","[0,1]","../img/tt/063tt.jpg","",""
"1229.924999999581","","","recognition","survey-text","128","603826","0.0-6.0-3.17","3525061","co38752","norming","","","{""guess"":""""}","","../img/tt/063tt.jpg","",""
"null","../img/gs/063gs.jpg","null","reveal","image-keyboard-response","129","605844","0.0-6.0-4.17","3525061","co38752","norming","","","","","","",""
"null","../img/tt/063tt.jpg","null","mooney2","image-keyboard-response","130","607853","0.0-6.0-5.17","3525061","co38752","norming","","","","","","",""
"4044.6300000002375","","","post_reveal_questions","survey-likert","131","611900","0.0-6.0-6.17","3525061","co38752","norming","","","{""aha"":1}","[0]","../img/tt/063tt.jpg","",""
"null","<div style=""font-size:60px;""> </div>","null","fixation","html-keyboard-response","132","612101","0.0-6.0-0.18","3525061","co38752","norming","","","","","","",""
"null","../img/tt/1080tt.jpg","null","mooney1","image-keyboard-response","133","615113","0.0-6.0-1.18","3525061","co38752","norming","","","","","","",""
"4536.174999997485","","","post_mooney1_questions","survey-likert","134","619652","0.0-6.0-2.18","3525061","co38752","norming","","","{""curiosity"":0,""confidence"":0}","[0,1]","../img/tt/1080tt.jpg","",""
"1221.5700000015786","","","recognition","survey-text","135","620875","0.0-6.0-3.18","3525061","co38752","norming","","","{""guess"":""""}","","../img/tt/1080tt.jpg","",""
"null","../img/gs/1080gs.jpg","null","reveal","image-keyboard-response","136","622878","0.0-6.0-4.18","3525061","co38752","norming","","","","","","",""
"null","../img/tt/1080tt.jpg","null","mooney2","image-keyboard-response","137","624882","0.0-6.0-5.18","3525061","co38752","norming","","","","","","",""
"4262.720000002417","","","post_reveal_questions","survey-likert","138","629147","0.0-6.0-6.18","3525061","co38752","norming","","","{""aha"":3}","[0]","../img/tt/1080tt.jpg","",""
"null","<div style=""font-size:60px;""> </div>","null","fixation","html-keyboard-response","139","629348","0.0-6.0-0.19","3525061","co38752","norming","","","","","","",""
"null","../img/tt/1181tt.jpg","null","mooney1","image-keyboard-response","140","632353","0.0-6.0-1.19","3525061","co38752","norming","","","","","","",""
"8887.260000003153","","","post_mooney1_questions","survey-likert","141","641243","0.0-6.0-2.19","3525061","co38752","norming","","","{""curiosity"":2,""confidence"":1}","[0,1]","../img/tt/1181tt.jpg","",""
"4182.404999999562","","","recognition","survey-text","142","645428","0.0-6.0-3.19","3525061","co38752","norming","","","{""guess"":""mens""}","","../img/tt/1181tt.jpg","",""
"null","../img/gs/1181gs.jpg","null","reveal","image-keyboard-response","143","647434","0.0-6.0-4.19","3525061","co38752","norming","","","","","","",""
"null","../img/tt/1181tt.jpg","null","mooney2","image-keyboard-response","144","649437","0.0-6.0-5.19","3525061","co38752","norming","","","","","","",""
"3675.839999999851","","","post_reveal_questions","survey-likert","145","653115","0.0-6.0-6.19","3525061","co38752","norming","","","{""aha"":2}","[0]","../img/tt/1181tt.jpg","",""
"null","<div style=""font-size:60px;""> </div>","null","fixation","html-keyboard-response","146","653317","0.0-6.0-0.20","3525061","co38752","norming","","","","","","",""
"null","../img/tt/319tt.jpg","null","mooney1","image-keyboard-response","147","656320","0.0-6.0-1.20","3525061","co38752","norming","","","","","","",""
"8025.119999998482","","","post_mooney1_questions","survey-likert","148","664348","0.0-6.0-2.20","3525061","co38752","norming","","","{""curiosity"":3,""confidence"":1}","[0,1]","../img/tt/319tt.jpg","",""
"2734.0349999977043","","","recognition","survey-text","149","667082","0.0-6.0-3.20","3525061","co38752","norming","","","{""guess"":""ezel""}","","../img/tt/319tt.jpg","",""
"null","../img/gs/319gs.jpg","null","reveal","image-keyboard-response","150","669083","0.0-6.0-4.20","3525061","co38752","norming","","","","","","",""
"null","../img/tt/319tt.jpg","null","mooney2","image-keyboard-response","151","671092","0.0-6.0-5.20","3525061","co38752","norming","","","","","","",""
"7515.319999998668","","","post_reveal_questions","survey-likert","152","678609","0.0-6.0-6.20","3525061","co38752","norming","","","{""aha"":2}","[0]","../img/tt/319tt.jpg","",""
"null","<div style=""font-size:60px;""> </div>","null","fixation","html-keyboard-response","153","678810","0.0-6.0-0.21","3525061","co38752","norming","","","","","","",""
"null","../img/tt/1186tt.jpg","null","mooney1","image-keyboard-response","154","681822","0.0-6.0-1.21","3525061","co38752","norming","","","","","","",""
"5881.120000001858","","","post_mooney1_questions","survey-likert","155","687706","0.0-6.0-2.21","3525061","co38752","norming","","","{""curiosity"":4,""confidence"":3}","[0,1]","../img/tt/1186tt.jpg","",""
"2709.8299999997253","","","recognition","survey-text","156","690417","0.0-6.0-3.21","3525061","co38752","norming","","","{""guess"":""mens""}","","../img/tt/1186tt.jpg","",""
"null","../img/gs/1186gs.jpg","null","reveal","image-keyboard-response","157","692425","0.0-6.0-4.21","3525061","co38752","norming","","","","","","",""
"null","../img/tt/1186tt.jpg","null","mooney2","image-keyboard-response","158","694428","0.0-6.0-5.21","3525061","co38752","norming","","","","","","",""
"3754.9400000025053","","","post_reveal_questions","survey-likert","159","698186","0.0-6.0-6.21","3525061","co38752","norming","","","{""aha"":3}","[0]","../img/tt/1186tt.jpg","",""
"null","<div style=""font-size:60px;""> </div>","null","fixation","html-keyboard-response","160","698387","0.0-6.0-0.22","3525061","co38752","norming","","","","","","",""
"null","../img/tt/019tt.jpg","null","mooney1","image-keyboard-response","161","701398","0.0-6.0-1.22","3525061","co38752","norming","","","","","","",""
"5777.26000000257","","","post_mooney1_questions","survey-likert","162","707178","0.0-6.0-2.22","3525061","co38752","norming","","","{""curiosity"":0,""confidence"":0}","[0,1]","../img/tt/019tt.jpg","",""
"1461.7699999980396","","","recognition","survey-text","163","708641","0.0-6.0-3.22","3525061","co38752","norming","","","{""guess"":""""}","","../img/tt/019tt.jpg","",""
"null","../img/gs/019gs.jpg","null","reveal","image-keyboard-response","164","710648","0.0-6.0-4.22","3525061","co38752","norming","","","","","","",""
"null","../img/tt/019tt.jpg","null","mooney2","image-keyboard-response","165","712659","0.0-6.0-5.22","3525061","co38752","norming","","","","","","",""
"4596.0200000008335","","","post_reveal_questions","survey-likert","166","717258","0.0-6.0-6.22","3525061","co38752","norming","","","{""aha"":0}","[0]","../img/tt/019tt.jpg","",""
"null","<div style=""font-size:60px;""> </div>","null","fixation","html-keyboard-response","167","717465","0.0-6.0-0.23","3525061","co38752","norming","","","","","","",""
"null","../img/tt/053tt.jpg","null","mooney1","image-keyboard-response","168","720471","0.0-6.0-1.23","3525061","co38752","norming","","","","","","",""
"5719.389999998384","","","post_mooney1_questions","survey-likert","169","726194","0.0-6.0-2.23","3525061","co38752","norming","","","{""curiosity"":0,""confidence"":0}","[0,1]","../img/tt/053tt.jpg","",""
"1478.14500000095","","","recognition","survey-text","170","727674","0.0-6.0-3.23","3525061","co38752","norming","","","{""guess"":""""}","","../img/tt/053tt.jpg","",""
"null","../img/gs/053gs.jpg","null","reveal","image-keyboard-response","171","729680","0.0-6.0-4.23","3525061","co38752","norming","","","","","","",""
"null","../img/tt/053tt.jpg","null","mooney2","image-keyboard-response","172","731682","0.0-6.0-5.23","3525061","co38752","norming","","","","","","",""
"9254.544999999809","","","post_reveal_questions","survey-likert","173","740938","0.0-6.0-6.23","3525061","co38752","norming","","","{""aha"":1}","[0]","../img/tt/053tt.jpg","",""
"null","<div style=""font-size:60px;""> </div>","null","fixation","html-keyboard-response","174","741145","0.0-6.0-0.24","3525061","co38752","norming","","","","","","",""
"null","../img/tt/406tt.jpg","null","mooney1","image-keyboard-response","175","744157","0.0-6.0-1.24","3525061","co38752","norming","","","","","","",""
"4498.845000001835","","","post_mooney1_questions","survey-likert","176","748658","0.0-6.0-2.24","3525061","co38752","norming","","","{""curiosity"":4,""confidence"":4}","[0,1]","../img/tt/406tt.jpg","",""
"3886.180000001332","","","recognition","survey-text","177","752546","0.0-6.0-3.24","3525061","co38752","norming","","","{""guess"":""vleermuis""}","","../img/tt/406tt.jpg","",""
"null","../img/gs/406gs.jpg","null","reveal","image-keyboard-response","178","754551","0.0-6.0-4.24","3525061","co38752","norming","","","","","","",""
"null","../img/tt/406tt.jpg","null","mooney2","image-keyboard-response","179","756557","0.0-6.0-5.24","3525061","co38752","norming","","","","","","",""
"5730.3900000007125","","","post_reveal_questions","survey-likert","180","762290","0.0-6.0-6.24","3525061","co38752","norming","","","{""aha"":2}","[0]","../img/tt/406tt.jpg","",""
"null","<div style=""font-size:60px;""> </div>","null","fixation","html-keyboard-response","181","762496","0.0-6.0-0.25","3525061","co38752","norming","","","","","","",""
"null","../img/tt/1146tt.jpg","null","mooney1","image-keyboard-response","182","765500","0.0-6.0-1.25","3525061","co38752","norming","","","","","","",""
"4891.74500000081","","","post_mooney1_questions","survey-likert","183","770394","0.0-6.0-2.25","3525061","co38752","norming","","","{""curiosity"":4,""confidence"":2}","[0,1]","../img/tt/1146tt.jpg","",""
"5926.220000001136","","","recognition","survey-text","184","776322","0.0-6.0-3.25","3525061","co38752","norming","","","{""guess"":""skieër""}","","../img/tt/1146tt.jpg","",""
"null","../img/gs/1146gs.jpg","null","reveal","image-keyboard-response","185","778324","0.0-6.0-4.25","3525061","co38752","norming","","","","","","",""
"null","../img/tt/1146tt.jpg","null","mooney2","image-keyboard-response","186","780326","0.0-6.0-5.25","3525061","co38752","norming","","","","","","",""
"3553.744999997434","","","post_reveal_questions","survey-likert","187","783882","0.0-6.0-6.25","3525061","co38752","norming","","","{""aha"":5}","[0]","../img/tt/1146tt.jpg","",""
"null","<div style=""font-size:60px;""> </div>","null","fixation","html-keyboard-response","188","784091","0.0-6.0-0.26","3525061","co38752","norming","","","","","","",""
"null","../img/tt/1366tt.jpg","null","mooney1","image-keyboard-response","189","787099","0.0-6.0-1.26","3525061","co38752","norming","","","","","","",""
"5743.519999999902","","","post_mooney1_questions","survey-likert","190","792846","0.0-6.0-2.26","3525061","co38752","norming","","","{""curiosity"":4,""confidence"":2}","[0,1]","../img/tt/1366tt.jpg","",""
"2750.355000000098","","","recognition","survey-text","191","795598","0.0-6.0-3.26","3525061","co38752","norming","","","{""guess"":""kat""}","","../img/tt/1366tt.jpg","",""
"null","../img/gs/1366gs.jpg","null","reveal","image-keyboard-response","192","797602","0.0-6.0-4.26","3525061","co38752","norming","","","","","","",""
"null","../img/tt/1366tt.jpg","null","mooney2","image-keyboard-response","193","799605","0.0-6.0-5.26","3525061","co38752","norming","","","","","","",""
"4031.489999997546","","","post_reveal_questions","survey-likert","194","803637","0.0-6.0-6.26","3525061","co38752","norming","","","{""aha"":4}","[0]","../img/tt/1366tt.jpg","",""
"null","<div style=""font-size:60px;""> </div>","null","fixation","html-keyboard-response","195","803839","0.0-6.0-0.27","3525061","co38752","norming","","","","","","",""
"null","../img/tt/124tt.jpg","null","mooney1","image-keyboard-response","196","806851","0.0-6.0-1.27","3525061","co38752","norming","","","","","","",""
"8624.01999999932","","","post_mooney1_questions","survey-likert","197","815478","0.0-6.0-2.27","3525061","co38752","norming","","","{""curiosity"":3,""confidence"":4}","[0,1]","../img/tt/124tt.jpg","",""
"5382.129999998026","","","recognition","survey-text","198","820861","0.0-6.0-3.27","3525061","co38752","norming","","","{""guess"":""gorilla""}","","../img/tt/124tt.jpg","",""
"null","../img/gs/124gs.jpg","null","reveal","image-keyboard-response","199","822867","0.0-6.0-4.27","3525061","co38752","norming","","","","","","",""
"null","../img/tt/124tt.jpg","null","mooney2","image-keyboard-response","200","824870","0.0-6.0-5.27","3525061","co38752","norming","","","","","","",""
"3005.649999999092","","","post_reveal_questions","survey-likert","201","827878","0.0-6.0-6.27","3525061","co38752","norming","","","{""aha"":1}","[0]","../img/tt/124tt.jpg","",""
"null","<div style=""font-size:60px;""> </div>","null","fixation","html-keyboard-response","202","828079","0.0-6.0-0.28","3525061","co38752","norming","","","","","","",""
"null","../img/tt/055tt.jpg","null","mooney1","image-keyboard-response","203","831086","0.0-6.0-1.28","3525061","co38752","norming","","","","","","",""
"6885.259999999078","","","post_mooney1_questions","survey-likert","204","837974","0.0-6.0-2.28","3525061","co38752","norming","","","{""curiosity"":4,""confidence"":3}","[0,1]","../img/tt/055tt.jpg","",""
"2037.9649999995017","","","recognition","survey-text","205","840014","0.0-6.0-3.28","3525061","co38752","norming","","","{""guess"":""koe""}","","../img/tt/055tt.jpg","",""
"null","../img/gs/055gs.jpg","null","reveal","image-keyboard-response","206","842021","0.0-6.0-4.28","3525061","co38752","norming","","","","","","",""
"null","../img/tt/055tt.jpg","null","mooney2","image-keyboard-response","207","844026","0.0-6.0-5.28","3525061","co38752","norming","","","","","","",""
"4377.160000000033","","","post_reveal_questions","survey-likert","208","848407","0.0-6.0-6.28","3525061","co38752","norming","","","{""aha"":4}","[0]","../img/tt/055tt.jpg","",""
"null","<div style=""font-size:60px;""> </div>","null","fixation","html-keyboard-response","209","848609","0.0-6.0-0.29","3525061","co38752","norming","","","","","","",""
"null","../img/tt/1250tt.jpg","null","mooney1","image-keyboard-response","210","851616","0.0-6.0-1.29","3525061","co38752","norming","","","","","","",""
"7949.3399999991525","","","post_mooney1_questions","survey-likert","211","859566","0.0-6.0-2.29","3525061","co38752","norming","","","{""curiosity"":4,""confidence"":2}","[0,1]","../img/tt/1250tt.jpg","",""
"2590.3699999980163","","","recognition","survey-text","212","862158","0.0-6.0-3.29","3525061","co38752","norming","","","{""guess"":""vogel""}","","../img/tt/1250tt.jpg","",""
"null","../img/gs/1250gs.jpg","null","reveal","image-keyboard-response","213","864161","0.0-6.0-4.29","3525061","co38752","norming","","","","","","",""
"null","../img/tt/1250tt.jpg","null","mooney2","image-keyboard-response","214","866164","0.0-6.0-5.29","3525061","co38752","norming","","","","","","",""
"3679.974999999162","","","post_reveal_questions","survey-likert","215","869846","0.0-6.0-6.29","3525061","co38752","norming","","","{""aha"":2}","[0]","../img/tt/1250tt.jpg","",""
"null","<div style=""font-size:60px;""> </div>","null","fixation","html-keyboard-response","216","870048","0.0-6.0-0.30","3525061","co38752","norming","","","","","","",""
"null","../img/tt/416tt.jpg","null","mooney1","image-keyboard-response","217","873052","0.0-6.0-1.30","3525061","co38752","norming","","","","","","",""
"5470.950000002747","","","post_mooney1_questions","survey-likert","218","878526","0.0-6.0-2.30","3525061","co38752","norming","","","{""curiosity"":2,""confidence"":5}","[0,1]","../img/tt/416tt.jpg","",""
"2725.474999999278","","","recognition","survey-text","219","881254","0.0-6.0-3.30","3525061","co38752","norming","","","{""guess"":""struisvogel""}","","../img/tt/416tt.jpg","",""
"null","../img/gs/416gs.jpg","null","reveal","image-keyboard-response","220","883259","0.0-6.0-4.30","3525061","co38752","norming","","","","","","",""
"null","../img/tt/416tt.jpg","null","mooney2","image-keyboard-response","221","885263","0.0-6.0-5.30","3525061","co38752","norming","","","","","","",""
"2806.410000000964","","","post_reveal_questions","survey-likert","222","888070","0.0-6.0-6.30","3525061","co38752","norming","","","{""aha"":2}","[0]","../img/tt/416tt.jpg","",""
"null","<div style=""font-size:60px;""> </div>","null","fixation","html-keyboard-response","223","888274","0.0-6.0-0.31","3525061","co38752","norming","","","","","","",""
"null","../img/tt/1127tt.jpg","null","mooney1","image-keyboard-response","224","891281","0.0-6.0-1.31","3525061","co38752","norming","","","","","","",""
"16836.02500000049","","","post_mooney1_questions","survey-likert","225","908119","0.0-6.0-2.31","3525061","co38752","norming","","","{""curiosity"":3,""confidence"":3}","[0,1]","../img/tt/1127tt.jpg","",""
"2838.3499999982305","","","recognition","survey-text","226","910959","0.0-6.0-3.31","3525061","co38752","norming","","","{""guess"":""mens""}","","../img/tt/1127tt.jpg","",""
"null","../img/gs/1127gs.jpg","null","reveal","image-keyboard-response","227","912966","0.0-6.0-4.31","3525061","co38752","norming","","","","","","",""
"null","../img/tt/1127tt.jpg","null","mooney2","image-keyboard-response","228","914968","0.0-6.0-5.31","3525061","co38752","norming","","","","","","",""
"3140.5999999988126","","","post_reveal_questions","survey-likert","229","918111","0.0-6.0-6.31","3525061","co38752","norming","","","{""aha"":4}","[0]","../img/tt/1127tt.jpg","",""
"null","<div style=""font-size:60px;""> </div>","null","fixation","html-keyboard-response","230","918316","0.0-6.0-0.32","3525061","co38752","norming","","","","","","",""
"null","../img/tt/078tt.jpg","null","mooney1","image-keyboard-response","231","921323","0.0-6.0-1.32","3525061","co38752","norming","","","","","","",""
"6097.474999998696","","","post_mooney1_questions","survey-likert","232","927423","0.0-6.0-2.32","3525061","co38752","norming","","","{""curiosity"":1,""confidence"":1}","[0,1]","../img/tt/078tt.jpg","",""
"2830.210000000079","","","recognition","survey-text","233","930255","0.0-6.0-3.32","3525061","co38752","norming","","","{""guess"":""vlinder""}","","../img/tt/078tt.jpg","",""
"null","../img/gs/078gs.jpg","null","reveal","image-keyboard-response","234","932263","0.0-6.0-4.32","3525061","co38752","norming","","","","","","",""
"null","../img/tt/078tt.jpg","null","mooney2","image-keyboard-response","235","934268","0.0-6.0-5.32","3525061","co38752","norming","","","","","","",""
"4736.525000000256","","","post_reveal_questions","survey-likert","236","939007","0.0-6.0-6.32","3525061","co38752","norming","","","{""aha"":3}","[0]","../img/tt/078tt.jpg","",""
"null","<div style=""font-size:60px;""> </div>","null","fixation","html-keyboard-response","237","939210","0.0-6.0-0.33","3525061","co38752","norming","","","","","","",""
"null","../img/tt/084tt.jpg","null","mooney1","image-keyboard-response","238","942217","0.0-6.0-1.33","3525061","co38752","norming","","","","","","",""
"11346.94500000123","","","post_mooney1_questions","survey-likert","239","953567","0.0-6.0-2.33","3525061","co38752","norming","","","{""curiosity"":3,""confidence"":4}","[0,1]","../img/tt/084tt.jpg","",""
"5086.499999997555","","","recognition","survey-text","240","958655","0.0-6.0-3.33","3525061","co38752","norming","","","{""guess"":""watervogel""}","","../img/tt/084tt.jpg","",""
"null","../img/gs/084gs.jpg","null","reveal","image-keyboard-response","241","960663","0.0-6.0-4.33","3525061","co38752","norming","","","","","","",""
"null","../img/tt/084tt.jpg","null","mooney2","image-keyboard-response","242","962665","0.0-6.0-5.33","3525061","co38752","norming","","","","","","",""
"5091.46999999939","","","post_reveal_questions","survey-likert","243","967754","0.0-6.0-6.33","3525061","co38752","norming","","","{""aha"":4}","[0]","../img/tt/084tt.jpg","",""
"null","<div style=""font-size:60px;""> </div>","null","fixation","html-keyboard-response","244","967959","0.0-6.0-0.34","3525061","co38752","norming","","","","","","",""
"null","../img/tt/1027tt.jpg","null","mooney1","image-keyboard-response","245","970963","0.0-6.0-1.34","3525061","co38752","norming","","","","","","",""
"4508.190000000526","","","post_mooney1_questions","survey-likert","246","975474","0.0-6.0-2.34","3525061","co38752","norming","","","{""curiosity"":2,""confidence"":5}","[0,1]","../img/tt/1027tt.jpg","",""
"1749.970000000787","","","recognition","survey-text","247","977226","0.0-6.0-3.34","3525061","co38752","norming","","","{""guess"":""koe""}","","../img/tt/1027tt.jpg","",""
"null","../img/gs/1027gs.jpg","null","reveal","image-keyboard-response","248","979235","0.0-6.0-4.34","3525061","co38752","norming","","","","","","",""
"null","../img/tt/1027tt.jpg","null","mooney2","image-keyboard-response","249","981238","0.0-6.0-5.34","3525061","co38752","norming","","","","","","",""
"3593.2299999985844","","","post_reveal_questions","survey-likert","250","984834","0.0-6.0-6.34","3525061","co38752","norming","","","{""aha"":2}","[0]","../img/tt/1027tt.jpg","",""
"null","<div style=""font-size:60px;""> </div>","null","fixation","html-keyboard-response","251","985042","0.0-6.0-0.35","3525061","co38752","norming","","","","","","",""
"null","../img/tt/036tt.jpg","null","mooney1","image-keyboard-response","252","988046","0.0-6.0-1.35","3525061","co38752","norming","","","","","","",""
"12960.66499999864","","","post_mooney1_questions","survey-likert","253","1001010","0.0-6.0-2.35","3525061","co38752","norming","","","{""curiosity"":4,""confidence"":1}","[0,1]","../img/tt/036tt.jpg","",""
"14565.879999998258","","","recognition","survey-text","254","1015578","0.0-6.0-3.35","3525061","co38752","norming","","","{""guess"":""zenuwcelnetwerk""}","","../img/tt/036tt.jpg","",""
"null","../img/gs/036gs.jpg","null","reveal","image-keyboard-response","255","1017588","0.0-6.0-4.35","3525061","co38752","norming","","","","","","",""
"null","../img/tt/036tt.jpg","null","mooney2","image-keyboard-response","256","1019593","0.0-6.0-5.35","3525061","co38752","norming","","","","","","",""
"3191.4250000008615","","","post_reveal_questions","survey-likert","257","1022786","0.0-6.0-6.35","3525061","co38752","norming","","","{""aha"":4}","[0]","../img/tt/036tt.jpg","",""
"null","<div style=""font-size:60px;""> </div>","null","fixation","html-keyboard-response","258","1022987","0.0-6.0-0.36","3525061","co38752","norming","","","","","","",""
"null","../img/tt/1096tt.jpg","null","mooney1","image-keyboard-response","259","1025993","0.0-6.0-1.36","3525061","co38752","norming","","","","","","",""
"7150.965000000782","","","post_mooney1_questions","survey-likert","260","1033148","0.0-6.0-2.36","3525061","co38752","norming","","","{""curiosity"":2,""confidence"":1}","[0,1]","../img/tt/1096tt.jpg","",""
"3646.2949999987613","","","recognition","survey-text","261","1036796","0.0-6.0-3.36","3525061","co38752","norming","","","{""guess"":""piano""}","","../img/tt/1096tt.jpg","",""
"null","../img/gs/1096gs.jpg","null","reveal","image-keyboard-response","262","1038805","0.0-6.0-4.36","3525061","co38752","norming","","","","","","",""
"null","../img/tt/1096tt.jpg","null","mooney2","image-keyboard-response","263","1040813","0.0-6.0-5.36","3525061","co38752","norming","","","","","","",""
"4029.2049999989104","","","post_reveal_questions","survey-likert","264","1044844","0.0-6.0-6.36","3525061","co38752","norming","","","{""aha"":4}","[0]","../img/tt/1096tt.jpg","",""
"null","<div style=""font-size:60px;""> </div>","null","fixation","html-keyboard-response","265","1045045","0.0-6.0-0.37","3525061","co38752","norming","","","","","","",""
"null","../img/tt/1040tt.jpg","null","mooney1","image-keyboard-response","266","1048051","0.0-6.0-1.37","3525061","co38752","norming","","","","","","",""
"7190.54499999783","","","post_mooney1_questions","survey-likert","267","1055244","0.0-6.0-2.37","3525061","co38752","norming","","","{""curiosity"":3,""confidence"":2}","[0,1]","../img/tt/1040tt.jpg","",""
"11694.250000000466","","","recognition","survey-text","268","1066940","0.0-6.0-3.37","3525061","co38752","norming","","","{""guess"":""mens buiging""}","","../img/tt/1040tt.jpg","",""
"null","../img/gs/1040gs.jpg","null","reveal","image-keyboard-response","269","1068948","0.0-6.0-4.37","3525061","co38752","norming","","","","","","",""
"null","../img/tt/1040tt.jpg","null","mooney2","image-keyboard-response","270","1070959","0.0-6.0-5.37","3525061","co38752","norming","","","","","","",""
"6802.630000001984","","","post_reveal_questions","survey-likert","271","1077764","0.0-6.0-6.37","3525061","co38752","norming","","","{""aha"":4}","[0]","../img/tt/1040tt.jpg","",""
"null","<div style=""font-size:60px;""> </div>","null","fixation","html-keyboard-response","272","1077968","0.0-6.0-0.38","3525061","co38752","norming","","","","","","",""
"null","../img/tt/1268tt.jpg","null","mooney1","image-keyboard-response","273","1080973","0.0-6.0-1.38","3525061","co38752","norming","","","","","","",""
"6892.220000001602","","","post_mooney1_questions","survey-likert","274","1087868","0.0-6.0-2.38","3525061","co38752","norming","","","{""curiosity"":2,""confidence"":0}","[0,1]","../img/tt/1268tt.jpg","",""
"830.2000000001863","","","recognition","survey-text","275","1088700","0.0-6.0-3.38","3525061","co38752","norming","","","{""guess"":""""}","","../img/tt/1268tt.jpg","",""
"null","../img/gs/1268gs.jpg","null","reveal","image-keyboard-response","276","1090713","0.0-6.0-4.38","3525061","co38752","norming","","","","","","",""
"null","../img/tt/1268tt.jpg","null","mooney2","image-keyboard-response","277","1092715","0.0-6.0-5.38","3525061","co38752","norming","","","","","","",""
"2010.4299999985378","","","post_reveal_questions","survey-likert","278","1094728","0.0-6.0-6.38","3525061","co38752","norming","","","{""aha"":4}","[0]","../img/tt/1268tt.jpg","",""
"null","<div style=""font-size:60px;""> </div>","null","fixation","html-keyboard-response","279","1094930","0.0-6.0-0.39","3525061","co38752","norming","","","","","","",""
"null","../img/tt/603tt.jpg","null","mooney1","image-keyboard-response","280","1097937","0.0-6.0-1.39","3525061","co38752","norming","","","","","","",""
"7748.370000001043","","","post_mooney1_questions","survey-likert","281","1105689","0.0-6.0-2.39","3525061","co38752","norming","","","{""curiosity"":4,""confidence"":2}","[0,1]","../img/tt/603tt.jpg","",""
"4326.154999998864","","","recognition","survey-text","282","1110016","0.0-6.0-3.39","3525061","co38752","norming","","","{""guess"":""kat""}","","../img/tt/603tt.jpg","",""
"null","../img/gs/603gs.jpg","null","reveal","image-keyboard-response","283","1112023","0.0-6.0-4.39","3525061","co38752","norming","","","","","","",""
"null","../img/tt/603tt.jpg","null","mooney2","image-keyboard-response","284","1114031","0.0-6.0-5.39","3525061","co38752","norming","","","","","","",""
"2870.984999997774","","","post_reveal_questions","survey-likert","285","1116904","0.0-6.0-6.39","3525061","co38752","norming","","","{""aha"":4}","[0]","../img/tt/603tt.jpg","",""
"null","<div style=""font-size:60px;""> </div>","null","fixation","html-keyboard-response","286","1117106","0.0-6.0-0.40","3525061","co38752","norming","","","","","","",""
"null","../img/tt/108tt.jpg","null","mooney1","image-keyboard-response","287","1120114","0.0-6.0-1.40","3525061","co38752","norming","","","","","","",""
"7419.08500000136","","","post_mooney1_questions","survey-likert","288","1127536","0.0-6.0-2.40","3525061","co38752","norming","","","{""curiosity"":4,""confidence"":1}","[0,1]","../img/tt/108tt.jpg","",""
"3302.449999999255","","","recognition","survey-text","289","1130840","0.0-6.0-3.40","3525061","co38752","norming","","","{""guess"":""vogelbekdier""}","","../img/tt/108tt.jpg","",""
"null","../img/gs/108gs.jpg","null","reveal","image-keyboard-response","290","1132851","0.0-6.0-4.40","3525061","co38752","norming","","","","","","",""
"null","../img/tt/108tt.jpg","null","mooney2","image-keyboard-response","291","1134863","0.0-6.0-5.40","3525061","co38752","norming","","","","","","",""
"4774.935000001453","","","post_reveal_questions","survey-likert","292","1139640","0.0-6.0-6.40","3525061","co38752","norming","","","{""aha"":4}","[0]","../img/tt/108tt.jpg","",""
"null","<div style=""font-size:60px;""> </div>","null","fixation","html-keyboard-response","293","1139842","0.0-6.0-0.41","3525061","co38752","norming","","","","","","",""
"null","../img/tt/1211tt.jpg","null","mooney1","image-keyboard-response","294","1142850","0.0-6.0-1.41","3525061","co38752","norming","","","","","","",""
"8043.949999999255","","","post_mooney1_questions","survey-likert","295","1150892","0.0-6.0-2.41","3525061","co38752","norming","","","{""curiosity"":4,""confidence"":3}","[0,1]","../img/tt/1211tt.jpg","",""
"4846.150000001304","","","recognition","survey-text","296","1155740","0.0-6.0-3.41","3525061","co38752","norming","","","{""guess"":""mensen boot""}","","../img/tt/1211tt.jpg","",""
"null","../img/gs/1211gs.jpg","null","reveal","image-keyboard-response","297","1157745","0.0-6.0-4.41","3525061","co38752","norming","","","","","","",""
"null","../img/tt/1211tt.jpg","null","mooney2","image-keyboard-response","298","1159753","0.0-6.0-5.41","3525061","co38752","norming","","","","","","",""
"8152.510000000009","","","post_reveal_questions","survey-likert","299","1167908","0.0-6.0-6.41","3525061","co38752","norming","","","{""aha"":4}","[0]","../img/tt/1211tt.jpg","",""
"null","<div style=""font-size:60px;""> </div>","null","fixation","html-keyboard-response","300","1168109","0.0-6.0-0.42","3525061","co38752","norming","","","","","","",""
"null","../img/tt/440tt.jpg","null","mooney1","image-keyboard-response","301","1171120","0.0-6.0-1.42","3525061","co38752","norming","","","","","","",""
"8240.724999999627","","","post_mooney1_questions","survey-likert","302","1179364","0.0-6.0-2.42","3525061","co38752","norming","","","{""curiosity"":1,""confidence"":0}","[0,1]","../img/tt/440tt.jpg","",""
"1014.0399999981746","","","recognition","survey-text","303","1180380","0.0-6.0-3.42","3525061","co38752","norming","","","{""guess"":""""}","","../img/tt/440tt.jpg","",""
"null","../img/gs/440gs.jpg","null","reveal","image-keyboard-response","304","1182383","0.0-6.0-4.42","3525061","co38752","norming","","","","","","",""
"null","../img/tt/440tt.jpg","null","mooney2","image-keyboard-response","305","1184386","0.0-6.0-5.42","3525061","co38752","norming","","","","","","",""
"3332.1950000026263","","","post_reveal_questions","survey-likert","306","1187724","0.0-6.0-6.42","3525061","co38752","norming","","","{""aha"":3}","[0]","../img/tt/440tt.jpg","",""
"null","<div style=""font-size:60px;""> </div>","null","fixation","html-keyboard-response","307","1187925","0.0-6.0-0.43","3525061","co38752","norming","","","","","","",""
"null","../img/tt/481tt.jpg","null","mooney1","image-keyboard-response","308","1190935","0.0-6.0-1.43","3525061","co38752","norming","","","","","","",""
"6114.1600000008475","","","post_mooney1_questions","survey-likert","309","1197052","0.0-6.0-2.43","3525061","co38752","norming","","","{""curiosity"":3,""confidence"":1}","[0,1]","../img/tt/481tt.jpg","",""
"2005.9800000016112","","","recognition","survey-text","310","1199060","0.0-6.0-3.43","3525061","co38752","norming","","","{""guess"":""hond""}","","../img/tt/481tt.jpg","",""
"null","../img/gs/481gs.jpg","null","reveal","image-keyboard-response","311","1201070","0.0-6.0-4.43","3525061","co38752","norming","","","","","","",""
"null","../img/tt/481tt.jpg","null","mooney2","image-keyboard-response","312","1203077","0.0-6.0-5.43","3525061","co38752","norming","","","","","","",""
"6387.4800000011455","","","post_reveal_questions","survey-likert","313","1209468","0.0-6.0-6.43","3525061","co38752","norming","","","{""aha"":3}","[0]","../img/tt/481tt.jpg","",""
"null","<div style=""font-size:60px;""> </div>","null","fixation","html-keyboard-response","314","1209669","0.0-6.0-0.44","3525061","co38752","norming","","","","","","",""
"null","../img/tt/329tt.jpg","null","mooney1","image-keyboard-response","315","1212684","0.0-6.0-1.44","3525061","co38752","norming","","","","","","",""
"3450.3199999998324","","","post_mooney1_questions","survey-likert","316","1216138","0.0-6.0-2.44","3525061","co38752","norming","","","{""curiosity"":0,""confidence"":0}","[0,1]","../img/tt/329tt.jpg","",""
"1022.0450000015553","","","recognition","survey-text","317","1217161","0.0-6.0-3.44","3525061","co38752","norming","","","{""guess"":""""}","","../img/tt/329tt.jpg","",""
"null","../img/gs/329gs.jpg","null","reveal","image-keyboard-response","318","1219170","0.0-6.0-4.44","3525061","co38752","norming","","","","","","",""
"null","../img/tt/329tt.jpg","null","mooney2","image-keyboard-response","319","1221177","0.0-6.0-5.44","3525061","co38752","norming","","","","","","",""
"3389.204999999376","","","post_reveal_questions","survey-likert","320","1224569","0.0-6.0-6.44","3525061","co38752","norming","","","{""aha"":3}","[0]","../img/tt/329tt.jpg","",""
"null","<div style=""font-size:60px;""> </div>","null","fixation","html-keyboard-response","321","1224771","0.0-6.0-0.45","3525061","co38752","norming","","","","","","",""
"null","../img/tt/140tt.jpg","null","mooney1","image-keyboard-response","322","1227773","0.0-6.0-1.45","3525061","co38752","norming","","","","","","",""
"4866.055000002263","","","post_mooney1_questions","survey-likert","323","1232641","0.0-6.0-2.45","3525061","co38752","norming","","","{""curiosity"":0,""confidence"":0}","[0,1]","../img/tt/140tt.jpg","",""
"654.2599999993108","","","recognition","survey-text","324","1233297","0.0-6.0-3.45","3525061","co38752","norming","","","{""guess"":""""}","","../img/tt/140tt.jpg","",""
"null","../img/gs/140gs.jpg","null","reveal","image-keyboard-response","325","1235308","0.0-6.0-4.45","3525061","co38752","norming","","","","","","",""
"null","../img/tt/140tt.jpg","null","mooney2","image-keyboard-response","326","1237317","0.0-6.0-5.45","3525061","co38752","norming","","","","","","",""
"2249.770000002114","","","post_reveal_questions","survey-likert","327","1239569","0.0-6.0-6.45","3525061","co38752","norming","","","{""aha"":3}","[0]","../img/tt/140tt.jpg","",""
"null","<div style=""font-size:60px;""> </div>","null","fixation","html-keyboard-response","328","1239770","0.0-6.0-0.46","3525061","co38752","norming","","","","","","",""
"null","../img/tt/1290tt.jpg","null","mooney1","image-keyboard-response","329","1242780","0.0-6.0-1.46","3525061","co38752","norming","","","","","","",""
"7323.400000001304","","","post_mooney1_questions","survey-likert","330","1250106","0.0-6.0-2.46","3525061","co38752","norming","","","{""curiosity"":4,""confidence"":1}","[0,1]","../img/tt/1290tt.jpg","",""
"2997.8849999969825","","","recognition","survey-text","331","1253105","0.0-6.0-3.46","3525061","co38752","norming","","","{""guess"":""zak""}","","../img/tt/1290tt.jpg","",""
"null","../img/gs/1290gs.jpg","null","reveal","image-keyboard-response","332","1255110","0.0-6.0-4.46","3525061","co38752","norming","","","","","","",""
"null","../img/tt/1290tt.jpg","null","mooney2","image-keyboard-response","333","1257119","0.0-6.0-5.46","3525061","co38752","norming","","","","","","",""
"6063.675000001211","","","post_reveal_questions","survey-likert","334","1263185","0.0-6.0-6.46","3525061","co38752","norming","","","{""aha"":4}","[0]","../img/tt/1290tt.jpg","",""
"null","<div style=""font-size:60px;""> </div>","null","fixation","html-keyboard-response","335","1263387","0.0-6.0-0.47","3525061","co38752","norming","","","","","","",""
"null","../img/tt/118tt.jpg","null","mooney1","image-keyboard-response","336","1266392","0.0-6.0-1.47","3525061","co38752","norming","","","","","","",""
"3200.5299999981653","","","post_mooney1_questions","survey-likert","337","1269593","0.0-6.0-2.47","3525061","co38752","norming","","","{""curiosity"":0,""confidence"":0}","[0,1]","../img/tt/118tt.jpg","",""
"894.0250000013039","","","recognition","survey-text","338","1270490","0.0-6.0-3.47","3525061","co38752","norming","","","{""guess"":""""}","","../img/tt/118tt.jpg","",""
"null","../img/gs/118gs.jpg","null","reveal","image-keyboard-response","339","1272497","0.0-6.0-4.47","3525061","co38752","norming","","","","","","",""
"null","../img/tt/118tt.jpg","null","mooney2","image-keyboard-response","340","1274507","0.0-6.0-5.47","3525061","co38752","norming","","","","","","",""
"2140.4999999976717","","","post_reveal_questions","survey-likert","341","1276650","0.0-6.0-6.47","3525061","co38752","norming","","","{""aha"":0}","[0]","../img/tt/118tt.jpg","",""
"null","<div style=""font-size:60px;""> </div>","null","fixation","html-keyboard-response","342","1276857","0.0-6.0-0.48","3525061","co38752","norming","","","","","","",""
"null","../img/tt/032tt.jpg","null","mooney1","image-keyboard-response","343","1279868","0.0-6.0-1.48","3525061","co38752","norming","","","","","","",""
"4266.93499999959","","","post_mooney1_questions","survey-likert","344","1284138","0.0-6.0-2.48","3525061","co38752","norming","","","{""curiosity"":4,""confidence"":1}","[0,1]","../img/tt/032tt.jpg","",""
"661.9549999996088","","","recognition","survey-text","345","1284802","0.0-6.0-3.48","3525061","co38752","norming","","","{""guess"":""""}","","../img/tt/032tt.jpg","",""
"null","../img/gs/032gs.jpg","null","reveal","image-keyboard-response","346","1286807","0.0-6.0-4.48","3525061","co38752","norming","","","","","","",""
"null","../img/tt/032tt.jpg","null","mooney2","image-keyboard-response","347","1288817","0.0-6.0-5.48","3525061","co38752","norming","","","","","","",""
"3373.5350000024773","","","post_reveal_questions","survey-likert","348","1292194","0.0-6.0-6.48","3525061","co38752","norming","","","{""aha"":1}","[0]","../img/tt/032tt.jpg","",""
"null","<div style=""font-size:60px;""> </div>","null","fixation","html-keyboard-response","349","1292396","0.0-6.0-0.49","3525061","co38752","norming","","","","","","",""
"null","../img/tt/163tt.jpg","null","mooney1","image-keyboard-response","350","1295404","0.0-6.0-1.49","3525061","co38752","norming","","","","","","",""
"6842.385000000009","","","post_mooney1_questions","survey-likert","351","1302250","0.0-6.0-2.49","3525061","co38752","norming","","","{""curiosity"":1,""confidence"":0}","[0,1]","../img/tt/163tt.jpg","",""
"1477.719999998808","","","recognition","survey-text","352","1303730","0.0-6.0-3.49","3525061","co38752","norming","","","{""guess"":""""}","","../img/tt/163tt.jpg","",""
"null","../img/gs/163gs.jpg","null","reveal","image-keyboard-response","353","1305737","0.0-6.0-4.49","3525061","co38752","norming","","","","","","",""
"null","../img/tt/163tt.jpg","null","mooney2","image-keyboard-response","354","1307739","0.0-6.0-5.49","3525061","co38752","norming","","","","","","",""
"2235.899999999907","","","post_reveal_questions","survey-likert","355","1309978","0.0-6.0-6.49","3525061","co38752","norming","","","{""aha"":1}","[0]","../img/tt/163tt.jpg","",""
"null","<div style=""font-size:60px;""> </div>","null","fixation","html-keyboard-response","356","1310183","0.0-6.0-0.50","3525061","co38752","norming","","","","","","",""
"null","../img/tt/315tt.jpg","null","mooney1","image-keyboard-response","357","1313187","0.0-6.0-1.50","3525061","co38752","norming","","","","","","",""
"4722.985000000335","","","post_mooney1_questions","survey-likert","358","1317914","0.0-6.0-2.50","3525061","co38752","norming","","","{""curiosity"":1,""confidence"":0}","[0,1]","../img/tt/315tt.jpg","",""
"581.4649999993853","","","recognition","survey-text","359","1318497","0.0-6.0-3.50","3525061","co38752","norming","","","{""guess"":""""}","","../img/tt/315tt.jpg","",""
"null","../img/gs/315gs.jpg","null","reveal","image-keyboard-response","360","1320499","0.0-6.0-4.50","3525061","co38752","norming","","","","","","",""
"null","../img/tt/315tt.jpg","null","mooney2","image-keyboard-response","361","1322510","0.0-6.0-5.50","3525061","co38752","norming","","","","","","",""
"4457.425000000512","","","post_reveal_questions","survey-likert","362","1326970","0.0-6.0-6.50","3525061","co38752","norming","","","{""aha"":3}","[0]","../img/tt/315tt.jpg","",""
"null","<div style=""font-size:60px;""> </div>","null","fixation","html-keyboard-response","363","1327171","0.0-6.0-0.51","3525061","co38752","norming","","","","","","",""
"null","../img/tt/1044tt.jpg","null","mooney1","image-keyboard-response","364","1330180","0.0-6.0-1.51","3525061","co38752","norming","","","","","","",""
"5668.935000001453","","","post_mooney1_questions","survey-likert","365","1335844","0.0-6.0-2.51","3525061","co38752","norming","","","{""curiosity"":2,""confidence"":1}","[0,1]","../img/tt/1044tt.jpg","",""
"3310.184999998659","","","recognition","survey-text","366","1339156","0.0-6.0-3.51","3525061","co38752","norming","","","{""guess"":""giraffe""}","","../img/tt/1044tt.jpg","",""
"null","../img/gs/1044gs.jpg","null","reveal","image-keyboard-response","367","1341161","0.0-6.0-4.51","3525061","co38752","norming","","","","","","",""
"null","../img/tt/1044tt.jpg","null","mooney2","image-keyboard-response","368","1343165","0.0-6.0-5.51","3525061","co38752","norming","","","","","","",""
"4012.3599999970756","","","post_reveal_questions","survey-likert","369","1347180","0.0-6.0-6.51","3525061","co38752","norming","","","{""aha"":3}","[0]","../img/tt/1044tt.jpg","",""
"null","<div style=""font-size:60px;""> </div>","null","fixation","html-keyboard-response","370","1347381","0.0-6.0-0.52","3525061","co38752","norming","","","","","","",""
"null","../img/tt/060tt.jpg","null","mooney1","image-keyboard-response","371","1350391","0.0-6.0-1.52","3525061","co38752","norming","","","","","","",""
"8185.740000000689","","","post_mooney1_questions","survey-likert","372","1358580","0.0-6.0-2.52","3525061","co38752","norming","","","{""curiosity"":0,""confidence"":0}","[0,1]","../img/tt/060tt.jpg","",""
"1397.9049999981653","","","recognition","survey-text","373","1359980","0.0-6.0-3.52","3525061","co38752","norming","","","{""guess"":""""}","","../img/tt/060tt.jpg","",""
"null","../img/gs/060gs.jpg","null","reveal","image-keyboard-response","374","1361983","0.0-6.0-4.52","3525061","co38752","norming","","","","","","",""
"null","../img/tt/060tt.jpg","null","mooney2","image-keyboard-response","375","1363987","0.0-6.0-5.52","3525061","co38752","norming","","","","","","",""
"2086.650000001071","","","post_reveal_questions","survey-likert","376","1366076","0.0-6.0-6.52","3525061","co38752","norming","","","{""aha"":0}","[0]","../img/tt/060tt.jpg","",""
"null","<div style=""font-size:60px;""> </div>","null","fixation","html-keyboard-response","377","1366278","0.0-6.0-0.53","3525061","co38752","norming","","","","","","",""
"null","../img/tt/040tt.jpg","null","mooney1","image-keyboard-response","378","1369290","0.0-6.0-1.53","3525061","co38752","norming","","","","","","",""
"8414.919999999227","","","post_mooney1_questions","survey-likert","379","1377708","0.0-6.0-2.53","3525061","co38752","norming","","","{""curiosity"":3,""confidence"":4}","[0,1]","../img/tt/040tt.jpg","",""
"1846.045000002021","","","recognition","survey-text","380","1379556","0.0-6.0-3.53","3525061","co38752","norming","","","{""guess"":""aap""}","","../img/tt/040tt.jpg","",""
"null","../img/gs/040gs.jpg","null","reveal","image-keyboard-response","381","1381562","0.0-6.0-4.53","3525061","co38752","norming","","","","","","",""
"null","../img/tt/040tt.jpg","null","mooney2","image-keyboard-response","382","1383568","0.0-6.0-5.53","3525061","co38752","norming","","","","","","",""
"4034.4799999985844","","","post_reveal_questions","survey-likert","383","1387604","0.0-6.0-6.53","3525061","co38752","norming","","","{""aha"":2}","[0]","../img/tt/040tt.jpg","",""
"null","<div style=""font-size:60px;""> </div>","null","fixation","html-keyboard-response","384","1387805","0.0-6.0-0.54","3525061","co38752","norming","","","","","","",""
"null","../img/tt/412tt.jpg","null","mooney1","image-keyboard-response","385","1390813","0.0-6.0-1.54","3525061","co38752","norming","","","","","","",""
"4307.600000000093","","","post_mooney1_questions","survey-likert","386","1395124","0.0-6.0-2.54","3525061","co38752","norming","","","{""curiosity"":0,""confidence"":0}","[0,1]","../img/tt/412tt.jpg","",""
"542.0149999991991","","","recognition","survey-text","387","1395671","0.0-6.0-3.54","3525061","co38752","norming","","","{""guess"":""""}","","../img/tt/412tt.jpg","",""
"null","../img/gs/412gs.jpg","null","reveal","image-keyboard-response","388","1397680","0.0-6.0-4.54","3525061","co38752","norming","","","","","","",""
"null","../img/tt/412tt.jpg","null","mooney2","image-keyboard-response","389","1399686","0.0-6.0-5.54","3525061","co38752","norming","","","","","","",""
"1648.2199999990407","","","post_reveal_questions","survey-likert","390","1401335","0.0-6.0-6.54","3525061","co38752","norming","","","{""aha"":0}","[0]","../img/tt/412tt.jpg","",""
"null","<div style=""font-size:60px;""> </div>","null","fixation","html-keyboard-response","391","1401537","0.0-6.0-0.55","3525061","co38752","norming","","","","","","",""
"null","../img/tt/1107tt.jpg","null","mooney1","image-keyboard-response","392","1404547","0.0-6.0-1.55","3525061","co38752","norming","","","","","","",""
"6121.204999999376","","","post_mooney1_questions","survey-likert","393","1410672","0.0-6.0-2.55","3525061","co38752","norming","","","{""curiosity"":3,""confidence"":0}","[0,1]","../img/tt/1107tt.jpg","",""
"1053.869999999646","","","recognition","survey-text","394","1411727","0.0-6.0-3.55","3525061","co38752","norming","","","{""guess"":""""}","","../img/tt/1107tt.jpg","",""
"null","../img/gs/1107gs.jpg","null","reveal","image-keyboard-response","395","1413737","0.0-6.0-4.55","3525061","co38752","norming","","","","","","",""
"null","../img/tt/1107tt.jpg","null","mooney2","image-keyboard-response","396","1415742","0.0-6.0-5.55","3525061","co38752","norming","","","","","","",""
"3030.784999998985","","","post_reveal_questions","survey-likert","397","1418775","0.0-6.0-6.55","3525061","co38752","norming","","","{""aha"":2}","[0]","../img/tt/1107tt.jpg","",""
"null","<div style=""font-size:60px;""> </div>","null","fixation","html-keyboard-response","398","1418977","0.0-6.0-0.56","3525061","co38752","norming","","","","","","",""
"null","../img/tt/1049tt.jpg","null","mooney1","image-keyboard-response","399","1421980","0.0-6.0-1.56","3525061","co38752","norming","","","","","","",""
"8864.540000002366","","","post_mooney1_questions","survey-likert","400","1430848","0.0-6.0-2.56","3525061","co38752","norming","","","{""curiosity"":3,""confidence"":2}","[0,1]","../img/tt/1049tt.jpg","",""
"3838.2050000000745","","","recognition","survey-text","401","1434687","0.0-6.0-3.56","3525061","co38752","norming","","","{""guess"":""kittens""}","","../img/tt/1049tt.jpg","",""
"null","../img/gs/1049gs.jpg","null","reveal","image-keyboard-response","402","1436692","0.0-6.0-4.56","3525061","co38752","norming","","","","","","",""
"null","../img/tt/1049tt.jpg","null","mooney2","image-keyboard-response","403","1438694","0.0-6.0-5.56","3525061","co38752","norming","","","","","","",""
"7006.3849999969825","","","post_reveal_questions","survey-likert","404","1445703","0.0-6.0-6.56","3525061","co38752","norming","","","{""aha"":3}","[0]","../img/tt/1049tt.jpg","",""
"null","<div style=""font-size:60px;""> </div>","null","fixation","html-keyboard-response","405","1445913","0.0-6.0-0.57","3525061","co38752","norming","","","","","","",""
"null","../img/tt/111tt.jpg","null","mooney1","image-keyboard-response","406","1448918","0.0-6.0-1.57","3525061","co38752","norming","","","","","","",""
"6150.450000000885","","","post_mooney1_questions","survey-likert","407","1455072","0.0-6.0-2.57","3525061","co38752","norming","","","{""curiosity"":1,""confidence"":6}","[0,1]","../img/tt/111tt.jpg","",""
"3629.950000002049","","","recognition","survey-text","408","1458706","0.0-6.0-3.57","3525061","co38752","norming","","","{""guess"":""douchekop""}","","../img/tt/111tt.jpg","",""
"null","../img/gs/111gs.jpg","null","reveal","image-keyboard-response","409","1460716","0.0-6.0-4.57","3525061","co38752","norming","","","","","","",""
"null","../img/tt/111tt.jpg","null","mooney2","image-keyboard-response","410","1462723","0.0-6.0-5.57","3525061","co38752","norming","","","","","","",""
"5292.550000001909","","","post_reveal_questions","survey-likert","411","1468018","0.0-6.0-6.57","3525061","co38752","norming","","","{""aha"":0}","[0]","../img/tt/111tt.jpg","",""
"null","<div style=""font-size:60px;""> </div>","null","fixation","html-keyboard-response","412","1468220","0.0-6.0-0.58","3525061","co38752","norming","","","","","","",""
"null","../img/tt/1278tt.jpg","null","mooney1","image-keyboard-response","413","1471226","0.0-6.0-1.58","3525061","co38752","norming","","","","","","",""
"3188.254999997327","","","post_mooney1_questions","survey-likert","414","1474418","0.0-6.0-2.58","3525061","co38752","norming","","","{""curiosity"":0,""confidence"":0}","[0,1]","../img/tt/1278tt.jpg","",""
"998.1549999974668","","","recognition","survey-text","415","1475418","0.0-6.0-3.58","3525061","co38752","norming","","","{""guess"":""""}","","../img/tt/1278tt.jpg","",""
"null","../img/gs/1278gs.jpg","null","reveal","image-keyboard-response","416","1477425","0.0-6.0-4.58","3525061","co38752","norming","","","","","","",""
"null","../img/tt/1278tt.jpg","null","mooney2","image-keyboard-response","417","1479437","0.0-6.0-5.58","3525061","co38752","norming","","","","","","",""
"1994.6149999997579","","","post_reveal_questions","survey-likert","418","1481434","0.0-6.0-6.58","3525061","co38752","norming","","","{""aha"":2}","[0]","../img/tt/1278tt.jpg","",""
"null","<div style=""font-size:60px;""> </div>","null","fixation","html-keyboard-response","419","1481636","0.0-6.0-0.59","3525061","co38752","norming","","","","","","",""
"null","../img/tt/300tt.jpg","null","mooney1","image-keyboard-response","420","1484641","0.0-6.0-1.59","3525061","co38752","norming","","","","","","",""
"8093.85499999905","","","post_mooney1_questions","survey-likert","421","1492738","0.0-6.0-2.59","3525061","co38752","norming","","","{""curiosity"":3,""confidence"":1}","[0,1]","../img/tt/300tt.jpg","",""
"5342.029999999795","","","recognition","survey-text","422","1498082","0.0-6.0-3.59","3525061","co38752","norming","","","{""guess"":""gehurkt persoon""}","","../img/tt/300tt.jpg","",""
"null","../img/gs/300gs.jpg","null","reveal","image-keyboard-response","423","1500089","0.0-6.0-4.59","3525061","co38752","norming","","","","","","",""
"null","../img/tt/300tt.jpg","null","mooney2","image-keyboard-response","424","1502091","0.0-6.0-5.59","3525061","co38752","norming","","","","","","",""
"2396.5849999985658","","","post_reveal_questions","survey-likert","425","1504490","0.0-6.0-6.59","3525061","co38752","norming","","","{""aha"":4}","[0]","../img/tt/300tt.jpg","",""
"null","<div style=""font-size:60px;""> </div>","null","fixation","html-keyboard-response","426","1504691","0.0-6.0-0.60","3525061","co38752","norming","","","","","","",""
"null","../img/tt/010tt.jpg","null","mooney1","image-keyboard-response","427","1507695","0.0-6.0-1.60","3525061","co38752","norming","","","","","","",""
"5473.425000000047","","","post_mooney1_questions","survey-likert","428","1513170","0.0-6.0-2.60","3525061","co38752","norming","","","{""curiosity"":4,""confidence"":0}","[0,1]","../img/tt/010tt.jpg","",""
"4037.820000001462","","","recognition","survey-text","429","1517207","0.0-6.0-3.60","3525061","co38752","norming","","","{""guess"":""""}","","../img/tt/010tt.jpg","",""
"null","../img/gs/010gs.jpg","null","reveal","image-keyboard-response","430","1519213","0.0-6.0-4.60","3525061","co38752","norming","","","","","","",""
"null","../img/tt/010tt.jpg","null","mooney2","image-keyboard-response","431","1521224","0.0-6.0-5.60","3525061","co38752","norming","","","","","","",""
"3236.0799999986775","","","post_reveal_questions","survey-likert","432","1524463","0.0-6.0-6.60","3525061","co38752","norming","","","{""aha"":1}","[0]","../img/tt/010tt.jpg","",""
"null","<div style=""font-size:60px;""> </div>","null","fixation","html-keyboard-response","433","1524664","0.0-6.0-0.61","3525061","co38752","norming","","","","","","",""
"null","../img/tt/020tt.jpg","null","mooney1","image-keyboard-response","434","1527671","0.0-6.0-1.61","3525061","co38752","norming","","","","","","",""
"3926.5649999978486","","","post_mooney1_questions","survey-likert","435","1531599","0.0-6.0-2.61","3525061","co38752","norming","","","{""curiosity"":0,""confidence"":0}","[0,1]","../img/tt/020tt.jpg","",""
"670.1549999997951","","","recognition","survey-text","436","1532271","0.0-6.0-3.61","3525061","co38752","norming","","","{""guess"":""""}","","../img/tt/020tt.jpg","",""
"null","../img/gs/020gs.jpg","null","reveal","image-keyboard-response","437","1534281","0.0-6.0-4.61","3525061","co38752","norming","","","","","","",""
"null","../img/tt/020tt.jpg","null","mooney2","image-keyboard-response","438","1536292","0.0-6.0-5.61","3525061","co38752","norming","","","","","","",""
"2263.724999997299","","","post_reveal_questions","survey-likert","439","1538559","0.0-6.0-6.61","3525061","co38752","norming","","","{""aha"":0}","[0]","../img/tt/020tt.jpg","",""
"null","<div style=""font-size:60px;""> </div>","null","fixation","html-keyboard-response","440","1538761","0.0-6.0-0.62","3525061","co38752","norming","","","","","","",""
"null","../img/tt/076tt.jpg","null","mooney1","image-keyboard-response","441","1541773","0.0-6.0-1.62","3525061","co38752","norming","","","","","","",""
"8614.40500000026","","","post_mooney1_questions","survey-likert","442","1550391","0.0-6.0-2.62","3525061","co38752","norming","","","{""curiosity"":3,""confidence"":5}","[0,1]","../img/tt/076tt.jpg","",""
"2110.134999998845","","","recognition","survey-text","443","1552503","0.0-6.0-3.62","3525061","co38752","norming","","","{""guess"":""skeelers""}","","../img/tt/076tt.jpg","",""
"null","../img/gs/076gs.jpg","null","reveal","image-keyboard-response","444","1554507","0.0-6.0-4.62","3525061","co38752","norming","","","","","","",""
"null","../img/tt/076tt.jpg","null","mooney2","image-keyboard-response","445","1556513","0.0-6.0-5.62","3525061","co38752","norming","","","","","","",""
"5483.860000000335","","","post_reveal_questions","survey-likert","446","1561999","0.0-6.0-6.62","3525061","co38752","norming","","","{""aha"":2}","[0]","../img/tt/076tt.jpg","",""
"null","<div style=""font-size:60px;""> </div>","null","fixation","html-keyboard-response","447","1562200","0.0-6.0-0.63","3525061","co38752","norming","","","","","","",""
"null","../img/tt/080tt.jpg","null","mooney1","image-keyboard-response","448","1565206","0.0-6.0-1.63","3525061","co38752","norming","","","","","","",""
"6916.925000001211","","","post_mooney1_questions","survey-likert","449","1572127","0.0-6.0-2.63","3525061","co38752","norming","","","{""curiosity"":3,""confidence"":1}","[0,1]","../img/tt/080tt.jpg","",""
"6942.040000001667","","","recognition","survey-text","450","1579074","0.0-6.0-3.63","3525061","co38752","norming","","","{""guess"":""paddenstoel""}","","../img/tt/080tt.jpg","",""
"null","../img/gs/080gs.jpg","null","reveal","image-keyboard-response","451","1581081","0.0-6.0-4.63","3525061","co38752","norming","","","","","","",""
"null","../img/tt/080tt.jpg","null","mooney2","image-keyboard-response","452","1583083","0.0-6.0-5.63","3525061","co38752","norming","","","","","","",""
"3388.5799999989104","","","post_reveal_questions","survey-likert","453","1586474","0.0-6.0-6.63","3525061","co38752","norming","","","{""aha"":4}","[0]","../img/tt/080tt.jpg","",""
"null","<div style=""font-size:60px;""> </div>","null","fixation","html-keyboard-response","454","1586676","0.0-6.0-0.64","3525061","co38752","norming","","","","","","",""
"null","../img/tt/1224tt.jpg","null","mooney1","image-keyboard-response","455","1589682","0.0-6.0-1.64","3525061","co38752","norming","","","","","","",""
"8111.659999998752","","","post_mooney1_questions","survey-likert","456","1597794","0.0-6.0-2.64","3525061","co38752","norming","","","{""curiosity"":4,""confidence"":4}","[0,1]","../img/tt/1224tt.jpg","",""
"4373.954999999143","","","recognition","survey-text","457","1602170","0.0-6.0-3.64","3525061","co38752","norming","","","{""guess"":""persoon vechtsport""}","","../img/tt/1224tt.jpg","",""
"null","../img/gs/1224gs.jpg","null","reveal","image-keyboard-response","458","1604174","0.0-6.0-4.64","3525061","co38752","norming","","","","","","",""
"null","../img/tt/1224tt.jpg","null","mooney2","image-keyboard-response","459","1606185","0.0-6.0-5.64","3525061","co38752","norming","","","","","","",""
"2237.980000001611","","","post_reveal_questions","survey-likert","460","1608426","0.0-6.0-6.64","3525061","co38752","norming","","","{""aha"":4}","[0]","../img/tt/1224tt.jpg","",""
"null","<div style=""font-size:60px;""> </div>","null","fixation","html-keyboard-response","461","1608627","0.0-6.0-0.65","3525061","co38752","norming","","","","","","",""
"null","../img/tt/1048tt.jpg","null","mooney1","image-keyboard-response","462","1611634","0.0-6.0-1.65","3525061","co38752","norming","","","","","","",""
"6278.905000002822","","","post_mooney1_questions","survey-likert","463","1617914","0.0-6.0-2.65","3525061","co38752","norming","","","{""curiosity"":1,""confidence"":1}","[0,1]","../img/tt/1048tt.jpg","",""
"1614.1000000024214","","","recognition","survey-text","464","1619530","0.0-6.0-3.65","3525061","co38752","norming","","","{""guess"":""boo,""}","","../img/tt/1048tt.jpg","",""
"null","../img/gs/1048gs.jpg","null","reveal","image-keyboard-response","465","1621534","0.0-6.0-4.65","3525061","co38752","norming","","","","","","",""
"null","../img/tt/1048tt.jpg","null","mooney2","image-keyboard-response","466","1623536","0.0-6.0-5.65","3525061","co38752","norming","","","","","","",""
"7327.209999999497","","","post_reveal_questions","survey-likert","467","1630866","0.0-6.0-6.65","3525061","co38752","norming","","","{""aha"":2}","[0]","../img/tt/1048tt.jpg","",""
"null","<div style=""font-size:60px;""> </div>","null","fixation","html-keyboard-response","468","1631068","0.0-6.0-0.66","3525061","co38752","norming","","","","","","",""
"null","../img/tt/1226tt.jpg","null","mooney1","image-keyboard-response","469","1634077","0.0-6.0-1.66","3525061","co38752","norming","","","","","","",""
"3473.4250000000466","","","post_mooney1_questions","survey-likert","470","1637553","0.0-6.0-2.66","3525061","co38752","norming","","","{""curiosity"":0,""confidence"":0}","[0,1]","../img/tt/1226tt.jpg","",""
"773.8649999990594","","","recognition","survey-text","471","1638329","0.0-6.0-3.66","3525061","co38752","norming","","","{""guess"":""""}","","../img/tt/1226tt.jpg","",""
"null","../img/gs/1226gs.jpg","null","reveal","image-keyboard-response","472","1640330","0.0-6.0-4.66","3525061","co38752","norming","","","","","","",""
"null","../img/tt/1226tt.jpg","null","mooney2","image-keyboard-response","473","1642331","0.0-6.0-5.66","3525061","co38752","norming","","","","","","",""
"2780.295000000391","","","post_reveal_questions","survey-likert","474","1645113","0.0-6.0-6.66","3525061","co38752","norming","","","{""aha"":1}","[0]","../img/tt/1226tt.jpg","",""
"null","<div style=""font-size:60px;""> </div>","null","fixation","html-keyboard-response","475","1645315","0.0-6.0-0.67","3525061","co38752","norming","","","","","","",""
"null","../img/tt/1122tt.jpg","null","mooney1","image-keyboard-response","476","1648319","0.0-6.0-1.67","3525061","co38752","norming","","","","","","",""
"6302.494999999879","","","post_mooney1_questions","survey-likert","477","1654625","0.0-6.0-2.67","3525061","co38752","norming","","","{""curiosity"":2,""confidence"":4}","[0,1]","../img/tt/1122tt.jpg","",""
"10373.804999999236","","","recognition","survey-text","478","1665001","0.0-6.0-3.67","3525061","co38752","norming","","","{""guess"":""haven boten""}","","../img/tt/1122tt.jpg","",""
"null","../img/gs/1122gs.jpg","null","reveal","image-keyboard-response","479","1667007","0.0-6.0-4.67","3525061","co38752","norming","","","","","","",""
"null","../img/tt/1122tt.jpg","null","mooney2","image-keyboard-response","480","1669017","0.0-6.0-5.67","3525061","co38752","norming","","","","","","",""
"6780.954999998445","","","post_reveal_questions","survey-likert","481","1675801","0.0-6.0-6.67","3525061","co38752","norming","","","{""aha"":3}","[0]","../img/tt/1122tt.jpg","",""
"null","<div style=""font-size:60px;""> </div>","null","fixation","html-keyboard-response","482","1676002","0.0-6.0-0.68","3525061","co38752","norming","","","","","","",""
"null","../img/tt/105tt.jpg","null","mooney1","image-keyboard-response","483","1679009","0.0-6.0-1.68","3525061","co38752","norming","","","","","","",""
"6411.879999999655","","","post_mooney1_questions","survey-likert","484","1685425","0.0-6.0-2.68","3525061","co38752","norming","","","{""curiosity"":4,""confidence"":0}","[0,1]","../img/tt/105tt.jpg","",""
"11782.119999999879","","","recognition","survey-text","485","1697211","0.0-6.0-3.68","3525061","co38752","norming","","","{""guess"":""domino""}","","../img/tt/105tt.jpg","",""
"null","../img/gs/105gs.jpg","null","reveal","image-keyboard-response","486","1699220","0.0-6.0-4.68","3525061","co38752","norming","","","","","","",""
"null","../img/tt/105tt.jpg","null","mooney2","image-keyboard-response","487","1701228","0.0-6.0-5.68","3525061","co38752","norming","","","","","","",""
"1924.7499999983702","","","post_reveal_questions","survey-likert","488","1703155","0.0-6.0-6.68","3525061","co38752","norming","","","{""aha"":2}","[0]","../img/tt/105tt.jpg","",""
"null","<div style=""font-size:60px;""> </div>","null","fixation","html-keyboard-response","489","1703357","0.0-6.0-0.69","3525061","co38752","norming","","","","","","",""
"null","../img/tt/1128tt.jpg","null","mooney1","image-keyboard-response","490","1706365","0.0-6.0-1.69","3525061","co38752","norming","","","","","","",""
"6587.175000000512","","","post_mooney1_questions","survey-likert","491","1712955","0.0-6.0-2.69","3525061","co38752","norming","","","{""curiosity"":2,""confidence"":1}","[0,1]","../img/tt/1128tt.jpg","",""
"4078.1200000019744","","","recognition","survey-text","492","1717035","0.0-6.0-3.69","3525061","co38752","norming","","","{""guess"":""gehurkt persoon""}","","../img/tt/1128tt.jpg","",""
"null","../img/gs/1128gs.jpg","null","reveal","image-keyboard-response","493","1719037","0.0-6.0-4.69","3525061","co38752","norming","","","","","","",""
"null","../img/tt/1128tt.jpg","null","mooney2","image-keyboard-response","494","1721040","0.0-6.0-5.69","3525061","co38752","norming","","","","","","",""
"7952.60999999661","","","post_reveal_questions","survey-likert","495","1728996","0.0-6.0-6.69","3525061","co38752","norming","","","{""aha"":4}","[0]","../img/tt/1128tt.jpg","",""
"null","<div style=""font-size:60px;""> </div>","null","fixation","html-keyboard-response","496","1729199","0.0-6.0-0.70","3525061","co38752","norming","","","","","","",""
"null","../img/tt/079tt.jpg","null","mooney1","image-keyboard-response","497","1732209","0.0-6.0-1.70","3525061","co38752","norming","","","","","","",""
"4006.6499999992084","","","post_mooney1_questions","survey-likert","498","1736220","0.0-6.0-2.70","3525061","co38752","norming","","","{""curiosity"":2,""confidence"":4}","[0,1]","../img/tt/079tt.jpg","",""
"1725.8900000015274","","","recognition","survey-text","499","1737947","0.0-6.0-3.70","3525061","co38752","norming","","","{""guess"":""beer""}","","../img/tt/079tt.jpg","",""
"null","../img/gs/079gs.jpg","null","reveal","image-keyboard-response","500","1739951","0.0-6.0-4.70","3525061","co38752","norming","","","","","","",""
"null","../img/tt/079tt.jpg","null","mooney2","image-keyboard-response","501","1741953","0.0-6.0-5.70","3525061","co38752","norming","","","","","","",""
"1734.8349999992643","","","post_reveal_questions","survey-likert","502","1743691","0.0-6.0-6.70","3525061","co38752","norming","","","{""aha"":1}","[0]","../img/tt/079tt.jpg","",""
"null","<div style=""font-size:60px;""> </div>","null","fixation","html-keyboard-response","503","1743892","0.0-6.0-0.71","3525061","co38752","norming","","","","","","",""
"null","../img/tt/1159tt.jpg","null","mooney1","image-keyboard-response","504","1746896","0.0-6.0-1.71","3525061","co38752","norming","","","","","","",""
"10639.680000000168","","","post_mooney1_questions","survey-likert","505","1757532","0.0-6.0-2.71","3525061","co38752","norming","","","{""curiosity"":4,""confidence"":3}","[0,1]","../img/tt/1159tt.jpg","",""
"4381.799999999348","","","recognition","survey-text","506","1761916","0.0-6.0-3.71","3525061","co38752","norming","","","{""guess"":""persoon schoffel""}","","../img/tt/1159tt.jpg","",""
"null","../img/gs/1159gs.jpg","null","reveal","image-keyboard-response","507","1763917","0.0-6.0-4.71","3525061","co38752","norming","","","","","","",""
"null","../img/tt/1159tt.jpg","null","mooney2","image-keyboard-response","508","1765928","0.0-6.0-5.71","3525061","co38752","norming","","","","","","",""
"4840.710000000428","","","post_reveal_questions","survey-likert","509","1770772","0.0-6.0-6.71","3525061","co38752","norming","","","{""aha"":4}","[0]","../img/tt/1159tt.jpg","",""
"null","<div style=""font-size:60px;""> </div>","null","fixation","html-keyboard-response","510","1770973","0.0-6.0-0.72","3525061","co38752","norming","","","","","","",""
"null","../img/tt/1262tt.jpg","null","mooney1","image-keyboard-response","511","1773982","0.0-6.0-1.72","3525061","co38752","norming","","","","","","",""
"5474.319999997504","","","post_mooney1_questions","survey-likert","512","1779460","0.0-6.0-2.72","3525061","co38752","norming","","","{""curiosity"":2,""confidence"":1}","[0,1]","../img/tt/1262tt.jpg","",""
"1598.114999996964","","","recognition","survey-text","513","1781060","0.0-6.0-3.72","3525061","co38752","norming","","","{""guess"":""kooi""}","","../img/tt/1262tt.jpg","",""
"null","../img/gs/1262gs.jpg","null","reveal","image-keyboard-response","514","1783061","0.0-6.0-4.72","3525061","co38752","norming","","","","","","",""
"null","../img/tt/1262tt.jpg","null","mooney2","image-keyboard-response","515","1785066","0.0-6.0-5.72","3525061","co38752","norming","","","","","","",""
"2520.375","","","post_reveal_questions","survey-likert","516","1787588","0.0-6.0-6.72","3525061","co38752","norming","","","{""aha"":2}","[0]","../img/tt/1262tt.jpg","",""
"null","<div style=""font-size:60px;""> </div>","null","fixation","html-keyboard-response","517","1787789","0.0-6.0-0.73","3525061","co38752","norming","","","","","","",""
"null","../img/tt/112tt.jpg","null","mooney1","image-keyboard-response","518","1790797","0.0-6.0-1.73","3525061","co38752","norming","","","","","","",""
"5810.934999997728","","","post_mooney1_questions","survey-likert","519","1796612","0.0-6.0-2.73","3525061","co38752","norming","","","{""curiosity"":1,""confidence"":1}","[0,1]","../img/tt/112tt.jpg","",""
"2517.8850000009406","","","recognition","survey-text","520","1799132","0.0-6.0-3.73","3525061","co38752","norming","","","{""guess"":""""}","","../img/tt/112tt.jpg","",""
"null","../img/gs/112gs.jpg","null","reveal","image-keyboard-response","521","1801133","0.0-6.0-4.73","3525061","co38752","norming","","","","","","",""
"null","../img/tt/112tt.jpg","null","mooney2","image-keyboard-response","522","1803142","0.0-6.0-5.73","3525061","co38752","norming","","","","","","",""
"4370.865000000922","","","post_reveal_questions","survey-likert","523","1807516","0.0-6.0-6.73","3525061","co38752","norming","","","{""aha"":3}","[0]","../img/tt/112tt.jpg","",""
"null","<div style=""font-size:60px;""> </div>","null","fixation","html-keyboard-response","524","1807717","0.0-6.0-0.74","3525061","co38752","norming","","","","","","",""
"null","../img/tt/052tt.jpg","null","mooney1","image-keyboard-response","525","1810728","0.0-6.0-1.74","3525061","co38752","norming","","","","","","",""
"5592.079999998445","","","post_mooney1_questions","survey-likert","526","1816324","0.0-6.0-2.74","3525061","co38752","norming","","","{""curiosity"":2,""confidence"":1}","[0,1]","../img/tt/052tt.jpg","",""
"3982.0350000010803","","","recognition","survey-text","527","1820314","0.0-6.0-3.74","3525061","co38752","norming","","","{""guess"":""toaster""}","","../img/tt/052tt.jpg","",""
"null","../img/gs/052gs.jpg","null","reveal","image-keyboard-response","528","1822318","0.0-6.0-4.74","3525061","co38752","norming","","","","","","",""
"null","../img/tt/052tt.jpg","null","mooney2","image-keyboard-response","529","1824325","0.0-6.0-5.74","3525061","co38752","norming","","","","","","",""
"2585.0599999974947","","","post_reveal_questions","survey-likert","530","1826913","0.0-6.0-6.74","3525061","co38752","norming","","","{""aha"":1}","[0]","../img/tt/052tt.jpg","",""
"null","<div style=""font-size:60px;""> </div>","null","fixation","html-keyboard-response","531","1827115","0.0-6.0-0.75","3525061","co38752","norming","","","","","","",""
"null","../img/tt/091tt.jpg","null","mooney1","image-keyboard-response","532","1830119","0.0-6.0-1.75","3525061","co38752","norming","","","","","","",""
"7366.915000002366","","","post_mooney1_questions","survey-likert","533","1837490","0.0-6.0-2.75","3525061","co38752","norming","","","{""curiosity"":2,""confidence"":1}","[0,1]","../img/tt/091tt.jpg","",""
"4310.095000000671","","","recognition","survey-text","534","1841801","0.0-6.0-3.75","3525061","co38752","norming","","","{""guess"":""alligator""}","","../img/tt/091tt.jpg","",""
"null","../img/gs/091gs.jpg","null","reveal","image-keyboard-response","535","1843806","0.0-6.0-4.75","3525061","co38752","norming","","","","","","",""
"null","../img/tt/091tt.jpg","null","mooney2","image-keyboard-response","536","1845818","0.0-6.0-5.75","3525061","co38752","norming","","","","","","",""
"7964.784999999916","","","post_reveal_questions","survey-likert","537","1853785","0.0-6.0-6.75","3525061","co38752","norming","","","{""aha"":2}","[0]","../img/tt/091tt.jpg","",""
"null","<div style=""font-size:60px;""> </div>","null","fixation","html-keyboard-response","538","1853995","0.0-6.0-0.76","3525061","co38752","norming","","","","","","",""
"null","../img/tt/126tt.jpg","null","mooney1","image-keyboard-response","539","1857001","0.0-6.0-1.76","3525061","co38752","norming","","","","","","",""
"5095.075000001118","","","post_mooney1_questions","survey-likert","540","1862098","0.0-6.0-2.76","3525061","co38752","norming","","","{""curiosity"":1,""confidence"":2}","[0,1]","../img/tt/126tt.jpg","",""
"1517.7550000005867","","","recognition","survey-text","541","1863617","0.0-6.0-3.76","3525061","co38752","norming","","","{""guess"":""koe""}","","../img/tt/126tt.jpg","",""
"null","../img/gs/126gs.jpg","null","reveal","image-keyboard-response","542","1865620","0.0-6.0-4.76","3525061","co38752","norming","","","","","","",""
"null","../img/tt/126tt.jpg","null","mooney2","image-keyboard-response","543","1867621","0.0-6.0-5.76","3525061","co38752","norming","","","","","","",""
"3723.590000001481","","","post_reveal_questions","survey-likert","544","1871346","0.0-6.0-6.76","3525061","co38752","norming","","","{""aha"":3}","[0]","../img/tt/126tt.jpg","",""
"null","<div style=""font-size:60px;""> </div>","null","fixation","html-keyboard-response","545","1871547","0.0-6.0-0.77","3525061","co38752","norming","","","","","","",""
"null","../img/tt/1101tt.jpg","null","mooney1","image-keyboard-response","546","1874554","0.0-6.0-1.77","3525061","co38752","norming","","","","","","",""
"6099.534999997588","","","post_mooney1_questions","survey-likert","547","1880652","0.0-6.0-2.77","3525061","co38752","norming","","","{""curiosity"":2,""confidence"":4}","[0,1]","../img/tt/1101tt.jpg","",""
"8797.985000001034","","","recognition","survey-text","548","1889452","0.0-6.0-3.77","3525061","co38752","norming","","","{""guess"":""persoon snowboarder""}","","../img/tt/1101tt.jpg","",""
"null","../img/gs/1101gs.jpg","null","reveal","image-keyboard-response","549","1891459","0.0-6.0-4.77","3525061","co38752","norming","","","","","","",""
"null","../img/tt/1101tt.jpg","null","mooney2","image-keyboard-response","550","1893462","0.0-6.0-5.77","3525061","co38752","norming","","","","","","",""
"8130.499999999069","","","post_reveal_questions","survey-likert","551","1901596","0.0-6.0-6.77","3525061","co38752","norming","","","{""aha"":3}","[0]","../img/tt/1101tt.jpg","",""
"null","<div style=""font-size:60px;""> </div>","null","fixation","html-keyboard-response","552","1901798","0.0-6.0-0.78","3525061","co38752","norming","","","","","","",""
