"rt","stimulus","key_press","test_part","trial_type","trial_index","time_elapsed","internal_node_id","totalTime","subject","experiment_name","button_pressed","success","responses","question_order","currentStim","old","correct"
"10746.279999999388","Welcome to the experiment. This is an online experiment so please don't close the tab/window until we say goodbye.  Press any key to begin.","32","instructions","html-keyboard-response","0","10749","0.0-0.0","2894466","co38488","norming","","","","","","",""
"2586.185000000114","<div style='word-wrap: break-word; width: 900px'><h3>Please consider this information carefully before deciding whether to participate in this research</h3><ul style='text-align: left; font-size: .8em;'><li><b>Purpose of the research</b>: To examine how people process images.</li><li><b>What you will do in this research</b>:  Stimuli (images) will be presented on the computer and you will be asked different questions about them.</li><li><b>Time required</b>: Participation will take between 45 and 60 minutes to complete.</li><li><b>Risks</b>:  There are no anticipated risks associated with participating in this study. The effects of participating should be comparable to those you would experience from viewing a computer monitor for 30 minutes and using a mouse or keyboard.</li><li><b>Benefits</b>:  This study provides no benefits to you individually except for the credit. The study provides important information about the nature of perception and learning.</li><li><b>Confidentiality</b>:  Your participation in this study will remain confidential. No personally identifiable information will be associated with your data. Your de-identified data may be shared with other researchers and used in future projects.</li><li><b>Participation and withdrawal</b>:  Your participation in this study is completely voluntary and you may refuse to participate or you may choose to withdraw at any time without penalty.</li><li><b>How to contact the researchers</b>: If you have questions or concerns about your participation or payment, or want to request a summary of research findings, please contact Sander Van de Cruys (KU Leuven), at sander.vandecruys@kuleuven.be.</li></ul><p>The nature and purpose of this research have been sufficiently explained and I agree to participate in this study.  I understand that I am free to withdraw at any time without incurring any penalty.</p><p>Please consent by clicking the button below to continue. Otherwise, please exit the study at this time.</p></div>","","instructions","html-button-response","1","13338","0.0-1.0","2894466","co38488","norming","0","","","","","",""
"","","","instructions","fullscreen","2","16850","0.0-2.0","2894466","co38488","norming","","true","","","","",""
"25228.800000000774","","","sona","survey-html-form","3","41917","0.0-3.0","2894466","co38488","norming","","","[{""name"":""sonaid"",""value"":""38488""},{""name"":""debrief"",""value"":""yes""},{""name"":""datajoin"",""value"":""yes""}]","","","",""
"48075.80000000053","<div style='word-wrap: break-word; width: 900px'><h3>Instructions</h3><p>This experiment will have 3 parts. In the first part you will see a series of distorted images like the one below on the left. As you can see in the righthand image, the distorted images are derived from actual photographs. In what follows, you will <strong>briefly</strong> be presented with <strong>only</strong> the distorted image.</p> <div style='float: left; margin-right: 20px;'><img src='../img/018tt.jpg' height='250' width='250'></img></div><div style='float: right; margin-left: 20px;'><img src='../img/018gs.jpg' height='250' width='250'></img></div><p>Subsequently you will be asked a few questions about the image: One question on how <strong>curious</strong> you are about the solution and one on how <strong>confident</strong> you are that you know the solution.</p>Next, we ask you to make a guess on what is in the image. Note that it is OK to name just the <strong>basic level category</strong>. For example when you see a parrot in the image, 'parrot' will obviously be a correct answer but also correct is 'bird'. However, 'animal' will <strong>not</strong> be counted as a correct response. For the example above, 'rose' would be correct or 'flower', but not 'plant'. When soccer players are depicted, 'soccer', 'football', 'soccer players' will be correct, but not 'humans', 'outdoors', or 'sports'. You do not need to describe the image in full, just name the main object in it <strong>in one or two words</strong>. All images depict objects from one of the following broad level categories: animals, inanimate objects, plants, sports, vehicles, and food. Recognizing means knowing <strong>more</strong> than these broad labels for a given image. But we always encourage you to <strong>make a guess</strong> if you can. Note that you are allowed to use <strong>Dutch and English</strong> in your answers, whatever comes easiest for you.</p><p>Press any key to continue.</p></div>","174","instructions","html-keyboard-response","4","89994","0.0-4.0","2894466","co38488","norming","","","","","","",""
"108778.02499999962","<div style='word-wrap: break-word; width: 900px'><h3>Instructions</h3> <p>Next, the solution image will be revealed to you and you'll be asked to indicate how strong your <strong>aha-experience</strong> was after seeing the solution. This describes the positive feeling of the 'click' you sometimes experience, when the pieces of the 'puzzle' fall together and you suddenly have 'insight' in the image.</p><img src='aha.jpg' height='188' width='250'></img><p>Note that there are no right or wrong answers. We are interested in what <strong>you</strong> see in the image and how <strong>you</strong> feel about it.</p><p>Press any key to start the experiment.</p></div>","32","instructions","html-keyboard-response","5","198772","0.0-5.0","2894466","co38488","norming","","","","","","",""
"null","<div style=""font-size:60px;""> </div>","null","fixation","html-keyboard-response","6","198980","0.0-6.0-0.0","2894466","co38488","norming","","","","","","",""
"null","../img/tt/121tt.jpg","null","mooney1","image-keyboard-response","7","201987","0.0-6.0-1.0","2894466","co38488","norming","","","","","","",""
"18509.304999999586","","","post_mooney1_questions","survey-likert","8","220500","0.0-6.0-2.0","2894466","co38488","norming","","","{""curiosity"":4,""confidence"":0}","[0,1]","../img/tt/121tt.jpg","",""
"13877.22500000021","","","recognition","survey-text","9","234379","0.0-6.0-3.0","2894466","co38488","norming","","","{""guess"":""""}","","../img/tt/121tt.jpg","",""
"null","../img/gs/121gs.jpg","null","reveal","image-keyboard-response","10","236388","0.0-6.0-4.0","2894466","co38488","norming","","","","","","",""
"null","../img/tt/121tt.jpg","null","mooney2","image-keyboard-response","11","238392","0.0-6.0-5.0","2894466","co38488","norming","","","","","","",""
"7841.770000000921","","","post_reveal_questions","survey-likert","12","246235","0.0-6.0-6.0","2894466","co38488","norming","","","{""aha"":4}","[0]","../img/tt/121tt.jpg","",""
"null","<div style=""font-size:60px;""> </div>","null","fixation","html-keyboard-response","13","246443","0.0-6.0-0.1","2894466","co38488","norming","","","","","","",""
"null","../img/tt/416tt.jpg","null","mooney1","image-keyboard-response","14","249454","0.0-6.0-1.1","2894466","co38488","norming","","","","","","",""
"10547.435000000405","","","post_mooney1_questions","survey-likert","15","260008","0.0-6.0-2.1","2894466","co38488","norming","","","{""curiosity"":4,""confidence"":2}","[0,1]","../img/tt/416tt.jpg","",""
"7398.010000000824","","","recognition","survey-text","16","267408","0.0-6.0-3.1","2894466","co38488","norming","","","{""guess"":""chicken""}","","../img/tt/416tt.jpg","",""
"null","../img/gs/416gs.jpg","null","reveal","image-keyboard-response","17","269419","0.0-6.0-4.1","2894466","co38488","norming","","","","","","",""
"null","../img/tt/416tt.jpg","null","mooney2","image-keyboard-response","18","271429","0.0-6.0-5.1","2894466","co38488","norming","","","","","","",""
"7016.664999999222","","","post_reveal_questions","survey-likert","19","278448","0.0-6.0-6.1","2894466","co38488","norming","","","{""aha"":2}","[0]","../img/tt/416tt.jpg","",""
"null","<div style=""font-size:60px;""> </div>","null","fixation","html-keyboard-response","20","278655","0.0-6.0-0.2","2894466","co38488","norming","","","","","","",""
"null","../img/tt/524tt.jpg","null","mooney1","image-keyboard-response","21","281663","0.0-6.0-1.2","2894466","co38488","norming","","","","","","",""
"9526.590000001306","","","post_mooney1_questions","survey-likert","22","291193","0.0-6.0-2.2","2894466","co38488","norming","","","{""curiosity"":3,""confidence"":1}","[0,1]","../img/tt/524tt.jpg","",""
"3630.2799999993877","","","recognition","survey-text","23","294824","0.0-6.0-3.2","2894466","co38488","norming","","","{""guess"":""cow""}","","../img/tt/524tt.jpg","",""
"null","../img/gs/524gs.jpg","null","reveal","image-keyboard-response","24","296833","0.0-6.0-4.2","2894466","co38488","norming","","","","","","",""
"null","../img/tt/524tt.jpg","null","mooney2","image-keyboard-response","25","298844","0.0-6.0-5.2","2894466","co38488","norming","","","","","","",""
"5538.450000000012","","","post_reveal_questions","survey-likert","26","304384","0.0-6.0-6.2","2894466","co38488","norming","","","{""aha"":4}","[0]","../img/tt/524tt.jpg","",""
"null","<div style=""font-size:60px;""> </div>","null","fixation","html-keyboard-response","27","304594","0.0-6.0-0.3","2894466","co38488","norming","","","","","","",""
"null","../img/tt/1261tt.jpg","null","mooney1","image-keyboard-response","28","307598","0.0-6.0-1.3","2894466","co38488","norming","","","","","","",""
"6831.930000000284","","","post_mooney1_questions","survey-likert","29","314432","0.0-6.0-2.3","2894466","co38488","norming","","","{""curiosity"":4,""confidence"":0}","[0,1]","../img/tt/1261tt.jpg","",""
"2262.1800000015646","","","recognition","survey-text","30","316696","0.0-6.0-3.3","2894466","co38488","norming","","","{""guess"":""""}","","../img/tt/1261tt.jpg","",""
"null","../img/gs/1261gs.jpg","null","reveal","image-keyboard-response","31","318703","0.0-6.0-4.3","2894466","co38488","norming","","","","","","",""
"null","../img/tt/1261tt.jpg","null","mooney2","image-keyboard-response","32","320715","0.0-6.0-5.3","2894466","co38488","norming","","","","","","",""
"3478.5699999993667","","","post_reveal_questions","survey-likert","33","324196","0.0-6.0-6.3","2894466","co38488","norming","","","{""aha"":5}","[0]","../img/tt/1261tt.jpg","",""
"null","<div style=""font-size:60px;""> </div>","null","fixation","html-keyboard-response","34","324404","0.0-6.0-0.4","2894466","co38488","norming","","","","","","",""
"null","../img/tt/1363tt.jpg","null","mooney1","image-keyboard-response","35","327411","0.0-6.0-1.4","2894466","co38488","norming","","","","","","",""
"8342.395000001532","","","post_mooney1_questions","survey-likert","36","335756","0.0-6.0-2.4","2894466","co38488","norming","","","{""curiosity"":5,""confidence"":0}","[0,1]","../img/tt/1363tt.jpg","",""
"1878.0599999990663","","","recognition","survey-text","37","337636","0.0-6.0-3.4","2894466","co38488","norming","","","{""guess"":""""}","","../img/tt/1363tt.jpg","",""
"null","../img/gs/1363gs.jpg","null","reveal","image-keyboard-response","38","339643","0.0-6.0-4.4","2894466","co38488","norming","","","","","","",""
"null","../img/tt/1363tt.jpg","null","mooney2","image-keyboard-response","39","341659","0.0-6.0-5.4","2894466","co38488","norming","","","","","","",""
"4935.489999999816","","","post_reveal_questions","survey-likert","40","346596","0.0-6.0-6.4","2894466","co38488","norming","","","{""aha"":5}","[0]","../img/tt/1363tt.jpg","",""
"null","<div style=""font-size:60px;""> </div>","null","fixation","html-keyboard-response","41","346799","0.0-6.0-0.5","2894466","co38488","norming","","","","","","",""
"null","../img/tt/1260tt.jpg","null","mooney1","image-keyboard-response","42","349807","0.0-6.0-1.5","2894466","co38488","norming","","","","","","",""
"4914.559999999241","","","post_mooney1_questions","survey-likert","43","354724","0.0-6.0-2.5","2894466","co38488","norming","","","{""curiosity"":4,""confidence"":0}","[0,1]","../img/tt/1260tt.jpg","",""
"1054.1899999989546","","","recognition","survey-text","44","355780","0.0-6.0-3.5","2894466","co38488","norming","","","{""guess"":""""}","","../img/tt/1260tt.jpg","",""
"null","../img/gs/1260gs.jpg","null","reveal","image-keyboard-response","45","357781","0.0-6.0-4.5","2894466","co38488","norming","","","","","","",""
"null","../img/tt/1260tt.jpg","null","mooney2","image-keyboard-response","46","359786","0.0-6.0-5.5","2894466","co38488","norming","","","","","","",""
"4897.030000000086","","","post_reveal_questions","survey-likert","47","364684","0.0-6.0-6.5","2894466","co38488","norming","","","{""aha"":5}","[0]","../img/tt/1260tt.jpg","",""
"null","<div style=""font-size:60px;""> </div>","null","fixation","html-keyboard-response","48","364892","0.0-6.0-0.6","2894466","co38488","norming","","","","","","",""
"null","../img/tt/1227tt.jpg","null","mooney1","image-keyboard-response","49","367904","0.0-6.0-1.6","2894466","co38488","norming","","","","","","",""
"4994.829999999609","","","post_mooney1_questions","survey-likert","50","372900","0.0-6.0-2.6","2894466","co38488","norming","","","{""curiosity"":4,""confidence"":0}","[0,1]","../img/tt/1227tt.jpg","",""
"654.1249999991269","","","recognition","survey-text","51","373556","0.0-6.0-3.6","2894466","co38488","norming","","","{""guess"":""""}","","../img/tt/1227tt.jpg","",""
"null","../img/gs/1227gs.jpg","null","reveal","image-keyboard-response","52","375561","0.0-6.0-4.6","2894466","co38488","norming","","","","","","",""
"null","../img/tt/1227tt.jpg","null","mooney2","image-keyboard-response","53","377569","0.0-6.0-5.6","2894466","co38488","norming","","","","","","",""
"2648.2800000012503","","","post_reveal_questions","survey-likert","54","380220","0.0-6.0-6.6","2894466","co38488","norming","","","{""aha"":5}","[0]","../img/tt/1227tt.jpg","",""
"null","<div style=""font-size:60px;""> </div>","null","fixation","html-keyboard-response","55","380425","0.0-6.0-0.7","2894466","co38488","norming","","","","","","",""
"null","../img/tt/300tt.jpg","null","mooney1","image-keyboard-response","56","383435","0.0-6.0-1.7","2894466","co38488","norming","","","","","","",""
"6030.590000000258","","","post_mooney1_questions","survey-likert","57","389468","0.0-6.0-2.7","2894466","co38488","norming","","","{""curiosity"":4,""confidence"":1}","[0,1]","../img/tt/300tt.jpg","",""
"4125.7949999999255","","","recognition","survey-text","58","393596","0.0-6.0-3.7","2894466","co38488","norming","","","{""guess"":""monkey""}","","../img/tt/300tt.jpg","",""
"null","../img/gs/300gs.jpg","null","reveal","image-keyboard-response","59","395597","0.0-6.0-4.7","2894466","co38488","norming","","","","","","",""
"null","../img/tt/300tt.jpg","null","mooney2","image-keyboard-response","60","397607","0.0-6.0-5.7","2894466","co38488","norming","","","","","","",""
"4082.5999999996857","","","post_reveal_questions","survey-likert","61","401692","0.0-6.0-6.7","2894466","co38488","norming","","","{""aha"":6}","[0]","../img/tt/300tt.jpg","",""
"null","<div style=""font-size:60px;""> </div>","null","fixation","html-keyboard-response","62","401902","0.0-6.0-0.8","2894466","co38488","norming","","","","","","",""
"null","../img/tt/020tt.jpg","null","mooney1","image-keyboard-response","63","404913","0.0-6.0-1.8","2894466","co38488","norming","","","","","","",""
"5217.094999999972","","","post_mooney1_questions","survey-likert","64","410132","0.0-6.0-2.8","2894466","co38488","norming","","","{""curiosity"":4,""confidence"":0}","[0,1]","../img/tt/020tt.jpg","",""
"1094.1600000005565","","","recognition","survey-text","65","411228","0.0-6.0-3.8","2894466","co38488","norming","","","{""guess"":""""}","","../img/tt/020tt.jpg","",""
"null","../img/gs/020gs.jpg","null","reveal","image-keyboard-response","66","413230","0.0-6.0-4.8","2894466","co38488","norming","","","","","","",""
"null","../img/tt/020tt.jpg","null","mooney2","image-keyboard-response","67","415233","0.0-6.0-5.8","2894466","co38488","norming","","","","","","",""
"4641.185000000405","","","post_reveal_questions","survey-likert","68","419876","0.0-6.0-6.8","2894466","co38488","norming","","","{""aha"":6}","[0]","../img/tt/020tt.jpg","",""
"null","<div style=""font-size:60px;""> </div>","null","fixation","html-keyboard-response","69","420080","0.0-6.0-0.9","2894466","co38488","norming","","","","","","",""
"null","../img/tt/412tt.jpg","null","mooney1","image-keyboard-response","70","423090","0.0-6.0-1.9","2894466","co38488","norming","","","","","","",""
"5961.714999999502","","","post_mooney1_questions","survey-likert","71","429052","0.0-6.0-2.9","2894466","co38488","norming","","","{""curiosity"":4,""confidence"":0}","[0,1]","../img/tt/412tt.jpg","",""
"837.9949999998789","","","recognition","survey-text","72","429892","0.0-6.0-3.9","2894466","co38488","norming","","","{""guess"":""""}","","../img/tt/412tt.jpg","",""
"null","../img/gs/412gs.jpg","null","reveal","image-keyboard-response","73","431900","0.0-6.0-4.9","2894466","co38488","norming","","","","","","",""
"null","../img/tt/412tt.jpg","null","mooney2","image-keyboard-response","74","433909","0.0-6.0-5.9","2894466","co38488","norming","","","","","","",""
"2709.0900000002584","","","post_reveal_questions","survey-likert","75","436620","0.0-6.0-6.9","2894466","co38488","norming","","","{""aha"":3}","[0]","../img/tt/412tt.jpg","",""
"null","<div style=""font-size:60px;""> </div>","null","fixation","html-keyboard-response","76","436829","0.0-6.0-0.10","2894466","co38488","norming","","","","","","",""
"null","../img/tt/096tt.jpg","null","mooney1","image-keyboard-response","77","439840","0.0-6.0-1.10","2894466","co38488","norming","","","","","","",""
"7833.904999999446","","","post_mooney1_questions","survey-likert","78","447671","0.0-6.0-2.10","2894466","co38488","norming","","","{""curiosity"":5,""confidence"":1}","[0,1]","../img/tt/096tt.jpg","",""
"829.0749999996042","","","recognition","survey-text","79","448503","0.0-6.0-3.10","2894466","co38488","norming","","","{""guess"":""""}","","../img/tt/096tt.jpg","",""
"null","../img/gs/096gs.jpg","null","reveal","image-keyboard-response","80","450512","0.0-6.0-4.10","2894466","co38488","norming","","","","","","",""
"null","../img/tt/096tt.jpg","null","mooney2","image-keyboard-response","81","452523","0.0-6.0-5.10","2894466","co38488","norming","","","","","","",""
"7009.959999999381","","","post_reveal_questions","survey-likert","82","459535","0.0-6.0-6.10","2894466","co38488","norming","","","{""aha"":4}","[0]","../img/tt/096tt.jpg","",""
"null","<div style=""font-size:60px;""> </div>","null","fixation","html-keyboard-response","83","459736","0.0-6.0-0.11","2894466","co38488","norming","","","","","","",""
"null","../img/tt/1012tt.jpg","null","mooney1","image-keyboard-response","84","462745","0.0-6.0-1.11","2894466","co38488","norming","","","","","","",""
"4316.039999999746","","","post_mooney1_questions","survey-likert","85","467063","0.0-6.0-2.11","2894466","co38488","norming","","","{""curiosity"":4,""confidence"":0}","[0,1]","../img/tt/1012tt.jpg","",""
"638.1799999998766","","","recognition","survey-text","86","467703","0.0-6.0-3.11","2894466","co38488","norming","","","{""guess"":""""}","","../img/tt/1012tt.jpg","",""
"null","../img/gs/1012gs.jpg","null","reveal","image-keyboard-response","87","469707","0.0-6.0-4.11","2894466","co38488","norming","","","","","","",""
"null","../img/tt/1012tt.jpg","null","mooney2","image-keyboard-response","88","471718","0.0-6.0-5.11","2894466","co38488","norming","","","","","","",""
"3102.4400000005844","","","post_reveal_questions","survey-likert","89","474823","0.0-6.0-6.11","2894466","co38488","norming","","","{""aha"":6}","[0]","../img/tt/1012tt.jpg","",""
"null","<div style=""font-size:60px;""> </div>","null","fixation","html-keyboard-response","90","475024","0.0-6.0-0.12","2894466","co38488","norming","","","","","","",""
"null","../img/tt/1143tt.jpg","null","mooney1","image-keyboard-response","91","478028","0.0-6.0-1.12","2894466","co38488","norming","","","","","","",""
"6272.114999999758","","","post_mooney1_questions","survey-likert","92","484303","0.0-6.0-2.12","2894466","co38488","norming","","","{""curiosity"":4,""confidence"":0}","[0,1]","../img/tt/1143tt.jpg","",""
"1390.2449999986566","","","recognition","survey-text","93","485695","0.0-6.0-3.12","2894466","co38488","norming","","","{""guess"":""""}","","../img/tt/1143tt.jpg","",""
"null","../img/gs/1143gs.jpg","null","reveal","image-keyboard-response","94","487702","0.0-6.0-4.12","2894466","co38488","norming","","","","","","",""
"null","../img/tt/1143tt.jpg","null","mooney2","image-keyboard-response","95","489712","0.0-6.0-5.12","2894466","co38488","norming","","","","","","",""
"2213.710000000021","","","post_reveal_questions","survey-likert","96","491927","0.0-6.0-6.12","2894466","co38488","norming","","","{""aha"":4}","[0]","../img/tt/1143tt.jpg","",""
"null","<div style=""font-size:60px;""> </div>","null","fixation","html-keyboard-response","97","492134","0.0-6.0-0.13","2894466","co38488","norming","","","","","","",""
"null","../img/tt/007tt.jpg","null","mooney1","image-keyboard-response","98","495141","0.0-6.0-1.13","2894466","co38488","norming","","","","","","",""
"4719.764999999839","","","post_mooney1_questions","survey-likert","99","499863","0.0-6.0-2.13","2894466","co38488","norming","","","{""curiosity"":4,""confidence"":0}","[0,1]","../img/tt/007tt.jpg","",""
"902.3299999990268","","","recognition","survey-text","100","500767","0.0-6.0-3.13","2894466","co38488","norming","","","{""guess"":""""}","","../img/tt/007tt.jpg","",""
"null","../img/gs/007gs.jpg","null","reveal","image-keyboard-response","101","502777","0.0-6.0-4.13","2894466","co38488","norming","","","","","","",""
"null","../img/tt/007tt.jpg","null","mooney2","image-keyboard-response","102","504787","0.0-6.0-5.13","2894466","co38488","norming","","","","","","",""
"2785.4850000003353","","","post_reveal_questions","survey-likert","103","507578","0.0-6.0-6.13","2894466","co38488","norming","","","{""aha"":5}","[0]","../img/tt/007tt.jpg","",""
"null","<div style=""font-size:60px;""> </div>","null","fixation","html-keyboard-response","104","507786","0.0-6.0-0.14","2894466","co38488","norming","","","","","","",""
"null","../img/tt/1096tt.jpg","null","mooney1","image-keyboard-response","105","510789","0.0-6.0-1.14","2894466","co38488","norming","","","","","","",""
"4058.5499999996973","","","post_mooney1_questions","survey-likert","106","514850","0.0-6.0-2.14","2894466","co38488","norming","","","{""curiosity"":4,""confidence"":0}","[0,1]","../img/tt/1096tt.jpg","",""
"886.1149999993504","","","recognition","survey-text","107","515738","0.0-6.0-3.14","2894466","co38488","norming","","","{""guess"":""""}","","../img/tt/1096tt.jpg","",""
"null","../img/gs/1096gs.jpg","null","reveal","image-keyboard-response","108","517744","0.0-6.0-4.14","2894466","co38488","norming","","","","","","",""
"null","../img/tt/1096tt.jpg","null","mooney2","image-keyboard-response","109","519747","0.0-6.0-5.14","2894466","co38488","norming","","","","","","",""
"2252.9049999993877","","","post_reveal_questions","survey-likert","110","522002","0.0-6.0-6.14","2894466","co38488","norming","","","{""aha"":5}","[0]","../img/tt/1096tt.jpg","",""
"null","<div style=""font-size:60px;""> </div>","null","fixation","html-keyboard-response","111","522209","0.0-6.0-0.15","2894466","co38488","norming","","","","","","",""
"null","../img/tt/1033tt.jpg","null","mooney1","image-keyboard-response","112","525217","0.0-6.0-1.15","2894466","co38488","norming","","","","","","",""
"8527.03999999899","","","post_mooney1_questions","survey-likert","113","533746","0.0-6.0-2.15","2894466","co38488","norming","","","{""curiosity"":4,""confidence"":0}","[0,1]","../img/tt/1033tt.jpg","",""
"1118.0550000008661","","","recognition","survey-text","114","534866","0.0-6.0-3.15","2894466","co38488","norming","","","{""guess"":""""}","","../img/tt/1033tt.jpg","",""
"null","../img/gs/1033gs.jpg","null","reveal","image-keyboard-response","115","536872","0.0-6.0-4.15","2894466","co38488","norming","","","","","","",""
"null","../img/tt/1033tt.jpg","null","mooney2","image-keyboard-response","116","538882","0.0-6.0-5.15","2894466","co38488","norming","","","","","","",""
"2286.5199999996694","","","post_reveal_questions","survey-likert","117","541170","0.0-6.0-6.15","2894466","co38488","norming","","","{""aha"":6}","[0]","../img/tt/1033tt.jpg","",""
"null","<div style=""font-size:60px;""> </div>","null","fixation","html-keyboard-response","118","541378","0.0-6.0-0.16","2894466","co38488","norming","","","","","","",""
"null","../img/tt/497tt.jpg","null","mooney1","image-keyboard-response","119","544385","0.0-6.0-1.16","2894466","co38488","norming","","","","","","",""
"7367.944999999949","","","post_mooney1_questions","survey-likert","120","551754","0.0-6.0-2.16","2894466","co38488","norming","","","{""curiosity"":4,""confidence"":0}","[0,1]","../img/tt/497tt.jpg","",""
"630.0850000006612","","","recognition","survey-text","121","552386","0.0-6.0-3.16","2894466","co38488","norming","","","{""guess"":""""}","","../img/tt/497tt.jpg","",""
"null","../img/gs/497gs.jpg","null","reveal","image-keyboard-response","122","554389","0.0-6.0-4.16","2894466","co38488","norming","","","","","","",""
"null","../img/tt/497tt.jpg","null","mooney2","image-keyboard-response","123","556400","0.0-6.0-5.16","2894466","co38488","norming","","","","","","",""
"1984.1849999993574","","","post_reveal_questions","survey-likert","124","558386","0.0-6.0-6.16","2894466","co38488","norming","","","{""aha"":4}","[0]","../img/tt/497tt.jpg","",""
"null","<div style=""font-size:60px;""> </div>","null","fixation","html-keyboard-response","125","558594","0.0-6.0-0.17","2894466","co38488","norming","","","","","","",""
"null","../img/tt/1242tt.jpg","null","mooney1","image-keyboard-response","126","561595","0.0-6.0-1.17","2894466","co38488","norming","","","","","","",""
"4796.285000000382","","","post_mooney1_questions","survey-likert","127","566394","0.0-6.0-2.17","2894466","co38488","norming","","","{""curiosity"":5,""confidence"":2}","[0,1]","../img/tt/1242tt.jpg","",""
"2174.2400000002235","","","recognition","survey-text","128","568576","0.0-6.0-3.17","2894466","co38488","norming","","","{""guess"":""fox""}","","../img/tt/1242tt.jpg","",""
"null","../img/gs/1242gs.jpg","null","reveal","image-keyboard-response","129","570578","0.0-6.0-4.17","2894466","co38488","norming","","","","","","",""
"null","../img/tt/1242tt.jpg","null","mooney2","image-keyboard-response","130","572586","0.0-6.0-5.17","2894466","co38488","norming","","","","","","",""
"2747.919999999809","","","post_reveal_questions","survey-likert","131","575336","0.0-6.0-6.17","2894466","co38488","norming","","","{""aha"":3}","[0]","../img/tt/1242tt.jpg","",""
"null","<div style=""font-size:60px;""> </div>","null","fixation","html-keyboard-response","132","575541","0.0-6.0-0.18","2894466","co38488","norming","","","","","","",""
"null","../img/tt/552tt.jpg","null","mooney1","image-keyboard-response","133","578552","0.0-6.0-1.18","2894466","co38488","norming","","","","","","",""
"10110.29000000062","","","post_mooney1_questions","survey-likert","134","588664","0.0-6.0-2.18","2894466","co38488","norming","","","{""curiosity"":4,""confidence"":2}","[0,1]","../img/tt/552tt.jpg","",""
"3366.3500000002095","","","recognition","survey-text","135","592032","0.0-6.0-3.18","2894466","co38488","norming","","","{""guess"":""squirl""}","","../img/tt/552tt.jpg","",""
"null","../img/gs/552gs.jpg","null","reveal","image-keyboard-response","136","594034","0.0-6.0-4.18","2894466","co38488","norming","","","","","","",""
"null","../img/tt/552tt.jpg","null","mooney2","image-keyboard-response","137","596036","0.0-6.0-5.18","2894466","co38488","norming","","","","","","",""
"4498.229999999283","","","post_reveal_questions","survey-likert","138","600536","0.0-6.0-6.18","2894466","co38488","norming","","","{""aha"":4}","[0]","../img/tt/552tt.jpg","",""
"null","<div style=""font-size:60px;""> </div>","null","fixation","html-keyboard-response","139","600742","0.0-6.0-0.19","2894466","co38488","norming","","","","","","",""
"null","../img/tt/124tt.jpg","null","mooney1","image-keyboard-response","140","603754","0.0-6.0-1.19","2894466","co38488","norming","","","","","","",""
"6211.924999999581","","","post_mooney1_questions","survey-likert","141","609969","0.0-6.0-2.19","2894466","co38488","norming","","","{""curiosity"":5,""confidence"":2}","[0,1]","../img/tt/124tt.jpg","",""
"2174.005000000703","","","recognition","survey-text","142","612144","0.0-6.0-3.19","2894466","co38488","norming","","","{""guess"":""pig""}","","../img/tt/124tt.jpg","",""
"null","../img/gs/124gs.jpg","null","reveal","image-keyboard-response","143","614149","0.0-6.0-4.19","2894466","co38488","norming","","","","","","",""
"null","../img/tt/124tt.jpg","null","mooney2","image-keyboard-response","144","616152","0.0-6.0-5.19","2894466","co38488","norming","","","","","","",""
"2094.3750000006985","","","post_reveal_questions","survey-likert","145","618248","0.0-6.0-6.19","2894466","co38488","norming","","","{""aha"":6}","[0]","../img/tt/124tt.jpg","",""
"null","<div style=""font-size:60px;""> </div>","null","fixation","html-keyboard-response","146","618458","0.0-6.0-0.20","2894466","co38488","norming","","","","","","",""
"null","../img/tt/1091tt.jpg","null","mooney1","image-keyboard-response","147","621466","0.0-6.0-1.20","2894466","co38488","norming","","","","","","",""
"4851.314999999828","","","post_mooney1_questions","survey-likert","148","626320","0.0-6.0-2.20","2894466","co38488","norming","","","{""curiosity"":5,""confidence"":0}","[0,1]","../img/tt/1091tt.jpg","",""
"942.2350000004517","","","recognition","survey-text","149","627264","0.0-6.0-3.20","2894466","co38488","norming","","","{""guess"":""""}","","../img/tt/1091tt.jpg","",""
"null","../img/gs/1091gs.jpg","null","reveal","image-keyboard-response","150","629279","0.0-6.0-4.20","2894466","co38488","norming","","","","","","",""
"null","../img/tt/1091tt.jpg","null","mooney2","image-keyboard-response","151","631282","0.0-6.0-5.20","2894466","co38488","norming","","","","","","",""
"1937.035000000731","","","post_reveal_questions","survey-likert","152","633221","0.0-6.0-6.20","2894466","co38488","norming","","","{""aha"":6}","[0]","../img/tt/1091tt.jpg","",""
"null","<div style=""font-size:60px;""> </div>","null","fixation","html-keyboard-response","153","633429","0.0-6.0-0.21","2894466","co38488","norming","","","","","","",""
"null","../img/tt/357tt.jpg","null","mooney1","image-keyboard-response","154","636438","0.0-6.0-1.21","2894466","co38488","norming","","","","","","",""
"4982.850000000326","","","post_mooney1_questions","survey-likert","155","641422","0.0-6.0-2.21","2894466","co38488","norming","","","{""curiosity"":4,""confidence"":0}","[0,1]","../img/tt/357tt.jpg","",""
"846.0299999987474","","","recognition","survey-text","156","642270","0.0-6.0-3.21","2894466","co38488","norming","","","{""guess"":""""}","","../img/tt/357tt.jpg","",""
"null","../img/gs/357gs.jpg","null","reveal","image-keyboard-response","157","644277","0.0-6.0-4.21","2894466","co38488","norming","","","","","","",""
"null","../img/tt/357tt.jpg","null","mooney2","image-keyboard-response","158","646279","0.0-6.0-5.21","2894466","co38488","norming","","","","","","",""
"2188.645000000135","","","post_reveal_questions","survey-likert","159","648470","0.0-6.0-6.21","2894466","co38488","norming","","","{""aha"":3}","[0]","../img/tt/357tt.jpg","",""
"null","<div style=""font-size:60px;""> </div>","null","fixation","html-keyboard-response","160","648677","0.0-6.0-0.22","2894466","co38488","norming","","","","","","",""
"null","../img/tt/013tt.jpg","null","mooney1","image-keyboard-response","161","651684","0.0-6.0-1.22","2894466","co38488","norming","","","","","","",""
"4664.7400000002235","","","post_mooney1_questions","survey-likert","162","656350","0.0-6.0-2.22","2894466","co38488","norming","","","{""curiosity"":4,""confidence"":0}","[0,1]","../img/tt/013tt.jpg","",""
"622.3499999996275","","","recognition","survey-text","163","656974","0.0-6.0-3.22","2894466","co38488","norming","","","{""guess"":""""}","","../img/tt/013tt.jpg","",""
"null","../img/gs/013gs.jpg","null","reveal","image-keyboard-response","164","658976","0.0-6.0-4.22","2894466","co38488","norming","","","","","","",""
"null","../img/tt/013tt.jpg","null","mooney2","image-keyboard-response","165","660986","0.0-6.0-5.22","2894466","co38488","norming","","","","","","",""
"2177.4599999990314","","","post_reveal_questions","survey-likert","166","663166","0.0-6.0-6.22","2894466","co38488","norming","","","{""aha"":5}","[0]","../img/tt/013tt.jpg","",""
"null","<div style=""font-size:60px;""> </div>","null","fixation","html-keyboard-response","167","663373","0.0-6.0-0.23","2894466","co38488","norming","","","","","","",""
"null","../img/tt/1171tt.jpg","null","mooney1","image-keyboard-response","168","666385","0.0-6.0-1.23","2894466","co38488","norming","","","","","","",""
"4899.970000000438","","","post_mooney1_questions","survey-likert","169","671286","0.0-6.0-2.23","2894466","co38488","norming","","","{""curiosity"":3,""confidence"":0}","[0,1]","../img/tt/1171tt.jpg","",""
"813.7900000001537","","","recognition","survey-text","170","672101","0.0-6.0-3.23","2894466","co38488","norming","","","{""guess"":""""}","","../img/tt/1171tt.jpg","",""
"null","../img/gs/1171gs.jpg","null","reveal","image-keyboard-response","171","674105","0.0-6.0-4.23","2894466","co38488","norming","","","","","","",""
"null","../img/tt/1171tt.jpg","null","mooney2","image-keyboard-response","172","676106","0.0-6.0-5.23","2894466","co38488","norming","","","","","","",""
"2121.035000000149","","","post_reveal_questions","survey-likert","173","678230","0.0-6.0-6.23","2894466","co38488","norming","","","{""aha"":4}","[0]","../img/tt/1171tt.jpg","",""
"null","<div style=""font-size:60px;""> </div>","null","fixation","html-keyboard-response","174","678436","0.0-6.0-0.24","2894466","co38488","norming","","","","","","",""
"null","../img/tt/046tt.jpg","null","mooney1","image-keyboard-response","175","681445","0.0-6.0-1.24","2894466","co38488","norming","","","","","","",""
"4581.7200000000885","","","post_mooney1_questions","survey-likert","176","686029","0.0-6.0-2.24","2894466","co38488","norming","","","{""curiosity"":5,""confidence"":3}","[0,1]","../img/tt/046tt.jpg","",""
"2277.8349999990314","","","recognition","survey-text","177","688309","0.0-6.0-3.24","2894466","co38488","norming","","","{""guess"":""dog""}","","../img/tt/046tt.jpg","",""
"null","../img/gs/046gs.jpg","null","reveal","image-keyboard-response","178","690315","0.0-6.0-4.24","2894466","co38488","norming","","","","","","",""
"null","../img/tt/046tt.jpg","null","mooney2","image-keyboard-response","179","692325","0.0-6.0-5.24","2894466","co38488","norming","","","","","","",""
"3467.2750000009546","","","post_reveal_questions","survey-likert","180","695793","0.0-6.0-6.24","2894466","co38488","norming","","","{""aha"":4}","[0]","../img/tt/046tt.jpg","",""
"null","<div style=""font-size:60px;""> </div>","null","fixation","html-keyboard-response","181","695994","0.0-6.0-0.25","2894466","co38488","norming","","","","","","",""
"null","../img/tt/273tt.jpg","null","mooney1","image-keyboard-response","182","698997","0.0-6.0-1.25","2894466","co38488","norming","","","","","","",""
"6762.399999999674","","","post_mooney1_questions","survey-likert","183","705762","0.0-6.0-2.25","2894466","co38488","norming","","","{""curiosity"":3,""confidence"":4}","[0,1]","../img/tt/273tt.jpg","",""
"2581.7249999999767","","","recognition","survey-text","184","708345","0.0-6.0-3.25","2894466","co38488","norming","","","{""guess"":""mound""}","","../img/tt/273tt.jpg","",""
"null","../img/gs/273gs.jpg","null","reveal","image-keyboard-response","185","710349","0.0-6.0-4.25","2894466","co38488","norming","","","","","","",""
"null","../img/tt/273tt.jpg","null","mooney2","image-keyboard-response","186","712356","0.0-6.0-5.25","2894466","co38488","norming","","","","","","",""
"4987.90000000014","","","post_reveal_questions","survey-likert","187","717345","0.0-6.0-6.25","2894466","co38488","norming","","","{""aha"":3}","[0]","../img/tt/273tt.jpg","",""
"null","<div style=""font-size:60px;""> </div>","null","fixation","html-keyboard-response","188","717553","0.0-6.0-0.26","2894466","co38488","norming","","","","","","",""
"null","../img/tt/1181tt.jpg","null","mooney1","image-keyboard-response","189","720564","0.0-6.0-1.26","2894466","co38488","norming","","","","","","",""
"6498.999999999767","","","post_mooney1_questions","survey-likert","190","727065","0.0-6.0-2.26","2894466","co38488","norming","","","{""curiosity"":4,""confidence"":3}","[0,1]","../img/tt/1181tt.jpg","",""
"2302.405000000377","","","recognition","survey-text","191","729369","0.0-6.0-3.26","2894466","co38488","norming","","","{""guess"":""people""}","","../img/tt/1181tt.jpg","",""
"null","../img/gs/1181gs.jpg","null","reveal","image-keyboard-response","192","731372","0.0-6.0-4.26","2894466","co38488","norming","","","","","","",""
"null","../img/tt/1181tt.jpg","null","mooney2","image-keyboard-response","193","733383","0.0-6.0-5.26","2894466","co38488","norming","","","","","","",""
"4263.950000000419","","","post_reveal_questions","survey-likert","194","737649","0.0-6.0-6.26","2894466","co38488","norming","","","{""aha"":5}","[0]","../img/tt/1181tt.jpg","",""
"null","<div style=""font-size:60px;""> </div>","null","fixation","html-keyboard-response","195","737856","0.0-6.0-0.27","2894466","co38488","norming","","","","","","",""
"null","../img/tt/1235tt.jpg","null","mooney1","image-keyboard-response","196","740860","0.0-6.0-1.27","2894466","co38488","norming","","","","","","",""
"6514.72999999905","","","post_mooney1_questions","survey-likert","197","747377","0.0-6.0-2.27","2894466","co38488","norming","","","{""curiosity"":5,""confidence"":2}","[0,1]","../img/tt/1235tt.jpg","",""
"3574.140000000596","","","recognition","survey-text","198","750955","0.0-6.0-3.27","2894466","co38488","norming","","","{""guess"":""rabit""}","","../img/tt/1235tt.jpg","",""
"null","../img/gs/1235gs.jpg","null","reveal","image-keyboard-response","199","752958","0.0-6.0-4.27","2894466","co38488","norming","","","","","","",""
"null","../img/tt/1235tt.jpg","null","mooney2","image-keyboard-response","200","754966","0.0-6.0-5.27","2894466","co38488","norming","","","","","","",""
"2540.1249999995343","","","post_reveal_questions","survey-likert","201","757507","0.0-6.0-6.27","2894466","co38488","norming","","","{""aha"":5}","[0]","../img/tt/1235tt.jpg","",""
"null","<div style=""font-size:60px;""> </div>","null","fixation","html-keyboard-response","202","757711","0.0-6.0-0.28","2894466","co38488","norming","","","","","","",""
"null","../img/tt/1247tt.jpg","null","mooney1","image-keyboard-response","203","760722","0.0-6.0-1.28","2894466","co38488","norming","","","","","","",""
"6063.180000001099","","","post_mooney1_questions","survey-likert","204","766788","0.0-6.0-2.28","2894466","co38488","norming","","","{""curiosity"":5,""confidence"":2}","[0,1]","../img/tt/1247tt.jpg","",""
"2309.9499999989057","","","recognition","survey-text","205","769099","0.0-6.0-3.28","2894466","co38488","norming","","","{""guess"":""cat""}","","../img/tt/1247tt.jpg","",""
"null","../img/gs/1247gs.jpg","null","reveal","image-keyboard-response","206","771107","0.0-6.0-4.28","2894466","co38488","norming","","","","","","",""
"null","../img/tt/1247tt.jpg","null","mooney2","image-keyboard-response","207","773108","0.0-6.0-5.28","2894466","co38488","norming","","","","","","",""
"3805.220000000205","","","post_reveal_questions","survey-likert","208","776916","0.0-6.0-6.28","2894466","co38488","norming","","","{""aha"":5}","[0]","../img/tt/1247tt.jpg","",""
"null","<div style=""font-size:60px;""> </div>","null","fixation","html-keyboard-response","209","777123","0.0-6.0-0.29","2894466","co38488","norming","","","","","","",""
"null","../img/tt/559tt.jpg","null","mooney1","image-keyboard-response","210","780131","0.0-6.0-1.29","2894466","co38488","norming","","","","","","",""
"4814.559999998892","","","post_mooney1_questions","survey-likert","211","784947","0.0-6.0-2.29","2894466","co38488","norming","","","{""curiosity"":5,""confidence"":0}","[0,1]","../img/tt/559tt.jpg","",""
"694.2500000004657","","","recognition","survey-text","212","785643","0.0-6.0-3.29","2894466","co38488","norming","","","{""guess"":""""}","","../img/tt/559tt.jpg","",""
"null","../img/gs/559gs.jpg","null","reveal","image-keyboard-response","213","787645","0.0-6.0-4.29","2894466","co38488","norming","","","","","","",""
"null","../img/tt/559tt.jpg","null","mooney2","image-keyboard-response","214","789647","0.0-6.0-5.29","2894466","co38488","norming","","","","","","",""
"3506.1799999984214","","","post_reveal_questions","survey-likert","215","793155","0.0-6.0-6.29","2894466","co38488","norming","","","{""aha"":3}","[0]","../img/tt/559tt.jpg","",""
"null","<div style=""font-size:60px;""> </div>","null","fixation","html-keyboard-response","216","793357","0.0-6.0-0.30","2894466","co38488","norming","","","","","","",""
"null","../img/tt/442tt.jpg","null","mooney1","image-keyboard-response","217","796367","0.0-6.0-1.30","2894466","co38488","norming","","","","","","",""
"5076.06000000122","","","post_mooney1_questions","survey-likert","218","801444","0.0-6.0-2.30","2894466","co38488","norming","","","{""curiosity"":5,""confidence"":0}","[0,1]","../img/tt/442tt.jpg","",""
"710.269999999553","","","recognition","survey-text","219","802156","0.0-6.0-3.30","2894466","co38488","norming","","","{""guess"":""""}","","../img/tt/442tt.jpg","",""
"null","../img/gs/442gs.jpg","null","reveal","image-keyboard-response","220","804162","0.0-6.0-4.30","2894466","co38488","norming","","","","","","",""
"null","../img/tt/442tt.jpg","null","mooney2","image-keyboard-response","221","806173","0.0-6.0-5.30","2894466","co38488","norming","","","","","","",""
"2356.1100000006845","","","post_reveal_questions","survey-likert","222","808531","0.0-6.0-6.30","2894466","co38488","norming","","","{""aha"":5}","[0]","../img/tt/442tt.jpg","",""
"null","<div style=""font-size:60px;""> </div>","null","fixation","html-keyboard-response","223","808740","0.0-6.0-0.31","2894466","co38488","norming","","","","","","",""
"null","../img/tt/1241tt.jpg","null","mooney1","image-keyboard-response","224","811748","0.0-6.0-1.31","2894466","co38488","norming","","","","","","",""
"5212.199999999837","","","post_mooney1_questions","survey-likert","225","816963","0.0-6.0-2.31","2894466","co38488","norming","","","{""curiosity"":4,""confidence"":0}","[0,1]","../img/tt/1241tt.jpg","",""
"765.9449999991339","","","recognition","survey-text","226","817731","0.0-6.0-3.31","2894466","co38488","norming","","","{""guess"":""""}","","../img/tt/1241tt.jpg","",""
"null","../img/gs/1241gs.jpg","null","reveal","image-keyboard-response","227","819739","0.0-6.0-4.31","2894466","co38488","norming","","","","","","",""
"null","../img/tt/1241tt.jpg","null","mooney2","image-keyboard-response","228","821741","0.0-6.0-5.31","2894466","co38488","norming","","","","","","",""
"1804.5299999994459","","","post_reveal_questions","survey-likert","229","823548","0.0-6.0-6.31","2894466","co38488","norming","","","{""aha"":6}","[0]","../img/tt/1241tt.jpg","",""
"null","<div style=""font-size:60px;""> </div>","null","fixation","html-keyboard-response","230","823752","0.0-6.0-0.32","2894466","co38488","norming","","","","","","",""
"null","../img/tt/1200tt.jpg","null","mooney1","image-keyboard-response","231","826758","0.0-6.0-1.32","2894466","co38488","norming","","","","","","",""
"4242.539999999222","","","post_mooney1_questions","survey-likert","232","831004","0.0-6.0-2.32","2894466","co38488","norming","","","{""curiosity"":4,""confidence"":0}","[0,1]","../img/tt/1200tt.jpg","",""
"678.0099999995437","","","recognition","survey-text","233","831683","0.0-6.0-3.32","2894466","co38488","norming","","","{""guess"":""""}","","../img/tt/1200tt.jpg","",""
"null","../img/gs/1200gs.jpg","null","reveal","image-keyboard-response","234","833693","0.0-6.0-4.32","2894466","co38488","norming","","","","","","",""
"null","../img/tt/1200tt.jpg","null","mooney2","image-keyboard-response","235","835694","0.0-6.0-5.32","2894466","co38488","norming","","","","","","",""
"1667.04000000027","","","post_reveal_questions","survey-likert","236","837364","0.0-6.0-6.32","2894466","co38488","norming","","","{""aha"":5}","[0]","../img/tt/1200tt.jpg","",""
"null","<div style=""font-size:60px;""> </div>","null","fixation","html-keyboard-response","237","837572","0.0-6.0-0.33","2894466","co38488","norming","","","","","","",""
"null","../img/tt/111tt.jpg","null","mooney1","image-keyboard-response","238","840583","0.0-6.0-1.33","2894466","co38488","norming","","","","","","",""
"5666.0150000007125","","","post_mooney1_questions","survey-likert","239","846252","0.0-6.0-2.33","2894466","co38488","norming","","","{""curiosity"":5,""confidence"":2}","[0,1]","../img/tt/111tt.jpg","",""
"4766.2849999998","","","recognition","survey-text","240","851020","0.0-6.0-3.33","2894466","co38488","norming","","","{""guess"":""telephone""}","","../img/tt/111tt.jpg","",""
"null","../img/gs/111gs.jpg","null","reveal","image-keyboard-response","241","853022","0.0-6.0-4.33","2894466","co38488","norming","","","","","","",""
"null","../img/tt/111tt.jpg","null","mooney2","image-keyboard-response","242","855026","0.0-6.0-5.33","2894466","co38488","norming","","","","","","",""
"2119.094999999972","","","post_reveal_questions","survey-likert","243","857147","0.0-6.0-6.33","2894466","co38488","norming","","","{""aha"":6}","[0]","../img/tt/111tt.jpg","",""
"null","<div style=""font-size:60px;""> </div>","null","fixation","html-keyboard-response","244","857349","0.0-6.0-0.34","2894466","co38488","norming","","","","","","",""
"null","../img/tt/1270tt.jpg","null","mooney1","image-keyboard-response","245","860359","0.0-6.0-1.34","2894466","co38488","norming","","","","","","",""
"6059.7099999996135","","","post_mooney1_questions","survey-likert","246","866420","0.0-6.0-2.34","2894466","co38488","norming","","","{""curiosity"":3,""confidence"":5}","[0,1]","../img/tt/1270tt.jpg","",""
"2870.4199999993434","","","recognition","survey-text","247","869292","0.0-6.0-3.34","2894466","co38488","norming","","","{""guess"":""hamster""}","","../img/tt/1270tt.jpg","",""
"null","../img/gs/1270gs.jpg","null","reveal","image-keyboard-response","248","871293","0.0-6.0-4.34","2894466","co38488","norming","","","","","","",""
"null","../img/tt/1270tt.jpg","null","mooney2","image-keyboard-response","249","873296","0.0-6.0-5.34","2894466","co38488","norming","","","","","","",""
"3922.8299999994924","","","post_reveal_questions","survey-likert","250","877220","0.0-6.0-6.34","2894466","co38488","norming","","","{""aha"":2}","[0]","../img/tt/1270tt.jpg","",""
"null","<div style=""font-size:60px;""> </div>","null","fixation","html-keyboard-response","251","877426","0.0-6.0-0.35","2894466","co38488","norming","","","","","","",""
"null","../img/tt/301tt.jpg","null","mooney1","image-keyboard-response","252","880428","0.0-6.0-1.35","2894466","co38488","norming","","","","","","",""
"4214.77499999851","","","post_mooney1_questions","survey-likert","253","884644","0.0-6.0-2.35","2894466","co38488","norming","","","{""curiosity"":5,""confidence"":0}","[0,1]","../img/tt/301tt.jpg","",""
"645.8349999992643","","","recognition","survey-text","254","885291","0.0-6.0-3.35","2894466","co38488","norming","","","{""guess"":""""}","","../img/tt/301tt.jpg","",""
"null","../img/gs/301gs.jpg","null","reveal","image-keyboard-response","255","887295","0.0-6.0-4.35","2894466","co38488","norming","","","","","","",""
"null","../img/tt/301tt.jpg","null","mooney2","image-keyboard-response","256","889302","0.0-6.0-5.35","2894466","co38488","norming","","","","","","",""
"2460.715000001015","","","post_reveal_questions","survey-likert","257","891764","0.0-6.0-6.35","2894466","co38488","norming","","","{""aha"":3}","[0]","../img/tt/301tt.jpg","",""
"null","<div style=""font-size:60px;""> </div>","null","fixation","html-keyboard-response","258","891967","0.0-6.0-0.36","2894466","co38488","norming","","","","","","",""
"null","../img/tt/019tt.jpg","null","mooney1","image-keyboard-response","259","894974","0.0-6.0-1.36","2894466","co38488","norming","","","","","","",""
"6245.39000000013","","","post_mooney1_questions","survey-likert","260","901220","0.0-6.0-2.36","2894466","co38488","norming","","","{""curiosity"":4,""confidence"":0}","[0,1]","../img/tt/019tt.jpg","",""
"646.1950000012293","","","recognition","survey-text","261","901868","0.0-6.0-3.36","2894466","co38488","norming","","","{""guess"":""""}","","../img/tt/019tt.jpg","",""
"null","../img/gs/019gs.jpg","null","reveal","image-keyboard-response","262","903876","0.0-6.0-4.36","2894466","co38488","norming","","","","","","",""
"null","../img/tt/019tt.jpg","null","mooney2","image-keyboard-response","263","905886","0.0-6.0-5.36","2894466","co38488","norming","","","","","","",""
"10395.30999999994","","","post_reveal_questions","survey-likert","264","916284","0.0-6.0-6.36","2894466","co38488","norming","","","{""aha"":4}","[0]","../img/tt/019tt.jpg","",""
"null","<div style=""font-size:60px;""> </div>","null","fixation","html-keyboard-response","265","916493","0.0-6.0-0.37","2894466","co38488","norming","","","","","","",""
"null","../img/tt/496tt.jpg","null","mooney1","image-keyboard-response","266","919502","0.0-6.0-1.37","2894466","co38488","norming","","","","","","",""
"4029.4499999999534","","","post_mooney1_questions","survey-likert","267","923532","0.0-6.0-2.37","2894466","co38488","norming","","","{""curiosity"":5,""confidence"":1}","[0,1]","../img/tt/496tt.jpg","",""
"1709.9799999996321","","","recognition","survey-text","268","925244","0.0-6.0-3.37","2894466","co38488","norming","","","{""guess"":""dog""}","","../img/tt/496tt.jpg","",""
"null","../img/gs/496gs.jpg","null","reveal","image-keyboard-response","269","927249","0.0-6.0-4.37","2894466","co38488","norming","","","","","","",""
"null","../img/tt/496tt.jpg","null","mooney2","image-keyboard-response","270","929250","0.0-6.0-5.37","2894466","co38488","norming","","","","","","",""
"2007.4850000001024","","","post_reveal_questions","survey-likert","271","931260","0.0-6.0-6.37","2894466","co38488","norming","","","{""aha"":5}","[0]","../img/tt/496tt.jpg","",""
"null","<div style=""font-size:60px;""> </div>","null","fixation","html-keyboard-response","272","931461","0.0-6.0-0.38","2894466","co38488","norming","","","","","","",""
"null","../img/tt/001tt.jpg","null","mooney1","image-keyboard-response","273","934470","0.0-6.0-1.38","2894466","co38488","norming","","","","","","",""
"3925.5900000007823","","","post_mooney1_questions","survey-likert","274","938396","0.0-6.0-2.38","2894466","co38488","norming","","","{""curiosity"":5,""confidence"":0}","[0,1]","../img/tt/001tt.jpg","",""
"1086.2350000006845","","","recognition","survey-text","275","939484","0.0-6.0-3.38","2894466","co38488","norming","","","{""guess"":""""}","","../img/tt/001tt.jpg","",""
"null","../img/gs/001gs.jpg","null","reveal","image-keyboard-response","276","941489","0.0-6.0-4.38","2894466","co38488","norming","","","","","","",""
"null","../img/tt/001tt.jpg","null","mooney2","image-keyboard-response","277","943492","0.0-6.0-5.38","2894466","co38488","norming","","","","","","",""
"3637.9699999997392","","","post_reveal_questions","survey-likert","278","947132","0.0-6.0-6.38","2894466","co38488","norming","","","{""aha"":4}","[0]","../img/tt/001tt.jpg","",""
"null","<div style=""font-size:60px;""> </div>","null","fixation","html-keyboard-response","279","947334","0.0-6.0-0.39","2894466","co38488","norming","","","","","","",""
"null","../img/tt/108tt.jpg","null","mooney1","image-keyboard-response","280","950342","0.0-6.0-1.39","2894466","co38488","norming","","","","","","",""
"8021.04499999946","","","post_mooney1_questions","survey-likert","281","958364","0.0-6.0-2.39","2894466","co38488","norming","","","{""curiosity"":5,""confidence"":0}","[0,1]","../img/tt/108tt.jpg","",""
"1190.0550000009825","","","recognition","survey-text","282","959556","0.0-6.0-3.39","2894466","co38488","norming","","","{""guess"":""""}","","../img/tt/108tt.jpg","",""
"null","../img/gs/108gs.jpg","null","reveal","image-keyboard-response","283","961567","0.0-6.0-4.39","2894466","co38488","norming","","","","","","",""
"null","../img/tt/108tt.jpg","null","mooney2","image-keyboard-response","284","963576","0.0-6.0-5.39","2894466","co38488","norming","","","","","","",""
"1945.4850000002189","","","post_reveal_questions","survey-likert","285","965524","0.0-6.0-6.39","2894466","co38488","norming","","","{""aha"":5}","[0]","../img/tt/108tt.jpg","",""
"null","<div style=""font-size:60px;""> </div>","null","fixation","html-keyboard-response","286","965729","0.0-6.0-0.40","2894466","co38488","norming","","","","","","",""
"null","../img/tt/1126tt.jpg","null","mooney1","image-keyboard-response","287","968739","0.0-6.0-1.40","2894466","co38488","norming","","","","","","",""
"7383.945000001346","","","post_mooney1_questions","survey-likert","288","976124","0.0-6.0-2.40","2894466","co38488","norming","","","{""curiosity"":5,""confidence"":1}","[0,1]","../img/tt/1126tt.jpg","",""
"2174.1899999998277","","","recognition","survey-text","289","978300","0.0-6.0-3.40","2894466","co38488","norming","","","{""guess"":""tree""}","","../img/tt/1126tt.jpg","",""
"null","../img/gs/1126gs.jpg","null","reveal","image-keyboard-response","290","980309","0.0-6.0-4.40","2894466","co38488","norming","","","","","","",""
"null","../img/tt/1126tt.jpg","null","mooney2","image-keyboard-response","291","982310","0.0-6.0-5.40","2894466","co38488","norming","","","","","","",""
"10260.070000000298","","","post_reveal_questions","survey-likert","292","992572","0.0-6.0-6.40","2894466","co38488","norming","","","{""aha"":3}","[0]","../img/tt/1126tt.jpg","",""
"null","<div style=""font-size:60px;""> </div>","null","fixation","html-keyboard-response","293","992775","0.0-6.0-0.41","2894466","co38488","norming","","","","","","",""
"null","../img/tt/1196tt.jpg","null","mooney1","image-keyboard-response","294","995782","0.0-6.0-1.41","2894466","co38488","norming","","","","","","",""
"6933.254999999888","","","post_mooney1_questions","survey-likert","295","1002716","0.0-6.0-2.41","2894466","co38488","norming","","","{""curiosity"":5,""confidence"":2}","[0,1]","../img/tt/1196tt.jpg","",""
"2846.03000000061","","","recognition","survey-text","296","1005564","0.0-6.0-3.41","2894466","co38488","norming","","","{""guess"":""audience""}","","../img/tt/1196tt.jpg","",""
"null","../img/gs/1196gs.jpg","null","reveal","image-keyboard-response","297","1007566","0.0-6.0-4.41","2894466","co38488","norming","","","","","","",""
"null","../img/tt/1196tt.jpg","null","mooney2","image-keyboard-response","298","1009576","0.0-6.0-5.41","2894466","co38488","norming","","","","","","",""
"2737.975000000093","","","post_reveal_questions","survey-likert","299","1012316","0.0-6.0-6.41","2894466","co38488","norming","","","{""aha"":5}","[0]","../img/tt/1196tt.jpg","",""
"null","<div style=""font-size:60px;""> </div>","null","fixation","html-keyboard-response","300","1012517","0.0-6.0-0.42","2894466","co38488","norming","","","","","","",""
"null","../img/tt/189tt.jpg","null","mooney1","image-keyboard-response","301","1015525","0.0-6.0-1.42","2894466","co38488","norming","","","","","","",""
"5004.195000001346","","","post_mooney1_questions","survey-likert","302","1020532","0.0-6.0-2.42","2894466","co38488","norming","","","{""curiosity"":4,""confidence"":0}","[0,1]","../img/tt/189tt.jpg","",""
"1230.2400000008056","","","recognition","survey-text","303","1021764","0.0-6.0-3.42","2894466","co38488","norming","","","{""guess"":""""}","","../img/tt/189tt.jpg","",""
"null","../img/gs/189gs.jpg","null","reveal","image-keyboard-response","304","1023767","0.0-6.0-4.42","2894466","co38488","norming","","","","","","",""
"null","../img/tt/189tt.jpg","null","mooney2","image-keyboard-response","305","1025774","0.0-6.0-5.42","2894466","co38488","norming","","","","","","",""
"2056.774999999092","","","post_reveal_questions","survey-likert","306","1027836","0.0-6.0-6.42","2894466","co38488","norming","","","{""aha"":6}","[0]","../img/tt/189tt.jpg","",""
"null","<div style=""font-size:60px;""> </div>","null","fixation","html-keyboard-response","307","1028040","0.0-6.0-0.43","2894466","co38488","norming","","","","","","",""
"null","../img/tt/1044tt.jpg","null","mooney1","image-keyboard-response","308","1031043","0.0-6.0-1.43","2894466","co38488","norming","","","","","","",""
"8256.04999999993","","","post_mooney1_questions","survey-likert","309","1039300","0.0-6.0-2.43","2894466","co38488","norming","","","{""curiosity"":4,""confidence"":0}","[0,1]","../img/tt/1044tt.jpg","",""
"902.2949999998091","","","recognition","survey-text","310","1040204","0.0-6.0-3.43","2894466","co38488","norming","","","{""guess"":""""}","","../img/tt/1044tt.jpg","",""
"null","../img/gs/1044gs.jpg","null","reveal","image-keyboard-response","311","1042205","0.0-6.0-4.43","2894466","co38488","norming","","","","","","",""
"null","../img/tt/1044tt.jpg","null","mooney2","image-keyboard-response","312","1044207","0.0-6.0-5.43","2894466","co38488","norming","","","","","","",""
"1795.0999999992782","","","post_reveal_questions","survey-likert","313","1046004","0.0-6.0-6.43","2894466","co38488","norming","","","{""aha"":5}","[0]","../img/tt/1044tt.jpg","",""
"null","<div style=""font-size:60px;""> </div>","null","fixation","html-keyboard-response","314","1046207","0.0-6.0-0.44","2894466","co38488","norming","","","","","","",""
"null","../img/tt/1084tt.jpg","null","mooney1","image-keyboard-response","315","1049211","0.0-6.0-1.44","2894466","co38488","norming","","","","","","",""
"3454.4250000000466","","","post_mooney1_questions","survey-likert","316","1052668","0.0-6.0-2.44","2894466","co38488","norming","","","{""curiosity"":4,""confidence"":0}","[0,1]","../img/tt/1084tt.jpg","",""
"830.2399999992922","","","recognition","survey-text","317","1053500","0.0-6.0-3.44","2894466","co38488","norming","","","{""guess"":""""}","","../img/tt/1084tt.jpg","",""
"null","../img/gs/1084gs.jpg","null","reveal","image-keyboard-response","318","1055508","0.0-6.0-4.44","2894466","co38488","norming","","","","","","",""
"null","../img/tt/1084tt.jpg","null","mooney2","image-keyboard-response","319","1057510","0.0-6.0-5.44","2894466","co38488","norming","","","","","","",""
"1876.0100000000093","","","post_reveal_questions","survey-likert","320","1059388","0.0-6.0-6.44","2894466","co38488","norming","","","{""aha"":6}","[0]","../img/tt/1084tt.jpg","",""
"null","<div style=""font-size:60px;""> </div>","null","fixation","html-keyboard-response","321","1059597","0.0-6.0-0.45","2894466","co38488","norming","","","","","","",""
"null","../img/tt/1122tt.jpg","null","mooney1","image-keyboard-response","322","1062606","0.0-6.0-1.45","2894466","co38488","norming","","","","","","",""
"5163.114999999292","","","post_mooney1_questions","survey-likert","323","1067772","0.0-6.0-2.45","2894466","co38488","norming","","","{""curiosity"":5,""confidence"":3}","[0,1]","../img/tt/1122tt.jpg","",""
"2254.25","","","recognition","survey-text","324","1070028","0.0-6.0-3.45","2894466","co38488","norming","","","{""guess"":""trafic""}","","../img/tt/1122tt.jpg","",""
"null","../img/gs/1122gs.jpg","null","reveal","image-keyboard-response","325","1072031","0.0-6.0-4.45","2894466","co38488","norming","","","","","","",""
"null","../img/tt/1122tt.jpg","null","mooney2","image-keyboard-response","326","1074032","0.0-6.0-5.45","2894466","co38488","norming","","","","","","",""
"2873.150000001304","","","post_reveal_questions","survey-likert","327","1076908","0.0-6.0-6.45","2894466","co38488","norming","","","{""aha"":5}","[0]","../img/tt/1122tt.jpg","",""
"null","<div style=""font-size:60px;""> </div>","null","fixation","html-keyboard-response","328","1077110","0.0-6.0-0.46","2894466","co38488","norming","","","","","","",""
"null","../img/tt/603tt.jpg","null","mooney1","image-keyboard-response","329","1080114","0.0-6.0-1.46","2894466","co38488","norming","","","","","","",""
"5529.235000000102","","","post_mooney1_questions","survey-likert","330","1085644","0.0-6.0-2.46","2894466","co38488","norming","","","{""curiosity"":5,""confidence"":3}","[0,1]","../img/tt/603tt.jpg","",""
"2285.980000000447","","","recognition","survey-text","331","1087932","0.0-6.0-3.46","2894466","co38488","norming","","","{""guess"":""face""}","","../img/tt/603tt.jpg","",""
"null","../img/gs/603gs.jpg","null","reveal","image-keyboard-response","332","1089938","0.0-6.0-4.46","2894466","co38488","norming","","","","","","",""
"null","../img/tt/603tt.jpg","null","mooney2","image-keyboard-response","333","1091948","0.0-6.0-5.46","2894466","co38488","norming","","","","","","",""
"2517.2550000005867","","","post_reveal_questions","survey-likert","334","1094468","0.0-6.0-6.46","2894466","co38488","norming","","","{""aha"":6}","[0]","../img/tt/603tt.jpg","",""
"null","<div style=""font-size:60px;""> </div>","null","fixation","html-keyboard-response","335","1094670","0.0-6.0-0.47","2894466","co38488","norming","","","","","","",""
"null","../img/tt/123tt.jpg","null","mooney1","image-keyboard-response","336","1097681","0.0-6.0-1.47","2894466","co38488","norming","","","","","","",""
"3559.890000000596","","","post_mooney1_questions","survey-likert","337","1101244","0.0-6.0-2.47","2894466","co38488","norming","","","{""curiosity"":5,""confidence"":2}","[0,1]","../img/tt/123tt.jpg","",""
"1709.530000000028","","","recognition","survey-text","338","1102956","0.0-6.0-3.47","2894466","co38488","norming","","","{""guess"":""bag""}","","../img/tt/123tt.jpg","",""
"null","../img/gs/123gs.jpg","null","reveal","image-keyboard-response","339","1104963","0.0-6.0-4.47","2894466","co38488","norming","","","","","","",""
"null","../img/tt/123tt.jpg","null","mooney2","image-keyboard-response","340","1106970","0.0-6.0-5.47","2894466","co38488","norming","","","","","","",""
"3039.5449999996927","","","post_reveal_questions","survey-likert","341","1110012","0.0-6.0-6.47","2894466","co38488","norming","","","{""aha"":3}","[0]","../img/tt/123tt.jpg","",""
"null","<div style=""font-size:60px;""> </div>","null","fixation","html-keyboard-response","342","1110219","0.0-6.0-0.48","2894466","co38488","norming","","","","","","",""
"null","../img/tt/052tt.jpg","null","mooney1","image-keyboard-response","343","1113229","0.0-6.0-1.48","2894466","co38488","norming","","","","","","",""
"4772.360000000801","","","post_mooney1_questions","survey-likert","344","1117996","0.0-6.0-2.48","2894466","co38488","norming","","","{""curiosity"":4,""confidence"":1}","[0,1]","../img/tt/052tt.jpg","",""
"1942.3000000005122","","","recognition","survey-text","345","1119940","0.0-6.0-3.48","2894466","co38488","norming","","","{""guess"":""hat""}","","../img/tt/052tt.jpg","",""
"null","../img/gs/052gs.jpg","null","reveal","image-keyboard-response","346","1121947","0.0-6.0-4.48","2894466","co38488","norming","","","","","","",""
"null","../img/tt/052tt.jpg","null","mooney2","image-keyboard-response","347","1123948","0.0-6.0-5.48","2894466","co38488","norming","","","","","","",""
"2149.810000000987","","","post_reveal_questions","survey-likert","348","1126100","0.0-6.0-6.48","2894466","co38488","norming","","","{""aha"":5}","[0]","../img/tt/052tt.jpg","",""
"null","<div style=""font-size:60px;""> </div>","null","fixation","html-keyboard-response","349","1126303","0.0-6.0-0.49","2894466","co38488","norming","","","","","","",""
"null","../img/tt/306tt.jpg","null","mooney1","image-keyboard-response","350","1129310","0.0-6.0-1.49","2894466","co38488","norming","","","","","","",""
"4587.3549999997485","","","post_mooney1_questions","survey-likert","351","1133900","0.0-6.0-2.49","2894466","co38488","norming","","","{""curiosity"":4,""confidence"":1}","[0,1]","../img/tt/306tt.jpg","",""
"1862.14500000095","","","recognition","survey-text","352","1135764","0.0-6.0-3.49","2894466","co38488","norming","","","{""guess"":""hand""}","","../img/tt/306tt.jpg","",""
"null","../img/gs/306gs.jpg","null","reveal","image-keyboard-response","353","1137773","0.0-6.0-4.49","2894466","co38488","norming","","","","","","",""
"null","../img/tt/306tt.jpg","null","mooney2","image-keyboard-response","354","1139777","0.0-6.0-5.49","2894466","co38488","norming","","","","","","",""
"2312.5350000010803","","","post_reveal_questions","survey-likert","355","1142092","0.0-6.0-6.49","2894466","co38488","norming","","","{""aha"":4}","[0]","../img/tt/306tt.jpg","",""
"null","<div style=""font-size:60px;""> </div>","null","fixation","html-keyboard-response","356","1142299","0.0-6.0-0.50","2894466","co38488","norming","","","","","","",""
"null","../img/tt/1055tt.jpg","null","mooney1","image-keyboard-response","357","1145310","0.0-6.0-1.50","2894466","co38488","norming","","","","","","",""
"4973.635000000475","","","post_mooney1_questions","survey-likert","358","1150285","0.0-6.0-2.50","2894466","co38488","norming","","","{""curiosity"":5,""confidence"":1}","[0,1]","../img/tt/1055tt.jpg","",""
"4134.215000000084","","","recognition","survey-text","359","1154420","0.0-6.0-3.50","2894466","co38488","norming","","","{""guess"":""lake water""}","","../img/tt/1055tt.jpg","",""
"null","../img/gs/1055gs.jpg","null","reveal","image-keyboard-response","360","1156422","0.0-6.0-4.50","2894466","co38488","norming","","","","","","",""
"null","../img/tt/1055tt.jpg","null","mooney2","image-keyboard-response","361","1158423","0.0-6.0-5.50","2894466","co38488","norming","","","","","","",""
"1700.1449999988545","","","post_reveal_questions","survey-likert","362","1160124","0.0-6.0-6.50","2894466","co38488","norming","","","{""aha"":6}","[0]","../img/tt/1055tt.jpg","",""
"null","<div style=""font-size:60px;""> </div>","null","fixation","html-keyboard-response","363","1160326","0.0-6.0-0.51","2894466","co38488","norming","","","","","","",""
"null","../img/tt/091tt.jpg","null","mooney1","image-keyboard-response","364","1163335","0.0-6.0-1.51","2894466","co38488","norming","","","","","","",""
"4154.414999999106","","","post_mooney1_questions","survey-likert","365","1167493","0.0-6.0-2.51","2894466","co38488","norming","","","{""curiosity"":4,""confidence"":0}","[0,1]","../img/tt/091tt.jpg","",""
"789.9749999996275","","","recognition","survey-text","366","1168284","0.0-6.0-3.51","2894466","co38488","norming","","","{""guess"":""""}","","../img/tt/091tt.jpg","",""
"null","../img/gs/091gs.jpg","null","reveal","image-keyboard-response","367","1170295","0.0-6.0-4.51","2894466","co38488","norming","","","","","","",""
"null","../img/tt/091tt.jpg","null","mooney2","image-keyboard-response","368","1172305","0.0-6.0-5.51","2894466","co38488","norming","","","","","","",""
"1664.9599999999627","","","post_reveal_questions","survey-likert","369","1173972","0.0-6.0-6.51","2894466","co38488","norming","","","{""aha"":4}","[0]","../img/tt/091tt.jpg","",""
"null","<div style=""font-size:60px;""> </div>","null","fixation","html-keyboard-response","370","1174176","0.0-6.0-0.52","2894466","co38488","norming","","","","","","",""
"null","../img/tt/1199tt.jpg","null","mooney1","image-keyboard-response","371","1177187","0.0-6.0-1.52","2894466","co38488","norming","","","","","","",""
"7846.344999999972","","","post_mooney1_questions","survey-likert","372","1185041","0.0-6.0-2.52","2894466","co38488","norming","","","{""curiosity"":3,""confidence"":3}","[0,1]","../img/tt/1199tt.jpg","",""
"4310.154999999097","","","recognition","survey-text","373","1189353","0.0-6.0-3.52","2894466","co38488","norming","","","{""guess"":""cirus""}","","../img/tt/1199tt.jpg","",""
"null","../img/gs/1199gs.jpg","null","reveal","image-keyboard-response","374","1191364","0.0-6.0-4.52","2894466","co38488","norming","","","","","","",""
"null","../img/tt/1199tt.jpg","null","mooney2","image-keyboard-response","375","1193370","0.0-6.0-5.52","2894466","co38488","norming","","","","","","",""
"5700.305000000168","","","post_reveal_questions","survey-likert","376","1199073","0.0-6.0-6.52","2894466","co38488","norming","","","{""aha"":2}","[0]","../img/tt/1199tt.jpg","",""
"null","<div style=""font-size:60px;""> </div>","null","fixation","html-keyboard-response","377","1199278","0.0-6.0-0.53","2894466","co38488","norming","","","","","","",""
"null","../img/tt/1002tt.jpg","null","mooney1","image-keyboard-response","378","1202281","0.0-6.0-1.53","2894466","co38488","norming","","","","","","",""
"5853.119999999646","","","post_mooney1_questions","survey-likert","379","1208137","0.0-6.0-2.53","2894466","co38488","norming","","","{""curiosity"":4,""confidence"":2}","[0,1]","../img/tt/1002tt.jpg","",""
"2414.0050000005867","","","recognition","survey-text","380","1210553","0.0-6.0-3.53","2894466","co38488","norming","","","{""guess"":""bull""}","","../img/tt/1002tt.jpg","",""
"null","../img/gs/1002gs.jpg","null","reveal","image-keyboard-response","381","1212557","0.0-6.0-4.53","2894466","co38488","norming","","","","","","",""
"null","../img/tt/1002tt.jpg","null","mooney2","image-keyboard-response","382","1214558","0.0-6.0-5.53","2894466","co38488","norming","","","","","","",""
"2712.3549999997485","","","post_reveal_questions","survey-likert","383","1217273","0.0-6.0-6.53","2894466","co38488","norming","","","{""aha"":4}","[0]","../img/tt/1002tt.jpg","",""
"null","<div style=""font-size:60px;""> </div>","null","fixation","html-keyboard-response","384","1217479","0.0-6.0-0.54","2894466","co38488","norming","","","","","","",""
"null","../img/tt/1307tt.jpg","null","mooney1","image-keyboard-response","385","1220486","0.0-6.0-1.54","2894466","co38488","norming","","","","","","",""
"6961.48499999987","","","post_mooney1_questions","survey-likert","386","1227449","0.0-6.0-2.54","2894466","co38488","norming","","","{""curiosity"":4,""confidence"":3}","[0,1]","../img/tt/1307tt.jpg","",""
"4909.635000000009","","","recognition","survey-text","387","1232361","0.0-6.0-3.54","2894466","co38488","norming","","","{""guess"":""hamster cage""}","","../img/tt/1307tt.jpg","",""
"null","../img/gs/1307gs.jpg","null","reveal","image-keyboard-response","388","1234370","0.0-6.0-4.54","2894466","co38488","norming","","","","","","",""
"null","../img/tt/1307tt.jpg","null","mooney2","image-keyboard-response","389","1236378","0.0-6.0-5.54","2894466","co38488","norming","","","","","","",""
"2086.4149999998044","","","post_reveal_questions","survey-likert","390","1238465","0.0-6.0-6.54","2894466","co38488","norming","","","{""aha"":6}","[0]","../img/tt/1307tt.jpg","",""
"null","<div style=""font-size:60px;""> </div>","null","fixation","html-keyboard-response","391","1238667","0.0-6.0-0.55","2894466","co38488","norming","","","","","","",""
"null","../img/tt/1125tt.jpg","null","mooney1","image-keyboard-response","392","1241678","0.0-6.0-1.55","2894466","co38488","norming","","","","","","",""
"4127.749999999767","","","post_mooney1_questions","survey-likert","393","1245811","0.0-6.0-2.55","2894466","co38488","norming","","","{""curiosity"":5,""confidence"":0}","[0,1]","../img/tt/1125tt.jpg","",""
"589.8450000004377","","","recognition","survey-text","394","1246402","0.0-6.0-3.55","2894466","co38488","norming","","","{""guess"":""""}","","../img/tt/1125tt.jpg","",""
"null","../img/gs/1125gs.jpg","null","reveal","image-keyboard-response","395","1248405","0.0-6.0-4.55","2894466","co38488","norming","","","","","","",""
"null","../img/tt/1125tt.jpg","null","mooney2","image-keyboard-response","396","1250406","0.0-6.0-5.55","2894466","co38488","norming","","","","","","",""
"1954.8300000005402","","","post_reveal_questions","survey-likert","397","1252362","0.0-6.0-6.55","2894466","co38488","norming","","","{""aha"":6}","[0]","../img/tt/1125tt.jpg","",""
"null","<div style=""font-size:60px;""> </div>","null","fixation","html-keyboard-response","398","1252564","0.0-6.0-0.56","2894466","co38488","norming","","","","","","",""
"null","../img/tt/1089tt.jpg","null","mooney1","image-keyboard-response","399","1255575","0.0-6.0-1.56","2894466","co38488","norming","","","","","","",""
"4992.690000000875","","","post_mooney1_questions","survey-likert","400","1260571","0.0-6.0-2.56","2894466","co38488","norming","","","{""curiosity"":5,""confidence"":0}","[0,1]","../img/tt/1089tt.jpg","",""
"789.8700000005774","","","recognition","survey-text","401","1261362","0.0-6.0-3.56","2894466","co38488","norming","","","{""guess"":""""}","","../img/tt/1089tt.jpg","",""
"null","../img/gs/1089gs.jpg","null","reveal","image-keyboard-response","402","1263369","0.0-6.0-4.56","2894466","co38488","norming","","","","","","",""
"null","../img/tt/1089tt.jpg","null","mooney2","image-keyboard-response","403","1265373","0.0-6.0-5.56","2894466","co38488","norming","","","","","","",""
"2060.734999999171","","","post_reveal_questions","survey-likert","404","1267435","0.0-6.0-6.56","2894466","co38488","norming","","","{""aha"":6}","[0]","../img/tt/1089tt.jpg","",""
"null","<div style=""font-size:60px;""> </div>","null","fixation","html-keyboard-response","405","1267636","0.0-6.0-0.57","2894466","co38488","norming","","","","","","",""
"null","../img/tt/1268tt.jpg","null","mooney1","image-keyboard-response","406","1270645","0.0-6.0-1.57","2894466","co38488","norming","","","","","","",""
"4770.829999999376","","","post_mooney1_questions","survey-likert","407","1275419","0.0-6.0-2.57","2894466","co38488","norming","","","{""curiosity"":5,""confidence"":1}","[0,1]","../img/tt/1268tt.jpg","",""
"2366.0249999992084","","","recognition","survey-text","408","1277787","0.0-6.0-3.57","2894466","co38488","norming","","","{""guess"":""duck""}","","../img/tt/1268tt.jpg","",""
"null","../img/gs/1268gs.jpg","null","reveal","image-keyboard-response","409","1279797","0.0-6.0-4.57","2894466","co38488","norming","","","","","","",""
"null","../img/tt/1268tt.jpg","null","mooney2","image-keyboard-response","410","1281807","0.0-6.0-5.57","2894466","co38488","norming","","","","","","",""
"3242.8700000001118","","","post_reveal_questions","survey-likert","411","1285051","0.0-6.0-6.57","2894466","co38488","norming","","","{""aha"":6}","[0]","../img/tt/1268tt.jpg","",""
"null","<div style=""font-size:60px;""> </div>","null","fixation","html-keyboard-response","412","1285253","0.0-6.0-0.58","2894466","co38488","norming","","","","","","",""
"null","../img/tt/456tt.jpg","null","mooney1","image-keyboard-response","413","1288264","0.0-6.0-1.58","2894466","co38488","norming","","","","","","",""
"5511.819999999832","","","post_mooney1_questions","survey-likert","414","1293779","0.0-6.0-2.58","2894466","co38488","norming","","","{""curiosity"":4,""confidence"":0}","[0,1]","../img/tt/456tt.jpg","",""
"501.7749999987427","","","recognition","survey-text","415","1294282","0.0-6.0-3.58","2894466","co38488","norming","","","{""guess"":""""}","","../img/tt/456tt.jpg","",""
"null","../img/gs/456gs.jpg","null","reveal","image-keyboard-response","416","1296293","0.0-6.0-4.58","2894466","co38488","norming","","","","","","",""
"null","../img/tt/456tt.jpg","null","mooney2","image-keyboard-response","417","1298301","0.0-6.0-5.58","2894466","co38488","norming","","","","","","",""
"2034.760000000475","","","post_reveal_questions","survey-likert","418","1300338","0.0-6.0-6.58","2894466","co38488","norming","","","{""aha"":4}","[0]","../img/tt/456tt.jpg","",""
"null","<div style=""font-size:60px;""> </div>","null","fixation","html-keyboard-response","419","1300544","0.0-6.0-0.59","2894466","co38488","norming","","","","","","",""
"null","../img/tt/053tt.jpg","null","mooney1","image-keyboard-response","420","1303554","0.0-6.0-1.59","2894466","co38488","norming","","","","","","",""
"3334.8050000004005","","","post_mooney1_questions","survey-likert","421","1306892","0.0-6.0-2.59","2894466","co38488","norming","","","{""curiosity"":5,""confidence"":2}","[0,1]","../img/tt/053tt.jpg","",""
"2366.1799999990035","","","recognition","survey-text","422","1309260","0.0-6.0-3.59","2894466","co38488","norming","","","{""guess"":""bird""}","","../img/tt/053tt.jpg","",""
"null","../img/gs/053gs.jpg","null","reveal","image-keyboard-response","423","1311265","0.0-6.0-4.59","2894466","co38488","norming","","","","","","",""
"null","../img/tt/053tt.jpg","null","mooney2","image-keyboard-response","424","1313267","0.0-6.0-5.59","2894466","co38488","norming","","","","","","",""
"1997.664999999106","","","post_reveal_questions","survey-likert","425","1315268","0.0-6.0-6.59","2894466","co38488","norming","","","{""aha"":5}","[0]","../img/tt/053tt.jpg","",""
"null","<div style=""font-size:60px;""> </div>","null","fixation","html-keyboard-response","426","1315477","0.0-6.0-0.60","2894466","co38488","norming","","","","","","",""
"null","../img/tt/1151tt.jpg","null","mooney1","image-keyboard-response","427","1318483","0.0-6.0-1.60","2894466","co38488","norming","","","","","","",""
"4143.844999998575","","","post_mooney1_questions","survey-likert","428","1322628","0.0-6.0-2.60","2894466","co38488","norming","","","{""curiosity"":4,""confidence"":0}","[0,1]","../img/tt/1151tt.jpg","",""
"605.9299999999348","","","recognition","survey-text","429","1323236","0.0-6.0-3.60","2894466","co38488","norming","","","{""guess"":""""}","","../img/tt/1151tt.jpg","",""
"null","../img/gs/1151gs.jpg","null","reveal","image-keyboard-response","430","1325242","0.0-6.0-4.60","2894466","co38488","norming","","","","","","",""
"null","../img/tt/1151tt.jpg","null","mooney2","image-keyboard-response","431","1327244","0.0-6.0-5.60","2894466","co38488","norming","","","","","","",""
"1781.25","","","post_reveal_questions","survey-likert","432","1329028","0.0-6.0-6.60","2894466","co38488","norming","","","{""aha"":5}","[0]","../img/tt/1151tt.jpg","",""
"null","<div style=""font-size:60px;""> </div>","null","fixation","html-keyboard-response","433","1329237","0.0-6.0-0.61","2894466","co38488","norming","","","","","","",""
"null","../img/tt/1226tt.jpg","null","mooney1","image-keyboard-response","434","1332248","0.0-6.0-1.61","2894466","co38488","norming","","","","","","",""
"4368.539999999572","","","post_mooney1_questions","survey-likert","435","1336620","0.0-6.0-2.61","2894466","co38488","norming","","","{""curiosity"":4,""confidence"":0}","[0,1]","../img/tt/1226tt.jpg","",""
"773.7649999998976","","","recognition","survey-text","436","1337396","0.0-6.0-3.61","2894466","co38488","norming","","","{""guess"":""""}","","../img/tt/1226tt.jpg","",""
"null","../img/gs/1226gs.jpg","null","reveal","image-keyboard-response","437","1339399","0.0-6.0-4.61","2894466","co38488","norming","","","","","","",""
"null","../img/tt/1226tt.jpg","null","mooney2","image-keyboard-response","438","1341409","0.0-6.0-5.61","2894466","co38488","norming","","","","","","",""
"4168.02000000095","","","post_reveal_questions","survey-likert","439","1345580","0.0-6.0-6.61","2894466","co38488","norming","","","{""aha"":4}","[0]","../img/tt/1226tt.jpg","",""
"null","<div style=""font-size:60px;""> </div>","null","fixation","html-keyboard-response","440","1345781","0.0-6.0-0.62","2894466","co38488","norming","","","","","","",""
"null","../img/tt/056tt.jpg","null","mooney1","image-keyboard-response","441","1348782","0.0-6.0-1.62","2894466","co38488","norming","","","","","","",""
"5140.815000000643","","","post_mooney1_questions","survey-likert","442","1353924","0.0-6.0-2.62","2894466","co38488","norming","","","{""curiosity"":5,""confidence"":0}","[0,1]","../img/tt/056tt.jpg","",""
"741.9599999992643","","","recognition","survey-text","443","1354668","0.0-6.0-3.62","2894466","co38488","norming","","","{""guess"":""""}","","../img/tt/056tt.jpg","",""
"null","../img/gs/056gs.jpg","null","reveal","image-keyboard-response","444","1356677","0.0-6.0-4.62","2894466","co38488","norming","","","","","","",""
"null","../img/tt/056tt.jpg","null","mooney2","image-keyboard-response","445","1358684","0.0-6.0-5.62","2894466","co38488","norming","","","","","","",""
"2461.3049999990035","","","post_reveal_questions","survey-likert","446","1361148","0.0-6.0-6.62","2894466","co38488","norming","","","{""aha"":5}","[0]","../img/tt/056tt.jpg","",""
"null","<div style=""font-size:60px;""> </div>","null","fixation","html-keyboard-response","447","1361352","0.0-6.0-0.63","2894466","co38488","norming","","","","","","",""
"null","../img/tt/078tt.jpg","null","mooney1","image-keyboard-response","448","1364364","0.0-6.0-1.63","2894466","co38488","norming","","","","","","",""
"5431.080000000307","","","post_mooney1_questions","survey-likert","449","1369797","0.0-6.0-2.63","2894466","co38488","norming","","","{""curiosity"":3,""confidence"":4}","[0,1]","../img/tt/078tt.jpg","",""
"2965.8199999995995","","","recognition","survey-text","450","1372764","0.0-6.0-3.63","2894466","co38488","norming","","","{""guess"":""grapes""}","","../img/tt/078tt.jpg","",""
"null","../img/gs/078gs.jpg","null","reveal","image-keyboard-response","451","1374774","0.0-6.0-4.63","2894466","co38488","norming","","","","","","",""
"null","../img/tt/078tt.jpg","null","mooney2","image-keyboard-response","452","1376777","0.0-6.0-5.63","2894466","co38488","norming","","","","","","",""
"2152.3099999993574","","","post_reveal_questions","survey-likert","453","1378932","0.0-6.0-6.63","2894466","co38488","norming","","","{""aha"":0}","[0]","../img/tt/078tt.jpg","",""
"null","<div style=""font-size:60px;""> </div>","null","fixation","html-keyboard-response","454","1379133","0.0-6.0-0.64","2894466","co38488","norming","","","","","","",""
"null","../img/tt/1250tt.jpg","null","mooney1","image-keyboard-response","455","1382142","0.0-6.0-1.64","2894466","co38488","norming","","","","","","",""
"4882.385000000708","","","post_mooney1_questions","survey-likert","456","1387029","0.0-6.0-2.64","2894466","co38488","norming","","","{""curiosity"":5,""confidence"":0}","[0,1]","../img/tt/1250tt.jpg","",""
"845.8950000004843","","","recognition","survey-text","457","1387876","0.0-6.0-3.64","2894466","co38488","norming","","","{""guess"":""""}","","../img/tt/1250tt.jpg","",""
"null","../img/gs/1250gs.jpg","null","reveal","image-keyboard-response","458","1389885","0.0-6.0-4.64","2894466","co38488","norming","","","","","","",""
"null","../img/tt/1250tt.jpg","null","mooney2","image-keyboard-response","459","1391895","0.0-6.0-5.64","2894466","co38488","norming","","","","","","",""
"1675.0049999991897","","","post_reveal_questions","survey-likert","460","1393572","0.0-6.0-6.64","2894466","co38488","norming","","","{""aha"":6}","[0]","../img/tt/1250tt.jpg","",""
"null","<div style=""font-size:60px;""> </div>","null","fixation","html-keyboard-response","461","1393773","0.0-6.0-0.65","2894466","co38488","norming","","","","","","",""
"null","../img/tt/358tt.jpg","null","mooney1","image-keyboard-response","462","1396783","0.0-6.0-1.65","2894466","co38488","norming","","","","","","",""
"4162.110000001267","","","post_mooney1_questions","survey-likert","463","1400949","0.0-6.0-2.65","2894466","co38488","norming","","","{""curiosity"":5,""confidence"":1}","[0,1]","../img/tt/358tt.jpg","",""
"2773.6399999996647","","","recognition","survey-text","464","1403724","0.0-6.0-3.65","2894466","co38488","norming","","","{""guess"":""horse""}","","../img/tt/358tt.jpg","",""
"null","../img/gs/358gs.jpg","null","reveal","image-keyboard-response","465","1405726","0.0-6.0-4.65","2894466","co38488","norming","","","","","","",""
"null","../img/tt/358tt.jpg","null","mooney2","image-keyboard-response","466","1407728","0.0-6.0-5.65","2894466","co38488","norming","","","","","","",""
"5114.480000000214","","","post_reveal_questions","survey-likert","467","1412844","0.0-6.0-6.65","2894466","co38488","norming","","","{""aha"":3}","[0]","../img/tt/358tt.jpg","",""
"null","<div style=""font-size:60px;""> </div>","null","fixation","html-keyboard-response","468","1413045","0.0-6.0-0.66","2894466","co38488","norming","","","","","","",""
"null","../img/tt/1116tt.jpg","null","mooney1","image-keyboard-response","469","1416052","0.0-6.0-1.66","2894466","co38488","norming","","","","","","",""
"3829.390000000829","","","post_mooney1_questions","survey-likert","470","1419885","0.0-6.0-2.66","2894466","co38488","norming","","","{""curiosity"":4,""confidence"":2}","[0,1]","../img/tt/1116tt.jpg","",""
"2078.025000000838","","","recognition","survey-text","471","1421964","0.0-6.0-3.66","2894466","co38488","norming","","","{""guess"":""car""}","","../img/tt/1116tt.jpg","",""
"null","../img/gs/1116gs.jpg","null","reveal","image-keyboard-response","472","1423974","0.0-6.0-4.66","2894466","co38488","norming","","","","","","",""
"null","../img/tt/1116tt.jpg","null","mooney2","image-keyboard-response","473","1425985","0.0-6.0-5.66","2894466","co38488","norming","","","","","","",""
"4552.834999998566","","","post_reveal_questions","survey-likert","474","1430540","0.0-6.0-6.66","2894466","co38488","norming","","","{""aha"":4}","[0]","../img/tt/1116tt.jpg","",""
"null","<div style=""font-size:60px;""> </div>","null","fixation","html-keyboard-response","475","1430745","0.0-6.0-0.67","2894466","co38488","norming","","","","","","",""
"null","../img/tt/1118tt.jpg","null","mooney1","image-keyboard-response","476","1433748","0.0-6.0-1.67","2894466","co38488","norming","","","","","","",""
"6854.879999998957","","","post_mooney1_questions","survey-likert","477","1440604","0.0-6.0-2.67","2894466","co38488","norming","","","{""curiosity"":5,""confidence"":0}","[0,1]","../img/tt/1118tt.jpg","",""
"541.9199999996927","","","recognition","survey-text","478","1441148","0.0-6.0-3.67","2894466","co38488","norming","","","{""guess"":""""}","","../img/tt/1118tt.jpg","",""
"null","../img/gs/1118gs.jpg","null","reveal","image-keyboard-response","479","1443155","0.0-6.0-4.67","2894466","co38488","norming","","","","","","",""
"null","../img/tt/1118tt.jpg","null","mooney2","image-keyboard-response","480","1445158","0.0-6.0-5.67","2894466","co38488","norming","","","","","","",""
"1339.2649999987334","","","post_reveal_questions","survey-likert","481","1446500","0.0-6.0-6.67","2894466","co38488","norming","","","{""aha"":3}","[0]","../img/tt/1118tt.jpg","",""
"null","<div style=""font-size:60px;""> </div>","null","fixation","html-keyboard-response","482","1446702","0.0-6.0-0.68","2894466","co38488","norming","","","","","","",""
"null","../img/tt/222tt.jpg","null","mooney1","image-keyboard-response","483","1449706","0.0-6.0-1.68","2894466","co38488","norming","","","","","","",""
"3231.2500000009313","","","post_mooney1_questions","survey-likert","484","1452940","0.0-6.0-2.68","2894466","co38488","norming","","","{""curiosity"":5,""confidence"":0}","[0,1]","../img/tt/222tt.jpg","",""
"917.9899999997579","","","recognition","survey-text","485","1453860","0.0-6.0-3.68","2894466","co38488","norming","","","{""guess"":""""}","","../img/tt/222tt.jpg","",""
"null","../img/gs/222gs.jpg","null","reveal","image-keyboard-response","486","1455867","0.0-6.0-4.68","2894466","co38488","norming","","","","","","",""
"null","../img/tt/222tt.jpg","null","mooney2","image-keyboard-response","487","1457870","0.0-6.0-5.68","2894466","co38488","norming","","","","","","",""
"1867.4600000013597","","","post_reveal_questions","survey-likert","488","1459740","0.0-6.0-6.68","2894466","co38488","norming","","","{""aha"":6}","[0]","../img/tt/222tt.jpg","",""
"null","<div style=""font-size:60px;""> </div>","null","fixation","html-keyboard-response","489","1459949","0.0-6.0-0.69","2894466","co38488","norming","","","","","","",""
"null","../img/tt/1146tt.jpg","null","mooney1","image-keyboard-response","490","1462960","0.0-6.0-1.69","2894466","co38488","norming","","","","","","",""
"3994.6550000004936","","","post_mooney1_questions","survey-likert","491","1466956","0.0-6.0-2.69","2894466","co38488","norming","","","{""curiosity"":4,""confidence"":0}","[0,1]","../img/tt/1146tt.jpg","",""
"606.0600000000559","","","recognition","survey-text","492","1467564","0.0-6.0-3.69","2894466","co38488","norming","","","{""guess"":""""}","","../img/tt/1146tt.jpg","",""
"null","../img/gs/1146gs.jpg","null","reveal","image-keyboard-response","493","1469573","0.0-6.0-4.69","2894466","co38488","norming","","","","","","",""
"null","../img/tt/1146tt.jpg","null","mooney2","image-keyboard-response","494","1471576","0.0-6.0-5.69","2894466","co38488","norming","","","","","","",""
"3257.4700000004377","","","post_reveal_questions","survey-likert","495","1474837","0.0-6.0-6.69","2894466","co38488","norming","","","{""aha"":6}","[0]","../img/tt/1146tt.jpg","",""
"null","<div style=""font-size:60px;""> </div>","null","fixation","html-keyboard-response","496","1475038","0.0-6.0-0.70","2894466","co38488","norming","","","","","","",""
"null","../img/tt/112tt.jpg","null","mooney1","image-keyboard-response","497","1478046","0.0-6.0-1.70","2894466","co38488","norming","","","","","","",""
"4091.674999999581","","","post_mooney1_questions","survey-likert","498","1482140","0.0-6.0-2.70","2894466","co38488","norming","","","{""curiosity"":5,""confidence"":0}","[0,1]","../img/tt/112tt.jpg","",""
"1413.9849999991711","","","recognition","survey-text","499","1483556","0.0-6.0-3.70","2894466","co38488","norming","","","{""guess"":""""}","","../img/tt/112tt.jpg","",""
"null","../img/gs/112gs.jpg","null","reveal","image-keyboard-response","500","1485562","0.0-6.0-4.70","2894466","co38488","norming","","","","","","",""
"null","../img/tt/112tt.jpg","null","mooney2","image-keyboard-response","501","1487565","0.0-6.0-5.70","2894466","co38488","norming","","","","","","",""
"1677.7550000005867","","","post_reveal_questions","survey-likert","502","1489245","0.0-6.0-6.70","2894466","co38488","norming","","","{""aha"":6}","[0]","../img/tt/112tt.jpg","",""
"null","<div style=""font-size:60px;""> </div>","null","fixation","html-keyboard-response","503","1489454","0.0-6.0-0.71","2894466","co38488","norming","","","","","","",""
"null","../img/tt/194tt.jpg","null","mooney1","image-keyboard-response","504","1492458","0.0-6.0-1.71","2894466","co38488","norming","","","","","","",""
"5618.255000001052","","","post_mooney1_questions","survey-likert","505","1498078","0.0-6.0-2.71","2894466","co38488","norming","","","{""curiosity"":2,""confidence"":4}","[0,1]","../img/tt/194tt.jpg","",""
"9870.329999999842","","","recognition","survey-text","506","1507950","0.0-6.0-3.71","2894466","co38488","norming","","","{""guess"":""girl sitting""}","","../img/tt/194tt.jpg","",""
"null","../img/gs/194gs.jpg","null","reveal","image-keyboard-response","507","1509956","0.0-6.0-4.71","2894466","co38488","norming","","","","","","",""
"null","../img/tt/194tt.jpg","null","mooney2","image-keyboard-response","508","1511966","0.0-6.0-5.71","2894466","co38488","norming","","","","","","",""
"3356.644999999786","","","post_reveal_questions","survey-likert","509","1515325","0.0-6.0-6.71","2894466","co38488","norming","","","{""aha"":2}","[0]","../img/tt/194tt.jpg","",""
"null","<div style=""font-size:60px;""> </div>","null","fixation","html-keyboard-response","510","1515528","0.0-6.0-0.72","2894466","co38488","norming","","","","","","",""
"null","../img/tt/1142tt.jpg","null","mooney1","image-keyboard-response","511","1518538","0.0-6.0-1.72","2894466","co38488","norming","","","","","","",""
"7344.214999999385","","","post_mooney1_questions","survey-likert","512","1525886","0.0-6.0-2.72","2894466","co38488","norming","","","{""curiosity"":4,""confidence"":2}","[0,1]","../img/tt/1142tt.jpg","",""
"3870.1249999995343","","","recognition","survey-text","513","1529758","0.0-6.0-3.72","2894466","co38488","norming","","","{""guess"":""basket player""}","","../img/tt/1142tt.jpg","",""
"null","../img/gs/1142gs.jpg","null","reveal","image-keyboard-response","514","1531760","0.0-6.0-4.72","2894466","co38488","norming","","","","","","",""
"null","../img/tt/1142tt.jpg","null","mooney2","image-keyboard-response","515","1533772","0.0-6.0-5.72","2894466","co38488","norming","","","","","","",""
"4951.124999999534","","","post_reveal_questions","survey-likert","516","1538725","0.0-6.0-6.72","2894466","co38488","norming","","","{""aha"":3}","[0]","../img/tt/1142tt.jpg","",""
"null","<div style=""font-size:60px;""> </div>","null","fixation","html-keyboard-response","517","1538926","0.0-6.0-0.73","2894466","co38488","norming","","","","","","",""
"null","../img/tt/1269tt.jpg","null","mooney1","image-keyboard-response","518","1541935","0.0-6.0-1.73","2894466","co38488","norming","","","","","","",""
"9507.295000001322","","","post_mooney1_questions","survey-likert","519","1551442","0.0-6.0-2.73","2894466","co38488","norming","","","{""curiosity"":4,""confidence"":1}","[0,1]","../img/tt/1269tt.jpg","",""
"2678.070000000065","","","recognition","survey-text","520","1554122","0.0-6.0-3.73","2894466","co38488","norming","","","{""guess"":""squirl""}","","../img/tt/1269tt.jpg","",""
"null","../img/gs/1269gs.jpg","null","reveal","image-keyboard-response","521","1556128","0.0-6.0-4.73","2894466","co38488","norming","","","","","","",""
"null","../img/tt/1269tt.jpg","null","mooney2","image-keyboard-response","522","1558138","0.0-6.0-5.73","2894466","co38488","norming","","","","","","",""
"2675.5250000006054","","","post_reveal_questions","survey-likert","523","1560818","0.0-6.0-6.73","2894466","co38488","norming","","","{""aha"":3}","[0]","../img/tt/1269tt.jpg","",""
"null","<div style=""font-size:60px;""> </div>","null","fixation","html-keyboard-response","524","1561028","0.0-6.0-0.74","2894466","co38488","norming","","","","","","",""
"null","../img/tt/515tt.jpg","null","mooney1","image-keyboard-response","525","1564036","0.0-6.0-1.74","2894466","co38488","norming","","","","","","",""
"6763.430000000866","","","post_mooney1_questions","survey-likert","526","1570804","0.0-6.0-2.74","2894466","co38488","norming","","","{""curiosity"":4,""confidence"":2}","[0,1]","../img/tt/515tt.jpg","",""
"3748.3499999998603","","","recognition","survey-text","527","1574554","0.0-6.0-3.74","2894466","co38488","norming","","","{""guess"":""pidgeon""}","","../img/tt/515tt.jpg","",""
"null","../img/gs/515gs.jpg","null","reveal","image-keyboard-response","528","1576561","0.0-6.0-4.74","2894466","co38488","norming","","","","","","",""
"null","../img/tt/515tt.jpg","null","mooney2","image-keyboard-response","529","1578565","0.0-6.0-5.74","2894466","co38488","norming","","","","","","",""
"2418.6200000003446","","","post_reveal_questions","survey-likert","530","1580986","0.0-6.0-6.74","2894466","co38488","norming","","","{""aha"":4}","[0]","../img/tt/515tt.jpg","",""
"null","<div style=""font-size:60px;""> </div>","null","fixation","html-keyboard-response","531","1581188","0.0-6.0-0.75","2894466","co38488","norming","","","","","","",""
"null","../img/tt/040tt.jpg","null","mooney1","image-keyboard-response","532","1584196","0.0-6.0-1.75","2894466","co38488","norming","","","","","","",""
"3755.340000001481","","","post_mooney1_questions","survey-likert","533","1587955","0.0-6.0-2.75","2894466","co38488","norming","","","{""curiosity"":5,""confidence"":0}","[0,1]","../img/tt/040tt.jpg","",""
"1053.9650000007823","","","recognition","survey-text","534","1589010","0.0-6.0-3.75","2894466","co38488","norming","","","{""guess"":""""}","","../img/tt/040tt.jpg","",""
"null","../img/gs/040gs.jpg","null","reveal","image-keyboard-response","535","1591013","0.0-6.0-4.75","2894466","co38488","norming","","","","","","",""
"null","../img/tt/040tt.jpg","null","mooney2","image-keyboard-response","536","1593014","0.0-6.0-5.75","2894466","co38488","norming","","","","","","",""
"1977.4550000003073","","","post_reveal_questions","survey-likert","537","1594995","0.0-6.0-6.75","2894466","co38488","norming","","","{""aha"":6}","[0]","../img/tt/040tt.jpg","",""
"null","<div style=""font-size:60px;""> </div>","null","fixation","html-keyboard-response","538","1595202","0.0-6.0-0.76","2894466","co38488","norming","","","","","","",""
"null","../img/tt/477tt.jpg","null","mooney1","image-keyboard-response","539","1598211","0.0-6.0-1.76","2894466","co38488","norming","","","","","","",""
"4884.030000000959","","","post_mooney1_questions","survey-likert","540","1603098","0.0-6.0-2.76","2894466","co38488","norming","","","{""curiosity"":2,""confidence"":5}","[0,1]","../img/tt/477tt.jpg","",""
"1934.3649999992922","","","recognition","survey-text","541","1605034","0.0-6.0-3.76","2894466","co38488","norming","","","{""guess"":""fish""}","","../img/tt/477tt.jpg","",""
"null","../img/gs/477gs.jpg","null","reveal","image-keyboard-response","542","1607037","0.0-6.0-4.76","2894466","co38488","norming","","","","","","",""
"null","../img/tt/477tt.jpg","null","mooney2","image-keyboard-response","543","1609048","0.0-6.0-5.76","2894466","co38488","norming","","","","","","",""
"2951.269999999553","","","post_reveal_questions","survey-likert","544","1612006","0.0-6.0-6.76","2894466","co38488","norming","","","{""aha"":2}","[0]","../img/tt/477tt.jpg","",""
"null","<div style=""font-size:60px;""> </div>","null","fixation","html-keyboard-response","545","1612215","0.0-6.0-0.77","2894466","co38488","norming","","","","","","",""
"null","../img/tt/1272tt.jpg","null","mooney1","image-keyboard-response","546","1615220","0.0-6.0-1.77","2894466","co38488","norming","","","","","","",""
"3838.875000001397","","","post_mooney1_questions","survey-likert","547","1619062","0.0-6.0-2.77","2894466","co38488","norming","","","{""curiosity"":4,""confidence"":0}","[0,1]","../img/tt/1272tt.jpg","",""
"566.0850000004284","","","recognition","survey-text","548","1619630","0.0-6.0-3.77","2894466","co38488","norming","","","{""guess"":""""}","","../img/tt/1272tt.jpg","",""
"null","../img/gs/1272gs.jpg","null","reveal","image-keyboard-response","549","1621637","0.0-6.0-4.77","2894466","co38488","norming","","","","","","",""
"null","../img/tt/1272tt.jpg","null","mooney2","image-keyboard-response","550","1623643","0.0-6.0-5.77","2894466","co38488","norming","","","","","","",""
"5024.939999999246","","","post_reveal_questions","survey-likert","551","1628670","0.0-6.0-6.77","2894466","co38488","norming","","","{""aha"":5}","[0]","../img/tt/1272tt.jpg","",""
"null","<div style=""font-size:60px;""> </div>","null","fixation","html-keyboard-response","552","1628872","0.0-6.0-0.78","2894466","co38488","norming","","","","","","",""
"null","../img/tt/1279tt.jpg","null","mooney1","image-keyboard-response","553","1631881","0.0-6.0-1.78","2894466","co38488","norming","","","","","","",""
