"rt","stimulus","key_press","test_part","trial_type","trial_index","time_elapsed","internal_node_id","totalTime","subject","experiment_name","button_pressed","success","responses","question_order","currentStim","old","correct"
"8940.619999999399","Welcome to the experiment. This is an online experiment so please don't close the tab/window until we say goodbye.  Press any key to begin.","13","instructions","html-keyboard-response","0","8953","0.0-0.0","2938766","co38026","norming","","","","","","",""
"50358.384999999544","<div style='word-wrap: break-word; width: 900px'><h3>Please consider this information carefully before deciding whether to participate in this research</h3><ul style='text-align: left; font-size: .8em;'><li><b>Purpose of the research</b>: To examine how people process images.</li><li><b>What you will do in this research</b>:  Stimuli (images) will be presented on the computer and you will be asked different questions about them.</li><li><b>Time required</b>: Participation will take between 45 and 60 minutes to complete.</li><li><b>Risks</b>:  There are no anticipated risks associated with participating in this study. The effects of participating should be comparable to those you would experience from viewing a computer monitor for 30 minutes and using a mouse or keyboard.</li><li><b>Benefits</b>:  This study provides no benefits to you individually except for the credit. The study provides important information about the nature of perception and learning.</li><li><b>Confidentiality</b>:  Your participation in this study will remain confidential. No personally identifiable information will be associated with your data. Your de-identified data may be shared with other researchers and used in future projects.</li><li><b>Participation and withdrawal</b>:  Your participation in this study is completely voluntary and you may refuse to participate or you may choose to withdraw at any time without penalty.</li><li><b>How to contact the researchers</b>: If you have questions or concerns about your participation or payment, or want to request a summary of research findings, please contact Sander Van de Cruys (KU Leuven), at sander.vandecruys@kuleuven.be.</li></ul><p>The nature and purpose of this research have been sufficiently explained and I agree to participate in this study.  I understand that I am free to withdraw at any time without incurring any penalty.</p><p>Please consent by clicking the button below to continue. Otherwise, please exit the study at this time.</p></div>","","instructions","html-button-response","1","59313","0.0-1.0","2938766","co38026","norming","0","","","","","",""
"","","","instructions","fullscreen","2","68650","0.0-2.0","2938766","co38026","norming","","true","","","","",""
"46828.485","","","sona","survey-html-form","3","115483","0.0-3.0","2938766","co38026","norming","","","[{""name"":""sonaid"",""value"":""38026""},{""name"":""debrief"",""value"":""yes""},{""name"":""datajoin"",""value"":""yes""}]","","","",""
"81379.82999999987","<div style='word-wrap: break-word; width: 900px'><h3>Instructions</h3><p>This experiment will have 3 parts. In the first part you will see a series of distorted images like the one below on the left. As you can see in the righthand image, the distorted images are derived from actual photographs. In what follows, you will <strong>briefly</strong> be presented with <strong>only</strong> the distorted image.</p> <div style='float: left; margin-right: 20px;'><img src='../img/018tt.jpg' height='250' width='250'></img></div><div style='float: right; margin-left: 20px;'><img src='../img/018gs.jpg' height='250' width='250'></img></div><p>Subsequently you will be asked a few questions about the image: One question on how <strong>curious</strong> you are about the solution and one on how <strong>confident</strong> you are that you know the solution.</p>Next, we ask you to make a guess on what is in the image. Note that it is OK to name just the <strong>basic level category</strong>. For example when you see a parrot in the image, 'parrot' will obviously be a correct answer but also correct is 'bird'. However, 'animal' will <strong>not</strong> be counted as a correct response. For the example above, 'rose' would be correct or 'flower', but not 'plant'. When soccer players are depicted, 'soccer', 'football', 'soccer players' will be correct, but not 'humans', 'outdoors', or 'sports'. You do not need to describe the image in full, just name the main object in it <strong>in one or two words</strong>. All images depict objects from one of the following broad level categories: animals, inanimate objects, plants, sports, vehicles, and food. Recognizing means knowing <strong>more</strong> than these broad labels for a given image. But we always encourage you to <strong>make a guess</strong> if you can. Note that you are allowed to use <strong>Dutch and English</strong> in your answers, whatever comes easiest for you.</p><p>Press any key to continue.</p></div>","32","instructions","html-keyboard-response","4","196872","0.0-4.0","2938766","co38026","norming","","","","","","",""
"23118.005000000237","<div style='word-wrap: break-word; width: 900px'><h3>Instructions</h3> <p>Next, the solution image will be revealed to you and you'll be asked to indicate how strong your <strong>aha-experience</strong> was after seeing the solution. This describes the positive feeling of the 'click' you sometimes experience, when the pieces of the 'puzzle' fall together and you suddenly have 'insight' in the image.</p><img src='aha.jpg' height='188' width='250'></img><p>Note that there are no right or wrong answers. We are interested in what <strong>you</strong> see in the image and how <strong>you</strong> feel about it.</p><p>Press any key to start the experiment.</p></div>","32","instructions","html-keyboard-response","5","219992","0.0-5.0","2938766","co38026","norming","","","","","","",""
"null","<div style=""font-size:60px;""> </div>","null","fixation","html-keyboard-response","6","220198","0.0-6.0-0.0","2938766","co38026","norming","","","","","","",""
"null","../img/tt/436tt.jpg","null","mooney1","image-keyboard-response","7","223209","0.0-6.0-1.0","2938766","co38026","norming","","","","","","",""
"13372.600000000617","","","post_mooney1_questions","survey-likert","8","236583","0.0-6.0-2.0","2938766","co38026","norming","","","{""curiosity"":5,""confidence"":0}","[0,1]","../img/tt/436tt.jpg","",""
"7213.574999999779","","","recognition","survey-text","9","243798","0.0-6.0-3.0","2938766","co38026","norming","","","{""guess"":""""}","","../img/tt/436tt.jpg","",""
"null","../img/gs/436gs.jpg","null","reveal","image-keyboard-response","10","245806","0.0-6.0-4.0","2938766","co38026","norming","","","","","","",""
"null","../img/tt/436tt.jpg","null","mooney2","image-keyboard-response","11","247808","0.0-6.0-5.0","2938766","co38026","norming","","","","","","",""
"8627.619999999297","","","post_reveal_questions","survey-likert","12","256438","0.0-6.0-6.0","2938766","co38026","norming","","","{""aha"":2}","[0]","../img/tt/436tt.jpg","",""
"null","<div style=""font-size:60px;""> </div>","null","fixation","html-keyboard-response","13","256641","0.0-6.0-0.1","2938766","co38026","norming","","","","","","",""
"null","../img/tt/416tt.jpg","null","mooney1","image-keyboard-response","14","259638","0.0-6.0-1.1","2938766","co38026","norming","","","","","","",""
"9098.40000000075","","","post_mooney1_questions","survey-likert","15","268738","0.0-6.0-2.1","2938766","co38026","norming","","","{""curiosity"":5,""confidence"":0}","[0,1]","../img/tt/416tt.jpg","",""
"2229.960000000545","","","recognition","survey-text","16","270970","0.0-6.0-3.1","2938766","co38026","norming","","","{""guess"":""koe""}","","../img/tt/416tt.jpg","",""
"null","../img/gs/416gs.jpg","null","reveal","image-keyboard-response","17","272975","0.0-6.0-4.1","2938766","co38026","norming","","","","","","",""
"null","../img/tt/416tt.jpg","null","mooney2","image-keyboard-response","18","274978","0.0-6.0-5.1","2938766","co38026","norming","","","","","","",""
"3301.8250000004773","","","post_reveal_questions","survey-likert","19","278282","0.0-6.0-6.1","2938766","co38026","norming","","","{""aha"":0}","[0]","../img/tt/416tt.jpg","",""
"null","<div style=""font-size:60px;""> </div>","null","fixation","html-keyboard-response","20","278487","0.0-6.0-0.2","2938766","co38026","norming","","","","","","",""
"null","../img/tt/053tt.jpg","null","mooney1","image-keyboard-response","21","281489","0.0-6.0-1.2","2938766","co38026","norming","","","","","","",""
"6334.709999999148","","","post_mooney1_questions","survey-likert","22","287826","0.0-6.0-2.2","2938766","co38026","norming","","","{""curiosity"":5,""confidence"":1}","[0,1]","../img/tt/053tt.jpg","",""
"5125.640000000189","","","recognition","survey-text","23","292954","0.0-6.0-3.2","2938766","co38026","norming","","","{""guess"":""krokodil""}","","../img/tt/053tt.jpg","",""
"null","../img/gs/053gs.jpg","null","reveal","image-keyboard-response","24","294960","0.0-6.0-4.2","2938766","co38026","norming","","","","","","",""
"null","../img/tt/053tt.jpg","null","mooney2","image-keyboard-response","25","296963","0.0-6.0-5.2","2938766","co38026","norming","","","","","","",""
"10692.940000000817","","","post_reveal_questions","survey-likert","26","307658","0.0-6.0-6.2","2938766","co38026","norming","","","{""aha"":1}","[0]","../img/tt/053tt.jpg","",""
"null","<div style=""font-size:60px;""> </div>","null","fixation","html-keyboard-response","27","307864","0.0-6.0-0.3","2938766","co38026","norming","","","","","","",""
"null","../img/tt/010tt.jpg","null","mooney1","image-keyboard-response","28","310873","0.0-6.0-1.3","2938766","co38026","norming","","","","","","",""
"4174.934999999125","","","post_mooney1_questions","survey-likert","29","315050","0.0-6.0-2.3","2938766","co38026","norming","","","{""curiosity"":5,""confidence"":0}","[0,1]","../img/tt/010tt.jpg","",""
"830.1900000005844","","","recognition","survey-text","30","315882","0.0-6.0-3.3","2938766","co38026","norming","","","{""guess"":""""}","","../img/tt/010tt.jpg","",""
"null","../img/gs/010gs.jpg","null","reveal","image-keyboard-response","31","317893","0.0-6.0-4.3","2938766","co38026","norming","","","","","","",""
"null","../img/tt/010tt.jpg","null","mooney2","image-keyboard-response","32","319882","0.0-6.0-5.3","2938766","co38026","norming","","","","","","",""
"4162.269999998913","","","post_reveal_questions","survey-likert","33","324046","0.0-6.0-6.3","2938766","co38026","norming","","","{""aha"":0}","[0]","../img/tt/010tt.jpg","",""
"null","<div style=""font-size:60px;""> </div>","null","fixation","html-keyboard-response","34","324254","0.0-6.0-0.4","2938766","co38026","norming","","","","","","",""
"null","../img/tt/1189tt.jpg","null","mooney1","image-keyboard-response","35","327263","0.0-6.0-1.4","2938766","co38026","norming","","","","","","",""
"4292.915000000037","","","post_mooney1_questions","survey-likert","36","331559","0.0-6.0-2.4","2938766","co38026","norming","","","{""curiosity"":5,""confidence"":1}","[0,1]","../img/tt/1189tt.jpg","",""
"3870.089999998512","","","recognition","survey-text","37","335430","0.0-6.0-3.4","2938766","co38026","norming","","","{""guess"":""krokodil""}","","../img/tt/1189tt.jpg","",""
"null","../img/gs/1189gs.jpg","null","reveal","image-keyboard-response","38","337436","0.0-6.0-4.4","2938766","co38026","norming","","","","","","",""
"null","../img/tt/1189tt.jpg","null","mooney2","image-keyboard-response","39","339439","0.0-6.0-5.4","2938766","co38026","norming","","","","","","",""
"5254.39999999979","","","post_reveal_questions","survey-likert","40","344695","0.0-6.0-6.4","2938766","co38026","norming","","","{""aha"":1}","[0]","../img/tt/1189tt.jpg","",""
"null","<div style=""font-size:60px;""> </div>","null","fixation","html-keyboard-response","41","344896","0.0-6.0-0.5","2938766","co38026","norming","","","","","","",""
"null","../img/tt/1247tt.jpg","null","mooney1","image-keyboard-response","42","347907","0.0-6.0-1.5","2938766","co38026","norming","","","","","","",""
"4169.144999999844","","","post_mooney1_questions","survey-likert","43","352079","0.0-6.0-2.5","2938766","co38026","norming","","","{""curiosity"":5,""confidence"":1}","[0,1]","../img/tt/1247tt.jpg","",""
"9030.120000001218","","","recognition","survey-text","44","361110","0.0-6.0-3.5","2938766","co38026","norming","","","{""guess"":""mens""}","","../img/tt/1247tt.jpg","",""
"null","../img/gs/1247gs.jpg","null","reveal","image-keyboard-response","45","363111","0.0-6.0-4.5","2938766","co38026","norming","","","","","","",""
"null","../img/tt/1247tt.jpg","null","mooney2","image-keyboard-response","46","365122","0.0-6.0-5.5","2938766","co38026","norming","","","","","","",""
"2762.134999999078","","","post_reveal_questions","survey-likert","47","367886","0.0-6.0-6.5","2938766","co38026","norming","","","{""aha"":4}","[0]","../img/tt/1247tt.jpg","",""
"null","<div style=""font-size:60px;""> </div>","null","fixation","html-keyboard-response","48","368088","0.0-6.0-0.6","2938766","co38026","norming","","","","","","",""
"null","../img/tt/1217tt.jpg","null","mooney1","image-keyboard-response","49","371096","0.0-6.0-1.6","2938766","co38026","norming","","","","","","",""
"3635.8299999992596","","","post_mooney1_questions","survey-likert","50","374734","0.0-6.0-2.6","2938766","co38026","norming","","","{""curiosity"":5,""confidence"":0}","[0,1]","../img/tt/1217tt.jpg","",""
"982.4900000002817","","","recognition","survey-text","51","375719","0.0-6.0-3.6","2938766","co38026","norming","","","{""guess"":""""}","","../img/tt/1217tt.jpg","",""
"null","../img/gs/1217gs.jpg","null","reveal","image-keyboard-response","52","377720","0.0-6.0-4.6","2938766","co38026","norming","","","","","","",""
"null","../img/tt/1217tt.jpg","null","mooney2","image-keyboard-response","53","379723","0.0-6.0-5.6","2938766","co38026","norming","","","","","","",""
"2977.619999999646","","","post_reveal_questions","survey-likert","54","382679","0.0-6.0-6.6","2938766","co38026","norming","","","{""aha"":2}","[0]","../img/tt/1217tt.jpg","",""
"null","<div style=""font-size:60px;""> </div>","null","fixation","html-keyboard-response","55","382886","0.0-6.0-0.7","2938766","co38026","norming","","","","","","",""
"null","../img/tt/1046tt.jpg","null","mooney1","image-keyboard-response","56","385890","0.0-6.0-1.7","2938766","co38026","norming","","","","","","",""
"9577.900000000256","","","post_mooney1_questions","survey-likert","57","395471","0.0-6.0-2.7","2938766","co38026","norming","","","{""curiosity"":5,""confidence"":0}","[0,1]","../img/tt/1046tt.jpg","",""
"10638.205000001122","","","recognition","survey-text","58","406110","0.0-6.0-3.7","2938766","co38026","norming","","","{""guess"":""""}","","../img/tt/1046tt.jpg","",""
"null","../img/gs/1046gs.jpg","null","reveal","image-keyboard-response","59","408117","0.0-6.0-4.7","2938766","co38026","norming","","","","","","",""
"null","../img/tt/1046tt.jpg","null","mooney2","image-keyboard-response","60","410128","0.0-6.0-5.7","2938766","co38026","norming","","","","","","",""
"3724.320000001171","","","post_reveal_questions","survey-likert","61","413854","0.0-6.0-6.7","2938766","co38026","norming","","","{""aha"":1}","[0]","../img/tt/1046tt.jpg","",""
"null","<div style=""font-size:60px;""> </div>","null","fixation","html-keyboard-response","62","414056","0.0-6.0-0.8","2938766","co38026","norming","","","","","","",""
"null","../img/tt/1148tt.jpg","null","mooney1","image-keyboard-response","63","417068","0.0-6.0-1.8","2938766","co38026","norming","","","","","","",""
"3976.4400000003516","","","post_mooney1_questions","survey-likert","64","421047","0.0-6.0-2.8","2938766","co38026","norming","","","{""curiosity"":5,""confidence"":1}","[0,1]","../img/tt/1148tt.jpg","",""
"2709.820000000065","","","recognition","survey-text","65","423759","0.0-6.0-3.8","2938766","co38026","norming","","","{""guess"":""zwemmen""}","","../img/tt/1148tt.jpg","",""
"null","../img/gs/1148gs.jpg","null","reveal","image-keyboard-response","66","425766","0.0-6.0-4.8","2938766","co38026","norming","","","","","","",""
"null","../img/tt/1148tt.jpg","null","mooney2","image-keyboard-response","67","427775","0.0-6.0-5.8","2938766","co38026","norming","","","","","","",""
"2573.8399999990943","","","post_reveal_questions","survey-likert","68","430351","0.0-6.0-6.8","2938766","co38026","norming","","","{""aha"":3}","[0]","../img/tt/1148tt.jpg","",""
"null","<div style=""font-size:60px;""> </div>","null","fixation","html-keyboard-response","69","430562","0.0-6.0-0.9","2938766","co38026","norming","","","","","","",""
"null","../img/tt/056tt.jpg","null","mooney1","image-keyboard-response","70","433573","0.0-6.0-1.9","2938766","co38026","norming","","","","","","",""
"6239.164999999048","","","post_mooney1_questions","survey-likert","71","439815","0.0-6.0-2.9","2938766","co38026","norming","","","{""curiosity"":5,""confidence"":1}","[0,1]","../img/tt/056tt.jpg","",""
"3206.050000000687","","","recognition","survey-text","72","443000","0.0-6.0-3.9","2938766","co38026","norming","","","{""guess"":""zanger""}","","../img/tt/056tt.jpg","",""
"null","../img/gs/056gs.jpg","null","reveal","image-keyboard-response","73","445006","0.0-6.0-4.9","2938766","co38026","norming","","","","","","",""
"null","../img/tt/056tt.jpg","null","mooney2","image-keyboard-response","74","447014","0.0-6.0-5.9","2938766","co38026","norming","","","","","","",""
"4872.04999999993","","","post_reveal_questions","survey-likert","75","451888","0.0-6.0-6.9","2938766","co38026","norming","","","{""aha"":1}","[0]","../img/tt/056tt.jpg","",""
"null","<div style=""font-size:60px;""> </div>","null","fixation","html-keyboard-response","76","452091","0.0-6.0-0.10","2938766","co38026","norming","","","","","","",""
"null","../img/tt/1171tt.jpg","null","mooney1","image-keyboard-response","77","455100","0.0-6.0-1.10","2938766","co38026","norming","","","","","","",""
"5641.344999999972","","","post_mooney1_questions","survey-likert","78","460744","0.0-6.0-2.10","2938766","co38026","norming","","","{""curiosity"":5,""confidence"":1}","[0,1]","../img/tt/1171tt.jpg","",""
"3134.2649999987916","","","recognition","survey-text","79","463880","0.0-6.0-3.10","2938766","co38026","norming","","","{""guess"":""victory""}","","../img/tt/1171tt.jpg","",""
"null","../img/gs/1171gs.jpg","null","reveal","image-keyboard-response","80","465882","0.0-6.0-4.10","2938766","co38026","norming","","","","","","",""
"null","../img/tt/1171tt.jpg","null","mooney2","image-keyboard-response","81","467887","0.0-6.0-5.10","2938766","co38026","norming","","","","","","",""
"2759.0799999998417","","","post_reveal_questions","survey-likert","82","470648","0.0-6.0-6.10","2938766","co38026","norming","","","{""aha"":4}","[0]","../img/tt/1171tt.jpg","",""
"null","<div style=""font-size:60px;""> </div>","null","fixation","html-keyboard-response","83","470849","0.0-6.0-0.11","2938766","co38026","norming","","","","","","",""
"null","../img/tt/1251tt.jpg","null","mooney1","image-keyboard-response","84","473857","0.0-6.0-1.11","2938766","co38026","norming","","","","","","",""
"3813.8349999990314","","","post_mooney1_questions","survey-likert","85","477673","0.0-6.0-2.11","2938766","co38026","norming","","","{""curiosity"":5,""confidence"":2}","[0,1]","../img/tt/1251tt.jpg","",""
"2318.0899999988615","","","recognition","survey-text","86","479992","0.0-6.0-3.11","2938766","co38026","norming","","","{""guess"":""beer ""}","","../img/tt/1251tt.jpg","",""
"null","../img/gs/1251gs.jpg","null","reveal","image-keyboard-response","87","482002","0.0-6.0-4.11","2938766","co38026","norming","","","","","","",""
"null","../img/tt/1251tt.jpg","null","mooney2","image-keyboard-response","88","484012","0.0-6.0-5.11","2938766","co38026","norming","","","","","","",""
"6329.95499999926","","","post_reveal_questions","survey-likert","89","490345","0.0-6.0-6.11","2938766","co38026","norming","","","{""aha"":5}","[0]","../img/tt/1251tt.jpg","",""
"null","<div style=""font-size:60px;""> </div>","null","fixation","html-keyboard-response","90","490555","0.0-6.0-0.12","2938766","co38026","norming","","","","","","",""
"null","../img/tt/1122tt.jpg","null","mooney1","image-keyboard-response","91","493557","0.0-6.0-1.12","2938766","co38026","norming","","","","","","",""
"4673.070000000764","","","post_mooney1_questions","survey-likert","92","498232","0.0-6.0-2.12","2938766","co38026","norming","","","{""curiosity"":5,""confidence"":3}","[0,1]","../img/tt/1122tt.jpg","",""
"1774.3200000004144","","","recognition","survey-text","93","500008","0.0-6.0-3.12","2938766","co38026","norming","","","{""guess"":""haven ""}","","../img/tt/1122tt.jpg","",""
"null","../img/gs/1122gs.jpg","null","reveal","image-keyboard-response","94","502017","0.0-6.0-4.12","2938766","co38026","norming","","","","","","",""
"null","../img/tt/1122tt.jpg","null","mooney2","image-keyboard-response","95","504006","0.0-6.0-5.12","2938766","co38026","norming","","","","","","",""
"4418.814999999071","","","post_reveal_questions","survey-likert","96","508427","0.0-6.0-6.12","2938766","co38026","norming","","","{""aha"":5}","[0]","../img/tt/1122tt.jpg","",""
"null","<div style=""font-size:60px;""> </div>","null","fixation","html-keyboard-response","97","508630","0.0-6.0-0.13","2938766","co38026","norming","","","","","","",""
"null","../img/tt/1255tt.jpg","null","mooney1","image-keyboard-response","98","511643","0.0-6.0-1.13","2938766","co38026","norming","","","","","","",""
"5574.2649999993155","","","post_mooney1_questions","survey-likert","99","517220","0.0-6.0-2.13","2938766","co38026","norming","","","{""curiosity"":5,""confidence"":1}","[0,1]","../img/tt/1255tt.jpg","",""
"5846.17000000074","","","recognition","survey-text","100","523067","0.0-6.0-3.13","2938766","co38026","norming","","","{""guess"":""zwembad""}","","../img/tt/1255tt.jpg","",""
"null","../img/gs/1255gs.jpg","null","reveal","image-keyboard-response","101","525074","0.0-6.0-4.13","2938766","co38026","norming","","","","","","",""
"null","../img/tt/1255tt.jpg","null","mooney2","image-keyboard-response","102","527083","0.0-6.0-5.13","2938766","co38026","norming","","","","","","",""
"3790.5599999993574","","","post_reveal_questions","survey-likert","103","530876","0.0-6.0-6.13","2938766","co38026","norming","","","{""aha"":4}","[0]","../img/tt/1255tt.jpg","",""
"null","<div style=""font-size:60px;""> </div>","null","fixation","html-keyboard-response","104","531082","0.0-6.0-0.14","2938766","co38026","norming","","","","","","",""
"null","../img/tt/112tt.jpg","null","mooney1","image-keyboard-response","105","534092","0.0-6.0-1.14","2938766","co38026","norming","","","","","","",""
"5973.174999999232","","","post_mooney1_questions","survey-likert","106","540068","0.0-6.0-2.14","2938766","co38026","norming","","","{""curiosity"":6,""confidence"":1}","[0,1]","../img/tt/112tt.jpg","",""
"2933.9799999997485","","","recognition","survey-text","107","543003","0.0-6.0-3.14","2938766","co38026","norming","","","{""guess"":""zaklamp""}","","../img/tt/112tt.jpg","",""
"null","../img/gs/112gs.jpg","null","reveal","image-keyboard-response","108","545004","0.0-6.0-4.14","2938766","co38026","norming","","","","","","",""
"null","../img/tt/112tt.jpg","null","mooney2","image-keyboard-response","109","547014","0.0-6.0-5.14","2938766","co38026","norming","","","","","","",""
"3707.0599999988917","","","post_reveal_questions","survey-likert","110","550723","0.0-6.0-6.14","2938766","co38026","norming","","","{""aha"":3}","[0]","../img/tt/112tt.jpg","",""
"null","<div style=""font-size:60px;""> </div>","null","fixation","html-keyboard-response","111","550927","0.0-6.0-0.15","2938766","co38026","norming","","","","","","",""
"null","../img/tt/1116tt.jpg","null","mooney1","image-keyboard-response","112","553937","0.0-6.0-1.15","2938766","co38026","norming","","","","","","",""
"3991.6750000010943","","","post_mooney1_questions","survey-likert","113","557931","0.0-6.0-2.15","2938766","co38026","norming","","","{""curiosity"":5,""confidence"":1}","[0,1]","../img/tt/1116tt.jpg","",""
"3550.23000000068","","","recognition","survey-text","114","561483","0.0-6.0-3.15","2938766","co38026","norming","","","{""guess"":""auto's""}","","../img/tt/1116tt.jpg","",""
"null","../img/gs/1116gs.jpg","null","reveal","image-keyboard-response","115","563485","0.0-6.0-4.15","2938766","co38026","norming","","","","","","",""
"null","../img/tt/1116tt.jpg","null","mooney2","image-keyboard-response","116","565489","0.0-6.0-5.15","2938766","co38026","norming","","","","","","",""
"3914.4950000009267","","","post_reveal_questions","survey-likert","117","569406","0.0-6.0-6.15","2938766","co38026","norming","","","{""aha"":2}","[0]","../img/tt/1116tt.jpg","",""
"null","<div style=""font-size:60px;""> </div>","null","fixation","html-keyboard-response","118","569616","0.0-6.0-0.16","2938766","co38026","norming","","","","","","",""
"null","../img/tt/1307tt.jpg","null","mooney1","image-keyboard-response","119","572627","0.0-6.0-1.16","2938766","co38026","norming","","","","","","",""
"4449.2150000005495","","","post_mooney1_questions","survey-likert","120","577079","0.0-6.0-2.16","2938766","co38026","norming","","","{""curiosity"":6,""confidence"":1}","[0,1]","../img/tt/1307tt.jpg","",""
"3229.984999999986","","","recognition","survey-text","121","580310","0.0-6.0-3.16","2938766","co38026","norming","","","{""guess"":""darts""}","","../img/tt/1307tt.jpg","",""
"null","../img/gs/1307gs.jpg","null","reveal","image-keyboard-response","122","582316","0.0-6.0-4.16","2938766","co38026","norming","","","","","","",""
"null","../img/tt/1307tt.jpg","null","mooney2","image-keyboard-response","123","584319","0.0-6.0-5.16","2938766","co38026","norming","","","","","","",""
"3941.204999999143","","","post_reveal_questions","survey-likert","124","588262","0.0-6.0-6.16","2938766","co38026","norming","","","{""aha"":1}","[0]","../img/tt/1307tt.jpg","",""
"null","<div style=""font-size:60px;""> </div>","null","fixation","html-keyboard-response","125","588464","0.0-6.0-0.17","2938766","co38026","norming","","","","","","",""
"null","../img/tt/435tt.jpg","null","mooney1","image-keyboard-response","126","591473","0.0-6.0-1.17","2938766","co38026","norming","","","","","","",""
"5266.390000000596","","","post_mooney1_questions","survey-likert","127","596742","0.0-6.0-2.17","2938766","co38026","norming","","","{""curiosity"":5,""confidence"":1}","[0,1]","../img/tt/435tt.jpg","",""
"1678.4550000011222","","","recognition","survey-text","128","598422","0.0-6.0-3.17","2938766","co38026","norming","","","{""guess"":""huis""}","","../img/tt/435tt.jpg","",""
"null","../img/gs/435gs.jpg","null","reveal","image-keyboard-response","129","600429","0.0-6.0-4.17","2938766","co38026","norming","","","","","","",""
"null","../img/tt/435tt.jpg","null","mooney2","image-keyboard-response","130","602435","0.0-6.0-5.17","2938766","co38026","norming","","","","","","",""
"3162.2600000009406","","","post_reveal_questions","survey-likert","131","605599","0.0-6.0-6.17","2938766","co38026","norming","","","{""aha"":5}","[0]","../img/tt/435tt.jpg","",""
"null","<div style=""font-size:60px;""> </div>","null","fixation","html-keyboard-response","132","605800","0.0-6.0-0.18","2938766","co38026","norming","","","","","","",""
"null","../img/tt/481tt.jpg","null","mooney1","image-keyboard-response","133","608811","0.0-6.0-1.18","2938766","co38026","norming","","","","","","",""
"6352.225000000559","","","post_mooney1_questions","survey-likert","134","615167","0.0-6.0-2.18","2938766","co38026","norming","","","{""curiosity"":2,""confidence"":4}","[0,1]","../img/tt/481tt.jpg","",""
"2086.030000000377","","","recognition","survey-text","135","617254","0.0-6.0-3.18","2938766","co38026","norming","","","{""guess"":""dog""}","","../img/tt/481tt.jpg","",""
"null","../img/gs/481gs.jpg","null","reveal","image-keyboard-response","136","619260","0.0-6.0-4.18","2938766","co38026","norming","","","","","","",""
"null","../img/tt/481tt.jpg","null","mooney2","image-keyboard-response","137","621269","0.0-6.0-5.18","2938766","co38026","norming","","","","","","",""
"17198.589999999967","","","post_reveal_questions","survey-likert","138","638466","0.0-6.0-6.18","2938766","co38026","norming","","","{""aha"":2}","[0]","../img/tt/481tt.jpg","",""
"null","<div style=""font-size:60px;""> </div>","null","fixation","html-keyboard-response","139","638667","0.0-6.0-0.19","2938766","co38026","norming","","","","","","",""
"null","../img/tt/1040tt.jpg","null","mooney1","image-keyboard-response","140","641675","0.0-6.0-1.19","2938766","co38026","norming","","","","","","",""
"4740.634999998263","","","post_mooney1_questions","survey-likert","141","646418","0.0-6.0-2.19","2938766","co38026","norming","","","{""curiosity"":6,""confidence"":0}","[0,1]","../img/tt/1040tt.jpg","",""
"862.395000000135","","","recognition","survey-text","142","647282","0.0-6.0-3.19","2938766","co38026","norming","","","{""guess"":""""}","","../img/tt/1040tt.jpg","",""
"null","../img/gs/1040gs.jpg","null","reveal","image-keyboard-response","143","649286","0.0-6.0-4.19","2938766","co38026","norming","","","","","","",""
"null","../img/tt/1040tt.jpg","null","mooney2","image-keyboard-response","144","651297","0.0-6.0-5.19","2938766","co38026","norming","","","","","","",""
"6990.660000001313","","","post_reveal_questions","survey-likert","145","658290","0.0-6.0-6.19","2938766","co38026","norming","","","{""aha"":5}","[0]","../img/tt/1040tt.jpg","",""
"null","<div style=""font-size:60px;""> </div>","null","fixation","html-keyboard-response","146","658492","0.0-6.0-0.20","2938766","co38026","norming","","","","","","",""
"null","../img/tt/357tt.jpg","null","mooney1","image-keyboard-response","147","661502","0.0-6.0-1.20","2938766","co38026","norming","","","","","","",""
"4514.964999998454","","","post_mooney1_questions","survey-likert","148","666018","0.0-6.0-2.20","2938766","co38026","norming","","","{""curiosity"":5,""confidence"":0}","[0,1]","../img/tt/357tt.jpg","",""
"14782.254999998258","","","recognition","survey-text","149","680802","0.0-6.0-3.20","2938766","co38026","norming","","","{""guess"":""rots""}","","../img/tt/357tt.jpg","",""
"null","../img/gs/357gs.jpg","null","reveal","image-keyboard-response","150","682806","0.0-6.0-4.20","2938766","co38026","norming","","","","","","",""
"null","../img/tt/357tt.jpg","null","mooney2","image-keyboard-response","151","684815","0.0-6.0-5.20","2938766","co38026","norming","","","","","","",""
"2704.4500000011176","","","post_reveal_questions","survey-likert","152","687522","0.0-6.0-6.20","2938766","co38026","norming","","","{""aha"":4}","[0]","../img/tt/357tt.jpg","",""
"null","<div style=""font-size:60px;""> </div>","null","fixation","html-keyboard-response","153","687723","0.0-6.0-0.21","2938766","co38026","norming","","","","","","",""
"null","../img/tt/456tt.jpg","null","mooney1","image-keyboard-response","154","690724","0.0-6.0-1.21","2938766","co38026","norming","","","","","","",""
"4602.960000000196","","","post_mooney1_questions","survey-likert","155","695330","0.0-6.0-2.21","2938766","co38026","norming","","","{""curiosity"":5,""confidence"":1}","[0,1]","../img/tt/456tt.jpg","",""
"2523.8449999997392","","","recognition","survey-text","156","697853","0.0-6.0-3.21","2938766","co38026","norming","","","{""guess"":""ijsbeer""}","","../img/tt/456tt.jpg","",""
"null","../img/gs/456gs.jpg","null","reveal","image-keyboard-response","157","699859","0.0-6.0-4.21","2938766","co38026","norming","","","","","","",""
"null","../img/tt/456tt.jpg","null","mooney2","image-keyboard-response","158","701871","0.0-6.0-5.21","2938766","co38026","norming","","","","","","",""
"4124.239999999176","","","post_reveal_questions","survey-likert","159","705997","0.0-6.0-6.21","2938766","co38026","norming","","","{""aha"":3}","[0]","../img/tt/456tt.jpg","",""
"null","<div style=""font-size:60px;""> </div>","null","fixation","html-keyboard-response","160","706200","0.0-6.0-0.22","2938766","co38026","norming","","","","","","",""
"null","../img/tt/1242tt.jpg","null","mooney1","image-keyboard-response","161","709210","0.0-6.0-1.22","2938766","co38026","norming","","","","","","",""
"4210.805000000633","","","post_mooney1_questions","survey-likert","162","713421","0.0-6.0-2.22","2938766","co38026","norming","","","{""curiosity"":5,""confidence"":1}","[0,1]","../img/tt/1242tt.jpg","",""
"5486.345000001136","","","recognition","survey-text","163","718909","0.0-6.0-3.22","2938766","co38026","norming","","","{""guess"":""wolven ""}","","../img/tt/1242tt.jpg","",""
"null","../img/gs/1242gs.jpg","null","reveal","image-keyboard-response","164","720915","0.0-6.0-4.22","2938766","co38026","norming","","","","","","",""
"null","../img/tt/1242tt.jpg","null","mooney2","image-keyboard-response","165","722925","0.0-6.0-5.22","2938766","co38026","norming","","","","","","",""
"2374.460000000894","","","post_reveal_questions","survey-likert","166","725301","0.0-6.0-6.22","2938766","co38026","norming","","","{""aha"":6}","[0]","../img/tt/1242tt.jpg","",""
"null","<div style=""font-size:60px;""> </div>","null","fixation","html-keyboard-response","167","725503","0.0-6.0-0.23","2938766","co38026","norming","","","","","","",""
"null","../img/tt/296tt.jpg","null","mooney1","image-keyboard-response","168","728514","0.0-6.0-1.23","2938766","co38026","norming","","","","","","",""
"4130.290000000969","","","post_mooney1_questions","survey-likert","169","732646","0.0-6.0-2.23","2938766","co38026","norming","","","{""curiosity"":5,""confidence"":1}","[0,1]","../img/tt/296tt.jpg","",""
"2069.8049999992363","","","recognition","survey-text","170","734717","0.0-6.0-3.23","2938766","co38026","norming","","","{""guess"":""zetel""}","","../img/tt/296tt.jpg","",""
"null","../img/gs/296gs.jpg","null","reveal","image-keyboard-response","171","736718","0.0-6.0-4.23","2938766","co38026","norming","","","","","","",""
"null","../img/tt/296tt.jpg","null","mooney2","image-keyboard-response","172","738721","0.0-6.0-5.23","2938766","co38026","norming","","","","","","",""
"2130.4199999995762","","","post_reveal_questions","survey-likert","173","740853","0.0-6.0-6.23","2938766","co38026","norming","","","{""aha"":2}","[0]","../img/tt/296tt.jpg","",""
"null","<div style=""font-size:60px;""> </div>","null","fixation","html-keyboard-response","174","741055","0.0-6.0-0.24","2938766","co38026","norming","","","","","","",""
"null","../img/tt/1269tt.jpg","null","mooney1","image-keyboard-response","175","744058","0.0-6.0-1.24","2938766","co38026","norming","","","","","","",""
"4246.86000000115","","","post_mooney1_questions","survey-likert","176","748310","0.0-6.0-2.24","2938766","co38026","norming","","","{""curiosity"":2,""confidence"":5}","[0,1]","../img/tt/1269tt.jpg","",""
"1350.1300000008196","","","recognition","survey-text","177","749661","0.0-6.0-3.24","2938766","co38026","norming","","","{""guess"":""kat""}","","../img/tt/1269tt.jpg","",""
"null","../img/gs/1269gs.jpg","null","reveal","image-keyboard-response","178","751667","0.0-6.0-4.24","2938766","co38026","norming","","","","","","",""
"null","../img/tt/1269tt.jpg","null","mooney2","image-keyboard-response","179","753669","0.0-6.0-5.24","2938766","co38026","norming","","","","","","",""
"3510.5849999999627","","","post_reveal_questions","survey-likert","180","757183","0.0-6.0-6.24","2938766","co38026","norming","","","{""aha"":4}","[0]","../img/tt/1269tt.jpg","",""
"null","<div style=""font-size:60px;""> </div>","null","fixation","html-keyboard-response","181","757385","0.0-6.0-0.25","2938766","co38026","norming","","","","","","",""
"null","../img/tt/1027tt.jpg","null","mooney1","image-keyboard-response","182","760395","0.0-6.0-1.25","2938766","co38026","norming","","","","","","",""
"5683.175000000163","","","post_mooney1_questions","survey-likert","183","766080","0.0-6.0-2.25","2938766","co38026","norming","","","{""curiosity"":3,""confidence"":3}","[0,1]","../img/tt/1027tt.jpg","",""
"1118.3149999997113","","","recognition","survey-text","184","767200","0.0-6.0-3.25","2938766","co38026","norming","","","{""guess"":""koe""}","","../img/tt/1027tt.jpg","",""
"null","../img/gs/1027gs.jpg","null","reveal","image-keyboard-response","185","769210","0.0-6.0-4.25","2938766","co38026","norming","","","","","","",""
"null","../img/tt/1027tt.jpg","null","mooney2","image-keyboard-response","186","771218","0.0-6.0-5.25","2938766","co38026","norming","","","","","","",""
"3323.130000000703","","","post_reveal_questions","survey-likert","187","774544","0.0-6.0-6.25","2938766","co38026","norming","","","{""aha"":3}","[0]","../img/tt/1027tt.jpg","",""
"null","<div style=""font-size:60px;""> </div>","null","fixation","html-keyboard-response","188","774746","0.0-6.0-0.26","2938766","co38026","norming","","","","","","",""
"null","../img/tt/1078tt.jpg","null","mooney1","image-keyboard-response","189","777756","0.0-6.0-1.26","2938766","co38026","norming","","","","","","",""
"3914.8750000003492","","","post_mooney1_questions","survey-likert","190","781672","0.0-6.0-2.26","2938766","co38026","norming","","","{""curiosity"":1,""confidence"":6}","[0,1]","../img/tt/1078tt.jpg","",""
"2150.1250000001164","","","recognition","survey-text","191","783824","0.0-6.0-3.26","2938766","co38026","norming","","","{""guess"":""skater""}","","../img/tt/1078tt.jpg","",""
"null","../img/gs/1078gs.jpg","null","reveal","image-keyboard-response","192","785826","0.0-6.0-4.26","2938766","co38026","norming","","","","","","",""
"null","../img/tt/1078tt.jpg","null","mooney2","image-keyboard-response","193","787827","0.0-6.0-5.26","2938766","co38026","norming","","","","","","",""
"2922.6199999994133","","","post_reveal_questions","survey-likert","194","790752","0.0-6.0-6.26","2938766","co38026","norming","","","{""aha"":1}","[0]","../img/tt/1078tt.jpg","",""
"null","<div style=""font-size:60px;""> </div>","null","fixation","html-keyboard-response","195","790953","0.0-6.0-0.27","2938766","co38026","norming","","","","","","",""
"null","../img/tt/1024tt.jpg","null","mooney1","image-keyboard-response","196","793960","0.0-6.0-1.27","2938766","co38026","norming","","","","","","",""
"3860.6800000015646","","","post_mooney1_questions","survey-likert","197","797824","0.0-6.0-2.27","2938766","co38026","norming","","","{""curiosity"":1,""confidence"":6}","[0,1]","../img/tt/1024tt.jpg","",""
"11853.540000000154","","","recognition","survey-text","198","809680","0.0-6.0-3.27","2938766","co38026","norming","","","{""guess"":""tennisster""}","","../img/tt/1024tt.jpg","",""
"null","../img/gs/1024gs.jpg","null","reveal","image-keyboard-response","199","811683","0.0-6.0-4.27","2938766","co38026","norming","","","","","","",""
"null","../img/tt/1024tt.jpg","null","mooney2","image-keyboard-response","200","813686","0.0-6.0-5.27","2938766","co38026","norming","","","","","","",""
"2038.5800000004238","","","post_reveal_questions","survey-likert","201","815728","0.0-6.0-6.27","2938766","co38026","norming","","","{""aha"":3}","[0]","../img/tt/1024tt.jpg","",""
"null","<div style=""font-size:60px;""> </div>","null","fixation","html-keyboard-response","202","815929","0.0-6.0-0.28","2938766","co38026","norming","","","","","","",""
"null","../img/tt/517tt.jpg","null","mooney1","image-keyboard-response","203","818945","0.0-6.0-1.28","2938766","co38026","norming","","","","","","",""
"9050.689999999944","","","post_mooney1_questions","survey-likert","204","827998","0.0-6.0-2.28","2938766","co38026","norming","","","{""curiosity"":5,""confidence"":2}","[0,1]","../img/tt/517tt.jpg","",""
"4821.835000000661","","","recognition","survey-text","205","832822","0.0-6.0-3.28","2938766","co38026","norming","","","{""guess"":""beren ""}","","../img/tt/517tt.jpg","",""
"null","../img/gs/517gs.jpg","null","reveal","image-keyboard-response","206","834830","0.0-6.0-4.28","2938766","co38026","norming","","","","","","",""
"null","../img/tt/517tt.jpg","null","mooney2","image-keyboard-response","207","836831","0.0-6.0-5.28","2938766","co38026","norming","","","","","","",""
"3084.7649999996647","","","post_reveal_questions","survey-likert","208","839918","0.0-6.0-6.28","2938766","co38026","norming","","","{""aha"":4}","[0]","../img/tt/517tt.jpg","",""
"null","<div style=""font-size:60px;""> </div>","null","fixation","html-keyboard-response","209","840123","0.0-6.0-0.29","2938766","co38026","norming","","","","","","",""
"null","../img/tt/1142tt.jpg","null","mooney1","image-keyboard-response","210","843135","0.0-6.0-1.29","2938766","co38026","norming","","","","","","",""
"7868.620000001043","","","post_mooney1_questions","survey-likert","211","851006","0.0-6.0-2.29","2938766","co38026","norming","","","{""curiosity"":4,""confidence"":4}","[0,1]","../img/tt/1142tt.jpg","",""
"8790.284999999101","","","recognition","survey-text","212","859798","0.0-6.0-3.29","2938766","co38026","norming","","","{""guess"":""springen ""}","","../img/tt/1142tt.jpg","",""
"null","../img/gs/1142gs.jpg","null","reveal","image-keyboard-response","213","861803","0.0-6.0-4.29","2938766","co38026","norming","","","","","","",""
"null","../img/tt/1142tt.jpg","null","mooney2","image-keyboard-response","214","863805","0.0-6.0-5.29","2938766","co38026","norming","","","","","","",""
"2558.4150000014342","","","post_reveal_questions","survey-likert","215","866366","0.0-6.0-6.29","2938766","co38026","norming","","","{""aha"":4}","[0]","../img/tt/1142tt.jpg","",""
"null","<div style=""font-size:60px;""> </div>","null","fixation","html-keyboard-response","216","866568","0.0-6.0-0.30","2938766","co38026","norming","","","","","","",""
"null","../img/tt/121tt.jpg","null","mooney1","image-keyboard-response","217","869573","0.0-6.0-1.30","2938766","co38026","norming","","","","","","",""
"5286.630000000587","","","post_mooney1_questions","survey-likert","218","874862","0.0-6.0-2.30","2938766","co38026","norming","","","{""curiosity"":5,""confidence"":1}","[0,1]","../img/tt/121tt.jpg","",""
"3782.2099999993807","","","recognition","survey-text","219","878646","0.0-6.0-3.30","2938766","co38026","norming","","","{""guess"":""hoogspringen ""}","","../img/tt/121tt.jpg","",""
"null","../img/gs/121gs.jpg","null","reveal","image-keyboard-response","220","880655","0.0-6.0-4.30","2938766","co38026","norming","","","","","","",""
"null","../img/tt/121tt.jpg","null","mooney2","image-keyboard-response","221","882658","0.0-6.0-5.30","2938766","co38026","norming","","","","","","",""
"2322.360000000219","","","post_reveal_questions","survey-likert","222","884982","0.0-6.0-6.30","2938766","co38026","norming","","","{""aha"":4}","[0]","../img/tt/121tt.jpg","",""
"null","<div style=""font-size:60px;""> </div>","null","fixation","html-keyboard-response","223","885186","0.0-6.0-0.31","2938766","co38026","norming","","","","","","",""
"null","../img/tt/013tt.jpg","null","mooney1","image-keyboard-response","224","888195","0.0-6.0-1.31","2938766","co38026","norming","","","","","","",""
"3807.820000000065","","","post_mooney1_questions","survey-likert","225","892006","0.0-6.0-2.31","2938766","co38026","norming","","","{""curiosity"":6,""confidence"":0}","[0,1]","../img/tt/013tt.jpg","",""
"1341.9299999986542","","","recognition","survey-text","226","893350","0.0-6.0-3.31","2938766","co38026","norming","","","{""guess"":""""}","","../img/tt/013tt.jpg","",""
"null","../img/gs/013gs.jpg","null","reveal","image-keyboard-response","227","895352","0.0-6.0-4.31","2938766","co38026","norming","","","","","","",""
"null","../img/tt/013tt.jpg","null","mooney2","image-keyboard-response","228","897357","0.0-6.0-5.31","2938766","co38026","norming","","","","","","",""
"3592.6100000014994","","","post_reveal_questions","survey-likert","229","900950","0.0-6.0-6.31","2938766","co38026","norming","","","{""aha"":5}","[0]","../img/tt/013tt.jpg","",""
"null","<div style=""font-size:60px;""> </div>","null","fixation","html-keyboard-response","230","901156","0.0-6.0-0.32","2938766","co38026","norming","","","","","","",""
"null","../img/tt/273tt.jpg","null","mooney1","image-keyboard-response","231","904159","0.0-6.0-1.32","2938766","co38026","norming","","","","","","",""
"3638.425000000978","","","post_mooney1_questions","survey-likert","232","907798","0.0-6.0-2.32","2938766","co38026","norming","","","{""curiosity"":1,""confidence"":5}","[0,1]","../img/tt/273tt.jpg","",""
"6685.289999999455","","","recognition","survey-text","233","914486","0.0-6.0-3.32","2938766","co38026","norming","","","{""guess"":""blokjes ""}","","../img/tt/273tt.jpg","",""
"null","../img/gs/273gs.jpg","null","reveal","image-keyboard-response","234","916488","0.0-6.0-4.32","2938766","co38026","norming","","","","","","",""
"null","../img/tt/273tt.jpg","null","mooney2","image-keyboard-response","235","918490","0.0-6.0-5.32","2938766","co38026","norming","","","","","","",""
"1579.0649999999441","","","post_reveal_questions","survey-likert","236","920070","0.0-6.0-6.32","2938766","co38026","norming","","","{""aha"":1}","[0]","../img/tt/273tt.jpg","",""
"null","<div style=""font-size:60px;""> </div>","null","fixation","html-keyboard-response","237","920280","0.0-6.0-0.33","2938766","co38026","norming","","","","","","",""
"null","../img/tt/358tt.jpg","null","mooney1","image-keyboard-response","238","923281","0.0-6.0-1.33","2938766","co38026","norming","","","","","","",""
"6171.795000000275","","","post_mooney1_questions","survey-likert","239","929454","0.0-6.0-2.33","2938766","co38026","norming","","","{""curiosity"":5,""confidence"":1}","[0,1]","../img/tt/358tt.jpg","",""
"1685.8300000003073","","","recognition","survey-text","240","931142","0.0-6.0-3.33","2938766","co38026","norming","","","{""guess"":""beer""}","","../img/tt/358tt.jpg","",""
"null","../img/gs/358gs.jpg","null","reveal","image-keyboard-response","241","933144","0.0-6.0-4.33","2938766","co38026","norming","","","","","","",""
"null","../img/tt/358tt.jpg","null","mooney2","image-keyboard-response","242","935146","0.0-6.0-5.33","2938766","co38026","norming","","","","","","",""
"2282.0150000007125","","","post_reveal_questions","survey-likert","243","937430","0.0-6.0-6.33","2938766","co38026","norming","","","{""aha"":4}","[0]","../img/tt/358tt.jpg","",""
"null","<div style=""font-size:60px;""> </div>","null","fixation","html-keyboard-response","244","937638","0.0-6.0-0.34","2938766","co38026","norming","","","","","","",""
"null","../img/tt/1159tt.jpg","null","mooney1","image-keyboard-response","245","940647","0.0-6.0-1.34","2938766","co38026","norming","","","","","","",""
"14012.125000001048","","","post_mooney1_questions","survey-likert","246","954663","0.0-6.0-2.34","2938766","co38026","norming","","","{""curiosity"":3,""confidence"":3}","[0,1]","../img/tt/1159tt.jpg","",""
"5006.124999999884","","","recognition","survey-text","247","959670","0.0-6.0-3.34","2938766","co38026","norming","","","{""guess"":""rivier""}","","../img/tt/1159tt.jpg","",""
"null","../img/gs/1159gs.jpg","null","reveal","image-keyboard-response","248","961676","0.0-6.0-4.34","2938766","co38026","norming","","","","","","",""
"null","../img/tt/1159tt.jpg","null","mooney2","image-keyboard-response","249","963687","0.0-6.0-5.34","2938766","co38026","norming","","","","","","",""
"3028.059999998659","","","post_reveal_questions","survey-likert","250","966718","0.0-6.0-6.34","2938766","co38026","norming","","","{""aha"":4}","[0]","../img/tt/1159tt.jpg","",""
"null","<div style=""font-size:60px;""> </div>","null","fixation","html-keyboard-response","251","966920","0.0-6.0-0.35","2938766","co38026","norming","","","","","","",""
"null","../img/tt/094tt.jpg","null","mooney1","image-keyboard-response","252","969926","0.0-6.0-1.35","2938766","co38026","norming","","","","","","",""
"4149.13499999966","","","post_mooney1_questions","survey-likert","253","974078","0.0-6.0-2.35","2938766","co38026","norming","","","{""curiosity"":6,""confidence"":0}","[0,1]","../img/tt/094tt.jpg","",""
"2038.0499999991152","","","recognition","survey-text","254","976118","0.0-6.0-3.35","2938766","co38026","norming","","","{""guess"":""""}","","../img/tt/094tt.jpg","",""
"null","../img/gs/094gs.jpg","null","reveal","image-keyboard-response","255","978126","0.0-6.0-4.35","2938766","co38026","norming","","","","","","",""
"null","../img/tt/094tt.jpg","null","mooney2","image-keyboard-response","256","980137","0.0-6.0-5.35","2938766","co38026","norming","","","","","","",""
"2922.5649999988964","","","post_reveal_questions","survey-likert","257","983062","0.0-6.0-6.35","2938766","co38026","norming","","","{""aha"":1}","[0]","../img/tt/094tt.jpg","",""
"null","<div style=""font-size:60px;""> </div>","null","fixation","html-keyboard-response","258","983264","0.0-6.0-0.36","2938766","co38026","norming","","","","","","",""
"null","../img/tt/140tt.jpg","null","mooney1","image-keyboard-response","259","986275","0.0-6.0-1.36","2938766","co38026","norming","","","","","","",""
"3920.149999999907","","","post_mooney1_questions","survey-likert","260","990198","0.0-6.0-2.36","2938766","co38026","norming","","","{""curiosity"":5,""confidence"":1}","[0,1]","../img/tt/140tt.jpg","",""
"8926.270000000019","","","recognition","survey-text","261","999126","0.0-6.0-3.36","2938766","co38026","norming","","","{""guess"":""bird""}","","../img/tt/140tt.jpg","",""
"null","../img/gs/140gs.jpg","null","reveal","image-keyboard-response","262","1001133","0.0-6.0-4.36","2938766","co38026","norming","","","","","","",""
"null","../img/tt/140tt.jpg","null","mooney2","image-keyboard-response","263","1003135","0.0-6.0-5.36","2938766","co38026","norming","","","","","","",""
"2245.515000000596","","","post_reveal_questions","survey-likert","264","1005383","0.0-6.0-6.36","2938766","co38026","norming","","","{""aha"":5}","[0]","../img/tt/140tt.jpg","",""
"null","<div style=""font-size:60px;""> </div>","null","fixation","html-keyboard-response","265","1005590","0.0-6.0-0.37","2938766","co38026","norming","","","","","","",""
"null","../img/tt/1175tt.jpg","null","mooney1","image-keyboard-response","266","1008596","0.0-6.0-1.37","2938766","co38026","norming","","","","","","",""
"4272.599999998463","","","post_mooney1_questions","survey-likert","267","1012872","0.0-6.0-2.37","2938766","co38026","norming","","","{""curiosity"":6,""confidence"":0}","[0,1]","../img/tt/1175tt.jpg","",""
"1069.975000000326","","","recognition","survey-text","268","1013943","0.0-6.0-3.37","2938766","co38026","norming","","","{""guess"":""""}","","../img/tt/1175tt.jpg","",""
"null","../img/gs/1175gs.jpg","null","reveal","image-keyboard-response","269","1015951","0.0-6.0-4.37","2938766","co38026","norming","","","","","","",""
"null","../img/tt/1175tt.jpg","null","mooney2","image-keyboard-response","270","1017953","0.0-6.0-5.37","2938766","co38026","norming","","","","","","",""
"2770.9150000009686","","","post_reveal_questions","survey-likert","271","1020727","0.0-6.0-6.37","2938766","co38026","norming","","","{""aha"":1}","[0]","../img/tt/1175tt.jpg","",""
"null","<div style=""font-size:60px;""> </div>","null","fixation","html-keyboard-response","272","1020931","0.0-6.0-0.38","2938766","co38026","norming","","","","","","",""
"null","../img/tt/315tt.jpg","null","mooney1","image-keyboard-response","273","1023941","0.0-6.0-1.38","2938766","co38026","norming","","","","","","",""
"4877.835000001127","","","post_mooney1_questions","survey-likert","274","1028823","0.0-6.0-2.38","2938766","co38026","norming","","","{""curiosity"":6,""confidence"":0}","[0,1]","../img/tt/315tt.jpg","",""
"1534.1200000003446","","","recognition","survey-text","275","1030359","0.0-6.0-3.38","2938766","co38026","norming","","","{""guess"":""bird""}","","../img/tt/315tt.jpg","",""
"null","../img/gs/315gs.jpg","null","reveal","image-keyboard-response","276","1032366","0.0-6.0-4.38","2938766","co38026","norming","","","","","","",""
"null","../img/tt/315tt.jpg","null","mooney2","image-keyboard-response","277","1034367","0.0-6.0-5.38","2938766","co38026","norming","","","","","","",""
"2317.469999999972","","","post_reveal_questions","survey-likert","278","1036687","0.0-6.0-6.38","2938766","co38026","norming","","","{""aha"":2}","[0]","../img/tt/315tt.jpg","",""
"null","<div style=""font-size:60px;""> </div>","null","fixation","html-keyboard-response","279","1036896","0.0-6.0-0.39","2938766","co38026","norming","","","","","","",""
"null","../img/tt/1102tt.jpg","null","mooney1","image-keyboard-response","280","1039900","0.0-6.0-1.39","2938766","co38026","norming","","","","","","",""
"9808.075000000885","","","post_mooney1_questions","survey-likert","281","1049711","0.0-6.0-2.39","2938766","co38026","norming","","","{""curiosity"":6,""confidence"":0}","[0,1]","../img/tt/1102tt.jpg","",""
"950.2699999993201","","","recognition","survey-text","282","1050663","0.0-6.0-3.39","2938766","co38026","norming","","","{""guess"":""""}","","../img/tt/1102tt.jpg","",""
"null","../img/gs/1102gs.jpg","null","reveal","image-keyboard-response","283","1052666","0.0-6.0-4.39","2938766","co38026","norming","","","","","","",""
"null","../img/tt/1102tt.jpg","null","mooney2","image-keyboard-response","284","1054674","0.0-6.0-5.39","2938766","co38026","norming","","","","","","",""
"2603.554999999702","","","post_reveal_questions","survey-likert","285","1057279","0.0-6.0-6.39","2938766","co38026","norming","","","{""aha"":1}","[0]","../img/tt/1102tt.jpg","",""
"null","<div style=""font-size:60px;""> </div>","null","fixation","html-keyboard-response","286","1057488","0.0-6.0-0.40","2938766","co38026","norming","","","","","","",""
"null","../img/tt/1366tt.jpg","null","mooney1","image-keyboard-response","287","1060495","0.0-6.0-1.40","2938766","co38026","norming","","","","","","",""
"3311.6200000005774","","","post_mooney1_questions","survey-likert","288","1063801","0.0-6.0-2.40","2938766","co38026","norming","","","{""curiosity"":6,""confidence"":0}","[0,1]","../img/tt/1366tt.jpg","",""
"3894.180000001099","","","recognition","survey-text","289","1067697","0.0-6.0-3.40","2938766","co38026","norming","","","{""guess"":""skate""}","","../img/tt/1366tt.jpg","",""
"null","../img/gs/1366gs.jpg","null","reveal","image-keyboard-response","290","1069701","0.0-6.0-4.40","2938766","co38026","norming","","","","","","",""
"null","../img/tt/1366tt.jpg","null","mooney2","image-keyboard-response","291","1071703","0.0-6.0-5.40","2938766","co38026","norming","","","","","","",""
"2337.4349999993574","","","post_reveal_questions","survey-likert","292","1074041","0.0-6.0-6.40","2938766","co38026","norming","","","{""aha"":0}","[0]","../img/tt/1366tt.jpg","",""
"null","<div style=""font-size:60px;""> </div>","null","fixation","html-keyboard-response","293","1074246","0.0-6.0-0.41","2938766","co38026","norming","","","","","","",""
"null","../img/tt/163tt.jpg","null","mooney1","image-keyboard-response","294","1077254","0.0-6.0-1.41","2938766","co38026","norming","","","","","","",""
"5032.054999999702","","","post_mooney1_questions","survey-likert","295","1082289","0.0-6.0-2.41","2938766","co38026","norming","","","{""curiosity"":6,""confidence"":0}","[0,1]","../img/tt/163tt.jpg","",""
"2477.5700000009965","","","recognition","survey-text","296","1084769","0.0-6.0-3.41","2938766","co38026","norming","","","{""guess"":""foo""}","","../img/tt/163tt.jpg","",""
"null","../img/gs/163gs.jpg","null","reveal","image-keyboard-response","297","1086773","0.0-6.0-4.41","2938766","co38026","norming","","","","","","",""
"null","../img/tt/163tt.jpg","null","mooney2","image-keyboard-response","298","1088775","0.0-6.0-5.41","2938766","co38026","norming","","","","","","",""
"1655.575000000652","","","post_reveal_questions","survey-likert","299","1090433","0.0-6.0-6.41","2938766","co38026","norming","","","{""aha"":4}","[0]","../img/tt/163tt.jpg","",""
"null","<div style=""font-size:60px;""> </div>","null","fixation","html-keyboard-response","300","1090635","0.0-6.0-0.42","2938766","co38026","norming","","","","","","",""
"null","../img/tt/477tt.jpg","null","mooney1","image-keyboard-response","301","1093639","0.0-6.0-1.42","2938766","co38026","norming","","","","","","",""
"3671.005000000121","","","post_mooney1_questions","survey-likert","302","1097314","0.0-6.0-2.42","2938766","co38026","norming","","","{""curiosity"":5,""confidence"":1}","[0,1]","../img/tt/477tt.jpg","",""
"1950.0050000005867","","","recognition","survey-text","303","1099265","0.0-6.0-3.42","2938766","co38026","norming","","","{""guess"":""fish ""}","","../img/tt/477tt.jpg","",""
"null","../img/gs/477gs.jpg","null","reveal","image-keyboard-response","304","1101266","0.0-6.0-4.42","2938766","co38026","norming","","","","","","",""
"null","../img/tt/477tt.jpg","null","mooney2","image-keyboard-response","305","1103269","0.0-6.0-5.42","2938766","co38026","norming","","","","","","",""
"1927.0099999993108","","","post_reveal_questions","survey-likert","306","1105201","0.0-6.0-6.42","2938766","co38026","norming","","","{""aha"":1}","[0]","../img/tt/477tt.jpg","",""
"null","<div style=""font-size:60px;""> </div>","null","fixation","html-keyboard-response","307","1105409","0.0-6.0-0.43","2938766","co38026","norming","","","","","","",""
"null","../img/tt/1037tt.jpg","null","mooney1","image-keyboard-response","308","1108418","0.0-6.0-1.43","2938766","co38026","norming","","","","","","",""
"4806.644999998622","","","post_mooney1_questions","survey-likert","309","1113226","0.0-6.0-2.43","2938766","co38026","norming","","","{""curiosity"":5,""confidence"":1}","[0,1]","../img/tt/1037tt.jpg","",""
"1525.9750000005588","","","recognition","survey-text","310","1114753","0.0-6.0-3.43","2938766","co38026","norming","","","{""guess"":""dog""}","","../img/tt/1037tt.jpg","",""
"null","../img/gs/1037gs.jpg","null","reveal","image-keyboard-response","311","1116755","0.0-6.0-4.43","2938766","co38026","norming","","","","","","",""
"null","../img/tt/1037tt.jpg","null","mooney2","image-keyboard-response","312","1118757","0.0-6.0-5.43","2938766","co38026","norming","","","","","","",""
"2546.024999999674","","","post_reveal_questions","survey-likert","313","1121305","0.0-6.0-6.43","2938766","co38026","norming","","","{""aha"":2}","[0]","../img/tt/1037tt.jpg","",""
"null","<div style=""font-size:60px;""> </div>","null","fixation","html-keyboard-response","314","1121506","0.0-6.0-0.44","2938766","co38026","norming","","","","","","",""
"null","../img/tt/1044tt.jpg","null","mooney1","image-keyboard-response","315","1124526","0.0-6.0-1.44","2938766","co38026","norming","","","","","","",""
"4649.825000000419","","","post_mooney1_questions","survey-likert","316","1129178","0.0-6.0-2.44","2938766","co38026","norming","","","{""curiosity"":6,""confidence"":0}","[0,1]","../img/tt/1044tt.jpg","",""
"814.0800000000745","","","recognition","survey-text","317","1129993","0.0-6.0-3.44","2938766","co38026","norming","","","{""guess"":""""}","","../img/tt/1044tt.jpg","",""
"null","../img/gs/1044gs.jpg","null","reveal","image-keyboard-response","318","1132003","0.0-6.0-4.44","2938766","co38026","norming","","","","","","",""
"null","../img/tt/1044tt.jpg","null","mooney2","image-keyboard-response","319","1134008","0.0-6.0-5.44","2938766","co38026","norming","","","","","","",""
"2238.8950000002515","","","post_reveal_questions","survey-likert","320","1136249","0.0-6.0-6.44","2938766","co38026","norming","","","{""aha"":5}","[0]","../img/tt/1044tt.jpg","",""
"null","<div style=""font-size:60px;""> </div>","null","fixation","html-keyboard-response","321","1136455","0.0-6.0-0.45","2938766","co38026","norming","","","","","","",""
"null","../img/tt/442tt.jpg","null","mooney1","image-keyboard-response","322","1139466","0.0-6.0-1.45","2938766","co38026","norming","","","","","","",""
"4595.919999999693","","","post_mooney1_questions","survey-likert","323","1144065","0.0-6.0-2.45","2938766","co38026","norming","","","{""curiosity"":5,""confidence"":0}","[0,1]","../img/tt/442tt.jpg","",""
"2470.2250000010245","","","recognition","survey-text","324","1146537","0.0-6.0-3.45","2938766","co38026","norming","","","{""guess"":""wolf""}","","../img/tt/442tt.jpg","",""
"null","../img/gs/442gs.jpg","null","reveal","image-keyboard-response","325","1148539","0.0-6.0-4.45","2938766","co38026","norming","","","","","","",""
"null","../img/tt/442tt.jpg","null","mooney2","image-keyboard-response","326","1150549","0.0-6.0-5.45","2938766","co38026","norming","","","","","","",""
"2410.864999999758","","","post_reveal_questions","survey-likert","327","1152961","0.0-6.0-6.45","2938766","co38026","norming","","","{""aha"":4}","[0]","../img/tt/442tt.jpg","",""
"null","<div style=""font-size:60px;""> </div>","null","fixation","html-keyboard-response","328","1153171","0.0-6.0-0.46","2938766","co38026","norming","","","","","","",""
"null","../img/tt/405tt.jpg","null","mooney1","image-keyboard-response","329","1156181","0.0-6.0-1.46","2938766","co38026","norming","","","","","","",""
"5099.165000001434","","","post_mooney1_questions","survey-likert","330","1161281","0.0-6.0-2.46","2938766","co38026","norming","","","{""curiosity"":6,""confidence"":0}","[0,1]","../img/tt/405tt.jpg","",""
"7350.570000000531","","","recognition","survey-text","331","1168634","0.0-6.0-3.46","2938766","co38026","norming","","","{""guess"":""""}","","../img/tt/405tt.jpg","",""
"null","../img/gs/405gs.jpg","null","reveal","image-keyboard-response","332","1170635","0.0-6.0-4.46","2938766","co38026","norming","","","","","","",""
"null","../img/tt/405tt.jpg","null","mooney2","image-keyboard-response","333","1172640","0.0-6.0-5.46","2938766","co38026","norming","","","","","","",""
"2838.195000000298","","","post_reveal_questions","survey-likert","334","1175481","0.0-6.0-6.46","2938766","co38026","norming","","","{""aha"":4}","[0]","../img/tt/405tt.jpg","",""
"null","<div style=""font-size:60px;""> </div>","null","fixation","html-keyboard-response","335","1175687","0.0-6.0-0.47","2938766","co38026","norming","","","","","","",""
"null","../img/tt/1043tt.jpg","null","mooney1","image-keyboard-response","336","1178696","0.0-6.0-1.47","2938766","co38026","norming","","","","","","",""
"4478.129999999423","","","post_mooney1_questions","survey-likert","337","1183178","0.0-6.0-2.47","2938766","co38026","norming","","","{""curiosity"":6,""confidence"":0}","[0,1]","../img/tt/1043tt.jpg","",""
"653.400000001071","","","recognition","survey-text","338","1183833","0.0-6.0-3.47","2938766","co38026","norming","","","{""guess"":""""}","","../img/tt/1043tt.jpg","",""
"null","../img/gs/1043gs.jpg","null","reveal","image-keyboard-response","339","1185839","0.0-6.0-4.47","2938766","co38026","norming","","","","","","",""
"null","../img/tt/1043tt.jpg","null","mooney2","image-keyboard-response","340","1187843","0.0-6.0-5.47","2938766","co38026","norming","","","","","","",""
"1867.9250000005122","","","post_reveal_questions","survey-likert","341","1189714","0.0-6.0-6.47","2938766","co38026","norming","","","{""aha"":0}","[0]","../img/tt/1043tt.jpg","",""
"null","<div style=""font-size:60px;""> </div>","null","fixation","html-keyboard-response","342","1189918","0.0-6.0-0.48","2938766","co38026","norming","","","","","","",""
"null","../img/tt/1290tt.jpg","null","mooney1","image-keyboard-response","343","1192924","0.0-6.0-1.48","2938766","co38026","norming","","","","","","",""
"6802.719999999506","","","post_mooney1_questions","survey-likert","344","1199730","0.0-6.0-2.48","2938766","co38026","norming","","","{""curiosity"":3,""confidence"":2}","[0,1]","../img/tt/1290tt.jpg","",""
"2086.094999998575","","","recognition","survey-text","345","1201818","0.0-6.0-3.48","2938766","co38026","norming","","","{""guess"":""lift ""}","","../img/tt/1290tt.jpg","",""
"null","../img/gs/1290gs.jpg","null","reveal","image-keyboard-response","346","1203829","0.0-6.0-4.48","2938766","co38026","norming","","","","","","",""
"null","../img/tt/1290tt.jpg","null","mooney2","image-keyboard-response","347","1205832","0.0-6.0-5.48","2938766","co38026","norming","","","","","","",""
"2567.4600000001956","","","post_reveal_questions","survey-likert","348","1208402","0.0-6.0-6.48","2938766","co38026","norming","","","{""aha"":3}","[0]","../img/tt/1290tt.jpg","",""
"null","<div style=""font-size:60px;""> </div>","null","fixation","html-keyboard-response","349","1208603","0.0-6.0-0.49","2938766","co38026","norming","","","","","","",""
"null","../img/tt/078tt.jpg","null","mooney1","image-keyboard-response","350","1211606","0.0-6.0-1.49","2938766","co38026","norming","","","","","","",""
"3872.125","","","post_mooney1_questions","survey-likert","351","1215482","0.0-6.0-2.49","2938766","co38026","norming","","","{""curiosity"":4,""confidence"":2}","[0,1]","../img/tt/078tt.jpg","",""
"4606.19000000041","","","recognition","survey-text","352","1220090","0.0-6.0-3.49","2938766","co38026","norming","","","{""guess"":""grapes""}","","../img/tt/078tt.jpg","",""
"null","../img/gs/078gs.jpg","null","reveal","image-keyboard-response","353","1222097","0.0-6.0-4.49","2938766","co38026","norming","","","","","","",""
"null","../img/tt/078tt.jpg","null","mooney2","image-keyboard-response","354","1224110","0.0-6.0-5.49","2938766","co38026","norming","","","","","","",""
"3401.1800000006333","","","post_reveal_questions","survey-likert","355","1227514","0.0-6.0-6.49","2938766","co38026","norming","","","{""aha"":4}","[0]","../img/tt/078tt.jpg","",""
"null","<div style=""font-size:60px;""> </div>","null","fixation","html-keyboard-response","356","1227722","0.0-6.0-0.50","2938766","co38026","norming","","","","","","",""
"null","../img/tt/1226tt.jpg","null","mooney1","image-keyboard-response","357","1230728","0.0-6.0-1.50","2938766","co38026","norming","","","","","","",""
"5286.755000001052","","","post_mooney1_questions","survey-likert","358","1236018","0.0-6.0-2.50","2938766","co38026","norming","","","{""curiosity"":5,""confidence"":0}","[0,1]","../img/tt/1226tt.jpg","",""
"1973.9399999999441","","","recognition","survey-text","359","1237994","0.0-6.0-3.50","2938766","co38026","norming","","","{""guess"":""chicken ""}","","../img/tt/1226tt.jpg","",""
"null","../img/gs/1226gs.jpg","null","reveal","image-keyboard-response","360","1239999","0.0-6.0-4.50","2938766","co38026","norming","","","","","","",""
"null","../img/tt/1226tt.jpg","null","mooney2","image-keyboard-response","361","1242010","0.0-6.0-5.50","2938766","co38026","norming","","","","","","",""
"13325.40999999945","","","post_reveal_questions","survey-likert","362","1255339","0.0-6.0-6.50","2938766","co38026","norming","","","{""aha"":4}","[0]","../img/tt/1226tt.jpg","",""
"null","<div style=""font-size:60px;""> </div>","null","fixation","html-keyboard-response","363","1255541","0.0-6.0-0.51","2938766","co38026","norming","","","","","","",""
"null","../img/tt/1260tt.jpg","null","mooney1","image-keyboard-response","364","1258552","0.0-6.0-1.51","2938766","co38026","norming","","","","","","",""
"3889.3800000005867","","","post_mooney1_questions","survey-likert","365","1262443","0.0-6.0-2.51","2938766","co38026","norming","","","{""curiosity"":6,""confidence"":0}","[0,1]","../img/tt/1260tt.jpg","",""
"3710.2450000003446","","","recognition","survey-text","366","1266155","0.0-6.0-3.51","2938766","co38026","norming","","","{""guess"":""rond""}","","../img/tt/1260tt.jpg","",""
"null","../img/gs/1260gs.jpg","null","reveal","image-keyboard-response","367","1268157","0.0-6.0-4.51","2938766","co38026","norming","","","","","","",""
"null","../img/tt/1260tt.jpg","null","mooney2","image-keyboard-response","368","1270159","0.0-6.0-5.51","2938766","co38026","norming","","","","","","",""
"4256.89999999851","","","post_reveal_questions","survey-likert","369","1274418","0.0-6.0-6.51","2938766","co38026","norming","","","{""aha"":5}","[0]","../img/tt/1260tt.jpg","",""
"null","<div style=""font-size:60px;""> </div>","null","fixation","html-keyboard-response","370","1274626","0.0-6.0-0.52","2938766","co38026","norming","","","","","","",""
"null","../img/tt/1128tt.jpg","null","mooney1","image-keyboard-response","371","1277629","0.0-6.0-1.52","2938766","co38026","norming","","","","","","",""
"4970.714999999385","","","post_mooney1_questions","survey-likert","372","1282603","0.0-6.0-2.52","2938766","co38026","norming","","","{""curiosity"":4,""confidence"":2}","[0,1]","../img/tt/1128tt.jpg","",""
"4701.860000001034","","","recognition","survey-text","373","1287306","0.0-6.0-3.52","2938766","co38026","norming","","","{""guess"":""panda ""}","","../img/tt/1128tt.jpg","",""
"null","../img/gs/1128gs.jpg","null","reveal","image-keyboard-response","374","1289311","0.0-6.0-4.52","2938766","co38026","norming","","","","","","",""
"null","../img/tt/1128tt.jpg","null","mooney2","image-keyboard-response","375","1291317","0.0-6.0-5.52","2938766","co38026","norming","","","","","","",""
"2755.0449999999255","","","post_reveal_questions","survey-likert","376","1294075","0.0-6.0-6.52","2938766","co38026","norming","","","{""aha"":2}","[0]","../img/tt/1128tt.jpg","",""
"null","<div style=""font-size:60px;""> </div>","null","fixation","html-keyboard-response","377","1294280","0.0-6.0-0.53","2938766","co38026","norming","","","","","","",""
"null","../img/tt/279tt.jpg","null","mooney1","image-keyboard-response","378","1297284","0.0-6.0-1.53","2938766","co38026","norming","","","","","","",""
"3747.6100000003353","","","post_mooney1_questions","survey-likert","379","1301035","0.0-6.0-2.53","2938766","co38026","norming","","","{""curiosity"":6,""confidence"":1}","[0,1]","../img/tt/279tt.jpg","",""
"1485.869999998482","","","recognition","survey-text","380","1302523","0.0-6.0-3.53","2938766","co38026","norming","","","{""guess"":""koala""}","","../img/tt/279tt.jpg","",""
"null","../img/gs/279gs.jpg","null","reveal","image-keyboard-response","381","1304530","0.0-6.0-4.53","2938766","co38026","norming","","","","","","",""
"null","../img/tt/279tt.jpg","null","mooney2","image-keyboard-response","382","1306531","0.0-6.0-5.53","2938766","co38026","norming","","","","","","",""
"2182.0449999996927","","","post_reveal_questions","survey-likert","383","1308715","0.0-6.0-6.53","2938766","co38026","norming","","","{""aha"":4}","[0]","../img/tt/279tt.jpg","",""
"null","<div style=""font-size:60px;""> </div>","null","fixation","html-keyboard-response","384","1308924","0.0-6.0-0.54","2938766","co38026","norming","","","","","","",""
"null","../img/tt/1250tt.jpg","null","mooney1","image-keyboard-response","385","1311927","0.0-6.0-1.54","2938766","co38026","norming","","","","","","",""
"3880.134999999311","","","post_mooney1_questions","survey-likert","386","1315811","0.0-6.0-2.54","2938766","co38026","norming","","","{""curiosity"":6,""confidence"":2}","[0,1]","../img/tt/1250tt.jpg","",""
"1622.1299999996554","","","recognition","survey-text","387","1317435","0.0-6.0-3.54","2938766","co38026","norming","","","{""guess"":""beer""}","","../img/tt/1250tt.jpg","",""
"null","../img/gs/1250gs.jpg","null","reveal","image-keyboard-response","388","1319440","0.0-6.0-4.54","2938766","co38026","norming","","","","","","",""
"null","../img/tt/1250tt.jpg","null","mooney2","image-keyboard-response","389","1321448","0.0-6.0-5.54","2938766","co38026","norming","","","","","","",""
"1887.2300000002142","","","post_reveal_questions","survey-likert","390","1323339","0.0-6.0-6.54","2938766","co38026","norming","","","{""aha"":4}","[0]","../img/tt/1250tt.jpg","",""
"null","<div style=""font-size:60px;""> </div>","null","fixation","html-keyboard-response","391","1323543","0.0-6.0-0.55","2938766","co38026","norming","","","","","","",""
"null","../img/tt/1096tt.jpg","null","mooney1","image-keyboard-response","392","1326552","0.0-6.0-1.55","2938766","co38026","norming","","","","","","",""
"4569.29499999946","","","post_mooney1_questions","survey-likert","393","1331123","0.0-6.0-2.55","2938766","co38026","norming","","","{""curiosity"":5,""confidence"":0}","[0,1]","../img/tt/1096tt.jpg","",""
"1270.1199999991804","","","recognition","survey-text","394","1332395","0.0-6.0-3.55","2938766","co38026","norming","","","{""guess"":""huis""}","","../img/tt/1096tt.jpg","",""
"null","../img/gs/1096gs.jpg","null","reveal","image-keyboard-response","395","1334399","0.0-6.0-4.55","2938766","co38026","norming","","","","","","",""
"null","../img/tt/1096tt.jpg","null","mooney2","image-keyboard-response","396","1336405","0.0-6.0-5.55","2938766","co38026","norming","","","","","","",""
"2245.33499999973","","","post_reveal_questions","survey-likert","397","1338651","0.0-6.0-6.55","2938766","co38026","norming","","","{""aha"":1}","[0]","../img/tt/1096tt.jpg","",""
"null","<div style=""font-size:60px;""> </div>","null","fixation","html-keyboard-response","398","1338859","0.0-6.0-0.56","2938766","co38026","norming","","","","","","",""
"null","../img/tt/1200tt.jpg","null","mooney1","image-keyboard-response","399","1341864","0.0-6.0-1.56","2938766","co38026","norming","","","","","","",""
"3775.715000001481","","","post_mooney1_questions","survey-likert","400","1345643","0.0-6.0-2.56","2938766","co38026","norming","","","{""curiosity"":5,""confidence"":1}","[0,1]","../img/tt/1200tt.jpg","",""
"2557.7400000002235","","","recognition","survey-text","401","1348203","0.0-6.0-3.56","2938766","co38026","norming","","","{""guess"":""rivier ""}","","../img/tt/1200tt.jpg","",""
"null","../img/gs/1200gs.jpg","null","reveal","image-keyboard-response","402","1350209","0.0-6.0-4.56","2938766","co38026","norming","","","","","","",""
"null","../img/tt/1200tt.jpg","null","mooney2","image-keyboard-response","403","1352212","0.0-6.0-5.56","2938766","co38026","norming","","","","","","",""
"2492.389999999432","","","post_reveal_questions","survey-likert","404","1354707","0.0-6.0-6.56","2938766","co38026","norming","","","{""aha"":4}","[0]","../img/tt/1200tt.jpg","",""
"null","<div style=""font-size:60px;""> </div>","null","fixation","html-keyboard-response","405","1354908","0.0-6.0-0.57","2938766","co38026","norming","","","","","","",""
"null","../img/tt/085tt.jpg","null","mooney1","image-keyboard-response","406","1357912","0.0-6.0-1.57","2938766","co38026","norming","","","","","","",""
"4199.829999999376","","","post_mooney1_questions","survey-likert","407","1362115","0.0-6.0-2.57","2938766","co38026","norming","","","{""curiosity"":5,""confidence"":1}","[0,1]","../img/tt/085tt.jpg","",""
"2022.0900000005495","","","recognition","survey-text","408","1364139","0.0-6.0-3.57","2938766","co38026","norming","","","{""guess"":""vlinder""}","","../img/tt/085tt.jpg","",""
"null","../img/gs/085gs.jpg","null","reveal","image-keyboard-response","409","1366148","0.0-6.0-4.57","2938766","co38026","norming","","","","","","",""
"null","../img/tt/085tt.jpg","null","mooney2","image-keyboard-response","410","1368150","0.0-6.0-5.57","2938766","co38026","norming","","","","","","",""
"2154.9749999993946","","","post_reveal_questions","survey-likert","411","1370307","0.0-6.0-6.57","2938766","co38026","norming","","","{""aha"":4}","[0]","../img/tt/085tt.jpg","",""
"null","<div style=""font-size:60px;""> </div>","null","fixation","html-keyboard-response","412","1370515","0.0-6.0-0.58","2938766","co38026","norming","","","","","","",""
"null","../img/tt/1232tt.jpg","null","mooney1","image-keyboard-response","413","1373518","0.0-6.0-1.58","2938766","co38026","norming","","","","","","",""
"6929.514999999665","","","post_mooney1_questions","survey-likert","414","1380442","0.0-6.0-2.58","2938766","co38026","norming","","","{""curiosity"":5,""confidence"":0}","[0,1]","../img/tt/1232tt.jpg","",""
"2870.2400000002235","","","recognition","survey-text","415","1383313","0.0-6.0-3.58","2938766","co38026","norming","","","{""guess"":""zeedier""}","","../img/tt/1232tt.jpg","",""
"null","../img/gs/1232gs.jpg","null","reveal","image-keyboard-response","416","1385318","0.0-6.0-4.58","2938766","co38026","norming","","","","","","",""
"null","../img/tt/1232tt.jpg","null","mooney2","image-keyboard-response","417","1387320","0.0-6.0-5.58","2938766","co38026","norming","","","","","","",""
"1703.3199999986682","","","post_reveal_questions","survey-likert","418","1389026","0.0-6.0-6.58","2938766","co38026","norming","","","{""aha"":2}","[0]","../img/tt/1232tt.jpg","",""
"null","<div style=""font-size:60px;""> </div>","null","fixation","html-keyboard-response","419","1389227","0.0-6.0-0.59","2938766","co38026","norming","","","","","","",""
"null","../img/tt/380tt.jpg","null","mooney1","image-keyboard-response","420","1392237","0.0-6.0-1.59","2938766","co38026","norming","","","","","","",""
"11657.514999998966","","","post_mooney1_questions","survey-likert","421","1403898","0.0-6.0-2.59","2938766","co38026","norming","","","{""curiosity"":5,""confidence"":0}","[0,1]","../img/tt/380tt.jpg","",""
"1126.330000000773","","","recognition","survey-text","422","1405026","0.0-6.0-3.59","2938766","co38026","norming","","","{""guess"":""""}","","../img/tt/380tt.jpg","",""
"null","../img/gs/380gs.jpg","null","reveal","image-keyboard-response","423","1407029","0.0-6.0-4.59","2938766","co38026","norming","","","","","","",""
"null","../img/tt/380tt.jpg","null","mooney2","image-keyboard-response","424","1409031","0.0-6.0-5.59","2938766","co38026","norming","","","","","","",""
"2632.4000000003725","","","post_reveal_questions","survey-likert","425","1411666","0.0-6.0-6.59","2938766","co38026","norming","","","{""aha"":5}","[0]","../img/tt/380tt.jpg","",""
"null","<div style=""font-size:60px;""> </div>","null","fixation","html-keyboard-response","426","1411870","0.0-6.0-0.60","2938766","co38026","norming","","","","","","",""
"null","../img/tt/1276tt.jpg","null","mooney1","image-keyboard-response","427","1414877","0.0-6.0-1.60","2938766","co38026","norming","","","","","","",""
"10201.820000000298","","","post_mooney1_questions","survey-likert","428","1425082","0.0-6.0-2.60","2938766","co38026","norming","","","{""curiosity"":5,""confidence"":1}","[0,1]","../img/tt/1276tt.jpg","",""
"7942.095000000205","","","recognition","survey-text","429","1433026","0.0-6.0-3.60","2938766","co38026","norming","","","{""guess"":""bird""}","","../img/tt/1276tt.jpg","",""
"null","../img/gs/1276gs.jpg","null","reveal","image-keyboard-response","430","1435027","0.0-6.0-4.60","2938766","co38026","norming","","","","","","",""
"null","../img/tt/1276tt.jpg","null","mooney2","image-keyboard-response","431","1437041","0.0-6.0-5.60","2938766","co38026","norming","","","","","","",""
"3424.5650000011083","","","post_reveal_questions","survey-likert","432","1440467","0.0-6.0-6.60","2938766","co38026","norming","","","{""aha"":2}","[0]","../img/tt/1276tt.jpg","",""
"null","<div style=""font-size:60px;""> </div>","null","fixation","html-keyboard-response","433","1440669","0.0-6.0-0.61","2938766","co38026","norming","","","","","","",""
"null","../img/tt/076tt.jpg","null","mooney1","image-keyboard-response","434","1443674","0.0-6.0-1.61","2938766","co38026","norming","","","","","","",""
"3981.6149999988265","","","post_mooney1_questions","survey-likert","435","1447659","0.0-6.0-2.61","2938766","co38026","norming","","","{""curiosity"":5,""confidence"":0}","[0,1]","../img/tt/076tt.jpg","",""
"2862.1100000001024","","","recognition","survey-text","436","1450523","0.0-6.0-3.61","2938766","co38026","norming","","","{""guess"":""rolschaatsen ""}","","../img/tt/076tt.jpg","",""
"null","../img/gs/076gs.jpg","null","reveal","image-keyboard-response","437","1452525","0.0-6.0-4.61","2938766","co38026","norming","","","","","","",""
"null","../img/tt/076tt.jpg","null","mooney2","image-keyboard-response","438","1454527","0.0-6.0-5.61","2938766","co38026","norming","","","","","","",""
"1467.1300000008196","","","post_reveal_questions","survey-likert","439","1455995","0.0-6.0-6.61","2938766","co38026","norming","","","{""aha"":2}","[0]","../img/tt/076tt.jpg","",""
"null","<div style=""font-size:60px;""> </div>","null","fixation","html-keyboard-response","440","1456200","0.0-6.0-0.62","2938766","co38026","norming","","","","","","",""
"null","../img/tt/1048tt.jpg","null","mooney1","image-keyboard-response","441","1459202","0.0-6.0-1.62","2938766","co38026","norming","","","","","","",""
"3573.445000000065","","","post_mooney1_questions","survey-likert","442","1462779","0.0-6.0-2.62","2938766","co38026","norming","","","{""curiosity"":4,""confidence"":2}","[0,1]","../img/tt/1048tt.jpg","",""
"2206.185000000987","","","recognition","survey-text","443","1464987","0.0-6.0-3.62","2938766","co38026","norming","","","{""guess"":""paarden ""}","","../img/tt/1048tt.jpg","",""
"null","../img/gs/1048gs.jpg","null","reveal","image-keyboard-response","444","1466995","0.0-6.0-4.62","2938766","co38026","norming","","","","","","",""
"null","../img/tt/1048tt.jpg","null","mooney2","image-keyboard-response","445","1468998","0.0-6.0-5.62","2938766","co38026","norming","","","","","","",""
"2619.710000000894","","","post_reveal_questions","survey-likert","446","1471619","0.0-6.0-6.62","2938766","co38026","norming","","","{""aha"":4}","[0]","../img/tt/1048tt.jpg","",""
"null","<div style=""font-size:60px;""> </div>","null","fixation","html-keyboard-response","447","1471823","0.0-6.0-0.63","2938766","co38026","norming","","","","","","",""
"null","../img/tt/084tt.jpg","null","mooney1","image-keyboard-response","448","1474829","0.0-6.0-1.63","2938766","co38026","norming","","","","","","",""
"4210.655000000726","","","post_mooney1_questions","survey-likert","449","1479043","0.0-6.0-2.63","2938766","co38026","norming","","","{""curiosity"":5,""confidence"":0}","[0,1]","../img/tt/084tt.jpg","",""
"3814.1500000001397","","","recognition","survey-text","450","1482859","0.0-6.0-3.63","2938766","co38026","norming","","","{""guess"":""kip""}","","../img/tt/084tt.jpg","",""
"null","../img/gs/084gs.jpg","null","reveal","image-keyboard-response","451","1484870","0.0-6.0-4.63","2938766","co38026","norming","","","","","","",""
"null","../img/tt/084tt.jpg","null","mooney2","image-keyboard-response","452","1486878","0.0-6.0-5.63","2938766","co38026","norming","","","","","","",""
"2369.7800000009593","","","post_reveal_questions","survey-likert","453","1489251","0.0-6.0-6.63","2938766","co38026","norming","","","{""aha"":5}","[0]","../img/tt/084tt.jpg","",""
"null","<div style=""font-size:60px;""> </div>","null","fixation","html-keyboard-response","454","1489457","0.0-6.0-0.64","2938766","co38026","norming","","","","","","",""
"null","../img/tt/1069tt.jpg","null","mooney1","image-keyboard-response","455","1492462","0.0-6.0-1.64","2938766","co38026","norming","","","","","","",""
"3619.829999999609","","","post_mooney1_questions","survey-likert","456","1496083","0.0-6.0-2.64","2938766","co38026","norming","","","{""curiosity"":6,""confidence"":1}","[0,1]","../img/tt/1069tt.jpg","",""
"3014.035000000149","","","recognition","survey-text","457","1499098","0.0-6.0-3.64","2938766","co38026","norming","","","{""guess"":""varken""}","","../img/tt/1069tt.jpg","",""
"null","../img/gs/1069gs.jpg","null","reveal","image-keyboard-response","458","1501107","0.0-6.0-4.64","2938766","co38026","norming","","","","","","",""
"null","../img/tt/1069tt.jpg","null","mooney2","image-keyboard-response","459","1503109","0.0-6.0-5.64","2938766","co38026","norming","","","","","","",""
"3186.630000000121","","","post_reveal_questions","survey-likert","460","1506298","0.0-6.0-6.64","2938766","co38026","norming","","","{""aha"":3}","[0]","../img/tt/1069tt.jpg","",""
"null","<div style=""font-size:60px;""> </div>","null","fixation","html-keyboard-response","461","1506509","0.0-6.0-0.65","2938766","co38026","norming","","","","","","",""
"null","../img/tt/590tt.jpg","null","mooney1","image-keyboard-response","462","1509510","0.0-6.0-1.65","2938766","co38026","norming","","","","","","",""
"4264.325000000186","","","post_mooney1_questions","survey-likert","463","1513778","0.0-6.0-2.65","2938766","co38026","norming","","","{""curiosity"":5,""confidence"":1}","[0,1]","../img/tt/590tt.jpg","",""
"4485.984999999404","","","recognition","survey-text","464","1518266","0.0-6.0-3.65","2938766","co38026","norming","","","{""guess"":""piano""}","","../img/tt/590tt.jpg","",""
"null","../img/gs/590gs.jpg","null","reveal","image-keyboard-response","465","1520273","0.0-6.0-4.65","2938766","co38026","norming","","","","","","",""
"null","../img/tt/590tt.jpg","null","mooney2","image-keyboard-response","466","1522279","0.0-6.0-5.65","2938766","co38026","norming","","","","","","",""
"3776.3949999990873","","","post_reveal_questions","survey-likert","467","1526058","0.0-6.0-6.65","2938766","co38026","norming","","","{""aha"":3}","[0]","../img/tt/590tt.jpg","",""
"null","<div style=""font-size:60px;""> </div>","null","fixation","html-keyboard-response","468","1526269","0.0-6.0-0.66","2938766","co38026","norming","","","","","","",""
"null","../img/tt/318tt.jpg","null","mooney1","image-keyboard-response","469","1529271","0.0-6.0-1.66","2938766","co38026","norming","","","","","","",""
"6137.569999998901","","","post_mooney1_questions","survey-likert","470","1535410","0.0-6.0-2.66","2938766","co38026","norming","","","{""curiosity"":4,""confidence"":1}","[0,1]","../img/tt/318tt.jpg","",""
"1765.9850000001024","","","recognition","survey-text","471","1537178","0.0-6.0-3.66","2938766","co38026","norming","","","{""guess"":""stuur""}","","../img/tt/318tt.jpg","",""
"null","../img/gs/318gs.jpg","null","reveal","image-keyboard-response","472","1539180","0.0-6.0-4.66","2938766","co38026","norming","","","","","","",""
"null","../img/tt/318tt.jpg","null","mooney2","image-keyboard-response","473","1541182","0.0-6.0-5.66","2938766","co38026","norming","","","","","","",""
"3369.575000000652","","","post_reveal_questions","survey-likert","474","1544554","0.0-6.0-6.66","2938766","co38026","norming","","","{""aha"":3}","[0]","../img/tt/318tt.jpg","",""
"null","<div style=""font-size:60px;""> </div>","null","fixation","html-keyboard-response","475","1544761","0.0-6.0-0.67","2938766","co38026","norming","","","","","","",""
"null","../img/tt/098tt.jpg","null","mooney1","image-keyboard-response","476","1547769","0.0-6.0-1.67","2938766","co38026","norming","","","","","","",""
"5503.919999999227","","","post_mooney1_questions","survey-likert","477","1553274","0.0-6.0-2.67","2938766","co38026","norming","","","{""curiosity"":4,""confidence"":0}","[0,1]","../img/tt/098tt.jpg","",""
"781.989999999525","","","recognition","survey-text","478","1554058","0.0-6.0-3.67","2938766","co38026","norming","","","{""guess"":""""}","","../img/tt/098tt.jpg","",""
"null","../img/gs/098gs.jpg","null","reveal","image-keyboard-response","479","1556063","0.0-6.0-4.67","2938766","co38026","norming","","","","","","",""
"null","../img/tt/098tt.jpg","null","mooney2","image-keyboard-response","480","1558068","0.0-6.0-5.67","2938766","co38026","norming","","","","","","",""
"2020.2499999995343","","","post_reveal_questions","survey-likert","481","1560091","0.0-6.0-6.67","2938766","co38026","norming","","","{""aha"":1}","[0]","../img/tt/098tt.jpg","",""
"null","<div style=""font-size:60px;""> </div>","null","fixation","html-keyboard-response","482","1560293","0.0-6.0-0.68","2938766","co38026","norming","","","","","","",""
"null","../img/tt/438tt.jpg","null","mooney1","image-keyboard-response","483","1563303","0.0-6.0-1.68","2938766","co38026","norming","","","","","","",""
"5040.944999998901","","","post_mooney1_questions","survey-likert","484","1568347","0.0-6.0-2.68","2938766","co38026","norming","","","{""curiosity"":5,""confidence"":0}","[0,1]","../img/tt/438tt.jpg","",""
"2541.3950000000186","","","recognition","survey-text","485","1570891","0.0-6.0-3.68","2938766","co38026","norming","","","{""guess"":""schoenen ""}","","../img/tt/438tt.jpg","",""
"null","../img/gs/438gs.jpg","null","reveal","image-keyboard-response","486","1572896","0.0-6.0-4.68","2938766","co38026","norming","","","","","","",""
"null","../img/tt/438tt.jpg","null","mooney2","image-keyboard-response","487","1574908","0.0-6.0-5.68","2938766","co38026","norming","","","","","","",""
"7532.1949999995995","","","post_reveal_questions","survey-likert","488","1582443","0.0-6.0-6.68","2938766","co38026","norming","","","{""aha"":4}","[0]","../img/tt/438tt.jpg","",""
"null","<div style=""font-size:60px;""> </div>","null","fixation","html-keyboard-response","489","1582649","0.0-6.0-0.69","2938766","co38026","norming","","","","","","",""
"null","../img/tt/1283tt.jpg","null","mooney1","image-keyboard-response","490","1585652","0.0-6.0-1.69","2938766","co38026","norming","","","","","","",""
"5635.544999998994","","","post_mooney1_questions","survey-likert","491","1591291","0.0-6.0-2.69","2938766","co38026","norming","","","{""curiosity"":5,""confidence"":0}","[0,1]","../img/tt/1283tt.jpg","",""
"445.909999998752","","","recognition","survey-text","492","1591739","0.0-6.0-3.69","2938766","co38026","norming","","","{""guess"":""""}","","../img/tt/1283tt.jpg","",""
"null","../img/gs/1283gs.jpg","null","reveal","image-keyboard-response","493","1593750","0.0-6.0-4.69","2938766","co38026","norming","","","","","","",""
"null","../img/tt/1283tt.jpg","null","mooney2","image-keyboard-response","494","1595750","0.0-6.0-5.69","2938766","co38026","norming","","","","","","",""
"1667.6799999987707","","","post_reveal_questions","survey-likert","495","1597419","0.0-6.0-6.69","2938766","co38026","norming","","","{""aha"":0}","[0]","../img/tt/1283tt.jpg","",""
"null","<div style=""font-size:60px;""> </div>","null","fixation","html-keyboard-response","496","1597630","0.0-6.0-0.70","2938766","co38026","norming","","","","","","",""
"null","../img/tt/1126tt.jpg","null","mooney1","image-keyboard-response","497","1600639","0.0-6.0-1.70","2938766","co38026","norming","","","","","","",""
"5144.97999999905","","","post_mooney1_questions","survey-likert","498","1605787","0.0-6.0-2.70","2938766","co38026","norming","","","{""curiosity"":4,""confidence"":1}","[0,1]","../img/tt/1126tt.jpg","",""
"3901.695000000531","","","recognition","survey-text","499","1609691","0.0-6.0-3.70","2938766","co38026","norming","","","{""guess"":""slang""}","","../img/tt/1126tt.jpg","",""
"null","../img/gs/1126gs.jpg","null","reveal","image-keyboard-response","500","1611701","0.0-6.0-4.70","2938766","co38026","norming","","","","","","",""
"null","../img/tt/1126tt.jpg","null","mooney2","image-keyboard-response","501","1613703","0.0-6.0-5.70","2938766","co38026","norming","","","","","","",""
"2530.5250000001397","","","post_reveal_questions","survey-likert","502","1616235","0.0-6.0-6.70","2938766","co38026","norming","","","{""aha"":3}","[0]","../img/tt/1126tt.jpg","",""
"null","<div style=""font-size:60px;""> </div>","null","fixation","html-keyboard-response","503","1616437","0.0-6.0-0.71","2938766","co38026","norming","","","","","","",""
"null","../img/tt/329tt.jpg","null","mooney1","image-keyboard-response","504","1619438","0.0-6.0-1.71","2938766","co38026","norming","","","","","","",""
"4432.990000001155","","","post_mooney1_questions","survey-likert","505","1623875","0.0-6.0-2.71","2938766","co38026","norming","","","{""curiosity"":5,""confidence"":0}","[0,1]","../img/tt/329tt.jpg","",""
"2726.105000001611","","","recognition","survey-text","506","1626603","0.0-6.0-3.71","2938766","co38026","norming","","","{""guess"":""glijbaan ""}","","../img/tt/329tt.jpg","",""
"null","../img/gs/329gs.jpg","null","reveal","image-keyboard-response","507","1628610","0.0-6.0-4.71","2938766","co38026","norming","","","","","","",""
"null","../img/tt/329tt.jpg","null","mooney2","image-keyboard-response","508","1630612","0.0-6.0-5.71","2938766","co38026","norming","","","","","","",""
"1924.3100000002887","","","post_reveal_questions","survey-likert","509","1632539","0.0-6.0-6.71","2938766","co38026","norming","","","{""aha"":2}","[0]","../img/tt/329tt.jpg","",""
"null","<div style=""font-size:60px;""> </div>","null","fixation","html-keyboard-response","510","1632742","0.0-6.0-0.72","2938766","co38026","norming","","","","","","",""
"null","../img/tt/1173tt.jpg","null","mooney1","image-keyboard-response","511","1635751","0.0-6.0-1.72","2938766","co38026","norming","","","","","","",""
"5568.234999998938","","","post_mooney1_questions","survey-likert","512","1641323","0.0-6.0-2.72","2938766","co38026","norming","","","{""curiosity"":5,""confidence"":2}","[0,1]","../img/tt/1173tt.jpg","",""
"10605.985000000102","","","recognition","survey-text","513","1651931","0.0-6.0-3.72","2938766","co38026","norming","","","{""guess"":""tennissers""}","","../img/tt/1173tt.jpg","",""
"null","../img/gs/1173gs.jpg","null","reveal","image-keyboard-response","514","1653933","0.0-6.0-4.72","2938766","co38026","norming","","","","","","",""
"null","../img/tt/1173tt.jpg","null","mooney2","image-keyboard-response","515","1655935","0.0-6.0-5.72","2938766","co38026","norming","","","","","","",""
"2617.420000000391","","","post_reveal_questions","survey-likert","516","1658555","0.0-6.0-6.72","2938766","co38026","norming","","","{""aha"":4}","[0]","../img/tt/1173tt.jpg","",""
"null","<div style=""font-size:60px;""> </div>","null","fixation","html-keyboard-response","517","1658758","0.0-6.0-0.73","2938766","co38026","norming","","","","","","",""
"null","../img/tt/353tt.jpg","null","mooney1","image-keyboard-response","518","1661765","0.0-6.0-1.73","2938766","co38026","norming","","","","","","",""
"3507.1800000006333","","","post_mooney1_questions","survey-likert","519","1665275","0.0-6.0-2.73","2938766","co38026","norming","","","{""curiosity"":5,""confidence"":1}","[0,1]","../img/tt/353tt.jpg","",""
"2253.9850000010338","","","recognition","survey-text","520","1667531","0.0-6.0-3.73","2938766","co38026","norming","","","{""guess"":""zeehond""}","","../img/tt/353tt.jpg","",""
"null","../img/gs/353gs.jpg","null","reveal","image-keyboard-response","521","1669542","0.0-6.0-4.73","2938766","co38026","norming","","","","","","",""
"null","../img/tt/353tt.jpg","null","mooney2","image-keyboard-response","522","1671544","0.0-6.0-5.73","2938766","co38026","norming","","","","","","",""
"1631.8200000005309","","","post_reveal_questions","survey-likert","523","1673179","0.0-6.0-6.73","2938766","co38026","norming","","","{""aha"":5}","[0]","../img/tt/353tt.jpg","",""
"null","<div style=""font-size:60px;""> </div>","null","fixation","html-keyboard-response","524","1673382","0.0-6.0-0.74","2938766","co38026","norming","","","","","","",""
"null","../img/tt/1097tt.jpg","null","mooney1","image-keyboard-response","525","1676389","0.0-6.0-1.74","2938766","co38026","norming","","","","","","",""
"3314.2499999995343","","","post_mooney1_questions","survey-likert","526","1679706","0.0-6.0-2.74","2938766","co38026","norming","","","{""curiosity"":5,""confidence"":1}","[0,1]","../img/tt/1097tt.jpg","",""
"3870.034999999916","","","recognition","survey-text","527","1683578","0.0-6.0-3.74","2938766","co38026","norming","","","{""guess"":""hockeyer""}","","../img/tt/1097tt.jpg","",""
"null","../img/gs/1097gs.jpg","null","reveal","image-keyboard-response","528","1685589","0.0-6.0-4.74","2938766","co38026","norming","","","","","","",""
"null","../img/tt/1097tt.jpg","null","mooney2","image-keyboard-response","529","1687596","0.0-6.0-5.74","2938766","co38026","norming","","","","","","",""
"2906.6700000001583","","","post_reveal_questions","survey-likert","530","1690506","0.0-6.0-6.74","2938766","co38026","norming","","","{""aha"":4}","[0]","../img/tt/1097tt.jpg","",""
"null","<div style=""font-size:60px;""> </div>","null","fixation","html-keyboard-response","531","1690715","0.0-6.0-0.75","2938766","co38026","norming","","","","","","",""
"null","../img/tt/1353tt.jpg","null","mooney1","image-keyboard-response","532","1693721","0.0-6.0-1.75","2938766","co38026","norming","","","","","","",""
"3133.0550000004005","","","post_mooney1_questions","survey-likert","533","1696859","0.0-6.0-2.75","2938766","co38026","norming","","","{""curiosity"":5,""confidence"":0}","[0,1]","../img/tt/1353tt.jpg","",""
"1533.870000001276","","","recognition","survey-text","534","1698394","0.0-6.0-3.75","2938766","co38026","norming","","","{""guess"":""hand""}","","../img/tt/1353tt.jpg","",""
"null","../img/gs/1353gs.jpg","null","reveal","image-keyboard-response","535","1700400","0.0-6.0-4.75","2938766","co38026","norming","","","","","","",""
"null","../img/tt/1353tt.jpg","null","mooney2","image-keyboard-response","536","1702402","0.0-6.0-5.75","2938766","co38026","norming","","","","","","",""
"2677.1200000003446","","","post_reveal_questions","survey-likert","537","1705082","0.0-6.0-6.75","2938766","co38026","norming","","","{""aha"":5}","[0]","../img/tt/1353tt.jpg","",""
"null","<div style=""font-size:60px;""> </div>","null","fixation","html-keyboard-response","538","1705287","0.0-6.0-0.76","2938766","co38026","norming","","","","","","",""
"null","../img/tt/440tt.jpg","null","mooney1","image-keyboard-response","539","1708293","0.0-6.0-1.76","2938766","co38026","norming","","","","","","",""
"3761.7350000001024","","","post_mooney1_questions","survey-likert","540","1712059","0.0-6.0-2.76","2938766","co38026","norming","","","{""curiosity"":5,""confidence"":0}","[0,1]","../img/tt/440tt.jpg","",""
"1229.3800000005867","","","recognition","survey-text","541","1713290","0.0-6.0-3.76","2938766","co38026","norming","","","{""guess"":""hek ""}","","../img/tt/440tt.jpg","",""
"null","../img/gs/440gs.jpg","null","reveal","image-keyboard-response","542","1715293","0.0-6.0-4.76","2938766","co38026","norming","","","","","","",""
"null","../img/tt/440tt.jpg","null","mooney2","image-keyboard-response","543","1717299","0.0-6.0-5.76","2938766","co38026","norming","","","","","","",""
"8277.82000000123","","","post_reveal_questions","survey-likert","544","1725578","0.0-6.0-6.76","2938766","co38026","norming","","","{""aha"":4}","[0]","../img/tt/440tt.jpg","",""
"null","<div style=""font-size:60px;""> </div>","null","fixation","html-keyboard-response","545","1725783","0.0-6.0-0.77","2938766","co38026","norming","","","","","","",""
"null","../img/tt/080tt.jpg","null","mooney1","image-keyboard-response","546","1728790","0.0-6.0-1.77","2938766","co38026","norming","","","","","","",""
"6592.029999999795","","","post_mooney1_questions","survey-likert","547","1735386","0.0-6.0-2.77","2938766","co38026","norming","","","{""curiosity"":5,""confidence"":0}","[0,1]","../img/tt/080tt.jpg","",""
"2638.0900000003166","","","recognition","survey-text","548","1738026","0.0-6.0-3.77","2938766","co38026","norming","","","{""guess"":""tent""}","","../img/tt/080tt.jpg","",""
"null","../img/gs/080gs.jpg","null","reveal","image-keyboard-response","549","1740029","0.0-6.0-4.77","2938766","co38026","norming","","","","","","",""
"null","../img/tt/080tt.jpg","null","mooney2","image-keyboard-response","550","1742034","0.0-6.0-5.77","2938766","co38026","norming","","","","","","",""
"2558.3249999999534","","","post_reveal_questions","survey-likert","551","1744595","0.0-6.0-6.77","2938766","co38026","norming","","","{""aha"":5}","[0]","../img/tt/080tt.jpg","",""
"null","<div style=""font-size:60px;""> </div>","null","fixation","html-keyboard-response","552","1744797","0.0-6.0-0.78","2938766","co38026","norming","","","","","","",""
