"rt","stimulus","key_press","test_part","trial_type","trial_index","time_elapsed","internal_node_id","totalTime","subject","experiment_name","button_pressed","success","responses","question_order","currentStim","old","correct"
"7235.000000000002","Welcome to the experiment. This is an online experiment so please don't close the tab/window until we say goodbye.  Press any key to begin.","32","instructions","html-keyboard-response","0","7239","0.0-0.0","7342985","co38350","norming","","","","","","",""
"25771","<div style='word-wrap: break-word; width: 900px'><h3>Please consider this information carefully before deciding whether to participate in this research</h3><ul style='text-align: left; font-size: .8em;'><li><b>Purpose of the research</b>: To examine how people process images.</li><li><b>What you will do in this research</b>:  Stimuli (images) will be presented on the computer and you will be asked different questions about them.</li><li><b>Time required</b>: Participation will take between 45 and 60 minutes to complete.</li><li><b>Risks</b>:  There are no anticipated risks associated with participating in this study. The effects of participating should be comparable to those you would experience from viewing a computer monitor for 30 minutes and using a mouse or keyboard.</li><li><b>Benefits</b>:  This study provides no benefits to you individually except for the credit. The study provides important information about the nature of perception and learning.</li><li><b>Confidentiality</b>:  Your participation in this study will remain confidential. No personally identifiable information will be associated with your data. Your de-identified data may be shared with other researchers and used in future projects.</li><li><b>Participation and withdrawal</b>:  Your participation in this study is completely voluntary and you may refuse to participate or you may choose to withdraw at any time without penalty.</li><li><b>How to contact the researchers</b>: If you have questions or concerns about your participation or payment, or want to request a summary of research findings, please contact Sander Van de Cruys (KU Leuven), at sander.vandecruys@kuleuven.be.</li></ul><p>The nature and purpose of this research have been sufficiently explained and I agree to participate in this study.  I understand that I am free to withdraw at any time without incurring any penalty.</p><p>Please consent by clicking the button below to continue. Otherwise, please exit the study at this time.</p></div>","","instructions","html-button-response","1","33013","0.0-1.0","7342985","co38350","norming","0","","","","","",""
"","","","instructions","fullscreen","2","39952","0.0-2.0","7342985","co38350","norming","","true","","","","",""
"59190","","","sona","survey-html-form","3","99145","0.0-3.0","7342985","co38350","norming","","","[{""name"":""sonaid"",""value"":""38350""},{""name"":""debrief"",""value"":""no""},{""name"":""datajoin"",""value"":""yes""}]","","","",""
"150604","<div style='word-wrap: break-word; width: 900px'><h3>Instructions</h3><p>This experiment will have 3 parts. In the first part you will see a series of distorted images like the one below on the left. As you can see in the righthand image, the distorted images are derived from actual photographs. In what follows, you will <strong>briefly</strong> be presented with <strong>only</strong> the distorted image.</p> <div style='float: left; margin-right: 20px;'><img src='../img/018tt.jpg' height='250' width='250'></img></div><div style='float: right; margin-left: 20px;'><img src='../img/018gs.jpg' height='250' width='250'></img></div><p>Subsequently you will be asked a few questions about the image: One question on how <strong>curious</strong> you are about the solution and one on how <strong>confident</strong> you are that you know the solution.</p>Next, we ask you to make a guess on what is in the image. Note that it is OK to name just the <strong>basic level category</strong>. For example when you see a parrot in the image, 'parrot' will obviously be a correct answer but also correct is 'bird'. However, 'animal' will <strong>not</strong> be counted as a correct response. For the example above, 'rose' would be correct or 'flower', but not 'plant'. When soccer players are depicted, 'soccer', 'football', 'soccer players' will be correct, but not 'humans', 'outdoors', or 'sports'. You do not need to describe the image in full, just name the main object in it <strong>in one or two words</strong>. All images depict objects from one of the following broad level categories: animals, inanimate objects, plants, sports, vehicles, and food. Recognizing means knowing <strong>more</strong> than these broad labels for a given image. But we always encourage you to <strong>make a guess</strong> if you can. Note that you are allowed to use <strong>Dutch and English</strong> in your answers, whatever comes easiest for you.</p><p>Press any key to continue.</p></div>","32","instructions","html-keyboard-response","4","249755","0.0-4.0","7342985","co38350","norming","","","","","","",""
"156212.99999999997","<div style='word-wrap: break-word; width: 900px'><h3>Instructions</h3> <p>Next, the solution image will be revealed to you and you'll be asked to indicate how strong your <strong>aha-experience</strong> was after seeing the solution. This describes the positive feeling of the 'click' you sometimes experience, when the pieces of the 'puzzle' fall together and you suddenly have 'insight' in the image.</p><img src='aha.jpg' height='188' width='250'></img><p>Note that there are no right or wrong answers. We are interested in what <strong>you</strong> see in the image and how <strong>you</strong> feel about it.</p><p>Press any key to start the experiment.</p></div>","32","instructions","html-keyboard-response","5","405973","0.0-5.0","7342985","co38350","norming","","","","","","",""
"null","<div style=""font-size:60px;""> </div>","null","fixation","html-keyboard-response","6","406176","0.0-6.0-0.0","7342985","co38350","norming","","","","","","",""
"null","../img/tt/524tt.jpg","null","mooney1","image-keyboard-response","7","409179","0.0-6.0-1.0","7342985","co38350","norming","","","","","","",""
"13487","","","post_mooney1_questions","survey-likert","8","422671","0.0-6.0-2.0","7342985","co38350","norming","","","{""curiosity"":3,""confidence"":4}","[0,1]","../img/tt/524tt.jpg","",""
"12463","","","recognition","survey-text","9","435143","0.0-6.0-3.0","7342985","co38350","norming","","","{""guess"":""olifant""}","","../img/tt/524tt.jpg","",""
"null","../img/gs/524gs.jpg","null","reveal","image-keyboard-response","10","437146","0.0-6.0-4.0","7342985","co38350","norming","","","","","","",""
"null","../img/tt/524tt.jpg","null","mooney2","image-keyboard-response","11","439148","0.0-6.0-5.0","7342985","co38350","norming","","","","","","",""
"5046","","","post_reveal_questions","survey-likert","12","444196","0.0-6.0-6.0","7342985","co38350","norming","","","{""aha"":5}","[0]","../img/tt/524tt.jpg","",""
"null","<div style=""font-size:60px;""> </div>","null","fixation","html-keyboard-response","13","444401","0.0-6.0-0.1","7342985","co38350","norming","","","","","","",""
"null","../img/tt/380tt.jpg","null","mooney1","image-keyboard-response","14","447404","0.0-6.0-1.1","7342985","co38350","norming","","","","","","",""
"6953","","","post_mooney1_questions","survey-likert","15","454358","0.0-6.0-2.1","7342985","co38350","norming","","","{""curiosity"":2,""confidence"":0}","[0,1]","../img/tt/380tt.jpg","",""
"5939","","","recognition","survey-text","16","460306","0.0-6.0-3.1","7342985","co38350","norming","","","{""guess"":""""}","","../img/tt/380tt.jpg","",""
"null","../img/gs/380gs.jpg","null","reveal","image-keyboard-response","17","462309","0.0-6.0-4.1","7342985","co38350","norming","","","","","","",""
"null","../img/tt/380tt.jpg","null","mooney2","image-keyboard-response","18","464311","0.0-6.0-5.1","7342985","co38350","norming","","","","","","",""
"4312","","","post_reveal_questions","survey-likert","19","468625","0.0-6.0-6.1","7342985","co38350","norming","","","{""aha"":5}","[0]","../img/tt/380tt.jpg","",""
"null","<div style=""font-size:60px;""> </div>","null","fixation","html-keyboard-response","20","468829","0.0-6.0-0.2","7342985","co38350","norming","","","","","","",""
"null","../img/tt/079tt.jpg","null","mooney1","image-keyboard-response","21","471831","0.0-6.0-1.2","7342985","co38350","norming","","","","","","",""
"7118","","","post_mooney1_questions","survey-likert","22","478951","0.0-6.0-2.2","7342985","co38350","norming","","","{""curiosity"":3,""confidence"":5}","[0,1]","../img/tt/079tt.jpg","",""
"3705.000000000058","","","recognition","survey-text","23","482665","0.0-6.0-3.2","7342985","co38350","norming","","","{""guess"":""beer""}","","../img/tt/079tt.jpg","",""
"null","../img/gs/079gs.jpg","null","reveal","image-keyboard-response","24","484667","0.0-6.0-4.2","7342985","co38350","norming","","","","","","",""
"null","../img/tt/079tt.jpg","null","mooney2","image-keyboard-response","25","486669","0.0-6.0-5.2","7342985","co38350","norming","","","","","","",""
"5348","","","post_reveal_questions","survey-likert","26","492019","0.0-6.0-6.2","7342985","co38350","norming","","","{""aha"":1}","[0]","../img/tt/079tt.jpg","",""
"null","<div style=""font-size:60px;""> </div>","null","fixation","html-keyboard-response","27","492222","0.0-6.0-0.3","7342985","co38350","norming","","","","","","",""
"null","../img/tt/468tt.jpg","null","mooney1","image-keyboard-response","28","495224","0.0-6.0-1.3","7342985","co38350","norming","","","","","","",""
"6584","","","post_mooney1_questions","survey-likert","29","501809","0.0-6.0-2.3","7342985","co38350","norming","","","{""curiosity"":5,""confidence"":1}","[0,1]","../img/tt/468tt.jpg","",""
"9546.000000000058","","","recognition","survey-text","30","511364","0.0-6.0-3.3","7342985","co38350","norming","","","{""guess"":""man met hoed""}","","../img/tt/468tt.jpg","",""
"null","../img/gs/468gs.jpg","null","reveal","image-keyboard-response","31","513367","0.0-6.0-4.3","7342985","co38350","norming","","","","","","",""
"null","../img/tt/468tt.jpg","null","mooney2","image-keyboard-response","32","515369","0.0-6.0-5.3","7342985","co38350","norming","","","","","","",""
"2384","","","post_reveal_questions","survey-likert","33","517754","0.0-6.0-6.3","7342985","co38350","norming","","","{""aha"":6}","[0]","../img/tt/468tt.jpg","",""
"null","<div style=""font-size:60px;""> </div>","null","fixation","html-keyboard-response","34","517958","0.0-6.0-0.4","7342985","co38350","norming","","","","","","",""
"null","../img/tt/1247tt.jpg","null","mooney1","image-keyboard-response","35","520960","0.0-6.0-1.4","7342985","co38350","norming","","","","","","",""
"7139","","","post_mooney1_questions","survey-likert","36","528102","0.0-6.0-2.4","7342985","co38350","norming","","","{""curiosity"":3,""confidence"":4}","[0,1]","../img/tt/1247tt.jpg","",""
"4010","","","recognition","survey-text","37","532121","0.0-6.0-3.4","7342985","co38350","norming","","","{""guess"":""tijger""}","","../img/tt/1247tt.jpg","",""
"null","../img/gs/1247gs.jpg","null","reveal","image-keyboard-response","38","534123","0.0-6.0-4.4","7342985","co38350","norming","","","","","","",""
"null","../img/tt/1247tt.jpg","null","mooney2","image-keyboard-response","39","536126","0.0-6.0-5.4","7342985","co38350","norming","","","","","","",""
"3470","","","post_reveal_questions","survey-likert","40","539596","0.0-6.0-6.4","7342985","co38350","norming","","","{""aha"":1}","[0]","../img/tt/1247tt.jpg","",""
"null","<div style=""font-size:60px;""> </div>","null","fixation","html-keyboard-response","41","539800","0.0-6.0-0.5","7342985","co38350","norming","","","","","","",""
"null","../img/tt/1268tt.jpg","null","mooney1","image-keyboard-response","42","542802","0.0-6.0-1.5","7342985","co38350","norming","","","","","","",""
"6041","","","post_mooney1_questions","survey-likert","43","548845","0.0-6.0-2.5","7342985","co38350","norming","","","{""curiosity"":4,""confidence"":0}","[0,1]","../img/tt/1268tt.jpg","",""
"1121","","","recognition","survey-text","44","549975","0.0-6.0-3.5","7342985","co38350","norming","","","{""guess"":""""}","","../img/tt/1268tt.jpg","",""
"null","../img/gs/1268gs.jpg","null","reveal","image-keyboard-response","45","551978","0.0-6.0-4.5","7342985","co38350","norming","","","","","","",""
"null","../img/tt/1268tt.jpg","null","mooney2","image-keyboard-response","46","553980","0.0-6.0-5.5","7342985","co38350","norming","","","","","","",""
"3267","","","post_reveal_questions","survey-likert","47","557249","0.0-6.0-6.5","7342985","co38350","norming","","","{""aha"":5}","[0]","../img/tt/1268tt.jpg","",""
"null","<div style=""font-size:60px;""> </div>","null","fixation","html-keyboard-response","48","557452","0.0-6.0-0.6","7342985","co38350","norming","","","","","","",""
"null","../img/tt/319tt.jpg","null","mooney1","image-keyboard-response","49","560454","0.0-6.0-1.6","7342985","co38350","norming","","","","","","",""
"5829","","","post_mooney1_questions","survey-likert","50","566285","0.0-6.0-2.6","7342985","co38350","norming","","","{""curiosity"":5,""confidence"":0}","[0,1]","../img/tt/319tt.jpg","",""
"2714","","","recognition","survey-text","51","569008","0.0-6.0-3.6","7342985","co38350","norming","","","{""guess"":""""}","","../img/tt/319tt.jpg","",""
"null","../img/gs/319gs.jpg","null","reveal","image-keyboard-response","52","571011","0.0-6.0-4.6","7342985","co38350","norming","","","","","","",""
"null","../img/tt/319tt.jpg","null","mooney2","image-keyboard-response","53","573013","0.0-6.0-5.6","7342985","co38350","norming","","","","","","",""
"2602.9999999998836","","","post_reveal_questions","survey-likert","54","575618","0.0-6.0-6.6","7342985","co38350","norming","","","{""aha"":6}","[0]","../img/tt/319tt.jpg","",""
"null","<div style=""font-size:60px;""> </div>","null","fixation","html-keyboard-response","55","575821","0.0-6.0-0.7","7342985","co38350","norming","","","","","","",""
"null","../img/tt/123tt.jpg","null","mooney1","image-keyboard-response","56","578823","0.0-6.0-1.7","7342985","co38350","norming","","","","","","",""
"6589","","","post_mooney1_questions","survey-likert","57","585414","0.0-6.0-2.7","7342985","co38350","norming","","","{""curiosity"":4,""confidence"":2}","[0,1]","../img/tt/123tt.jpg","",""
"6394","","","recognition","survey-text","58","591817","0.0-6.0-3.7","7342985","co38350","norming","","","{""guess"":""aktetas""}","","../img/tt/123tt.jpg","",""
"null","../img/gs/123gs.jpg","null","reveal","image-keyboard-response","59","593819","0.0-6.0-4.7","7342985","co38350","norming","","","","","","",""
"null","../img/tt/123tt.jpg","null","mooney2","image-keyboard-response","60","595822","0.0-6.0-5.7","7342985","co38350","norming","","","","","","",""
"4226.999999999884","","","post_reveal_questions","survey-likert","61","600051","0.0-6.0-6.7","7342985","co38350","norming","","","{""aha"":1}","[0]","../img/tt/123tt.jpg","",""
"null","<div style=""font-size:60px;""> </div>","null","fixation","html-keyboard-response","62","600254","0.0-6.0-0.8","7342985","co38350","norming","","","","","","",""
"null","../img/tt/1055tt.jpg","null","mooney1","image-keyboard-response","63","603256","0.0-6.0-1.8","7342985","co38350","norming","","","","","","",""
"6462","","","post_mooney1_questions","survey-likert","64","609720","0.0-6.0-2.8","7342985","co38350","norming","","","{""curiosity"":4,""confidence"":1}","[0,1]","../img/tt/1055tt.jpg","",""
"5430","","","recognition","survey-text","65","615159","0.0-6.0-3.8","7342985","co38350","norming","","","{""guess"":""boot op water""}","","../img/tt/1055tt.jpg","",""
"null","../img/gs/1055gs.jpg","null","reveal","image-keyboard-response","66","617161","0.0-6.0-4.8","7342985","co38350","norming","","","","","","",""
"null","../img/tt/1055tt.jpg","null","mooney2","image-keyboard-response","67","619163","0.0-6.0-5.8","7342985","co38350","norming","","","","","","",""
"7286","","","post_reveal_questions","survey-likert","68","626450","0.0-6.0-6.8","7342985","co38350","norming","","","{""aha"":4}","[0]","../img/tt/1055tt.jpg","",""
"null","<div style=""font-size:60px;""> </div>","null","fixation","html-keyboard-response","69","626654","0.0-6.0-0.9","7342985","co38350","norming","","","","","","",""
"null","../img/tt/1006tt.jpg","null","mooney1","image-keyboard-response","70","629656","0.0-6.0-1.9","7342985","co38350","norming","","","","","","",""
"5365","","","post_mooney1_questions","survey-likert","71","635022","0.0-6.0-2.9","7342985","co38350","norming","","","{""curiosity"":5,""confidence"":1}","[0,1]","../img/tt/1006tt.jpg","",""
"10409.000000000116","","","recognition","survey-text","72","645440","0.0-6.0-3.9","7342985","co38350","norming","","","{""guess"":""schapen/geiten""}","","../img/tt/1006tt.jpg","",""
"null","../img/gs/1006gs.jpg","null","reveal","image-keyboard-response","73","647442","0.0-6.0-4.9","7342985","co38350","norming","","","","","","",""
"null","../img/tt/1006tt.jpg","null","mooney2","image-keyboard-response","74","649444","0.0-6.0-5.9","7342985","co38350","norming","","","","","","",""
"2602","","","post_reveal_questions","survey-likert","75","652049","0.0-6.0-6.9","7342985","co38350","norming","","","{""aha"":1}","[0]","../img/tt/1006tt.jpg","",""
"null","<div style=""font-size:60px;""> </div>","null","fixation","html-keyboard-response","76","652252","0.0-6.0-0.10","7342985","co38350","norming","","","","","","",""
"null","../img/tt/019tt.jpg","null","mooney1","image-keyboard-response","77","655254","0.0-6.0-1.10","7342985","co38350","norming","","","","","","",""
"6352","","","post_mooney1_questions","survey-likert","78","661607","0.0-6.0-2.10","7342985","co38350","norming","","","{""curiosity"":1,""confidence"":3}","[0,1]","../img/tt/019tt.jpg","",""
"5186","","","recognition","survey-text","79","666803","0.0-6.0-3.10","7342985","co38350","norming","","","{""guess"":""tuinschaar""}","","../img/tt/019tt.jpg","",""
"null","../img/gs/019gs.jpg","null","reveal","image-keyboard-response","80","668805","0.0-6.0-4.10","7342985","co38350","norming","","","","","","",""
"null","../img/tt/019tt.jpg","null","mooney2","image-keyboard-response","81","670806","0.0-6.0-5.10","7342985","co38350","norming","","","","","","",""
"3017","","","post_reveal_questions","survey-likert","82","673825","0.0-6.0-6.10","7342985","co38350","norming","","","{""aha"":3}","[0]","../img/tt/019tt.jpg","",""
"null","<div style=""font-size:60px;""> </div>","null","fixation","html-keyboard-response","83","674026","0.0-6.0-0.11","7342985","co38350","norming","","","","","","",""
"null","../img/tt/1226tt.jpg","null","mooney1","image-keyboard-response","84","677028","0.0-6.0-1.11","7342985","co38350","norming","","","","","","",""
"5353","","","post_mooney1_questions","survey-likert","85","682383","0.0-6.0-2.11","7342985","co38350","norming","","","{""curiosity"":2,""confidence"":3}","[0,1]","../img/tt/1226tt.jpg","",""
"3985","","","recognition","survey-text","86","686376","0.0-6.0-3.11","7342985","co38350","norming","","","{""guess"":""kippen""}","","../img/tt/1226tt.jpg","",""
"null","../img/gs/1226gs.jpg","null","reveal","image-keyboard-response","87","688378","0.0-6.0-4.11","7342985","co38350","norming","","","","","","",""
"null","../img/tt/1226tt.jpg","null","mooney2","image-keyboard-response","88","690381","0.0-6.0-5.11","7342985","co38350","norming","","","","","","",""
"4035.0000000001164","","","post_reveal_questions","survey-likert","89","694417","0.0-6.0-6.11","7342985","co38350","norming","","","{""aha"":1}","[0]","../img/tt/1226tt.jpg","",""
"null","<div style=""font-size:60px;""> </div>","null","fixation","html-keyboard-response","90","694621","0.0-6.0-0.12","7342985","co38350","norming","","","","","","",""
"null","../img/tt/1089tt.jpg","null","mooney1","image-keyboard-response","91","697623","0.0-6.0-1.12","7342985","co38350","norming","","","","","","",""
"7450.999999999884","","","post_mooney1_questions","survey-likert","92","705076","0.0-6.0-2.12","7342985","co38350","norming","","","{""curiosity"":4,""confidence"":1}","[0,1]","../img/tt/1089tt.jpg","",""
"8082","","","recognition","survey-text","93","713167","0.0-6.0-3.12","7342985","co38350","norming","","","{""guess"":""""}","","../img/tt/1089tt.jpg","",""
"null","../img/gs/1089gs.jpg","null","reveal","image-keyboard-response","94","715169","0.0-6.0-4.12","7342985","co38350","norming","","","","","","",""
"null","../img/tt/1089tt.jpg","null","mooney2","image-keyboard-response","95","717172","0.0-6.0-5.12","7342985","co38350","norming","","","","","","",""
"4949.999999999884","","","post_reveal_questions","survey-likert","96","722123","0.0-6.0-6.12","7342985","co38350","norming","","","{""aha"":5}","[0]","../img/tt/1089tt.jpg","",""
"null","<div style=""font-size:60px;""> </div>","null","fixation","html-keyboard-response","97","722327","0.0-6.0-0.13","7342985","co38350","norming","","","","","","",""
"null","../img/tt/552tt.jpg","null","mooney1","image-keyboard-response","98","725328","0.0-6.0-1.13","7342985","co38350","norming","","","","","","",""
"8541","","","post_mooney1_questions","survey-likert","99","733871","0.0-6.0-2.13","7342985","co38350","norming","","","{""curiosity"":5,""confidence"":0}","[0,1]","../img/tt/552tt.jpg","",""
"1011","","","recognition","survey-text","100","734890","0.0-6.0-3.13","7342985","co38350","norming","","","{""guess"":""""}","","../img/tt/552tt.jpg","",""
"null","../img/gs/552gs.jpg","null","reveal","image-keyboard-response","101","736893","0.0-6.0-4.13","7342985","co38350","norming","","","","","","",""
"null","../img/tt/552tt.jpg","null","mooney2","image-keyboard-response","102","738895","0.0-6.0-5.13","7342985","co38350","norming","","","","","","",""
"3302","","","post_reveal_questions","survey-likert","103","742199","0.0-6.0-6.13","7342985","co38350","norming","","","{""aha"":2}","[0]","../img/tt/552tt.jpg","",""
"null","<div style=""font-size:60px;""> </div>","null","fixation","html-keyboard-response","104","742403","0.0-6.0-0.14","7342985","co38350","norming","","","","","","",""
"null","../img/tt/194tt.jpg","null","mooney1","image-keyboard-response","105","745405","0.0-6.0-1.14","7342985","co38350","norming","","","","","","",""
"5508","","","post_mooney1_questions","survey-likert","106","750915","0.0-6.0-2.14","7342985","co38350","norming","","","{""curiosity"":4,""confidence"":1}","[0,1]","../img/tt/194tt.jpg","",""
"5731","","","recognition","survey-text","107","756655","0.0-6.0-3.14","7342985","co38350","norming","","","{""guess"":""vrouw op bank""}","","../img/tt/194tt.jpg","",""
"null","../img/gs/194gs.jpg","null","reveal","image-keyboard-response","108","758658","0.0-6.0-4.14","7342985","co38350","norming","","","","","","",""
"null","../img/tt/194tt.jpg","null","mooney2","image-keyboard-response","109","760660","0.0-6.0-5.14","7342985","co38350","norming","","","","","","",""
"3317","","","post_reveal_questions","survey-likert","110","763978","0.0-6.0-6.14","7342985","co38350","norming","","","{""aha"":4}","[0]","../img/tt/194tt.jpg","",""
"null","<div style=""font-size:60px;""> </div>","null","fixation","html-keyboard-response","111","764182","0.0-6.0-0.15","7342985","co38350","norming","","","","","","",""
"null","../img/tt/357tt.jpg","null","mooney1","image-keyboard-response","112","767184","0.0-6.0-1.15","7342985","co38350","norming","","","","","","",""
"7085.000000000116","","","post_mooney1_questions","survey-likert","113","774271","0.0-6.0-2.15","7342985","co38350","norming","","","{""curiosity"":3,""confidence"":0}","[0,1]","../img/tt/357tt.jpg","",""
"1138","","","recognition","survey-text","114","775418","0.0-6.0-3.15","7342985","co38350","norming","","","{""guess"":""""}","","../img/tt/357tt.jpg","",""
"null","../img/gs/357gs.jpg","null","reveal","image-keyboard-response","115","777420","0.0-6.0-4.15","7342985","co38350","norming","","","","","","",""
"null","../img/tt/357tt.jpg","null","mooney2","image-keyboard-response","116","779423","0.0-6.0-5.15","7342985","co38350","norming","","","","","","",""
"2929.0000000001164","","","post_reveal_questions","survey-likert","117","782353","0.0-6.0-6.15","7342985","co38350","norming","","","{""aha"":4}","[0]","../img/tt/357tt.jpg","",""
"null","<div style=""font-size:60px;""> </div>","null","fixation","html-keyboard-response","118","782556","0.0-6.0-0.16","7342985","co38350","norming","","","","","","",""
"null","../img/tt/590tt.jpg","null","mooney1","image-keyboard-response","119","785559","0.0-6.0-1.16","7342985","co38350","norming","","","","","","",""
"8196","","","post_mooney1_questions","survey-likert","120","793757","0.0-6.0-2.16","7342985","co38350","norming","","","{""curiosity"":2,""confidence"":0}","[0,1]","../img/tt/590tt.jpg","",""
"4133","","","recognition","survey-text","121","797898","0.0-6.0-3.16","7342985","co38350","norming","","","{""guess"":""tafel""}","","../img/tt/590tt.jpg","",""
"null","../img/gs/590gs.jpg","null","reveal","image-keyboard-response","122","799901","0.0-6.0-4.16","7342985","co38350","norming","","","","","","",""
"null","../img/tt/590tt.jpg","null","mooney2","image-keyboard-response","123","801903","0.0-6.0-5.16","7342985","co38350","norming","","","","","","",""
"4198","","","post_reveal_questions","survey-likert","124","806102","0.0-6.0-6.16","7342985","co38350","norming","","","{""aha"":5}","[0]","../img/tt/590tt.jpg","",""
"null","<div style=""font-size:60px;""> </div>","null","fixation","html-keyboard-response","125","806306","0.0-6.0-0.17","7342985","co38350","norming","","","","","","",""
"null","../img/tt/032tt.jpg","null","mooney1","image-keyboard-response","126","809308","0.0-6.0-1.17","7342985","co38350","norming","","","","","","",""
"11754","","","post_mooney1_questions","survey-likert","127","821065","0.0-6.0-2.17","7342985","co38350","norming","","","{""curiosity"":3,""confidence"":1}","[0,1]","../img/tt/032tt.jpg","",""
"2591","","","recognition","survey-text","128","823664","0.0-6.0-3.17","7342985","co38350","norming","","","{""guess"":""koe""}","","../img/tt/032tt.jpg","",""
"null","../img/gs/032gs.jpg","null","reveal","image-keyboard-response","129","825667","0.0-6.0-4.17","7342985","co38350","norming","","","","","","",""
"null","../img/tt/032tt.jpg","null","mooney2","image-keyboard-response","130","827669","0.0-6.0-5.17","7342985","co38350","norming","","","","","","",""
"3222.0000000001164","","","post_reveal_questions","survey-likert","131","830892","0.0-6.0-6.17","7342985","co38350","norming","","","{""aha"":5}","[0]","../img/tt/032tt.jpg","",""
"null","<div style=""font-size:60px;""> </div>","null","fixation","html-keyboard-response","132","831096","0.0-6.0-0.18","7342985","co38350","norming","","","","","","",""
"null","../img/tt/184tt.jpg","null","mooney1","image-keyboard-response","133","834098","0.0-6.0-1.18","7342985","co38350","norming","","","","","","",""
"5168","","","post_mooney1_questions","survey-likert","134","839268","0.0-6.0-2.18","7342985","co38350","norming","","","{""curiosity"":2,""confidence"":0}","[0,1]","../img/tt/184tt.jpg","",""
"2644","","","recognition","survey-text","135","841920","0.0-6.0-3.18","7342985","co38350","norming","","","{""guess"":""tafel""}","","../img/tt/184tt.jpg","",""
"null","../img/gs/184gs.jpg","null","reveal","image-keyboard-response","136","843923","0.0-6.0-4.18","7342985","co38350","norming","","","","","","",""
"null","../img/tt/184tt.jpg","null","mooney2","image-keyboard-response","137","845925","0.0-6.0-5.18","7342985","co38350","norming","","","","","","",""
"3022","","","post_reveal_questions","survey-likert","138","848948","0.0-6.0-6.18","7342985","co38350","norming","","","{""aha"":4}","[0]","../img/tt/184tt.jpg","",""
"null","<div style=""font-size:60px;""> </div>","null","fixation","html-keyboard-response","139","849152","0.0-6.0-0.19","7342985","co38350","norming","","","","","","",""
"null","../img/tt/1080tt.jpg","null","mooney1","image-keyboard-response","140","852154","0.0-6.0-1.19","7342985","co38350","norming","","","","","","",""
"6412","","","post_mooney1_questions","survey-likert","141","858568","0.0-6.0-2.19","7342985","co38350","norming","","","{""curiosity"":0,""confidence"":5}","[0,1]","../img/tt/1080tt.jpg","",""
"3699.9999999998836","","","recognition","survey-text","142","862276","0.0-6.0-3.19","7342985","co38350","norming","","","{""guess"":""schapen""}","","../img/tt/1080tt.jpg","",""
"null","../img/gs/1080gs.jpg","null","reveal","image-keyboard-response","143","864278","0.0-6.0-4.19","7342985","co38350","norming","","","","","","",""
"null","../img/tt/1080tt.jpg","null","mooney2","image-keyboard-response","144","866280","0.0-6.0-5.19","7342985","co38350","norming","","","","","","",""
"3500","","","post_reveal_questions","survey-likert","145","869781","0.0-6.0-6.19","7342985","co38350","norming","","","{""aha"":0}","[0]","../img/tt/1080tt.jpg","",""
"null","<div style=""font-size:60px;""> </div>","null","fixation","html-keyboard-response","146","869984","0.0-6.0-0.20","7342985","co38350","norming","","","","","","",""
"null","../img/tt/105tt.jpg","null","mooney1","image-keyboard-response","147","872986","0.0-6.0-1.20","7342985","co38350","norming","","","","","","",""
"5261","","","post_mooney1_questions","survey-likert","148","878249","0.0-6.0-2.20","7342985","co38350","norming","","","{""curiosity"":3,""confidence"":1}","[0,1]","../img/tt/105tt.jpg","",""
"4579","","","recognition","survey-text","149","882837","0.0-6.0-3.20","7342985","co38350","norming","","","{""guess"":""paperclips""}","","../img/tt/105tt.jpg","",""
"null","../img/gs/105gs.jpg","null","reveal","image-keyboard-response","150","884839","0.0-6.0-4.20","7342985","co38350","norming","","","","","","",""
"null","../img/tt/105tt.jpg","null","mooney2","image-keyboard-response","151","886842","0.0-6.0-5.20","7342985","co38350","norming","","","","","","",""
"3226","","","post_reveal_questions","survey-likert","152","890069","0.0-6.0-6.20","7342985","co38350","norming","","","{""aha"":1}","[0]","../img/tt/105tt.jpg","",""
"null","<div style=""font-size:60px;""> </div>","null","fixation","html-keyboard-response","153","890272","0.0-6.0-0.21","7342985","co38350","norming","","","","","","",""
"null","../img/tt/567tt.jpg","null","mooney1","image-keyboard-response","154","893275","0.0-6.0-1.21","7342985","co38350","norming","","","","","","",""
"7629","","","post_mooney1_questions","survey-likert","155","900906","0.0-6.0-2.21","7342985","co38350","norming","","","{""curiosity"":0,""confidence"":6}","[0,1]","../img/tt/567tt.jpg","",""
"6153","","","recognition","survey-text","156","907067","0.0-6.0-3.21","7342985","co38350","norming","","","{""guess"":""broodrooster""}","","../img/tt/567tt.jpg","",""
"null","../img/gs/567gs.jpg","null","reveal","image-keyboard-response","157","909069","0.0-6.0-4.21","7342985","co38350","norming","","","","","","",""
"null","../img/tt/567tt.jpg","null","mooney2","image-keyboard-response","158","911071","0.0-6.0-5.21","7342985","co38350","norming","","","","","","",""
"2976","","","post_reveal_questions","survey-likert","159","914049","0.0-6.0-6.21","7342985","co38350","norming","","","{""aha"":0}","[0]","../img/tt/567tt.jpg","",""
"null","<div style=""font-size:60px;""> </div>","null","fixation","html-keyboard-response","160","914252","0.0-6.0-0.22","7342985","co38350","norming","","","","","","",""
"null","../img/tt/1173tt.jpg","null","mooney1","image-keyboard-response","161","917254","0.0-6.0-1.22","7342985","co38350","norming","","","","","","",""
"10009.999999999884","","","post_mooney1_questions","survey-likert","162","927267","0.0-6.0-2.22","7342985","co38350","norming","","","{""curiosity"":1,""confidence"":5}","[0,1]","../img/tt/1173tt.jpg","",""
"5381.999999999884","","","recognition","survey-text","163","932657","0.0-6.0-3.22","7342985","co38350","norming","","","{""guess"":""twee jongens""}","","../img/tt/1173tt.jpg","",""
"null","../img/gs/1173gs.jpg","null","reveal","image-keyboard-response","164","934660","0.0-6.0-4.22","7342985","co38350","norming","","","","","","",""
"null","../img/tt/1173tt.jpg","null","mooney2","image-keyboard-response","165","936662","0.0-6.0-5.22","7342985","co38350","norming","","","","","","",""
"3615","","","post_reveal_questions","survey-likert","166","940279","0.0-6.0-6.22","7342985","co38350","norming","","","{""aha"":4}","[0]","../img/tt/1173tt.jpg","",""
"null","<div style=""font-size:60px;""> </div>","null","fixation","html-keyboard-response","167","940481","0.0-6.0-0.23","7342985","co38350","norming","","","","","","",""
"null","../img/tt/121tt.jpg","null","mooney1","image-keyboard-response","168","943484","0.0-6.0-1.23","7342985","co38350","norming","","","","","","",""
"6139","","","post_mooney1_questions","survey-likert","169","949625","0.0-6.0-2.23","7342985","co38350","norming","","","{""curiosity"":1,""confidence"":6}","[0,1]","../img/tt/121tt.jpg","",""
"4912.000000000116","","","recognition","survey-text","170","954545","0.0-6.0-3.23","7342985","co38350","norming","","","{""guess"":""kangoeroe""}","","../img/tt/121tt.jpg","",""
"null","../img/gs/121gs.jpg","null","reveal","image-keyboard-response","171","956548","0.0-6.0-4.23","7342985","co38350","norming","","","","","","",""
"null","../img/tt/121tt.jpg","null","mooney2","image-keyboard-response","172","958550","0.0-6.0-5.23","7342985","co38350","norming","","","","","","",""
"3462","","","post_reveal_questions","survey-likert","173","962013","0.0-6.0-6.23","7342985","co38350","norming","","","{""aha"":0}","[0]","../img/tt/121tt.jpg","",""
"null","<div style=""font-size:60px;""> </div>","null","fixation","html-keyboard-response","174","962217","0.0-6.0-0.24","7342985","co38350","norming","","","","","","",""
"null","../img/tt/1202tt.jpg","null","mooney1","image-keyboard-response","175","965219","0.0-6.0-1.24","7342985","co38350","norming","","","","","","",""
"4910","","","post_mooney1_questions","survey-likert","176","970131","0.0-6.0-2.24","7342985","co38350","norming","","","{""curiosity"":2,""confidence"":0}","[0,1]","../img/tt/1202tt.jpg","",""
"1119.0000000001164","","","recognition","survey-text","177","971258","0.0-6.0-3.24","7342985","co38350","norming","","","{""guess"":""""}","","../img/tt/1202tt.jpg","",""
"null","../img/gs/1202gs.jpg","null","reveal","image-keyboard-response","178","973260","0.0-6.0-4.24","7342985","co38350","norming","","","","","","",""
"null","../img/tt/1202tt.jpg","null","mooney2","image-keyboard-response","179","975263","0.0-6.0-5.24","7342985","co38350","norming","","","","","","",""
"4453","","","post_reveal_questions","survey-likert","180","979717","0.0-6.0-6.24","7342985","co38350","norming","","","{""aha"":2}","[0]","../img/tt/1202tt.jpg","",""
"null","<div style=""font-size:60px;""> </div>","null","fixation","html-keyboard-response","181","979919","0.0-6.0-0.25","7342985","co38350","norming","","","","","","",""
"null","../img/tt/515tt.jpg","null","mooney1","image-keyboard-response","182","982922","0.0-6.0-1.25","7342985","co38350","norming","","","","","","",""
"4149","","","post_mooney1_questions","survey-likert","183","987073","0.0-6.0-2.25","7342985","co38350","norming","","","{""curiosity"":2,""confidence"":0}","[0,1]","../img/tt/515tt.jpg","",""
"3176","","","recognition","survey-text","184","990257","0.0-6.0-3.25","7342985","co38350","norming","","","{""guess"":""kip""}","","../img/tt/515tt.jpg","",""
"null","../img/gs/515gs.jpg","null","reveal","image-keyboard-response","185","992260","0.0-6.0-4.25","7342985","co38350","norming","","","","","","",""
"null","../img/tt/515tt.jpg","null","mooney2","image-keyboard-response","186","994262","0.0-6.0-5.25","7342985","co38350","norming","","","","","","",""
"5081.000000000116","","","post_reveal_questions","survey-likert","187","999344","0.0-6.0-6.25","7342985","co38350","norming","","","{""aha"":4}","[0]","../img/tt/515tt.jpg","",""
"null","<div style=""font-size:60px;""> </div>","null","fixation","html-keyboard-response","188","999546","0.0-6.0-0.26","7342985","co38350","norming","","","","","","",""
"null","../img/tt/040tt.jpg","null","mooney1","image-keyboard-response","189","1002549","0.0-6.0-1.26","7342985","co38350","norming","","","","","","",""
"5597.000000000116","","","post_mooney1_questions","survey-likert","190","1008148","0.0-6.0-2.26","7342985","co38350","norming","","","{""curiosity"":2,""confidence"":5}","[0,1]","../img/tt/040tt.jpg","",""
"2170","","","recognition","survey-text","191","1010326","0.0-6.0-3.26","7342985","co38350","norming","","","{""guess"":""aap""}","","../img/tt/040tt.jpg","",""
"null","../img/gs/040gs.jpg","null","reveal","image-keyboard-response","192","1012329","0.0-6.0-4.26","7342985","co38350","norming","","","","","","",""
"null","../img/tt/040tt.jpg","null","mooney2","image-keyboard-response","193","1014331","0.0-6.0-5.26","7342985","co38350","norming","","","","","","",""
"3180","","","post_reveal_questions","survey-likert","194","1017512","0.0-6.0-6.26","7342985","co38350","norming","","","{""aha"":1}","[0]","../img/tt/040tt.jpg","",""
"null","<div style=""font-size:60px;""> </div>","null","fixation","html-keyboard-response","195","1017715","0.0-6.0-0.27","7342985","co38350","norming","","","","","","",""
"null","../img/tt/1217tt.jpg","null","mooney1","image-keyboard-response","196","1020717","0.0-6.0-1.27","7342985","co38350","norming","","","","","","",""
"8497","","","post_mooney1_questions","survey-likert","197","1029216","0.0-6.0-2.27","7342985","co38350","norming","","","{""curiosity"":2,""confidence"":4}","[0,1]","../img/tt/1217tt.jpg","",""
"6222","","","recognition","survey-text","198","1035446","0.0-6.0-3.27","7342985","co38350","norming","","","{""guess"":""honkbal""}","","../img/tt/1217tt.jpg","",""
"null","../img/gs/1217gs.jpg","null","reveal","image-keyboard-response","199","1037449","0.0-6.0-4.27","7342985","co38350","norming","","","","","","",""
"null","../img/tt/1217tt.jpg","null","mooney2","image-keyboard-response","200","1039451","0.0-6.0-5.27","7342985","co38350","norming","","","","","","",""
"2729.0000000001164","","","post_reveal_questions","survey-likert","201","1042181","0.0-6.0-6.27","7342985","co38350","norming","","","{""aha"":5}","[0]","../img/tt/1217tt.jpg","",""
"null","<div style=""font-size:60px;""> </div>","null","fixation","html-keyboard-response","202","1042384","0.0-6.0-0.28","7342985","co38350","norming","","","","","","",""
"null","../img/tt/1205tt.jpg","null","mooney1","image-keyboard-response","203","1045386","0.0-6.0-1.28","7342985","co38350","norming","","","","","","",""
"3741.9999999998836","","","post_mooney1_questions","survey-likert","204","1049131","0.0-6.0-2.28","7342985","co38350","norming","","","{""curiosity"":2,""confidence"":0}","[0,1]","../img/tt/1205tt.jpg","",""
"3126","","","recognition","survey-text","205","1052265","0.0-6.0-3.28","7342985","co38350","norming","","","{""guess"":""dans""}","","../img/tt/1205tt.jpg","",""
"null","../img/gs/1205gs.jpg","null","reveal","image-keyboard-response","206","1054266","0.0-6.0-4.28","7342985","co38350","norming","","","","","","",""
"null","../img/tt/1205tt.jpg","null","mooney2","image-keyboard-response","207","1056269","0.0-6.0-5.28","7342985","co38350","norming","","","","","","",""
"4711","","","post_reveal_questions","survey-likert","208","1060981","0.0-6.0-6.28","7342985","co38350","norming","","","{""aha"":2}","[0]","../img/tt/1205tt.jpg","",""
"null","<div style=""font-size:60px;""> </div>","null","fixation","html-keyboard-response","209","1061185","0.0-6.0-0.29","7342985","co38350","norming","","","","","","",""
"null","../img/tt/477tt.jpg","null","mooney1","image-keyboard-response","210","1064187","0.0-6.0-1.29","7342985","co38350","norming","","","","","","",""
"9913","","","post_mooney1_questions","survey-likert","211","1074102","0.0-6.0-2.29","7342985","co38350","norming","","","{""curiosity"":3,""confidence"":0}","[0,1]","../img/tt/477tt.jpg","",""
"5737","","","recognition","survey-text","212","1079846","0.0-6.0-3.29","7342985","co38350","norming","","","{""guess"":""panda""}","","../img/tt/477tt.jpg","",""
"null","../img/gs/477gs.jpg","null","reveal","image-keyboard-response","213","1081849","0.0-6.0-4.29","7342985","co38350","norming","","","","","","",""
"null","../img/tt/477tt.jpg","null","mooney2","image-keyboard-response","214","1083851","0.0-6.0-5.29","7342985","co38350","norming","","","","","","",""
"3604","","","post_reveal_questions","survey-likert","215","1087457","0.0-6.0-6.29","7342985","co38350","norming","","","{""aha"":5}","[0]","../img/tt/477tt.jpg","",""
"null","<div style=""font-size:60px;""> </div>","null","fixation","html-keyboard-response","216","1087662","0.0-6.0-0.30","7342985","co38350","norming","","","","","","",""
"null","../img/tt/1084tt.jpg","null","mooney1","image-keyboard-response","217","1090665","0.0-6.0-1.30","7342985","co38350","norming","","","","","","",""
"8421.999999999767","","","post_mooney1_questions","survey-likert","218","1099090","0.0-6.0-2.30","7342985","co38350","norming","","","{""curiosity"":2,""confidence"":0}","[0,1]","../img/tt/1084tt.jpg","",""
"2741","","","recognition","survey-text","219","1101838","0.0-6.0-3.30","7342985","co38350","norming","","","{""guess"":""eten""}","","../img/tt/1084tt.jpg","",""
"null","../img/gs/1084gs.jpg","null","reveal","image-keyboard-response","220","1103841","0.0-6.0-4.30","7342985","co38350","norming","","","","","","",""
"null","../img/tt/1084tt.jpg","null","mooney2","image-keyboard-response","221","1105843","0.0-6.0-5.30","7342985","co38350","norming","","","","","","",""
"5178","","","post_reveal_questions","survey-likert","222","1111022","0.0-6.0-6.30","7342985","co38350","norming","","","{""aha"":2}","[0]","../img/tt/1084tt.jpg","",""
"null","<div style=""font-size:60px;""> </div>","null","fixation","html-keyboard-response","223","1111224","0.0-6.0-0.31","7342985","co38350","norming","","","","","","",""
"null","../img/tt/1175tt.jpg","null","mooney1","image-keyboard-response","224","1114227","0.0-6.0-1.31","7342985","co38350","norming","","","","","","",""
"11759","","","post_mooney1_questions","survey-likert","225","1125996","0.0-6.0-2.31","7342985","co38350","norming","","","{""curiosity"":1,""confidence"":0}","[0,1]","../img/tt/1175tt.jpg","",""
"817.9999999997672","","","recognition","survey-text","226","1126822","0.0-6.0-3.31","7342985","co38350","norming","","","{""guess"":""""}","","../img/tt/1175tt.jpg","",""
"null","../img/gs/1175gs.jpg","null","reveal","image-keyboard-response","227","1128826","0.0-6.0-4.31","7342985","co38350","norming","","","","","","",""
"null","../img/tt/1175tt.jpg","null","mooney2","image-keyboard-response","228","1130829","0.0-6.0-5.31","7342985","co38350","norming","","","","","","",""
"3023","","","post_reveal_questions","survey-likert","229","1133854","0.0-6.0-6.31","7342985","co38350","norming","","","{""aha"":4}","[0]","../img/tt/1175tt.jpg","",""
"null","<div style=""font-size:60px;""> </div>","null","fixation","html-keyboard-response","230","1134058","0.0-6.0-0.32","7342985","co38350","norming","","","","","","",""
"null","../img/tt/1272tt.jpg","null","mooney1","image-keyboard-response","231","1137061","0.0-6.0-1.32","7342985","co38350","norming","","","","","","",""
"11583","","","post_mooney1_questions","survey-likert","232","1148649","0.0-6.0-2.32","7342985","co38350","norming","","","{""curiosity"":3,""confidence"":0}","[0,1]","../img/tt/1272tt.jpg","",""
"1051","","","recognition","survey-text","233","1149709","0.0-6.0-3.32","7342985","co38350","norming","","","{""guess"":""""}","","../img/tt/1272tt.jpg","",""
"null","../img/gs/1272gs.jpg","null","reveal","image-keyboard-response","234","1151711","0.0-6.0-4.32","7342985","co38350","norming","","","","","","",""
"null","../img/tt/1272tt.jpg","null","mooney2","image-keyboard-response","235","1153712","0.0-6.0-5.32","7342985","co38350","norming","","","","","","",""
"2734","","","post_reveal_questions","survey-likert","236","1156448","0.0-6.0-6.32","7342985","co38350","norming","","","{""aha"":4}","[0]","../img/tt/1272tt.jpg","",""
"null","<div style=""font-size:60px;""> </div>","null","fixation","html-keyboard-response","237","1156650","0.0-6.0-0.33","7342985","co38350","norming","","","","","","",""
"null","../img/tt/1130tt.jpg","null","mooney1","image-keyboard-response","238","1159652","0.0-6.0-1.33","7342985","co38350","norming","","","","","","",""
"10241","","","post_mooney1_questions","survey-likert","239","1169895","0.0-6.0-2.33","7342985","co38350","norming","","","{""curiosity"":0,""confidence"":6}","[0,1]","../img/tt/1130tt.jpg","",""
"6093","","","recognition","survey-text","240","1175996","0.0-6.0-3.33","7342985","co38350","norming","","","{""guess"":""wielrennen""}","","../img/tt/1130tt.jpg","",""
"null","../img/gs/1130gs.jpg","null","reveal","image-keyboard-response","241","1177999","0.0-6.0-4.33","7342985","co38350","norming","","","","","","",""
"null","../img/tt/1130tt.jpg","null","mooney2","image-keyboard-response","242","1180001","0.0-6.0-5.33","7342985","co38350","norming","","","","","","",""
"3079.000000000233","","","post_reveal_questions","survey-likert","243","1183082","0.0-6.0-6.33","7342985","co38350","norming","","","{""aha"":0}","[0]","../img/tt/1130tt.jpg","",""
"null","<div style=""font-size:60px;""> </div>","null","fixation","html-keyboard-response","244","1183285","0.0-6.0-0.34","7342985","co38350","norming","","","","","","",""
"null","../img/tt/098tt.jpg","null","mooney1","image-keyboard-response","245","1186288","0.0-6.0-1.34","7342985","co38350","norming","","","","","","",""
"9539","","","post_mooney1_questions","survey-likert","246","1195830","0.0-6.0-2.34","7342985","co38350","norming","","","{""curiosity"":3,""confidence"":0}","[0,1]","../img/tt/098tt.jpg","",""
"2764","","","recognition","survey-text","247","1198602","0.0-6.0-3.34","7342985","co38350","norming","","","{""guess"":""gezicht""}","","../img/tt/098tt.jpg","",""
"null","../img/gs/098gs.jpg","null","reveal","image-keyboard-response","248","1200605","0.0-6.0-4.34","7342985","co38350","norming","","","","","","",""
"null","../img/tt/098tt.jpg","null","mooney2","image-keyboard-response","249","1202607","0.0-6.0-5.34","7342985","co38350","norming","","","","","","",""
"5962","","","post_reveal_questions","survey-likert","250","1208571","0.0-6.0-6.34","7342985","co38350","norming","","","{""aha"":5}","[0]","../img/tt/098tt.jpg","",""
"null","<div style=""font-size:60px;""> </div>","null","fixation","html-keyboard-response","251","1208774","0.0-6.0-0.35","7342985","co38350","norming","","","","","","",""
"null","../img/tt/112tt.jpg","null","mooney1","image-keyboard-response","252","1211776","0.0-6.0-1.35","7342985","co38350","norming","","","","","","",""
"9413","","","post_mooney1_questions","survey-likert","253","1221191","0.0-6.0-2.35","7342985","co38350","norming","","","{""curiosity"":1,""confidence"":0}","[0,1]","../img/tt/112tt.jpg","",""
"1464","","","recognition","survey-text","254","1222664","0.0-6.0-3.35","7342985","co38350","norming","","","{""guess"":""""}","","../img/tt/112tt.jpg","",""
"null","../img/gs/112gs.jpg","null","reveal","image-keyboard-response","255","1224666","0.0-6.0-4.35","7342985","co38350","norming","","","","","","",""
"null","../img/tt/112tt.jpg","null","mooney2","image-keyboard-response","256","1226668","0.0-6.0-5.35","7342985","co38350","norming","","","","","","",""
"3135.000000000233","","","post_reveal_questions","survey-likert","257","1229804","0.0-6.0-6.35","7342985","co38350","norming","","","{""aha"":6}","[0]","../img/tt/112tt.jpg","",""
"null","<div style=""font-size:60px;""> </div>","null","fixation","html-keyboard-response","258","1230008","0.0-6.0-0.36","7342985","co38350","norming","","","","","","",""
"null","../img/tt/084tt.jpg","null","mooney1","image-keyboard-response","259","1233010","0.0-6.0-1.36","7342985","co38350","norming","","","","","","",""
"9211","","","post_mooney1_questions","survey-likert","260","1242223","0.0-6.0-2.36","7342985","co38350","norming","","","{""curiosity"":3,""confidence"":3}","[0,1]","../img/tt/084tt.jpg","",""
"12238","","","recognition","survey-text","261","1254470","0.0-6.0-3.36","7342985","co38350","norming","","","{""guess"":""vogel (eend/gans)""}","","../img/tt/084tt.jpg","",""
"null","../img/gs/084gs.jpg","null","reveal","image-keyboard-response","262","1256472","0.0-6.0-4.36","7342985","co38350","norming","","","","","","",""
"null","../img/tt/084tt.jpg","null","mooney2","image-keyboard-response","263","1258474","0.0-6.0-5.36","7342985","co38350","norming","","","","","","",""
"5275","","","post_reveal_questions","survey-likert","264","1263751","0.0-6.0-6.36","7342985","co38350","norming","","","{""aha"":1}","[0]","../img/tt/084tt.jpg","",""
"null","<div style=""font-size:60px;""> </div>","null","fixation","html-keyboard-response","265","1263955","0.0-6.0-0.37","7342985","co38350","norming","","","","","","",""
"null","../img/tt/056tt.jpg","null","mooney1","image-keyboard-response","266","1266957","0.0-6.0-1.37","7342985","co38350","norming","","","","","","",""
"8426","","","post_mooney1_questions","survey-likert","267","1275385","0.0-6.0-2.37","7342985","co38350","norming","","","{""curiosity"":3,""confidence"":4}","[0,1]","../img/tt/056tt.jpg","",""
"11270.999999999767","","","recognition","survey-text","268","1286664","0.0-6.0-3.37","7342985","co38350","norming","","","{""guess"":""pinguïn ""}","","../img/tt/056tt.jpg","",""
"null","../img/gs/056gs.jpg","null","reveal","image-keyboard-response","269","1288666","0.0-6.0-4.37","7342985","co38350","norming","","","","","","",""
"null","../img/tt/056tt.jpg","null","mooney2","image-keyboard-response","270","1290668","0.0-6.0-5.37","7342985","co38350","norming","","","","","","",""
"4162","","","post_reveal_questions","survey-likert","271","1294832","0.0-6.0-6.37","7342985","co38350","norming","","","{""aha"":5}","[0]","../img/tt/056tt.jpg","",""
"null","<div style=""font-size:60px;""> </div>","null","fixation","html-keyboard-response","272","1295036","0.0-6.0-0.38","7342985","co38350","norming","","","","","","",""
"null","../img/tt/279tt.jpg","null","mooney1","image-keyboard-response","273","1298037","0.0-6.0-1.38","7342985","co38350","norming","","","","","","",""
"9782","","","post_mooney1_questions","survey-likert","274","1307820","0.0-6.0-2.38","7342985","co38350","norming","","","{""curiosity"":2,""confidence"":0}","[0,1]","../img/tt/279tt.jpg","",""
"1239","","","recognition","survey-text","275","1309067","0.0-6.0-3.38","7342985","co38350","norming","","","{""guess"":""""}","","../img/tt/279tt.jpg","",""
"null","../img/gs/279gs.jpg","null","reveal","image-keyboard-response","276","1311070","0.0-6.0-4.38","7342985","co38350","norming","","","","","","",""
"null","../img/tt/279tt.jpg","null","mooney2","image-keyboard-response","277","1313072","0.0-6.0-5.38","7342985","co38350","norming","","","","","","",""
"4910","","","post_reveal_questions","survey-likert","278","1317984","0.0-6.0-6.38","7342985","co38350","norming","","","{""aha"":5}","[0]","../img/tt/279tt.jpg","",""
"null","<div style=""font-size:60px;""> </div>","null","fixation","html-keyboard-response","279","1318187","0.0-6.0-0.39","7342985","co38350","norming","","","","","","",""
"null","../img/tt/1142tt.jpg","null","mooney1","image-keyboard-response","280","1321190","0.0-6.0-1.39","7342985","co38350","norming","","","","","","",""
"6396","","","post_mooney1_questions","survey-likert","281","1327587","0.0-6.0-2.39","7342985","co38350","norming","","","{""curiosity"":1,""confidence"":4}","[0,1]","../img/tt/1142tt.jpg","",""
"6981.000000000233","","","recognition","survey-text","282","1334576","0.0-6.0-3.39","7342985","co38350","norming","","","{""guess"":""trampoline""}","","../img/tt/1142tt.jpg","",""
"null","../img/gs/1142gs.jpg","null","reveal","image-keyboard-response","283","1336579","0.0-6.0-4.39","7342985","co38350","norming","","","","","","",""
"null","../img/tt/1142tt.jpg","null","mooney2","image-keyboard-response","284","1338581","0.0-6.0-5.39","7342985","co38350","norming","","","","","","",""
"5032","","","post_reveal_questions","survey-likert","285","1343614","0.0-6.0-6.39","7342985","co38350","norming","","","{""aha"":2}","[0]","../img/tt/1142tt.jpg","",""
"null","<div style=""font-size:60px;""> </div>","null","fixation","html-keyboard-response","286","1343818","0.0-6.0-0.40","7342985","co38350","norming","","","","","","",""
"null","../img/tt/1107tt.jpg","null","mooney1","image-keyboard-response","287","1346820","0.0-6.0-1.40","7342985","co38350","norming","","","","","","",""
"9407","","","post_mooney1_questions","survey-likert","288","1356229","0.0-6.0-2.40","7342985","co38350","norming","","","{""curiosity"":1,""confidence"":1}","[0,1]","../img/tt/1107tt.jpg","",""
"842","","","recognition","survey-text","289","1357079","0.0-6.0-3.40","7342985","co38350","norming","","","{""guess"":""""}","","../img/tt/1107tt.jpg","",""
"null","../img/gs/1107gs.jpg","null","reveal","image-keyboard-response","290","1359082","0.0-6.0-4.40","7342985","co38350","norming","","","","","","",""
"null","../img/tt/1107tt.jpg","null","mooney2","image-keyboard-response","291","1361084","0.0-6.0-5.40","7342985","co38350","norming","","","","","","",""
"7007","","","post_reveal_questions","survey-likert","292","1368093","0.0-6.0-6.40","7342985","co38350","norming","","","{""aha"":2}","[0]","../img/tt/1107tt.jpg","",""
"null","<div style=""font-size:60px;""> </div>","null","fixation","html-keyboard-response","293","1368296","0.0-6.0-0.41","7342985","co38350","norming","","","","","","",""
"null","../img/tt/1186tt.jpg","null","mooney1","image-keyboard-response","294","1371299","0.0-6.0-1.41","7342985","co38350","norming","","","","","","",""
"6534","","","post_mooney1_questions","survey-likert","295","1377835","0.0-6.0-2.41","7342985","co38350","norming","","","{""curiosity"":1,""confidence"":4}","[0,1]","../img/tt/1186tt.jpg","",""
"8971","","","recognition","survey-text","296","1386814","0.0-6.0-3.41","7342985","co38350","norming","","","{""guess"":""wandelende man""}","","../img/tt/1186tt.jpg","",""
"null","../img/gs/1186gs.jpg","null","reveal","image-keyboard-response","297","1388816","0.0-6.0-4.41","7342985","co38350","norming","","","","","","",""
"null","../img/tt/1186tt.jpg","null","mooney2","image-keyboard-response","298","1390818","0.0-6.0-5.41","7342985","co38350","norming","","","","","","",""
"5995","","","post_reveal_questions","survey-likert","299","1396815","0.0-6.0-6.41","7342985","co38350","norming","","","{""aha"":4}","[0]","../img/tt/1186tt.jpg","",""
"null","<div style=""font-size:60px;""> </div>","null","fixation","html-keyboard-response","300","1397018","0.0-6.0-0.42","7342985","co38350","norming","","","","","","",""
"null","../img/tt/1154tt.jpg","null","mooney1","image-keyboard-response","301","1400021","0.0-6.0-1.42","7342985","co38350","norming","","","","","","",""
"19590","","","post_mooney1_questions","survey-likert","302","1419613","0.0-6.0-2.42","7342985","co38350","norming","","","{""curiosity"":1,""confidence"":0}","[0,1]","../img/tt/1154tt.jpg","",""
"4818","","","recognition","survey-text","303","1424439","0.0-6.0-3.42","7342985","co38350","norming","","","{""guess"":""wegenwerken""}","","../img/tt/1154tt.jpg","",""
"null","../img/gs/1154gs.jpg","null","reveal","image-keyboard-response","304","1426442","0.0-6.0-4.42","7342985","co38350","norming","","","","","","",""
"null","../img/tt/1154tt.jpg","null","mooney2","image-keyboard-response","305","1428444","0.0-6.0-5.42","7342985","co38350","norming","","","","","","",""
"5107.999999999767","","","post_reveal_questions","survey-likert","306","1433554","0.0-6.0-6.42","7342985","co38350","norming","","","{""aha"":4}","[0]","../img/tt/1154tt.jpg","",""
"null","<div style=""font-size:60px;""> </div>","null","fixation","html-keyboard-response","307","1433757","0.0-6.0-0.43","7342985","co38350","norming","","","","","","",""
"null","../img/tt/599tt.jpg","null","mooney1","image-keyboard-response","308","1436759","0.0-6.0-1.43","7342985","co38350","norming","","","","","","",""
"8658","","","post_mooney1_questions","survey-likert","309","1445419","0.0-6.0-2.43","7342985","co38350","norming","","","{""curiosity"":0,""confidence"":5}","[0,1]","../img/tt/599tt.jpg","",""
"4684.999999999767","","","recognition","survey-text","310","1450112","0.0-6.0-3.43","7342985","co38350","norming","","","{""guess"":""twee uilen""}","","../img/tt/599tt.jpg","",""
"null","../img/gs/599gs.jpg","null","reveal","image-keyboard-response","311","1452115","0.0-6.0-4.43","7342985","co38350","norming","","","","","","",""
"null","../img/tt/599tt.jpg","null","mooney2","image-keyboard-response","312","1454117","0.0-6.0-5.43","7342985","co38350","norming","","","","","","",""
"5216","","","post_reveal_questions","survey-likert","313","1459335","0.0-6.0-6.43","7342985","co38350","norming","","","{""aha"":0}","[0]","../img/tt/599tt.jpg","",""
"null","<div style=""font-size:60px;""> </div>","null","fixation","html-keyboard-response","314","1459538","0.0-6.0-0.44","7342985","co38350","norming","","","","","","",""
"null","../img/tt/010tt.jpg","null","mooney1","image-keyboard-response","315","1462541","0.0-6.0-1.44","7342985","co38350","norming","","","","","","",""
"5954.999999999767","","","post_mooney1_questions","survey-likert","316","1468497","0.0-6.0-2.44","7342985","co38350","norming","","","{""curiosity"":2,""confidence"":0}","[0,1]","../img/tt/010tt.jpg","",""
"1139","","","recognition","survey-text","317","1469645","0.0-6.0-3.44","7342985","co38350","norming","","","{""guess"":""""}","","../img/tt/010tt.jpg","",""
"null","../img/gs/010gs.jpg","null","reveal","image-keyboard-response","318","1471647","0.0-6.0-4.44","7342985","co38350","norming","","","","","","",""
"null","../img/tt/010tt.jpg","null","mooney2","image-keyboard-response","319","1473649","0.0-6.0-5.44","7342985","co38350","norming","","","","","","",""
"3224","","","post_reveal_questions","survey-likert","320","1476875","0.0-6.0-6.44","7342985","co38350","norming","","","{""aha"":5}","[0]","../img/tt/010tt.jpg","",""
"null","<div style=""font-size:60px;""> </div>","null","fixation","html-keyboard-response","321","1477078","0.0-6.0-0.45","7342985","co38350","norming","","","","","","",""
"null","../img/tt/044tt.jpg","null","mooney1","image-keyboard-response","322","1480080","0.0-6.0-1.45","7342985","co38350","norming","","","","","","",""
"6803","","","post_mooney1_questions","survey-likert","323","1486885","0.0-6.0-2.45","7342985","co38350","norming","","","{""curiosity"":0,""confidence"":0}","[0,1]","../img/tt/044tt.jpg","",""
"3366","","","recognition","survey-text","324","1490259","0.0-6.0-3.45","7342985","co38350","norming","","","{""guess"":""""}","","../img/tt/044tt.jpg","",""
"null","../img/gs/044gs.jpg","null","reveal","image-keyboard-response","325","1492261","0.0-6.0-4.45","7342985","co38350","norming","","","","","","",""
"null","../img/tt/044tt.jpg","null","mooney2","image-keyboard-response","326","1494263","0.0-6.0-5.45","7342985","co38350","norming","","","","","","",""
"4201.000000000233","","","post_reveal_questions","survey-likert","327","1498467","0.0-6.0-6.45","7342985","co38350","norming","","","{""aha"":3}","[0]","../img/tt/044tt.jpg","",""
"null","<div style=""font-size:60px;""> </div>","null","fixation","html-keyboard-response","328","1498670","0.0-6.0-0.46","7342985","co38350","norming","","","","","","",""
"null","../img/tt/1033tt.jpg","null","mooney1","image-keyboard-response","329","1501672","0.0-6.0-1.46","7342985","co38350","norming","","","","","","",""
"4378","","","post_mooney1_questions","survey-likert","330","1506052","0.0-6.0-2.46","7342985","co38350","norming","","","{""curiosity"":0,""confidence"":6}","[0,1]","../img/tt/1033tt.jpg","",""
"4669","","","recognition","survey-text","331","1510729","0.0-6.0-3.46","7342985","co38350","norming","","","{""guess"":""honkbal""}","","../img/tt/1033tt.jpg","",""
"null","../img/gs/1033gs.jpg","null","reveal","image-keyboard-response","332","1512731","0.0-6.0-4.46","7342985","co38350","norming","","","","","","",""
"null","../img/tt/1033tt.jpg","null","mooney2","image-keyboard-response","333","1514733","0.0-6.0-5.46","7342985","co38350","norming","","","","","","",""
"30535","","","post_reveal_questions","survey-likert","334","1545271","0.0-6.0-6.46","7342985","co38350","norming","","","{""aha"":0}","[0]","../img/tt/1033tt.jpg","",""
"null","<div style=""font-size:60px;""> </div>","null","fixation","html-keyboard-response","335","1545475","0.0-6.0-0.47","7342985","co38350","norming","","","","","","",""
"null","../img/tt/080tt.jpg","null","mooney1","image-keyboard-response","336","1548476","0.0-6.0-1.47","7342985","co38350","norming","","","","","","",""
"5355.999999999767","","","post_mooney1_questions","survey-likert","337","1553835","0.0-6.0-2.47","7342985","co38350","norming","","","{""curiosity"":0,""confidence"":0}","[0,1]","../img/tt/080tt.jpg","",""
"5187.999999999767","","","recognition","survey-text","338","1559031","0.0-6.0-3.47","7342985","co38350","norming","","","{""guess"":""paddestoel""}","","../img/tt/080tt.jpg","",""
"null","../img/gs/080gs.jpg","null","reveal","image-keyboard-response","339","1561034","0.0-6.0-4.47","7342985","co38350","norming","","","","","","",""
"null","../img/tt/080tt.jpg","null","mooney2","image-keyboard-response","340","1563036","0.0-6.0-5.47","7342985","co38350","norming","","","","","","",""
"3640","","","post_reveal_questions","survey-likert","341","1566677","0.0-6.0-6.47","7342985","co38350","norming","","","{""aha"":3}","[0]","../img/tt/080tt.jpg","",""
"null","<div style=""font-size:60px;""> </div>","null","fixation","html-keyboard-response","342","1566880","0.0-6.0-0.48","7342985","co38350","norming","","","","","","",""
"null","../img/tt/1066tt.jpg","null","mooney1","image-keyboard-response","343","1569883","0.0-6.0-1.48","7342985","co38350","norming","","","","","","",""
"9809","","","post_mooney1_questions","survey-likert","344","1579694","0.0-6.0-2.48","7342985","co38350","norming","","","{""curiosity"":0,""confidence"":0}","[0,1]","../img/tt/1066tt.jpg","",""
"2965","","","recognition","survey-text","345","1582668","0.0-6.0-3.48","7342985","co38350","norming","","","{""guess"":""auto""}","","../img/tt/1066tt.jpg","",""
"null","../img/gs/1066gs.jpg","null","reveal","image-keyboard-response","346","1584670","0.0-6.0-4.48","7342985","co38350","norming","","","","","","",""
"null","../img/tt/1066tt.jpg","null","mooney2","image-keyboard-response","347","1586672","0.0-6.0-5.48","7342985","co38350","norming","","","","","","",""
"6552","","","post_reveal_questions","survey-likert","348","1593226","0.0-6.0-6.48","7342985","co38350","norming","","","{""aha"":4}","[0]","../img/tt/1066tt.jpg","",""
"null","<div style=""font-size:60px;""> </div>","null","fixation","html-keyboard-response","349","1593429","0.0-6.0-0.49","7342985","co38350","norming","","","","","","",""
"null","../img/tt/1290tt.jpg","null","mooney1","image-keyboard-response","350","1596431","0.0-6.0-1.49","7342985","co38350","norming","","","","","","",""
"4630","","","post_mooney1_questions","survey-likert","351","1601063","0.0-6.0-2.49","7342985","co38350","norming","","","{""curiosity"":0,""confidence"":0}","[0,1]","../img/tt/1290tt.jpg","",""
"1371","","","recognition","survey-text","352","1602443","0.0-6.0-3.49","7342985","co38350","norming","","","{""guess"":""""}","","../img/tt/1290tt.jpg","",""
"null","../img/gs/1290gs.jpg","null","reveal","image-keyboard-response","353","1604445","0.0-6.0-4.49","7342985","co38350","norming","","","","","","",""
"null","../img/tt/1290tt.jpg","null","mooney2","image-keyboard-response","354","1606447","0.0-6.0-5.49","7342985","co38350","norming","","","","","","",""
"5230","","","post_reveal_questions","survey-likert","355","1611679","0.0-6.0-6.49","7342985","co38350","norming","","","{""aha"":5}","[0]","../img/tt/1290tt.jpg","",""
"null","<div style=""font-size:60px;""> </div>","null","fixation","html-keyboard-response","356","1611882","0.0-6.0-0.50","7342985","co38350","norming","","","","","","",""
"null","../img/tt/1278tt.jpg","null","mooney1","image-keyboard-response","357","1614885","0.0-6.0-1.50","7342985","co38350","norming","","","","","","",""
"5827","","","post_mooney1_questions","survey-likert","358","1620713","0.0-6.0-2.50","7342985","co38350","norming","","","{""curiosity"":0,""confidence"":0}","[0,1]","../img/tt/1278tt.jpg","",""
"2379","","","recognition","survey-text","359","1623100","0.0-6.0-3.50","7342985","co38350","norming","","","{""guess"":""""}","","../img/tt/1278tt.jpg","",""
"null","../img/gs/1278gs.jpg","null","reveal","image-keyboard-response","360","1625103","0.0-6.0-4.50","7342985","co38350","norming","","","","","","",""
"null","../img/tt/1278tt.jpg","null","mooney2","image-keyboard-response","361","1627105","0.0-6.0-5.50","7342985","co38350","norming","","","","","","",""
"2992","","","post_reveal_questions","survey-likert","362","1630098","0.0-6.0-6.50","7342985","co38350","norming","","","{""aha"":3}","[0]","../img/tt/1278tt.jpg","",""
"null","<div style=""font-size:60px;""> </div>","null","fixation","html-keyboard-response","363","1630302","0.0-6.0-0.51","7342985","co38350","norming","","","","","","",""
"null","../img/tt/436tt.jpg","null","mooney1","image-keyboard-response","364","1633304","0.0-6.0-1.51","7342985","co38350","norming","","","","","","",""
"6801","","","post_mooney1_questions","survey-likert","365","1640107","0.0-6.0-2.51","7342985","co38350","norming","","","{""curiosity"":0,""confidence"":0}","[0,1]","../img/tt/436tt.jpg","",""
"2141.999999999767","","","recognition","survey-text","366","1642257","0.0-6.0-3.51","7342985","co38350","norming","","","{""guess"":""""}","","../img/tt/436tt.jpg","",""
"null","../img/gs/436gs.jpg","null","reveal","image-keyboard-response","367","1644259","0.0-6.0-4.51","7342985","co38350","norming","","","","","","",""
"null","../img/tt/436tt.jpg","null","mooney2","image-keyboard-response","368","1646262","0.0-6.0-5.51","7342985","co38350","norming","","","","","","",""
"3525.000000000233","","","post_reveal_questions","survey-likert","369","1649788","0.0-6.0-6.51","7342985","co38350","norming","","","{""aha"":6}","[0]","../img/tt/436tt.jpg","",""
"null","<div style=""font-size:60px;""> </div>","null","fixation","html-keyboard-response","370","1649990","0.0-6.0-0.52","7342985","co38350","norming","","","","","","",""
"null","../img/tt/497tt.jpg","null","mooney1","image-keyboard-response","371","1652992","0.0-6.0-1.52","7342985","co38350","norming","","","","","","",""
"7488","","","post_mooney1_questions","survey-likert","372","1660483","0.0-6.0-2.52","7342985","co38350","norming","","","{""curiosity"":0,""confidence"":5}","[0,1]","../img/tt/497tt.jpg","",""
"3834","","","recognition","survey-text","373","1664325","0.0-6.0-3.52","7342985","co38350","norming","","","{""guess"":""gasvuur""}","","../img/tt/497tt.jpg","",""
"null","../img/gs/497gs.jpg","null","reveal","image-keyboard-response","374","1666328","0.0-6.0-4.52","7342985","co38350","norming","","","","","","",""
"null","../img/tt/497tt.jpg","null","mooney2","image-keyboard-response","375","1668330","0.0-6.0-5.52","7342985","co38350","norming","","","","","","",""
"18076","","","post_reveal_questions","survey-likert","376","1686408","0.0-6.0-6.52","7342985","co38350","norming","","","{""aha"":2}","[0]","../img/tt/497tt.jpg","",""
"null","<div style=""font-size:60px;""> </div>","null","fixation","html-keyboard-response","377","1686611","0.0-6.0-0.53","7342985","co38350","norming","","","","","","",""
"null","../img/tt/517tt.jpg","null","mooney1","image-keyboard-response","378","1689614","0.0-6.0-1.53","7342985","co38350","norming","","","","","","",""
"5098","","","post_mooney1_questions","survey-likert","379","1694714","0.0-6.0-2.53","7342985","co38350","norming","","","{""curiosity"":0,""confidence"":0}","[0,1]","../img/tt/517tt.jpg","",""
"1970","","","recognition","survey-text","380","1696691","0.0-6.0-3.53","7342985","co38350","norming","","","{""guess"":""dier""}","","../img/tt/517tt.jpg","",""
"null","../img/gs/517gs.jpg","null","reveal","image-keyboard-response","381","1698693","0.0-6.0-4.53","7342985","co38350","norming","","","","","","",""
"null","../img/tt/517tt.jpg","null","mooney2","image-keyboard-response","382","1700694","0.0-6.0-5.53","7342985","co38350","norming","","","","","","",""
"3239.000000000233","","","post_reveal_questions","survey-likert","383","1703935","0.0-6.0-6.53","7342985","co38350","norming","","","{""aha"":4}","[0]","../img/tt/517tt.jpg","",""
"null","<div style=""font-size:60px;""> </div>","null","fixation","html-keyboard-response","384","1704139","0.0-6.0-0.54","7342985","co38350","norming","","","","","","",""
"null","../img/tt/1283tt.jpg","null","mooney1","image-keyboard-response","385","1707141","0.0-6.0-1.54","7342985","co38350","norming","","","","","","",""
"20897.000000000233","","","post_mooney1_questions","survey-likert","386","1728040","0.0-6.0-2.54","7342985","co38350","norming","","","{""curiosity"":0,""confidence"":0}","[0,1]","../img/tt/1283tt.jpg","",""
"1303","","","recognition","survey-text","387","1729351","0.0-6.0-3.54","7342985","co38350","norming","","","{""guess"":""""}","","../img/tt/1283tt.jpg","",""
"null","../img/gs/1283gs.jpg","null","reveal","image-keyboard-response","388","1731354","0.0-6.0-4.54","7342985","co38350","norming","","","","","","",""
"null","../img/tt/1283tt.jpg","null","mooney2","image-keyboard-response","389","1733356","0.0-6.0-5.54","7342985","co38350","norming","","","","","","",""
"8787.999999999767","","","post_reveal_questions","survey-likert","390","1742146","0.0-6.0-6.54","7342985","co38350","norming","","","{""aha"":2}","[0]","../img/tt/1283tt.jpg","",""
"null","<div style=""font-size:60px;""> </div>","null","fixation","html-keyboard-response","391","1742350","0.0-6.0-0.55","7342985","co38350","norming","","","","","","",""
"null","../img/tt/1086tt.jpg","null","mooney1","image-keyboard-response","392","1745351","0.0-6.0-1.55","7342985","co38350","norming","","","","","","",""
"9577","","","post_mooney1_questions","survey-likert","393","1754930","0.0-6.0-2.55","7342985","co38350","norming","","","{""curiosity"":0,""confidence"":5}","[0,1]","../img/tt/1086tt.jpg","",""
"4572","","","recognition","survey-text","394","1759511","0.0-6.0-3.55","7342985","co38350","norming","","","{""guess"":""stier""}","","../img/tt/1086tt.jpg","",""
"null","../img/gs/1086gs.jpg","null","reveal","image-keyboard-response","395","1761513","0.0-6.0-4.55","7342985","co38350","norming","","","","","","",""
"null","../img/tt/1086tt.jpg","null","mooney2","image-keyboard-response","396","1763515","0.0-6.0-5.55","7342985","co38350","norming","","","","","","",""
"5418","","","post_reveal_questions","survey-likert","397","1768935","0.0-6.0-6.55","7342985","co38350","norming","","","{""aha"":5}","[0]","../img/tt/1086tt.jpg","",""
"null","<div style=""font-size:60px;""> </div>","null","fixation","html-keyboard-response","398","1769138","0.0-6.0-0.56","7342985","co38350","norming","","","","","","",""
"null","../img/tt/1260tt.jpg","null","mooney1","image-keyboard-response","399","1772141","0.0-6.0-1.56","7342985","co38350","norming","","","","","","",""
"12945","","","post_mooney1_questions","survey-likert","400","1785087","0.0-6.0-2.56","7342985","co38350","norming","","","{""curiosity"":0,""confidence"":0}","[0,1]","../img/tt/1260tt.jpg","",""
"1420","","","recognition","survey-text","401","1786515","0.0-6.0-3.56","7342985","co38350","norming","","","{""guess"":""""}","","../img/tt/1260tt.jpg","",""
"null","../img/gs/1260gs.jpg","null","reveal","image-keyboard-response","402","1788517","0.0-6.0-4.56","7342985","co38350","norming","","","","","","",""
"null","../img/tt/1260tt.jpg","null","mooney2","image-keyboard-response","403","1790520","0.0-6.0-5.56","7342985","co38350","norming","","","","","","",""
"4741","","","post_reveal_questions","survey-likert","404","1795263","0.0-6.0-6.56","7342985","co38350","norming","","","{""aha"":5}","[0]","../img/tt/1260tt.jpg","",""
"null","<div style=""font-size:60px;""> </div>","null","fixation","html-keyboard-response","405","1795467","0.0-6.0-0.57","7342985","co38350","norming","","","","","","",""
"null","../img/tt/1224tt.jpg","null","mooney1","image-keyboard-response","406","1798469","0.0-6.0-1.57","7342985","co38350","norming","","","","","","",""
"21060","","","post_mooney1_questions","survey-likert","407","1819532","0.0-6.0-2.57","7342985","co38350","norming","","","{""curiosity"":0,""confidence"":0}","[0,1]","../img/tt/1224tt.jpg","",""
"1717","","","recognition","survey-text","408","1821257","0.0-6.0-3.57","7342985","co38350","norming","","","{""guess"":""""}","","../img/tt/1224tt.jpg","",""
"null","../img/gs/1224gs.jpg","null","reveal","image-keyboard-response","409","1823259","0.0-6.0-4.57","7342985","co38350","norming","","","","","","",""
"null","../img/tt/1224tt.jpg","null","mooney2","image-keyboard-response","410","1825260","0.0-6.0-5.57","7342985","co38350","norming","","","","","","",""
"10760","","","post_reveal_questions","survey-likert","411","1836023","0.0-6.0-6.57","7342985","co38350","norming","","","{""aha"":5}","[0]","../img/tt/1224tt.jpg","",""
"null","<div style=""font-size:60px;""> </div>","null","fixation","html-keyboard-response","412","1836226","0.0-6.0-0.58","7342985","co38350","norming","","","","","","",""
"null","../img/tt/1061tt.jpg","null","mooney1","image-keyboard-response","413","1839229","0.0-6.0-1.58","7342985","co38350","norming","","","","","","",""
"33040","","","post_mooney1_questions","survey-likert","414","1872271","0.0-6.0-2.58","7342985","co38350","norming","","","{""curiosity"":0,""confidence"":3}","[0,1]","../img/tt/1061tt.jpg","",""
"6516.000000000233","","","recognition","survey-text","415","1878794","0.0-6.0-3.58","7342985","co38350","norming","","","{""guess"":""""}","","../img/tt/1061tt.jpg","",""
"null","../img/gs/1061gs.jpg","null","reveal","image-keyboard-response","416","1880797","0.0-6.0-4.58","7342985","co38350","norming","","","","","","",""
"null","../img/tt/1061tt.jpg","null","mooney2","image-keyboard-response","417","1882799","0.0-6.0-5.58","7342985","co38350","norming","","","","","","",""
"29692","","","post_reveal_questions","survey-likert","418","1912494","0.0-6.0-6.58","7342985","co38350","norming","","","{""aha"":3}","[0]","../img/tt/1061tt.jpg","",""
"null","<div style=""font-size:60px;""> </div>","null","fixation","html-keyboard-response","419","1912697","0.0-6.0-0.59","7342985","co38350","norming","","","","","","",""
"null","../img/tt/1251tt.jpg","null","mooney1","image-keyboard-response","420","1915700","0.0-6.0-1.59","7342985","co38350","norming","","","","","","",""
"45973","","","post_mooney1_questions","survey-likert","421","1961676","0.0-6.0-2.59","7342985","co38350","norming","","","{""curiosity"":0,""confidence"":0}","[0,1]","../img/tt/1251tt.jpg","",""
"2560","","","recognition","survey-text","422","1964244","0.0-6.0-3.59","7342985","co38350","norming","","","{""guess"":""""}","","../img/tt/1251tt.jpg","",""
"null","../img/gs/1251gs.jpg","null","reveal","image-keyboard-response","423","1966246","0.0-6.0-4.59","7342985","co38350","norming","","","","","","",""
"null","../img/tt/1251tt.jpg","null","mooney2","image-keyboard-response","424","1968248","0.0-6.0-5.59","7342985","co38350","norming","","","","","","",""
"20408.999999999767","","","post_reveal_questions","survey-likert","425","1988659","0.0-6.0-6.59","7342985","co38350","norming","","","{""aha"":4}","[0]","../img/tt/1251tt.jpg","",""
"null","<div style=""font-size:60px;""> </div>","null","fixation","html-keyboard-response","426","1988862","0.0-6.0-0.60","7342985","co38350","norming","","","","","","",""
"null","../img/tt/140tt.jpg","null","mooney1","image-keyboard-response","427","1991864","0.0-6.0-1.60","7342985","co38350","norming","","","","","","",""
"2928.999999999767","","","post_mooney1_questions","survey-likert","428","1994796","0.0-6.0-2.60","7342985","co38350","norming","","","{""curiosity"":0,""confidence"":0}","[0,1]","../img/tt/140tt.jpg","",""
"939","","","recognition","survey-text","429","1995742","0.0-6.0-3.60","7342985","co38350","norming","","","{""guess"":""""}","","../img/tt/140tt.jpg","",""
"null","../img/gs/140gs.jpg","null","reveal","image-keyboard-response","430","1997744","0.0-6.0-4.60","7342985","co38350","norming","","","","","","",""
"null","../img/tt/140tt.jpg","null","mooney2","image-keyboard-response","431","1999746","0.0-6.0-5.60","7342985","co38350","norming","","","","","","",""
"2996","","","post_reveal_questions","survey-likert","432","2002744","0.0-6.0-6.60","7342985","co38350","norming","","","{""aha"":4}","[0]","../img/tt/140tt.jpg","",""
"null","<div style=""font-size:60px;""> </div>","null","fixation","html-keyboard-response","433","2002947","0.0-6.0-0.61","7342985","co38350","norming","","","","","","",""
"null","../img/tt/1353tt.jpg","null","mooney1","image-keyboard-response","434","2005948","0.0-6.0-1.61","7342985","co38350","norming","","","","","","",""
"3607","","","post_mooney1_questions","survey-likert","435","2009557","0.0-6.0-2.61","7342985","co38350","norming","","","{""curiosity"":0,""confidence"":0}","[0,1]","../img/tt/1353tt.jpg","",""
"1260","","","recognition","survey-text","436","2010825","0.0-6.0-3.61","7342985","co38350","norming","","","{""guess"":""""}","","../img/tt/1353tt.jpg","",""
"null","../img/gs/1353gs.jpg","null","reveal","image-keyboard-response","437","2012827","0.0-6.0-4.61","7342985","co38350","norming","","","","","","",""
"null","../img/tt/1353tt.jpg","null","mooney2","image-keyboard-response","438","2014829","0.0-6.0-5.61","7342985","co38350","norming","","","","","","",""
"3491","","","post_reveal_questions","survey-likert","439","2018322","0.0-6.0-6.61","7342985","co38350","norming","","","{""aha"":1}","[0]","../img/tt/1353tt.jpg","",""
"null","<div style=""font-size:60px;""> </div>","null","fixation","html-keyboard-response","440","2018524","0.0-6.0-0.62","7342985","co38350","norming","","","","","","",""
"null","../img/tt/1046tt.jpg","null","mooney1","image-keyboard-response","441","2021527","0.0-6.0-1.62","7342985","co38350","norming","","","","","","",""
"4433","","","post_mooney1_questions","survey-likert","442","2025962","0.0-6.0-2.62","7342985","co38350","norming","","","{""curiosity"":0,""confidence"":2}","[0,1]","../img/tt/1046tt.jpg","",""
"4265","","","recognition","survey-text","443","2030235","0.0-6.0-3.62","7342985","co38350","norming","","","{""guess"":""tafel""}","","../img/tt/1046tt.jpg","",""
"null","../img/gs/1046gs.jpg","null","reveal","image-keyboard-response","444","2032238","0.0-6.0-4.62","7342985","co38350","norming","","","","","","",""
"null","../img/tt/1046tt.jpg","null","mooney2","image-keyboard-response","445","2034239","0.0-6.0-5.62","7342985","co38350","norming","","","","","","",""
"2535","","","post_reveal_questions","survey-likert","446","2036776","0.0-6.0-6.62","7342985","co38350","norming","","","{""aha"":2}","[0]","../img/tt/1046tt.jpg","",""
"null","<div style=""font-size:60px;""> </div>","null","fixation","html-keyboard-response","447","2036979","0.0-6.0-0.63","7342985","co38350","norming","","","","","","",""
"null","../img/tt/1002tt.jpg","null","mooney1","image-keyboard-response","448","2039982","0.0-6.0-1.63","7342985","co38350","norming","","","","","","",""
"5622.999999999767","","","post_mooney1_questions","survey-likert","449","2045606","0.0-6.0-2.63","7342985","co38350","norming","","","{""curiosity"":0,""confidence"":2}","[0,1]","../img/tt/1002tt.jpg","",""
"5629.999999999767","","","recognition","survey-text","450","2051245","0.0-6.0-3.63","7342985","co38350","norming","","","{""guess"":""beer""}","","../img/tt/1002tt.jpg","",""
"null","../img/gs/1002gs.jpg","null","reveal","image-keyboard-response","451","2053248","0.0-6.0-4.63","7342985","co38350","norming","","","","","","",""
"null","../img/tt/1002tt.jpg","null","mooney2","image-keyboard-response","452","2055250","0.0-6.0-5.63","7342985","co38350","norming","","","","","","",""
"2808","","","post_reveal_questions","survey-likert","453","2058059","0.0-6.0-6.63","7342985","co38350","norming","","","{""aha"":2}","[0]","../img/tt/1002tt.jpg","",""
"null","<div style=""font-size:60px;""> </div>","null","fixation","html-keyboard-response","454","2058262","0.0-6.0-0.64","7342985","co38350","norming","","","","","","",""
"null","../img/tt/096tt.jpg","null","mooney1","image-keyboard-response","455","2061264","0.0-6.0-1.64","7342985","co38350","norming","","","","","","",""
"3466","","","post_mooney1_questions","survey-likert","456","2064732","0.0-6.0-2.64","7342985","co38350","norming","","","{""curiosity"":0,""confidence"":0}","[0,1]","../img/tt/096tt.jpg","",""
"1387.9999999997672","","","recognition","survey-text","457","2066128","0.0-6.0-3.64","7342985","co38350","norming","","","{""guess"":""""}","","../img/tt/096tt.jpg","",""
"null","../img/gs/096gs.jpg","null","reveal","image-keyboard-response","458","2068130","0.0-6.0-4.64","7342985","co38350","norming","","","","","","",""
"null","../img/tt/096tt.jpg","null","mooney2","image-keyboard-response","459","2070133","0.0-6.0-5.64","7342985","co38350","norming","","","","","","",""
"2944.999999999767","","","post_reveal_questions","survey-likert","460","2073079","0.0-6.0-6.64","7342985","co38350","norming","","","{""aha"":1}","[0]","../img/tt/096tt.jpg","",""
"null","<div style=""font-size:60px;""> </div>","null","fixation","html-keyboard-response","461","2073282","0.0-6.0-0.65","7342985","co38350","norming","","","","","","",""
"null","../img/tt/1027tt.jpg","null","mooney1","image-keyboard-response","462","2076284","0.0-6.0-1.65","7342985","co38350","norming","","","","","","",""
"6812","","","post_mooney1_questions","survey-likert","463","2083098","0.0-6.0-2.65","7342985","co38350","norming","","","{""curiosity"":0,""confidence"":0}","[0,1]","../img/tt/1027tt.jpg","",""
"1151.0000000002328","","","recognition","survey-text","464","2084257","0.0-6.0-3.65","7342985","co38350","norming","","","{""guess"":""""}","","../img/tt/1027tt.jpg","",""
"null","../img/gs/1027gs.jpg","null","reveal","image-keyboard-response","465","2086260","0.0-6.0-4.65","7342985","co38350","norming","","","","","","",""
"null","../img/tt/1027tt.jpg","null","mooney2","image-keyboard-response","466","2088262","0.0-6.0-5.65","7342985","co38350","norming","","","","","","",""
"8574.999999999767","","","post_reveal_questions","survey-likert","467","2096838","0.0-6.0-6.65","7342985","co38350","norming","","","{""aha"":3}","[0]","../img/tt/1027tt.jpg","",""
"null","<div style=""font-size:60px;""> </div>","null","fixation","html-keyboard-response","468","2097041","0.0-6.0-0.66","7342985","co38350","norming","","","","","","",""
"null","../img/tt/1181tt.jpg","null","mooney1","image-keyboard-response","469","2100044","0.0-6.0-1.66","7342985","co38350","norming","","","","","","",""
"7935","","","post_mooney1_questions","survey-likert","470","2107981","0.0-6.0-2.66","7342985","co38350","norming","","","{""curiosity"":0,""confidence"":0}","[0,1]","../img/tt/1181tt.jpg","",""
"1318.9999999995343","","","recognition","survey-text","471","2109308","0.0-6.0-3.66","7342985","co38350","norming","","","{""guess"":""""}","","../img/tt/1181tt.jpg","",""
"null","../img/gs/1181gs.jpg","null","reveal","image-keyboard-response","472","2111311","0.0-6.0-4.66","7342985","co38350","norming","","","","","","",""
"null","../img/tt/1181tt.jpg","null","mooney2","image-keyboard-response","473","2113313","0.0-6.0-5.66","7342985","co38350","norming","","","","","","",""
"6551.000000000466","","","post_reveal_questions","survey-likert","474","2119865","0.0-6.0-6.66","7342985","co38350","norming","","","{""aha"":1}","[0]","../img/tt/1181tt.jpg","",""
"null","<div style=""font-size:60px;""> </div>","null","fixation","html-keyboard-response","475","2120068","0.0-6.0-0.67","7342985","co38350","norming","","","","","","",""
"null","../img/tt/1189tt.jpg","null","mooney1","image-keyboard-response","476","2123071","0.0-6.0-1.67","7342985","co38350","norming","","","","","","",""
"32298","","","post_mooney1_questions","survey-likert","477","2155371","0.0-6.0-2.67","7342985","co38350","norming","","","{""curiosity"":0,""confidence"":0}","[0,1]","../img/tt/1189tt.jpg","",""
"3630.0000000004657","","","recognition","survey-text","478","2159009","0.0-6.0-3.67","7342985","co38350","norming","","","{""guess"":""""}","","../img/tt/1189tt.jpg","",""
"null","../img/gs/1189gs.jpg","null","reveal","image-keyboard-response","479","2161011","0.0-6.0-4.67","7342985","co38350","norming","","","","","","",""
"null","../img/tt/1189tt.jpg","null","mooney2","image-keyboard-response","480","2163014","0.0-6.0-5.67","7342985","co38350","norming","","","","","","",""
"14056","","","post_reveal_questions","survey-likert","481","2177071","0.0-6.0-6.67","7342985","co38350","norming","","","{""aha"":3}","[0]","../img/tt/1189tt.jpg","",""
"null","<div style=""font-size:60px;""> </div>","null","fixation","html-keyboard-response","482","2177274","0.0-6.0-0.68","7342985","co38350","norming","","","","","","",""
"null","../img/tt/296tt.jpg","null","mooney1","image-keyboard-response","483","2180277","0.0-6.0-1.68","7342985","co38350","norming","","","","","","",""
"54241","","","post_mooney1_questions","survey-likert","484","2234520","0.0-6.0-2.68","7342985","co38350","norming","","","{""curiosity"":2,""confidence"":1}","[0,1]","../img/tt/296tt.jpg","",""
"2699","","","recognition","survey-text","485","2237227","0.0-6.0-3.68","7342985","co38350","norming","","","{""guess"":""""}","","../img/tt/296tt.jpg","",""
"null","../img/gs/296gs.jpg","null","reveal","image-keyboard-response","486","2239230","0.0-6.0-4.68","7342985","co38350","norming","","","","","","",""
"null","../img/tt/296tt.jpg","null","mooney2","image-keyboard-response","487","2241232","0.0-6.0-5.68","7342985","co38350","norming","","","","","","",""
"3016","","","post_reveal_questions","survey-likert","488","2244250","0.0-6.0-6.68","7342985","co38350","norming","","","{""aha"":3}","[0]","../img/tt/296tt.jpg","",""
"null","<div style=""font-size:60px;""> </div>","null","fixation","html-keyboard-response","489","2244453","0.0-6.0-0.69","7342985","co38350","norming","","","","","","",""
"null","../img/tt/507tt.jpg","null","mooney1","image-keyboard-response","490","2247455","0.0-6.0-1.69","7342985","co38350","norming","","","","","","",""
"8065","","","post_mooney1_questions","survey-likert","491","2255523","0.0-6.0-2.69","7342985","co38350","norming","","","{""curiosity"":1,""confidence"":5}","[0,1]","../img/tt/507tt.jpg","",""
"1917","","","recognition","survey-text","492","2257448","0.0-6.0-3.69","7342985","co38350","norming","","","{""guess"":""""}","","../img/tt/507tt.jpg","",""
"null","../img/gs/507gs.jpg","null","reveal","image-keyboard-response","493","2259450","0.0-6.0-4.69","7342985","co38350","norming","","","","","","",""
"null","../img/tt/507tt.jpg","null","mooney2","image-keyboard-response","494","2261452","0.0-6.0-5.69","7342985","co38350","norming","","","","","","",""
"9589","","","post_reveal_questions","survey-likert","495","2271042","0.0-6.0-6.69","7342985","co38350","norming","","","{""aha"":3}","[0]","../img/tt/507tt.jpg","",""
"null","<div style=""font-size:60px;""> </div>","null","fixation","html-keyboard-response","496","2271246","0.0-6.0-0.70","7342985","co38350","norming","","","","","","",""
"null","../img/tt/1151tt.jpg","null","mooney1","image-keyboard-response","497","2274248","0.0-6.0-1.70","7342985","co38350","norming","","","","","","",""
"4445","","","post_mooney1_questions","survey-likert","498","2278699","0.0-6.0-2.70","7342985","co38350","norming","","","{""curiosity"":0,""confidence"":0}","[0,1]","../img/tt/1151tt.jpg","",""
"2155","","","recognition","survey-text","499","2280864","0.0-6.0-3.70","7342985","co38350","norming","","","{""guess"":""""}","","../img/tt/1151tt.jpg","",""
"null","../img/gs/1151gs.jpg","null","reveal","image-keyboard-response","500","2282868","0.0-6.0-4.70","7342985","co38350","norming","","","","","","",""
"null","../img/tt/1151tt.jpg","null","mooney2","image-keyboard-response","501","2284871","0.0-6.0-5.70","7342985","co38350","norming","","","","","","",""
"2991","","","post_reveal_questions","survey-likert","502","2287866","0.0-6.0-6.70","7342985","co38350","norming","","","{""aha"":3}","[0]","../img/tt/1151tt.jpg","",""
"null","<div style=""font-size:60px;""> </div>","null","fixation","html-keyboard-response","503","2288070","0.0-6.0-0.71","7342985","co38350","norming","","","","","","",""
"null","../img/tt/442tt.jpg","null","mooney1","image-keyboard-response","504","2291073","0.0-6.0-1.71","7342985","co38350","norming","","","","","","",""
"5000.999999999534","","","post_mooney1_questions","survey-likert","505","2296077","0.0-6.0-2.71","7342985","co38350","norming","","","{""curiosity"":0,""confidence"":0}","[0,1]","../img/tt/442tt.jpg","",""
"8637.999999999534","","","recognition","survey-text","506","2304726","0.0-6.0-3.71","7342985","co38350","norming","","","{""guess"":""dennenappel""}","","../img/tt/442tt.jpg","",""
"null","../img/gs/442gs.jpg","null","reveal","image-keyboard-response","507","2306729","0.0-6.0-4.71","7342985","co38350","norming","","","","","","",""
"null","../img/tt/442tt.jpg","null","mooney2","image-keyboard-response","508","2308731","0.0-6.0-5.71","7342985","co38350","norming","","","","","","",""
"9453","","","post_reveal_questions","survey-likert","509","2318187","0.0-6.0-6.71","7342985","co38350","norming","","","{""aha"":2}","[0]","../img/tt/442tt.jpg","",""
"null","<div style=""font-size:60px;""> </div>","null","fixation","html-keyboard-response","510","2318390","0.0-6.0-0.72","7342985","co38350","norming","","","","","","",""
"null","../img/tt/438tt.jpg","null","mooney1","image-keyboard-response","511","2321392","0.0-6.0-1.72","7342985","co38350","norming","","","","","","",""
"15107","","","post_mooney1_questions","survey-likert","512","2336502","0.0-6.0-2.72","7342985","co38350","norming","","","{""curiosity"":0,""confidence"":3}","[0,1]","../img/tt/438tt.jpg","",""
"1500","","","recognition","survey-text","513","2338011","0.0-6.0-3.72","7342985","co38350","norming","","","{""guess"":""""}","","../img/tt/438tt.jpg","",""
"null","../img/gs/438gs.jpg","null","reveal","image-keyboard-response","514","2340013","0.0-6.0-4.72","7342985","co38350","norming","","","","","","",""
"null","../img/tt/438tt.jpg","null","mooney2","image-keyboard-response","515","2342015","0.0-6.0-5.72","7342985","co38350","norming","","","","","","",""
"3908","","","post_reveal_questions","survey-likert","516","2345925","0.0-6.0-6.72","7342985","co38350","norming","","","{""aha"":1}","[0]","../img/tt/438tt.jpg","",""
"null","<div style=""font-size:60px;""> </div>","null","fixation","html-keyboard-response","517","2346128","0.0-6.0-0.73","7342985","co38350","norming","","","","","","",""
"null","../img/tt/1143tt.jpg","null","mooney1","image-keyboard-response","518","2349130","0.0-6.0-1.73","7342985","co38350","norming","","","","","","",""
"3479680.000000001","","","post_mooney1_questions","survey-likert","519","5828970","0.0-6.0-2.73","7342985","co38350","norming","","","{""curiosity"":0,""confidence"":3}","[0,1]","../img/tt/1143tt.jpg","",""
"1725","","","recognition","survey-text","520","5830703","0.0-6.0-3.73","7342985","co38350","norming","","","{""guess"":""""}","","../img/tt/1143tt.jpg","",""
"null","../img/gs/1143gs.jpg","null","reveal","image-keyboard-response","521","5832705","0.0-6.0-4.73","7342985","co38350","norming","","","","","","",""
"null","../img/tt/1143tt.jpg","null","mooney2","image-keyboard-response","522","5834707","0.0-6.0-5.73","7342985","co38350","norming","","","","","","",""
"2626","","","post_reveal_questions","survey-likert","523","5837334","0.0-6.0-6.73","7342985","co38350","norming","","","{""aha"":2}","[0]","../img/tt/1143tt.jpg","",""
"null","<div style=""font-size:60px;""> </div>","null","fixation","html-keyboard-response","524","5837538","0.0-6.0-0.74","7342985","co38350","norming","","","","","","",""
"null","../img/tt/1123tt.jpg","null","mooney1","image-keyboard-response","525","5840540","0.0-6.0-1.74","7342985","co38350","norming","","","","","","",""
"9726","","","post_mooney1_questions","survey-likert","526","5850268","0.0-6.0-2.74","7342985","co38350","norming","","","{""curiosity"":1,""confidence"":1}","[0,1]","../img/tt/1123tt.jpg","",""
"1759","","","recognition","survey-text","527","5852037","0.0-6.0-3.74","7342985","co38350","norming","","","{""guess"":""""}","","../img/tt/1123tt.jpg","",""
"null","../img/gs/1123gs.jpg","null","reveal","image-keyboard-response","528","5854039","0.0-6.0-4.74","7342985","co38350","norming","","","","","","",""
"null","../img/tt/1123tt.jpg","null","mooney2","image-keyboard-response","529","5856042","0.0-6.0-5.74","7342985","co38350","norming","","","","","","",""
"5061","","","post_reveal_questions","survey-likert","530","5861104","0.0-6.0-6.74","7342985","co38350","norming","","","{""aha"":2}","[0]","../img/tt/1123tt.jpg","",""
"null","<div style=""font-size:60px;""> </div>","null","fixation","html-keyboard-response","531","5861307","0.0-6.0-0.75","7342985","co38350","norming","","","","","","",""
"null","../img/tt/1243tt.jpg","null","mooney1","image-keyboard-response","532","5864310","0.0-6.0-1.75","7342985","co38350","norming","","","","","","",""
"4387","","","post_mooney1_questions","survey-likert","533","5868699","0.0-6.0-2.75","7342985","co38350","norming","","","{""curiosity"":1,""confidence"":0}","[0,1]","../img/tt/1243tt.jpg","",""
"5512","","","recognition","survey-text","534","5874218","0.0-6.0-3.75","7342985","co38350","norming","","","{""guess"":""""}","","../img/tt/1243tt.jpg","",""
"null","../img/gs/1243gs.jpg","null","reveal","image-keyboard-response","535","5876221","0.0-6.0-4.75","7342985","co38350","norming","","","","","","",""
"null","../img/tt/1243tt.jpg","null","mooney2","image-keyboard-response","536","5878223","0.0-6.0-5.75","7342985","co38350","norming","","","","","","",""
"4787.000000000931","","","post_reveal_questions","survey-likert","537","5883012","0.0-6.0-6.75","7342985","co38350","norming","","","{""aha"":4}","[0]","../img/tt/1243tt.jpg","",""
"null","<div style=""font-size:60px;""> </div>","null","fixation","html-keyboard-response","538","5883215","0.0-6.0-0.76","7342985","co38350","norming","","","","","","",""
"null","../img/tt/1040tt.jpg","null","mooney1","image-keyboard-response","539","5886218","0.0-6.0-1.76","7342985","co38350","norming","","","","","","",""
"13937","","","post_mooney1_questions","survey-likert","540","5900157","0.0-6.0-2.76","7342985","co38350","norming","","","{""curiosity"":1,""confidence"":0}","[0,1]","../img/tt/1040tt.jpg","",""
"2618.9999999990687","","","recognition","survey-text","541","5902784","0.0-6.0-3.76","7342985","co38350","norming","","","{""guess"":""""}","","../img/tt/1040tt.jpg","",""
"null","../img/gs/1040gs.jpg","null","reveal","image-keyboard-response","542","5904786","0.0-6.0-4.76","7342985","co38350","norming","","","","","","",""
"null","../img/tt/1040tt.jpg","null","mooney2","image-keyboard-response","543","5906788","0.0-6.0-5.76","7342985","co38350","norming","","","","","","",""
"4372.999999999069","","","post_reveal_questions","survey-likert","544","5911164","0.0-6.0-6.76","7342985","co38350","norming","","","{""aha"":3}","[0]","../img/tt/1040tt.jpg","",""
"null","<div style=""font-size:60px;""> </div>","null","fixation","html-keyboard-response","545","5911368","0.0-6.0-0.77","7342985","co38350","norming","","","","","","",""
"null","../img/tt/135tt.jpg","null","mooney1","image-keyboard-response","546","5914370","0.0-6.0-1.77","7342985","co38350","norming","","","","","","",""
"5507","","","post_mooney1_questions","survey-likert","547","5919879","0.0-6.0-2.77","7342985","co38350","norming","","","{""curiosity"":1,""confidence"":3}","[0,1]","../img/tt/135tt.jpg","",""
"4836.000000000931","","","recognition","survey-text","548","5924723","0.0-6.0-3.77","7342985","co38350","norming","","","{""guess"":""wc bril""}","","../img/tt/135tt.jpg","",""
"null","../img/gs/135gs.jpg","null","reveal","image-keyboard-response","549","5926726","0.0-6.0-4.77","7342985","co38350","norming","","","","","","",""
"null","../img/tt/135tt.jpg","null","mooney2","image-keyboard-response","550","5928728","0.0-6.0-5.77","7342985","co38350","norming","","","","","","",""
"4051","","","post_reveal_questions","survey-likert","551","5932781","0.0-6.0-6.77","7342985","co38350","norming","","","{""aha"":0}","[0]","../img/tt/135tt.jpg","",""
"null","<div style=""font-size:60px;""> </div>","null","fixation","html-keyboard-response","552","5932984","0.0-6.0-0.78","7342985","co38350","norming","","","","","","",""
"null","../img/tt/124tt.jpg","null","mooney1","image-keyboard-response","553","5935986","0.0-6.0-1.78","7342985","co38350","norming","","","","","","",""
"6657","","","post_mooney1_questions","survey-likert","554","5942645","0.0-6.0-2.78","7342985","co38350","norming","","","{""curiosity"":0,""confidence"":2}","[0,1]","../img/tt/124tt.jpg","",""
"3069","","","recognition","survey-text","555","5945722","0.0-6.0-3.78","7342985","co38350","norming","","","{""guess"":""beer""}","","../img/tt/124tt.jpg","",""
"null","../img/gs/124gs.jpg","null","reveal","image-keyboard-response","556","5947724","0.0-6.0-4.78","7342985","co38350","norming","","","","","","",""
"null","../img/tt/124tt.jpg","null","mooney2","image-keyboard-response","557","5949726","0.0-6.0-5.78","7342985","co38350","norming","","","","","","",""
"8087","","","post_reveal_questions","survey-likert","558","5957815","0.0-6.0-6.78","7342985","co38350","norming","","","{""aha"":4}","[0]","../img/tt/124tt.jpg","",""
"null","<div style=""font-size:60px;""> </div>","null","fixation","html-keyboard-response","559","5958019","0.0-6.0-0.79","7342985","co38350","norming","","","","","","",""
"null","../img/tt/008tt.jpg","null","mooney1","image-keyboard-response","560","5961022","0.0-6.0-1.79","7342985","co38350","norming","","","","","","",""
"12792.999999999069","","","post_mooney1_questions","survey-likert","561","5973817","0.0-6.0-2.79","7342985","co38350","norming","","","{""curiosity"":0,""confidence"":1}","[0,1]","../img/tt/008tt.jpg","",""
"2510","","","recognition","survey-text","562","5976336","0.0-6.0-3.79","7342985","co38350","norming","","","{""guess"":""""}","","../img/tt/008tt.jpg","",""
"null","../img/gs/008gs.jpg","null","reveal","image-keyboard-response","563","5978339","0.0-6.0-4.79","7342985","co38350","norming","","","","","","",""
"null","../img/tt/008tt.jpg","null","mooney2","image-keyboard-response","564","5980340","0.0-6.0-5.79","7342985","co38350","norming","","","","","","",""
"11058","","","post_reveal_questions","survey-likert","565","5991400","0.0-6.0-6.79","7342985","co38350","norming","","","{""aha"":1}","[0]","../img/tt/008tt.jpg","",""
