"rt","stimulus","key_press","test_part","trial_type","trial_index","time_elapsed","internal_node_id","totalTime","subject","experiment_name","button_pressed","success","responses","question_order","currentStim","old","correct"
"6377.999999999702","Welcome to the experiment. This is an online experiment so please don't close the tab/window until we say goodbye.  Press any key to begin.","32","instructions","html-keyboard-response","0","6423","0.0-0.0","2596906","co38770","norming","","","","","","",""
"28266.735000000153","<div style='word-wrap: break-word; width: 900px'><h3>Please consider this information carefully before deciding whether to participate in this research</h3><ul style='text-align: left; font-size: .8em;'><li><b>Purpose of the research</b>: To examine how people process images.</li><li><b>What you will do in this research</b>:  Stimuli (images) will be presented on the computer and you will be asked different questions about them.</li><li><b>Time required</b>: Participation will take between 45 and 60 minutes to complete.</li><li><b>Risks</b>:  There are no anticipated risks associated with participating in this study. The effects of participating should be comparable to those you would experience from viewing a computer monitor for 30 minutes and using a mouse or keyboard.</li><li><b>Benefits</b>:  This study provides no benefits to you individually except for the credit. The study provides important information about the nature of perception and learning.</li><li><b>Confidentiality</b>:  Your participation in this study will remain confidential. No personally identifiable information will be associated with your data. Your de-identified data may be shared with other researchers and used in future projects.</li><li><b>Participation and withdrawal</b>:  Your participation in this study is completely voluntary and you may refuse to participate or you may choose to withdraw at any time without penalty.</li><li><b>How to contact the researchers</b>: If you have questions or concerns about your participation or payment, or want to request a summary of research findings, please contact Sander Van de Cruys (KU Leuven), at sander.vandecruys@kuleuven.be.</li></ul><p>The nature and purpose of this research have been sufficiently explained and I agree to participate in this study.  I understand that I am free to withdraw at any time without incurring any penalty.</p><p>Please consent by clicking the button below to continue. Otherwise, please exit the study at this time.</p></div>","","instructions","html-button-response","1","34690","0.0-1.0","2596906","co38770","norming","0","","","","","",""
"","","","instructions","fullscreen","2","38381","0.0-2.0","2596906","co38770","norming","","true","","","","",""
"22490.060000000085","","","sona","survey-html-form","3","60878","0.0-3.0","2596906","co38770","norming","","","[{""name"":""sonaid"",""value"":""38770""},{""name"":""debrief"",""value"":""yes""},{""name"":""datajoin"",""value"":""yes""}]","","","",""
"57763.55000000058","<div style='word-wrap: break-word; width: 900px'><h3>Instructions</h3><p>This experiment will have 3 parts. In the first part you will see a series of distorted images like the one below on the left. As you can see in the righthand image, the distorted images are derived from actual photographs. In what follows, you will <strong>briefly</strong> be presented with <strong>only</strong> the distorted image.</p> <div style='float: left; margin-right: 20px;'><img src='../img/018tt.jpg' height='250' width='250'></img></div><div style='float: right; margin-left: 20px;'><img src='../img/018gs.jpg' height='250' width='250'></img></div><p>Subsequently you will be asked a few questions about the image: One question on how <strong>curious</strong> you are about the solution and one on how <strong>confident</strong> you are that you know the solution.</p>Next, we ask you to make a guess on what is in the image. Note that it is OK to name just the <strong>basic level category</strong>. For example when you see a parrot in the image, 'parrot' will obviously be a correct answer but also correct is 'bird'. However, 'animal' will <strong>not</strong> be counted as a correct response. For the example above, 'rose' would be correct or 'flower', but not 'plant'. When soccer players are depicted, 'soccer', 'football', 'soccer players' will be correct, but not 'humans', 'outdoors', or 'sports'. You do not need to describe the image in full, just name the main object in it <strong>in one or two words</strong>. All images depict objects from one of the following broad level categories: animals, inanimate objects, plants, sports, vehicles, and food. Recognizing means knowing <strong>more</strong> than these broad labels for a given image. But we always encourage you to <strong>make a guess</strong> if you can. Note that you are allowed to use <strong>Dutch and English</strong> in your answers, whatever comes easiest for you.</p><p>Press any key to continue.</p></div>","32","instructions","html-keyboard-response","4","118637","0.0-4.0","2596906","co38770","norming","","","","","","",""
"89951.00499999992","<div style='word-wrap: break-word; width: 900px'><h3>Instructions</h3> <p>Next, the solution image will be revealed to you and you'll be asked to indicate how strong your <strong>aha-experience</strong> was after seeing the solution. This describes the positive feeling of the 'click' you sometimes experience, when the pieces of the 'puzzle' fall together and you suddenly have 'insight' in the image.</p><img src='aha.jpg' height='188' width='250'></img><p>Note that there are no right or wrong answers. We are interested in what <strong>you</strong> see in the image and how <strong>you</strong> feel about it.</p><p>Press any key to start the experiment.</p></div>","32","instructions","html-keyboard-response","5","208597","0.0-5.0","2596906","co38770","norming","","","","","","",""
"null","<div style=""font-size:60px;""> </div>","null","fixation","html-keyboard-response","6","208806","0.0-6.0-0.0","2596906","co38770","norming","","","","","","",""
"null","../img/tt/1188tt.jpg","null","mooney1","image-keyboard-response","7","211811","0.0-6.0-1.0","2596906","co38770","norming","","","","","","",""
"14436.429999999731","","","post_mooney1_questions","survey-likert","8","226252","0.0-6.0-2.0","2596906","co38770","norming","","","{""curiosity"":5,""confidence"":1}","[0,1]","../img/tt/1188tt.jpg","",""
"5541.710000000428","","","recognition","survey-text","9","231796","0.0-6.0-3.0","2596906","co38770","norming","","","{""guess"":""man""}","","../img/tt/1188tt.jpg","",""
"null","../img/gs/1188gs.jpg","null","reveal","image-keyboard-response","10","233800","0.0-6.0-4.0","2596906","co38770","norming","","","","","","",""
"null","../img/tt/1188tt.jpg","null","mooney2","image-keyboard-response","11","235811","0.0-6.0-5.0","2596906","co38770","norming","","","","","","",""
"4462.499999999622","","","post_reveal_questions","survey-likert","12","240275","0.0-6.0-6.0","2596906","co38770","norming","","","{""aha"":2}","[0]","../img/tt/1188tt.jpg","",""
"null","<div style=""font-size:60px;""> </div>","null","fixation","html-keyboard-response","13","240486","0.0-6.0-0.1","2596906","co38770","norming","","","","","","",""
"null","../img/tt/438tt.jpg","null","mooney1","image-keyboard-response","14","243497","0.0-6.0-1.1","2596906","co38770","norming","","","","","","",""
"9680.110000000248","","","post_mooney1_questions","survey-likert","15","253180","0.0-6.0-2.1","2596906","co38770","norming","","","{""curiosity"":4,""confidence"":4}","[0,1]","../img/tt/438tt.jpg","",""
"2229.895000000426","","","recognition","survey-text","16","255411","0.0-6.0-3.1","2596906","co38770","norming","","","{""guess"":""bloem""}","","../img/tt/438tt.jpg","",""
"null","../img/gs/438gs.jpg","null","reveal","image-keyboard-response","17","257420","0.0-6.0-4.1","2596906","co38770","norming","","","","","","",""
"null","../img/tt/438tt.jpg","null","mooney2","image-keyboard-response","18","259422","0.0-6.0-5.1","2596906","co38770","norming","","","","","","",""
"3451.5899999996764","","","post_reveal_questions","survey-likert","19","262875","0.0-6.0-6.1","2596906","co38770","norming","","","{""aha"":5}","[0]","../img/tt/438tt.jpg","",""
"null","<div style=""font-size:60px;""> </div>","null","fixation","html-keyboard-response","20","263078","0.0-6.0-0.2","2596906","co38770","norming","","","","","","",""
"null","../img/tt/1239tt.jpg","null","mooney1","image-keyboard-response","21","266084","0.0-6.0-1.2","2596906","co38770","norming","","","","","","",""
"7836.350000000501","","","post_mooney1_questions","survey-likert","22","273925","0.0-6.0-2.2","2596906","co38770","norming","","","{""curiosity"":1,""confidence"":6}","[0,1]","../img/tt/1239tt.jpg","",""
"2670.3899999993155","","","recognition","survey-text","23","276597","0.0-6.0-3.2","2596906","co38770","norming","","","{""guess"":""hond""}","","../img/tt/1239tt.jpg","",""
"null","../img/gs/1239gs.jpg","null","reveal","image-keyboard-response","24","278601","0.0-6.0-4.2","2596906","co38770","norming","","","","","","",""
"null","../img/tt/1239tt.jpg","null","mooney2","image-keyboard-response","25","280610","0.0-6.0-5.2","2596906","co38770","norming","","","","","","",""
"7648.580000000016","","","post_reveal_questions","survey-likert","26","288261","0.0-6.0-6.2","2596906","co38770","norming","","","{""aha"":6}","[0]","../img/tt/1239tt.jpg","",""
"null","<div style=""font-size:60px;""> </div>","null","fixation","html-keyboard-response","27","288463","0.0-6.0-0.3","2596906","co38770","norming","","","","","","",""
"null","../img/tt/1235tt.jpg","null","mooney1","image-keyboard-response","28","291467","0.0-6.0-1.3","2596906","co38770","norming","","","","","","",""
"4086.945000000007","","","post_mooney1_questions","survey-likert","29","295556","0.0-6.0-2.3","2596906","co38770","norming","","","{""curiosity"":4,""confidence"":3}","[0,1]","../img/tt/1235tt.jpg","",""
"2333.9599999999627","","","recognition","survey-text","30","297892","0.0-6.0-3.3","2596906","co38770","norming","","","{""guess"":""vogel""}","","../img/tt/1235tt.jpg","",""
"null","../img/gs/1235gs.jpg","null","reveal","image-keyboard-response","31","299895","0.0-6.0-4.3","2596906","co38770","norming","","","","","","",""
"null","../img/tt/1235tt.jpg","null","mooney2","image-keyboard-response","32","301905","0.0-6.0-5.3","2596906","co38770","norming","","","","","","",""
"3306.2200000003795","","","post_reveal_questions","survey-likert","33","305212","0.0-6.0-6.3","2596906","co38770","norming","","","{""aha"":2}","[0]","../img/tt/1235tt.jpg","",""
"null","<div style=""font-size:60px;""> </div>","null","fixation","html-keyboard-response","34","305418","0.0-6.0-0.4","2596906","co38770","norming","","","","","","",""
"null","../img/tt/1024tt.jpg","null","mooney1","image-keyboard-response","35","308429","0.0-6.0-1.4","2596906","co38770","norming","","","","","","",""
"6165.47999999969","","","post_mooney1_questions","survey-likert","36","314597","0.0-6.0-2.4","2596906","co38770","norming","","","{""curiosity"":4,""confidence"":3}","[0,1]","../img/tt/1024tt.jpg","",""
"3774.2299999999814","","","recognition","survey-text","37","318373","0.0-6.0-3.4","2596906","co38770","norming","","","{""guess"":""tennisspeler""}","","../img/tt/1024tt.jpg","",""
"null","../img/gs/1024gs.jpg","null","reveal","image-keyboard-response","38","320378","0.0-6.0-4.4","2596906","co38770","norming","","","","","","",""
"null","../img/tt/1024tt.jpg","null","mooney2","image-keyboard-response","39","322392","0.0-6.0-5.4","2596906","co38770","norming","","","","","","",""
"3043.5250000000815","","","post_reveal_questions","survey-likert","40","325437","0.0-6.0-6.4","2596906","co38770","norming","","","{""aha"":1}","[0]","../img/tt/1024tt.jpg","",""
"null","<div style=""font-size:60px;""> </div>","null","fixation","html-keyboard-response","41","325646","0.0-6.0-0.5","2596906","co38770","norming","","","","","","",""
"null","../img/tt/418tt.jpg","null","mooney1","image-keyboard-response","42","328649","0.0-6.0-1.5","2596906","co38770","norming","","","","","","",""
"7112.75499999919","","","post_mooney1_questions","survey-likert","43","335762","0.0-6.0-2.5","2596906","co38770","norming","","","{""curiosity"":5,""confidence"":2}","[0,1]","../img/tt/418tt.jpg","",""
"2045.9700000001467","","","recognition","survey-text","44","337809","0.0-6.0-3.5","2596906","co38770","norming","","","{""guess"":""beer""}","","../img/tt/418tt.jpg","",""
"null","../img/gs/418gs.jpg","null","reveal","image-keyboard-response","45","339816","0.0-6.0-4.5","2596906","co38770","norming","","","","","","",""
"null","../img/tt/418tt.jpg","null","mooney2","image-keyboard-response","46","341819","0.0-6.0-5.5","2596906","co38770","norming","","","","","","",""
"2492.385000000475","","","post_reveal_questions","survey-likert","47","344314","0.0-6.0-6.5","2596906","co38770","norming","","","{""aha"":2}","[0]","../img/tt/418tt.jpg","",""
"null","<div style=""font-size:60px;""> </div>","null","fixation","html-keyboard-response","48","344516","0.0-6.0-0.6","2596906","co38770","norming","","","","","","",""
"null","../img/tt/1173tt.jpg","null","mooney1","image-keyboard-response","49","347523","0.0-6.0-1.6","2596906","co38770","norming","","","","","","",""
"4636.234999999928","","","post_mooney1_questions","survey-likert","50","352162","0.0-6.0-2.6","2596906","co38770","norming","","","{""curiosity"":4,""confidence"":4}","[0,1]","../img/tt/1173tt.jpg","",""
"8766.09999999986","","","recognition","survey-text","51","360930","0.0-6.0-3.6","2596906","co38770","norming","","","{""guess"":""rugbyspelers""}","","../img/tt/1173tt.jpg","",""
"null","../img/gs/1173gs.jpg","null","reveal","image-keyboard-response","52","362940","0.0-6.0-4.6","2596906","co38770","norming","","","","","","",""
"null","../img/tt/1173tt.jpg","null","mooney2","image-keyboard-response","53","364950","0.0-6.0-5.6","2596906","co38770","norming","","","","","","",""
"3577.540000000212","","","post_reveal_questions","survey-likert","54","368530","0.0-6.0-6.6","2596906","co38770","norming","","","{""aha"":1}","[0]","../img/tt/1173tt.jpg","",""
"null","<div style=""font-size:60px;""> </div>","null","fixation","html-keyboard-response","55","368732","0.0-6.0-0.7","2596906","co38770","norming","","","","","","",""
"null","../img/tt/1290tt.jpg","null","mooney1","image-keyboard-response","56","371743","0.0-6.0-1.7","2596906","co38770","norming","","","","","","",""
"4032.570000000298","","","post_mooney1_questions","survey-likert","57","375778","0.0-6.0-2.7","2596906","co38770","norming","","","{""curiosity"":5,""confidence"":0}","[0,1]","../img/tt/1290tt.jpg","",""
"1533.7999999992317","","","recognition","survey-text","58","377313","0.0-6.0-3.7","2596906","co38770","norming","","","{""guess"":""""}","","../img/tt/1290tt.jpg","",""
"null","../img/gs/1290gs.jpg","null","reveal","image-keyboard-response","59","379316","0.0-6.0-4.7","2596906","co38770","norming","","","","","","",""
"null","../img/tt/1290tt.jpg","null","mooney2","image-keyboard-response","60","381327","0.0-6.0-5.7","2596906","co38770","norming","","","","","","",""
"3968.214999999851","","","post_reveal_questions","survey-likert","61","385298","0.0-6.0-6.7","2596906","co38770","norming","","","{""aha"":4}","[0]","../img/tt/1290tt.jpg","",""
"null","<div style=""font-size:60px;""> </div>","null","fixation","html-keyboard-response","62","385501","0.0-6.0-0.8","2596906","co38770","norming","","","","","","",""
"null","../img/tt/1048tt.jpg","null","mooney1","image-keyboard-response","63","388510","0.0-6.0-1.8","2596906","co38770","norming","","","","","","",""
"5209.045000000508","","","post_mooney1_questions","survey-likert","64","393725","0.0-6.0-2.8","2596906","co38770","norming","","","{""curiosity"":4,""confidence"":3}","[0,1]","../img/tt/1048tt.jpg","",""
"1894.250000000291","","","recognition","survey-text","65","395621","0.0-6.0-3.8","2596906","co38770","norming","","","{""guess"":""paard""}","","../img/tt/1048tt.jpg","",""
"null","../img/gs/1048gs.jpg","null","reveal","image-keyboard-response","66","397631","0.0-6.0-4.8","2596906","co38770","norming","","","","","","",""
"null","../img/tt/1048tt.jpg","null","mooney2","image-keyboard-response","67","399642","0.0-6.0-5.8","2596906","co38770","norming","","","","","","",""
"3072.089999999618","","","post_reveal_questions","survey-likert","68","402716","0.0-6.0-6.8","2596906","co38770","norming","","","{""aha"":4}","[0]","../img/tt/1048tt.jpg","",""
"null","<div style=""font-size:60px;""> </div>","null","fixation","html-keyboard-response","69","402922","0.0-6.0-0.9","2596906","co38770","norming","","","","","","",""
"null","../img/tt/318tt.jpg","null","mooney1","image-keyboard-response","70","405933","0.0-6.0-1.9","2596906","co38770","norming","","","","","","",""
"6078.924999999814","","","post_mooney1_questions","survey-likert","71","412013","0.0-6.0-2.9","2596906","co38770","norming","","","{""curiosity"":5,""confidence"":1}","[0,1]","../img/tt/318tt.jpg","",""
"9078.070000000473","","","recognition","survey-text","72","421093","0.0-6.0-3.9","2596906","co38770","norming","","","{""guess"":""vrouw""}","","../img/tt/318tt.jpg","",""
"null","../img/gs/318gs.jpg","null","reveal","image-keyboard-response","73","423101","0.0-6.0-4.9","2596906","co38770","norming","","","","","","",""
"null","../img/tt/318tt.jpg","null","mooney2","image-keyboard-response","74","425102","0.0-6.0-5.9","2596906","co38770","norming","","","","","","",""
"2780.0750000005937","","","post_reveal_questions","survey-likert","75","427884","0.0-6.0-6.9","2596906","co38770","norming","","","{""aha"":4}","[0]","../img/tt/318tt.jpg","",""
"null","<div style=""font-size:60px;""> </div>","null","fixation","html-keyboard-response","76","428088","0.0-6.0-0.10","2596906","co38770","norming","","","","","","",""
"null","../img/tt/1055tt.jpg","null","mooney1","image-keyboard-response","77","431091","0.0-6.0-1.10","2596906","co38770","norming","","","","","","",""
"3767.134999999136","","","post_mooney1_questions","survey-likert","78","434861","0.0-6.0-2.10","2596906","co38770","norming","","","{""curiosity"":1,""confidence"":5}","[0,1]","../img/tt/1055tt.jpg","",""
"2213.980000000447","","","recognition","survey-text","79","437076","0.0-6.0-3.10","2596906","co38770","norming","","","{""guess"":""rivier""}","","../img/tt/1055tt.jpg","",""
"null","../img/gs/1055gs.jpg","null","reveal","image-keyboard-response","80","439084","0.0-6.0-4.10","2596906","co38770","norming","","","","","","",""
"null","../img/tt/1055tt.jpg","null","mooney2","image-keyboard-response","81","441094","0.0-6.0-5.10","2596906","co38770","norming","","","","","","",""
"3652.2500000001164","","","post_reveal_questions","survey-likert","82","444748","0.0-6.0-6.10","2596906","co38770","norming","","","{""aha"":5}","[0]","../img/tt/1055tt.jpg","",""
"null","<div style=""font-size:60px;""> </div>","null","fixation","html-keyboard-response","83","444952","0.0-6.0-0.11","2596906","co38770","norming","","","","","","",""
"null","../img/tt/353tt.jpg","null","mooney1","image-keyboard-response","84","447956","0.0-6.0-1.11","2596906","co38770","norming","","","","","","",""
"5712.054999999993","","","post_mooney1_questions","survey-likert","85","453669","0.0-6.0-2.11","2596906","co38770","norming","","","{""curiosity"":4,""confidence"":0}","[0,1]","../img/tt/353tt.jpg","",""
"1365.9900000002235","","","recognition","survey-text","86","455036","0.0-6.0-3.11","2596906","co38770","norming","","","{""guess"":""""}","","../img/tt/353tt.jpg","",""
"null","../img/gs/353gs.jpg","null","reveal","image-keyboard-response","87","457047","0.0-6.0-4.11","2596906","co38770","norming","","","","","","",""
"null","../img/tt/353tt.jpg","null","mooney2","image-keyboard-response","88","459057","0.0-6.0-5.11","2596906","co38770","norming","","","","","","",""
"2784.789999999688","","","post_reveal_questions","survey-likert","89","461844","0.0-6.0-6.11","2596906","co38770","norming","","","{""aha"":5}","[0]","../img/tt/353tt.jpg","",""
"null","<div style=""font-size:60px;""> </div>","null","fixation","html-keyboard-response","90","462045","0.0-6.0-0.12","2596906","co38770","norming","","","","","","",""
"null","../img/tt/319tt.jpg","null","mooney1","image-keyboard-response","91","465056","0.0-6.0-1.12","2596906","co38770","norming","","","","","","",""
"4306.274999999907","","","post_mooney1_questions","survey-likert","92","469364","0.0-6.0-2.12","2596906","co38770","norming","","","{""curiosity"":4,""confidence"":2}","[0,1]","../img/tt/319tt.jpg","",""
"2350.1900000000605","","","recognition","survey-text","93","471716","0.0-6.0-3.12","2596906","co38770","norming","","","{""guess"":""vogels""}","","../img/tt/319tt.jpg","",""
"null","../img/gs/319gs.jpg","null","reveal","image-keyboard-response","94","473726","0.0-6.0-4.12","2596906","co38770","norming","","","","","","",""
"null","../img/tt/319tt.jpg","null","mooney2","image-keyboard-response","95","475737","0.0-6.0-5.12","2596906","co38770","norming","","","","","","",""
"3184.6900000000023","","","post_reveal_questions","survey-likert","96","478924","0.0-6.0-6.12","2596906","co38770","norming","","","{""aha"":2}","[0]","../img/tt/319tt.jpg","",""
"null","<div style=""font-size:60px;""> </div>","null","fixation","html-keyboard-response","97","479133","0.0-6.0-0.13","2596906","co38770","norming","","","","","","",""
"null","../img/tt/1181tt.jpg","null","mooney1","image-keyboard-response","98","482141","0.0-6.0-1.13","2596906","co38770","norming","","","","","","",""
"3828.615000000398","","","post_mooney1_questions","survey-likert","99","485972","0.0-6.0-2.13","2596906","co38770","norming","","","{""curiosity"":4,""confidence"":2}","[0,1]","../img/tt/1181tt.jpg","",""
"4430.339999999909","","","recognition","survey-text","100","490404","0.0-6.0-3.13","2596906","co38770","norming","","","{""guess"":""voetballers""}","","../img/tt/1181tt.jpg","",""
"null","../img/gs/1181gs.jpg","null","reveal","image-keyboard-response","101","492410","0.0-6.0-4.13","2596906","co38770","norming","","","","","","",""
"null","../img/tt/1181tt.jpg","null","mooney2","image-keyboard-response","102","494421","0.0-6.0-5.13","2596906","co38770","norming","","","","","","",""
"4493.290000000328","","","post_reveal_questions","survey-likert","103","498916","0.0-6.0-6.13","2596906","co38770","norming","","","{""aha"":3}","[0]","../img/tt/1181tt.jpg","",""
"null","<div style=""font-size:60px;""> </div>","null","fixation","html-keyboard-response","104","499119","0.0-6.0-0.14","2596906","co38770","norming","","","","","","",""
"null","../img/tt/1270tt.jpg","null","mooney1","image-keyboard-response","105","502128","0.0-6.0-1.14","2596906","co38770","norming","","","","","","",""
"4642.000000000757","","","post_mooney1_questions","survey-likert","106","506772","0.0-6.0-2.14","2596906","co38770","norming","","","{""curiosity"":3,""confidence"":2}","[0,1]","../img/tt/1270tt.jpg","",""
"3038.1199999992386","","","recognition","survey-text","107","509812","0.0-6.0-3.14","2596906","co38770","norming","","","{""guess"":""autostoel""}","","../img/tt/1270tt.jpg","",""
"null","../img/gs/1270gs.jpg","null","reveal","image-keyboard-response","108","511818","0.0-6.0-4.14","2596906","co38770","norming","","","","","","",""
"null","../img/tt/1270tt.jpg","null","mooney2","image-keyboard-response","109","513830","0.0-6.0-5.14","2596906","co38770","norming","","","","","","",""
"15013.320000000007","","","post_reveal_questions","survey-likert","110","528845","0.0-6.0-6.14","2596906","co38770","norming","","","{""aha"":3}","[0]","../img/tt/1270tt.jpg","",""
"null","<div style=""font-size:60px;""> </div>","null","fixation","html-keyboard-response","111","529049","0.0-6.0-0.15","2596906","co38770","norming","","","","","","",""
"null","../img/tt/010tt.jpg","null","mooney1","image-keyboard-response","112","532057","0.0-6.0-1.15","2596906","co38770","norming","","","","","","",""
"5737.949999999721","","","post_mooney1_questions","survey-likert","113","537798","0.0-6.0-2.15","2596906","co38770","norming","","","{""curiosity"":4,""confidence"":3}","[0,1]","../img/tt/010tt.jpg","",""
"2189.9600000006612","","","recognition","survey-text","114","539989","0.0-6.0-3.15","2596906","co38770","norming","","","{""guess"":""konijn""}","","../img/tt/010tt.jpg","",""
"null","../img/gs/010gs.jpg","null","reveal","image-keyboard-response","115","541999","0.0-6.0-4.15","2596906","co38770","norming","","","","","","",""
"null","../img/tt/010tt.jpg","null","mooney2","image-keyboard-response","116","544000","0.0-6.0-5.15","2596906","co38770","norming","","","","","","",""
"2820.04499999946","","","post_reveal_questions","survey-likert","117","546821","0.0-6.0-6.15","2596906","co38770","norming","","","{""aha"":5}","[0]","../img/tt/010tt.jpg","",""
"null","<div style=""font-size:60px;""> </div>","null","fixation","html-keyboard-response","118","547023","0.0-6.0-0.16","2596906","co38770","norming","","","","","","",""
"null","../img/tt/279tt.jpg","null","mooney1","image-keyboard-response","119","550028","0.0-6.0-1.16","2596906","co38770","norming","","","","","","",""
"5454.564999999944","","","post_mooney1_questions","survey-likert","120","555485","0.0-6.0-2.16","2596906","co38770","norming","","","{""curiosity"":1,""confidence"":4}","[0,1]","../img/tt/279tt.jpg","",""
"1814.2250000000931","","","recognition","survey-text","121","557301","0.0-6.0-3.16","2596906","co38770","norming","","","{""guess"":""panda""}","","../img/tt/279tt.jpg","",""
"null","../img/gs/279gs.jpg","null","reveal","image-keyboard-response","122","559310","0.0-6.0-4.16","2596906","co38770","norming","","","","","","",""
"null","../img/tt/279tt.jpg","null","mooney2","image-keyboard-response","123","561321","0.0-6.0-5.16","2596906","co38770","norming","","","","","","",""
"4778.180000000284","","","post_reveal_questions","survey-likert","124","566102","0.0-6.0-6.16","2596906","co38770","norming","","","{""aha"":4}","[0]","../img/tt/279tt.jpg","",""
"null","<div style=""font-size:60px;""> </div>","null","fixation","html-keyboard-response","125","566303","0.0-6.0-0.17","2596906","co38770","norming","","","","","","",""
"null","../img/tt/1279tt.jpg","null","mooney1","image-keyboard-response","126","569307","0.0-6.0-1.17","2596906","co38770","norming","","","","","","",""
"9399.899999999441","","","post_mooney1_questions","survey-likert","127","578705","0.0-6.0-2.17","2596906","co38770","norming","","","{""curiosity"":1,""confidence"":0}","[0,1]","../img/tt/1279tt.jpg","",""
"1134.1450000000186","","","recognition","survey-text","128","579840","0.0-6.0-3.17","2596906","co38770","norming","","","{""guess"":""""}","","../img/tt/1279tt.jpg","",""
"null","../img/gs/1279gs.jpg","null","reveal","image-keyboard-response","129","581851","0.0-6.0-4.17","2596906","co38770","norming","","","","","","",""
"null","../img/tt/1279tt.jpg","null","mooney2","image-keyboard-response","130","583856","0.0-6.0-5.17","2596906","co38770","norming","","","","","","",""
"2789.9950000001118","","","post_reveal_questions","survey-likert","131","586648","0.0-6.0-6.17","2596906","co38770","norming","","","{""aha"":5}","[0]","../img/tt/1279tt.jpg","",""
"null","<div style=""font-size:60px;""> </div>","null","fixation","html-keyboard-response","132","586850","0.0-6.0-0.18","2596906","co38770","norming","","","","","","",""
"null","../img/tt/315tt.jpg","null","mooney1","image-keyboard-response","133","589858","0.0-6.0-1.18","2596906","co38770","norming","","","","","","",""
"6027.839999999735","","","post_mooney1_questions","survey-likert","134","595888","0.0-6.0-2.18","2596906","co38770","norming","","","{""curiosity"":2,""confidence"":1}","[0,1]","../img/tt/315tt.jpg","",""
"3406.210000000079","","","recognition","survey-text","135","599296","0.0-6.0-3.18","2596906","co38770","norming","","","{""guess"":""vogel""}","","../img/tt/315tt.jpg","",""
"null","../img/gs/315gs.jpg","null","reveal","image-keyboard-response","136","601303","0.0-6.0-4.18","2596906","co38770","norming","","","","","","",""
"null","../img/tt/315tt.jpg","null","mooney2","image-keyboard-response","137","603304","0.0-6.0-5.18","2596906","co38770","norming","","","","","","",""
"3613.7799999996787","","","post_reveal_questions","survey-likert","138","606920","0.0-6.0-6.18","2596906","co38770","norming","","","{""aha"":2}","[0]","../img/tt/315tt.jpg","",""
"null","<div style=""font-size:60px;""> </div>","null","fixation","html-keyboard-response","139","607127","0.0-6.0-0.19","2596906","co38770","norming","","","","","","",""
"null","../img/tt/517tt.jpg","null","mooney1","image-keyboard-response","140","610130","0.0-6.0-1.19","2596906","co38770","norming","","","","","","",""
"3988.3900000004796","","","post_mooney1_questions","survey-likert","141","614121","0.0-6.0-2.19","2596906","co38770","norming","","","{""curiosity"":4,""confidence"":4}","[0,1]","../img/tt/517tt.jpg","",""
"1670.0499999998137","","","recognition","survey-text","142","615792","0.0-6.0-3.19","2596906","co38770","norming","","","{""guess"":""panda""}","","../img/tt/517tt.jpg","",""
"null","../img/gs/517gs.jpg","null","reveal","image-keyboard-response","143","617793","0.0-6.0-4.19","2596906","co38770","norming","","","","","","",""
"null","../img/tt/517tt.jpg","null","mooney2","image-keyboard-response","144","619795","0.0-6.0-5.19","2596906","co38770","norming","","","","","","",""
"2339.450000000419","","","post_reveal_questions","survey-likert","145","622136","0.0-6.0-6.19","2596906","co38770","norming","","","{""aha"":4}","[0]","../img/tt/517tt.jpg","",""
"null","<div style=""font-size:60px;""> </div>","null","fixation","html-keyboard-response","146","622341","0.0-6.0-0.20","2596906","co38770","norming","","","","","","",""
"null","../img/tt/1202tt.jpg","null","mooney1","image-keyboard-response","147","625353","0.0-6.0-1.20","2596906","co38770","norming","","","","","","",""
"5028.864999999292","","","post_mooney1_questions","survey-likert","148","630384","0.0-6.0-2.20","2596906","co38770","norming","","","{""curiosity"":4,""confidence"":2}","[0,1]","../img/tt/1202tt.jpg","",""
"2830.1949999995995","","","recognition","survey-text","149","633216","0.0-6.0-3.20","2596906","co38770","norming","","","{""guess"":""kerkho""}","","../img/tt/1202tt.jpg","",""
"null","../img/gs/1202gs.jpg","null","reveal","image-keyboard-response","150","635232","0.0-6.0-4.20","2596906","co38770","norming","","","","","","",""
"null","../img/tt/1202tt.jpg","null","mooney2","image-keyboard-response","151","637233","0.0-6.0-5.20","2596906","co38770","norming","","","","","","",""
"3157.194999999716","","","post_reveal_questions","survey-likert","152","640393","0.0-6.0-6.20","2596906","co38770","norming","","","{""aha"":3}","[0]","../img/tt/1202tt.jpg","",""
"null","<div style=""font-size:60px;""> </div>","null","fixation","html-keyboard-response","153","640600","0.0-6.0-0.21","2596906","co38770","norming","","","","","","",""
"null","../img/tt/412tt.jpg","null","mooney1","image-keyboard-response","154","643602","0.0-6.0-1.21","2596906","co38770","norming","","","","","","",""
"3516.454999999958","","","post_mooney1_questions","survey-likert","155","647121","0.0-6.0-2.21","2596906","co38770","norming","","","{""curiosity"":2,""confidence"":4}","[0,1]","../img/tt/412tt.jpg","",""
"2566.2099999999627","","","recognition","survey-text","156","649689","0.0-6.0-3.21","2596906","co38770","norming","","","{""guess"":""autostoel""}","","../img/tt/412tt.jpg","",""
"null","../img/gs/412gs.jpg","null","reveal","image-keyboard-response","157","651697","0.0-6.0-4.21","2596906","co38770","norming","","","","","","",""
"null","../img/tt/412tt.jpg","null","mooney2","image-keyboard-response","158","653702","0.0-6.0-5.21","2596906","co38770","norming","","","","","","",""
"2776.5650000000605","","","post_reveal_questions","survey-likert","159","656481","0.0-6.0-6.21","2596906","co38770","norming","","","{""aha"":3}","[0]","../img/tt/412tt.jpg","",""
"null","<div style=""font-size:60px;""> </div>","null","fixation","html-keyboard-response","160","656687","0.0-6.0-0.22","2596906","co38770","norming","","","","","","",""
"null","../img/tt/126tt.jpg","null","mooney1","image-keyboard-response","161","659689","0.0-6.0-1.22","2596906","co38770","norming","","","","","","",""
"5733.000000000116","","","post_mooney1_questions","survey-likert","162","665425","0.0-6.0-2.22","2596906","co38770","norming","","","{""curiosity"":4,""confidence"":4}","[0,1]","../img/tt/126tt.jpg","",""
"2054.0950000004377","","","recognition","survey-text","163","667481","0.0-6.0-3.22","2596906","co38770","norming","","","{""guess"":""otter""}","","../img/tt/126tt.jpg","",""
"null","../img/gs/126gs.jpg","null","reveal","image-keyboard-response","164","669489","0.0-6.0-4.22","2596906","co38770","norming","","","","","","",""
"null","../img/tt/126tt.jpg","null","mooney2","image-keyboard-response","165","671497","0.0-6.0-5.22","2596906","co38770","norming","","","","","","",""
"3878.789999999688","","","post_reveal_questions","survey-likert","166","675377","0.0-6.0-6.22","2596906","co38770","norming","","","{""aha"":5}","[0]","../img/tt/126tt.jpg","",""
"null","<div style=""font-size:60px;""> </div>","null","fixation","html-keyboard-response","167","675580","0.0-6.0-0.23","2596906","co38770","norming","","","","","","",""
"null","../img/tt/094tt.jpg","null","mooney1","image-keyboard-response","168","678589","0.0-6.0-1.23","2596906","co38770","norming","","","","","","",""
"5874.300000000396","","","post_mooney1_questions","survey-likert","169","684465","0.0-6.0-2.23","2596906","co38770","norming","","","{""curiosity"":5,""confidence"":3}","[0,1]","../img/tt/094tt.jpg","",""
"4582.0349999994505","","","recognition","survey-text","170","689049","0.0-6.0-3.23","2596906","co38770","norming","","","{""guess"":""puma""}","","../img/tt/094tt.jpg","",""
"null","../img/gs/094gs.jpg","null","reveal","image-keyboard-response","171","691059","0.0-6.0-4.23","2596906","co38770","norming","","","","","","",""
"null","../img/tt/094tt.jpg","null","mooney2","image-keyboard-response","172","693062","0.0-6.0-5.23","2596906","co38770","norming","","","","","","",""
"2344.7749999995576","","","post_reveal_questions","survey-likert","173","695410","0.0-6.0-6.23","2596906","co38770","norming","","","{""aha"":4}","[0]","../img/tt/094tt.jpg","",""
"null","<div style=""font-size:60px;""> </div>","null","fixation","html-keyboard-response","174","695612","0.0-6.0-0.24","2596906","co38770","norming","","","","","","",""
"null","../img/tt/036tt.jpg","null","mooney1","image-keyboard-response","175","698616","0.0-6.0-1.24","2596906","co38770","norming","","","","","","",""
"5776.925000000163","","","post_mooney1_questions","survey-likert","176","704394","0.0-6.0-2.24","2596906","co38770","norming","","","{""curiosity"":4,""confidence"":0}","[0,1]","../img/tt/036tt.jpg","",""
"1030.280000000028","","","recognition","survey-text","177","705426","0.0-6.0-3.24","2596906","co38770","norming","","","{""guess"":""""}","","../img/tt/036tt.jpg","",""
"null","../img/gs/036gs.jpg","null","reveal","image-keyboard-response","178","707434","0.0-6.0-4.24","2596906","co38770","norming","","","","","","",""
"null","../img/tt/036tt.jpg","null","mooney2","image-keyboard-response","179","709446","0.0-6.0-5.24","2596906","co38770","norming","","","","","","",""
"2240.270000000135","","","post_reveal_questions","survey-likert","180","711690","0.0-6.0-6.24","2596906","co38770","norming","","","{""aha"":4}","[0]","../img/tt/036tt.jpg","",""
"null","<div style=""font-size:60px;""> </div>","null","fixation","html-keyboard-response","181","711894","0.0-6.0-0.25","2596906","co38770","norming","","","","","","",""
"null","../img/tt/1127tt.jpg","null","mooney1","image-keyboard-response","182","714904","0.0-6.0-1.25","2596906","co38770","norming","","","","","","",""
"5847.365000000573","","","post_mooney1_questions","survey-likert","183","720754","0.0-6.0-2.25","2596906","co38770","norming","","","{""curiosity"":2,""confidence"":4}","[0,1]","../img/tt/1127tt.jpg","",""
"2774.1650000007357","","","recognition","survey-text","184","723530","0.0-6.0-3.25","2596906","co38770","norming","","","{""guess"":""karate""}","","../img/tt/1127tt.jpg","",""
"null","../img/gs/1127gs.jpg","null","reveal","image-keyboard-response","185","725541","0.0-6.0-4.25","2596906","co38770","norming","","","","","","",""
"null","../img/tt/1127tt.jpg","null","mooney2","image-keyboard-response","186","727542","0.0-6.0-5.25","2596906","co38770","norming","","","","","","",""
"2939.100000000559","","","post_reveal_questions","survey-likert","187","730482","0.0-6.0-6.25","2596906","co38770","norming","","","{""aha"":4}","[0]","../img/tt/1127tt.jpg","",""
"null","<div style=""font-size:60px;""> </div>","null","fixation","html-keyboard-response","188","730691","0.0-6.0-0.26","2596906","co38770","norming","","","","","","",""
"null","../img/tt/1101tt.jpg","null","mooney1","image-keyboard-response","189","733698","0.0-6.0-1.26","2596906","co38770","norming","","","","","","",""
"4181.980000000214","","","post_mooney1_questions","survey-likert","190","737882","0.0-6.0-2.26","2596906","co38770","norming","","","{""curiosity"":2,""confidence"":4}","[0,1]","../img/tt/1101tt.jpg","",""
"6798.530000000028","","","recognition","survey-text","191","744682","0.0-6.0-3.26","2596906","co38770","norming","","","{""guess"":""kogelstoten""}","","../img/tt/1101tt.jpg","",""
"null","../img/gs/1101gs.jpg","null","reveal","image-keyboard-response","192","746684","0.0-6.0-4.26","2596906","co38770","norming","","","","","","",""
"null","../img/tt/1101tt.jpg","null","mooney2","image-keyboard-response","193","748695","0.0-6.0-5.26","2596906","co38770","norming","","","","","","",""
"2090.264999999781","","","post_reveal_questions","survey-likert","194","750786","0.0-6.0-6.26","2596906","co38770","norming","","","{""aha"":2}","[0]","../img/tt/1101tt.jpg","",""
"null","<div style=""font-size:60px;""> </div>","null","fixation","html-keyboard-response","195","750990","0.0-6.0-0.27","2596906","co38770","norming","","","","","","",""
"null","../img/tt/1078tt.jpg","null","mooney1","image-keyboard-response","196","753994","0.0-6.0-1.27","2596906","co38770","norming","","","","","","",""
"3358.725000000093","","","post_mooney1_questions","survey-likert","197","757352","0.0-6.0-2.27","2596906","co38770","norming","","","{""curiosity"":3,""confidence"":4}","[0,1]","../img/tt/1078tt.jpg","",""
"1822.219999999972","","","recognition","survey-text","198","759175","0.0-6.0-3.27","2596906","co38770","norming","","","{""guess"":""bus""}","","../img/tt/1078tt.jpg","",""
"null","../img/gs/1078gs.jpg","null","reveal","image-keyboard-response","199","761183","0.0-6.0-4.27","2596906","co38770","norming","","","","","","",""
"null","../img/tt/1078tt.jpg","null","mooney2","image-keyboard-response","200","763185","0.0-6.0-5.27","2596906","co38770","norming","","","","","","",""
"3172.4449999992503","","","post_reveal_questions","survey-likert","201","766360","0.0-6.0-6.27","2596906","co38770","norming","","","{""aha"":4}","[0]","../img/tt/1078tt.jpg","",""
"null","<div style=""font-size:60px;""> </div>","null","fixation","html-keyboard-response","202","766561","0.0-6.0-0.28","2596906","co38770","norming","","","","","","",""
"null","../img/tt/515tt.jpg","null","mooney1","image-keyboard-response","203","769567","0.0-6.0-1.28","2596906","co38770","norming","","","","","","",""
"6294.289999999804","","","post_mooney1_questions","survey-likert","204","775864","0.0-6.0-2.28","2596906","co38770","norming","","","{""curiosity"":2,""confidence"":0}","[0,1]","../img/tt/515tt.jpg","",""
"838.0649999998277","","","recognition","survey-text","205","776703","0.0-6.0-3.28","2596906","co38770","norming","","","{""guess"":""""}","","../img/tt/515tt.jpg","",""
"null","../img/gs/515gs.jpg","null","reveal","image-keyboard-response","206","778709","0.0-6.0-4.28","2596906","co38770","norming","","","","","","",""
"null","../img/tt/515tt.jpg","null","mooney2","image-keyboard-response","207","780711","0.0-6.0-5.28","2596906","co38770","norming","","","","","","",""
"2990.020000000135","","","post_reveal_questions","survey-likert","208","783703","0.0-6.0-6.28","2596906","co38770","norming","","","{""aha"":4}","[0]","../img/tt/515tt.jpg","",""
"null","<div style=""font-size:60px;""> </div>","null","fixation","html-keyboard-response","209","783911","0.0-6.0-0.29","2596906","co38770","norming","","","","","","",""
"null","../img/tt/1118tt.jpg","null","mooney1","image-keyboard-response","210","786913","0.0-6.0-1.29","2596906","co38770","norming","","","","","","",""
"3323.3700000001118","","","post_mooney1_questions","survey-likert","211","790240","0.0-6.0-2.29","2596906","co38770","norming","","","{""curiosity"":4,""confidence"":4}","[0,1]","../img/tt/1118tt.jpg","",""
"2582.2500000004657","","","recognition","survey-text","212","792823","0.0-6.0-3.29","2596906","co38770","norming","","","{""guess"":""raceauto""}","","../img/tt/1118tt.jpg","",""
"null","../img/gs/1118gs.jpg","null","reveal","image-keyboard-response","213","794834","0.0-6.0-4.29","2596906","co38770","norming","","","","","","",""
"null","../img/tt/1118tt.jpg","null","mooney2","image-keyboard-response","214","796843","0.0-6.0-5.29","2596906","co38770","norming","","","","","","",""
"2298.045000000391","","","post_reveal_questions","survey-likert","215","799143","0.0-6.0-6.29","2596906","co38770","norming","","","{""aha"":4}","[0]","../img/tt/1118tt.jpg","",""
"null","<div style=""font-size:60px;""> </div>","null","fixation","html-keyboard-response","216","799346","0.0-6.0-0.30","2596906","co38770","norming","","","","","","",""
"null","../img/tt/140tt.jpg","null","mooney1","image-keyboard-response","217","802355","0.0-6.0-1.30","2596906","co38770","norming","","","","","","",""
"4841.069999999483","","","post_mooney1_questions","survey-likert","218","807200","0.0-6.0-2.30","2596906","co38770","norming","","","{""curiosity"":0,""confidence"":6}","[0,1]","../img/tt/140tt.jpg","",""
"1974.119999999879","","","recognition","survey-text","219","809175","0.0-6.0-3.30","2596906","co38770","norming","","","{""guess"":""vorken""}","","../img/tt/140tt.jpg","",""
"null","../img/gs/140gs.jpg","null","reveal","image-keyboard-response","220","811177","0.0-6.0-4.30","2596906","co38770","norming","","","","","","",""
"null","../img/tt/140tt.jpg","null","mooney2","image-keyboard-response","221","813182","0.0-6.0-5.30","2596906","co38770","norming","","","","","","",""
"3239.5599999999395","","","post_reveal_questions","survey-likert","222","816422","0.0-6.0-6.30","2596906","co38770","norming","","","{""aha"":0}","[0]","../img/tt/140tt.jpg","",""
"null","<div style=""font-size:60px;""> </div>","null","fixation","html-keyboard-response","223","816628","0.0-6.0-0.31","2596906","co38770","norming","","","","","","",""
"null","../img/tt/468tt.jpg","null","mooney1","image-keyboard-response","224","819631","0.0-6.0-1.31","2596906","co38770","norming","","","","","","",""
"3628.464999999851","","","post_mooney1_questions","survey-likert","225","823262","0.0-6.0-2.31","2596906","co38770","norming","","","{""curiosity"":0,""confidence"":6}","[0,1]","../img/tt/468tt.jpg","",""
"2757.999999999767","","","recognition","survey-text","226","826022","0.0-6.0-3.31","2596906","co38770","norming","","","{""guess"":""viool""}","","../img/tt/468tt.jpg","",""
"null","../img/gs/468gs.jpg","null","reveal","image-keyboard-response","227","828023","0.0-6.0-4.31","2596906","co38770","norming","","","","","","",""
"null","../img/tt/468tt.jpg","null","mooney2","image-keyboard-response","228","830027","0.0-6.0-5.31","2596906","co38770","norming","","","","","","",""
"2609.3799999998882","","","post_reveal_questions","survey-likert","229","832638","0.0-6.0-6.31","2596906","co38770","norming","","","{""aha"":0}","[0]","../img/tt/468tt.jpg","",""
"null","<div style=""font-size:60px;""> </div>","null","fixation","html-keyboard-response","230","832843","0.0-6.0-0.32","2596906","co38770","norming","","","","","","",""
"null","../img/tt/598tt.jpg","null","mooney1","image-keyboard-response","231","835848","0.0-6.0-1.32","2596906","co38770","norming","","","","","","",""
"4930.995000000694","","","post_mooney1_questions","survey-likert","232","840782","0.0-6.0-2.32","2596906","co38770","norming","","","{""curiosity"":4,""confidence"":1}","[0,1]","../img/tt/598tt.jpg","",""
"2070.125000000233","","","recognition","survey-text","233","842854","0.0-6.0-3.32","2596906","co38770","norming","","","{""guess"":""vrouw""}","","../img/tt/598tt.jpg","",""
"null","../img/gs/598gs.jpg","null","reveal","image-keyboard-response","234","844860","0.0-6.0-4.32","2596906","co38770","norming","","","","","","",""
"null","../img/tt/598tt.jpg","null","mooney2","image-keyboard-response","235","846863","0.0-6.0-5.32","2596906","co38770","norming","","","","","","",""
"2454.600000000093","","","post_reveal_questions","survey-likert","236","849318","0.0-6.0-6.32","2596906","co38770","norming","","","{""aha"":4}","[0]","../img/tt/598tt.jpg","",""
"null","<div style=""font-size:60px;""> </div>","null","fixation","html-keyboard-response","237","849525","0.0-6.0-0.33","2596906","co38770","norming","","","","","","",""
"null","../img/tt/1250tt.jpg","null","mooney1","image-keyboard-response","238","852527","0.0-6.0-1.33","2596906","co38770","norming","","","","","","",""
"6588.080000000424","","","post_mooney1_questions","survey-likert","239","859118","0.0-6.0-2.33","2596906","co38770","norming","","","{""curiosity"":5,""confidence"":5}","[0,1]","../img/tt/1250tt.jpg","",""
"4470.1900000000605","","","recognition","survey-text","240","863590","0.0-6.0-3.33","2596906","co38770","norming","","","{""guess"":""zeehonden""}","","../img/tt/1250tt.jpg","",""
"null","../img/gs/1250gs.jpg","null","reveal","image-keyboard-response","241","865599","0.0-6.0-4.33","2596906","co38770","norming","","","","","","",""
"null","../img/tt/1250tt.jpg","null","mooney2","image-keyboard-response","242","867602","0.0-6.0-5.33","2596906","co38770","norming","","","","","","",""
"4329.259999999544","","","post_reveal_questions","survey-likert","243","871934","0.0-6.0-6.33","2596906","co38770","norming","","","{""aha"":4}","[0]","../img/tt/1250tt.jpg","",""
"null","<div style=""font-size:60px;""> </div>","null","fixation","html-keyboard-response","244","872138","0.0-6.0-0.34","2596906","co38770","norming","","","","","","",""
"null","../img/tt/507tt.jpg","null","mooney1","image-keyboard-response","245","875144","0.0-6.0-1.34","2596906","co38770","norming","","","","","","",""
"5147.315000000177","","","post_mooney1_questions","survey-likert","246","880293","0.0-6.0-2.34","2596906","co38770","norming","","","{""curiosity"":5,""confidence"":2}","[0,1]","../img/tt/507tt.jpg","",""
"1646.1250000002328","","","recognition","survey-text","247","881941","0.0-6.0-3.34","2596906","co38770","norming","","","{""guess"":""model""}","","../img/tt/507tt.jpg","",""
"null","../img/gs/507gs.jpg","null","reveal","image-keyboard-response","248","883944","0.0-6.0-4.34","2596906","co38770","norming","","","","","","",""
"null","../img/tt/507tt.jpg","null","mooney2","image-keyboard-response","249","885948","0.0-6.0-5.34","2596906","co38770","norming","","","","","","",""
"3415.9500000005355","","","post_reveal_questions","survey-likert","250","889365","0.0-6.0-6.34","2596906","co38770","norming","","","{""aha"":2}","[0]","../img/tt/507tt.jpg","",""
"null","<div style=""font-size:60px;""> </div>","null","fixation","html-keyboard-response","251","889569","0.0-6.0-0.35","2596906","co38770","norming","","","","","","",""
"null","../img/tt/416tt.jpg","null","mooney1","image-keyboard-response","252","892573","0.0-6.0-1.35","2596906","co38770","norming","","","","","","",""
"3478.0000000001164","","","post_mooney1_questions","survey-likert","253","896053","0.0-6.0-2.35","2596906","co38770","norming","","","{""curiosity"":0,""confidence"":5}","[0,1]","../img/tt/416tt.jpg","",""
"4382.160000000149","","","recognition","survey-text","254","900437","0.0-6.0-3.35","2596906","co38770","norming","","","{""guess"":""struisvogels""}","","../img/tt/416tt.jpg","",""
"null","../img/gs/416gs.jpg","null","reveal","image-keyboard-response","255","902446","0.0-6.0-4.35","2596906","co38770","norming","","","","","","",""
"null","../img/tt/416tt.jpg","null","mooney2","image-keyboard-response","256","904457","0.0-6.0-5.35","2596906","co38770","norming","","","","","","",""
"15329.735000000335","","","post_reveal_questions","survey-likert","257","919789","0.0-6.0-6.35","2596906","co38770","norming","","","{""aha"":0}","[0]","../img/tt/416tt.jpg","",""
"null","<div style=""font-size:60px;""> </div>","null","fixation","html-keyboard-response","258","919995","0.0-6.0-0.36","2596906","co38770","norming","","","","","","",""
"null","../img/tt/032tt.jpg","null","mooney1","image-keyboard-response","259","922999","0.0-6.0-1.36","2596906","co38770","norming","","","","","","",""
"3764.4650000002002","","","post_mooney1_questions","survey-likert","260","926765","0.0-6.0-2.36","2596906","co38770","norming","","","{""curiosity"":5,""confidence"":0}","[0,1]","../img/tt/032tt.jpg","",""
"941.704999999376","","","recognition","survey-text","261","927709","0.0-6.0-3.36","2596906","co38770","norming","","","{""guess"":""""}","","../img/tt/032tt.jpg","",""
"null","../img/gs/032gs.jpg","null","reveal","image-keyboard-response","262","929711","0.0-6.0-4.36","2596906","co38770","norming","","","","","","",""
"null","../img/tt/032tt.jpg","null","mooney2","image-keyboard-response","263","931718","0.0-6.0-5.36","2596906","co38770","norming","","","","","","",""
"2350.100000000559","","","post_reveal_questions","survey-likert","264","934069","0.0-6.0-6.36","2596906","co38770","norming","","","{""aha"":4}","[0]","../img/tt/032tt.jpg","",""
"null","<div style=""font-size:60px;""> </div>","null","fixation","html-keyboard-response","265","934275","0.0-6.0-0.37","2596906","co38770","norming","","","","","","",""
"null","../img/tt/559tt.jpg","null","mooney1","image-keyboard-response","266","937284","0.0-6.0-1.37","2596906","co38770","norming","","","","","","",""
"3816.0449999995762","","","post_mooney1_questions","survey-likert","267","941109","0.0-6.0-2.37","2596906","co38770","norming","","","{""curiosity"":5,""confidence"":1}","[0,1]","../img/tt/559tt.jpg","",""
"2582.235000000801","","","recognition","survey-text","268","943692","0.0-6.0-3.37","2596906","co38770","norming","","","{""guess"":""naaimachine""}","","../img/tt/559tt.jpg","",""
"null","../img/gs/559gs.jpg","null","reveal","image-keyboard-response","269","945697","0.0-6.0-4.37","2596906","co38770","norming","","","","","","",""
"null","../img/tt/559tt.jpg","null","mooney2","image-keyboard-response","270","947702","0.0-6.0-5.37","2596906","co38770","norming","","","","","","",""
"4883.689999999595","","","post_reveal_questions","survey-likert","271","952588","0.0-6.0-6.37","2596906","co38770","norming","","","{""aha"":2}","[0]","../img/tt/559tt.jpg","",""
"null","<div style=""font-size:60px;""> </div>","null","fixation","html-keyboard-response","272","952791","0.0-6.0-0.38","2596906","co38770","norming","","","","","","",""
"null","../img/tt/096tt.jpg","null","mooney1","image-keyboard-response","273","955799","0.0-6.0-1.38","2596906","co38770","norming","","","","","","",""
"3450.644999999902","","","post_mooney1_questions","survey-likert","274","959252","0.0-6.0-2.38","2596906","co38770","norming","","","{""curiosity"":0,""confidence"":6}","[0,1]","../img/tt/096tt.jpg","",""
"2246.0200000004843","","","recognition","survey-text","275","961500","0.0-6.0-3.38","2596906","co38770","norming","","","{""guess"":""piano""}","","../img/tt/096tt.jpg","",""
"null","../img/gs/096gs.jpg","null","reveal","image-keyboard-response","276","963502","0.0-6.0-4.38","2596906","co38770","norming","","","","","","",""
"null","../img/tt/096tt.jpg","null","mooney2","image-keyboard-response","277","965512","0.0-6.0-5.38","2596906","co38770","norming","","","","","","",""
"3361.8699999997625","","","post_reveal_questions","survey-likert","278","968876","0.0-6.0-6.38","2596906","co38770","norming","","","{""aha"":0}","[0]","../img/tt/096tt.jpg","",""
"null","<div style=""font-size:60px;""> </div>","null","fixation","html-keyboard-response","279","969078","0.0-6.0-0.39","2596906","co38770","norming","","","","","","",""
"null","../img/tt/080tt.jpg","null","mooney1","image-keyboard-response","280","972088","0.0-6.0-1.39","2596906","co38770","norming","","","","","","",""
"6033.419999999693","","","post_mooney1_questions","survey-likert","281","978124","0.0-6.0-2.39","2596906","co38770","norming","","","{""curiosity"":5,""confidence"":2}","[0,1]","../img/tt/080tt.jpg","",""
"1438.3099999995902","","","recognition","survey-text","282","979564","0.0-6.0-3.39","2596906","co38770","norming","","","{""guess"":""lamp""}","","../img/tt/080tt.jpg","",""
"null","../img/gs/080gs.jpg","null","reveal","image-keyboard-response","283","981573","0.0-6.0-4.39","2596906","co38770","norming","","","","","","",""
"null","../img/tt/080tt.jpg","null","mooney2","image-keyboard-response","284","983576","0.0-6.0-5.39","2596906","co38770","norming","","","","","","",""
"3321.2850000000326","","","post_reveal_questions","survey-likert","285","986900","0.0-6.0-6.39","2596906","co38770","norming","","","{""aha"":5}","[0]","../img/tt/080tt.jpg","",""
"null","<div style=""font-size:60px;""> </div>","null","fixation","html-keyboard-response","286","987105","0.0-6.0-0.40","2596906","co38770","norming","","","","","","",""
"null","../img/tt/1366tt.jpg","null","mooney1","image-keyboard-response","287","990108","0.0-6.0-1.40","2596906","co38770","norming","","","","","","",""
"5477.209999999963","","","post_mooney1_questions","survey-likert","288","995588","0.0-6.0-2.40","2596906","co38770","norming","","","{""curiosity"":5,""confidence"":0}","[0,1]","../img/tt/1366tt.jpg","",""
"1133.8949999999022","","","recognition","survey-text","289","996724","0.0-6.0-3.40","2596906","co38770","norming","","","{""guess"":""""}","","../img/tt/1366tt.jpg","",""
"null","../img/gs/1366gs.jpg","null","reveal","image-keyboard-response","290","998733","0.0-6.0-4.40","2596906","co38770","norming","","","","","","",""
"null","../img/tt/1366tt.jpg","null","mooney2","image-keyboard-response","291","1000738","0.0-6.0-5.40","2596906","co38770","norming","","","","","","",""
"2115.2700000002515","","","post_reveal_questions","survey-likert","292","1002855","0.0-6.0-6.40","2596906","co38770","norming","","","{""aha"":4}","[0]","../img/tt/1366tt.jpg","",""
"null","<div style=""font-size:60px;""> </div>","null","fixation","html-keyboard-response","293","1003065","0.0-6.0-0.41","2596906","co38770","norming","","","","","","",""
"null","../img/tt/1156tt.jpg","null","mooney1","image-keyboard-response","294","1006069","0.0-6.0-1.41","2596906","co38770","norming","","","","","","",""
"3735.2499999996508","","","post_mooney1_questions","survey-likert","295","1009808","0.0-6.0-2.41","2596906","co38770","norming","","","{""curiosity"":5,""confidence"":1}","[0,1]","../img/tt/1156tt.jpg","",""
"3566.329999999609","","","recognition","survey-text","296","1013376","0.0-6.0-3.41","2596906","co38770","norming","","","{""guess"":""zwaardvis""}","","../img/tt/1156tt.jpg","",""
"null","../img/gs/1156gs.jpg","null","reveal","image-keyboard-response","297","1015379","0.0-6.0-4.41","2596906","co38770","norming","","","","","","",""
"null","../img/tt/1156tt.jpg","null","mooney2","image-keyboard-response","298","1017381","0.0-6.0-5.41","2596906","co38770","norming","","","","","","",""
"2679.865000000107","","","post_reveal_questions","survey-likert","299","1020064","0.0-6.0-6.41","2596906","co38770","norming","","","{""aha"":5}","[0]","../img/tt/1156tt.jpg","",""
"null","<div style=""font-size:60px;""> </div>","null","fixation","html-keyboard-response","300","1020264","0.0-6.0-0.42","2596906","co38770","norming","","","","","","",""
"null","../img/tt/1186tt.jpg","null","mooney1","image-keyboard-response","301","1023268","0.0-6.0-1.42","2596906","co38770","norming","","","","","","",""
"6408.8199999995995","","","post_mooney1_questions","survey-likert","302","1029680","0.0-6.0-2.42","2596906","co38770","norming","","","{""curiosity"":4,""confidence"":0}","[0,1]","../img/tt/1186tt.jpg","",""
"829.7099999999627","","","recognition","survey-text","303","1030511","0.0-6.0-3.42","2596906","co38770","norming","","","{""guess"":""""}","","../img/tt/1186tt.jpg","",""
"null","../img/gs/1186gs.jpg","null","reveal","image-keyboard-response","304","1032518","0.0-6.0-4.42","2596906","co38770","norming","","","","","","",""
"null","../img/tt/1186tt.jpg","null","mooney2","image-keyboard-response","305","1034525","0.0-6.0-5.42","2596906","co38770","norming","","","","","","",""
"3237.2550000000047","","","post_reveal_questions","survey-likert","306","1037768","0.0-6.0-6.42","2596906","co38770","norming","","","{""aha"":4}","[0]","../img/tt/1186tt.jpg","",""
"null","<div style=""font-size:60px;""> </div>","null","fixation","html-keyboard-response","307","1037972","0.0-6.0-0.43","2596906","co38770","norming","","","","","","",""
"null","../img/tt/1107tt.jpg","null","mooney1","image-keyboard-response","308","1040973","0.0-6.0-1.43","2596906","co38770","norming","","","","","","",""
"4030.9900000002235","","","post_mooney1_questions","survey-likert","309","1045007","0.0-6.0-2.43","2596906","co38770","norming","","","{""curiosity"":5,""confidence"":3}","[0,1]","../img/tt/1107tt.jpg","",""
"1710.15500000061","","","recognition","survey-text","310","1046719","0.0-6.0-3.43","2596906","co38770","norming","","","{""guess"":""baby""}","","../img/tt/1107tt.jpg","",""
"null","../img/gs/1107gs.jpg","null","reveal","image-keyboard-response","311","1048726","0.0-6.0-4.43","2596906","co38770","norming","","","","","","",""
"null","../img/tt/1107tt.jpg","null","mooney2","image-keyboard-response","312","1050728","0.0-6.0-5.43","2596906","co38770","norming","","","","","","",""
"3380.4799999997485","","","post_reveal_questions","survey-likert","313","1054111","0.0-6.0-6.43","2596906","co38770","norming","","","{""aha"":5}","[0]","../img/tt/1107tt.jpg","",""
"null","<div style=""font-size:60px;""> </div>","null","fixation","html-keyboard-response","314","1054318","0.0-6.0-0.44","2596906","co38770","norming","","","","","","",""
"null","../img/tt/300tt.jpg","null","mooney1","image-keyboard-response","315","1057323","0.0-6.0-1.44","2596906","co38770","norming","","","","","","",""
"4449.364999999525","","","post_mooney1_questions","survey-likert","316","1061776","0.0-6.0-2.44","2596906","co38770","norming","","","{""curiosity"":5,""confidence"":1}","[0,1]","../img/tt/300tt.jpg","",""
"2478.1450000000186","","","recognition","survey-text","317","1064256","0.0-6.0-3.44","2596906","co38770","norming","","","{""guess"":""ballerina""}","","../img/tt/300tt.jpg","",""
"null","../img/gs/300gs.jpg","null","reveal","image-keyboard-response","318","1066258","0.0-6.0-4.44","2596906","co38770","norming","","","","","","",""
"null","../img/tt/300tt.jpg","null","mooney2","image-keyboard-response","319","1068267","0.0-6.0-5.44","2596906","co38770","norming","","","","","","",""
"3962.83000000054","","","post_reveal_questions","survey-likert","320","1072232","0.0-6.0-6.44","2596906","co38770","norming","","","{""aha"":4}","[0]","../img/tt/300tt.jpg","",""
"null","<div style=""font-size:60px;""> </div>","null","fixation","html-keyboard-response","321","1072438","0.0-6.0-0.45","2596906","co38770","norming","","","","","","",""
"null","../img/tt/105tt.jpg","null","mooney1","image-keyboard-response","322","1075449","0.0-6.0-1.45","2596906","co38770","norming","","","","","","",""
"3844.8449999995064","","","post_mooney1_questions","survey-likert","323","1079296","0.0-6.0-2.45","2596906","co38770","norming","","","{""curiosity"":4,""confidence"":0}","[0,1]","../img/tt/105tt.jpg","",""
"902.0099999997765","","","recognition","survey-text","324","1080200","0.0-6.0-3.45","2596906","co38770","norming","","","{""guess"":""""}","","../img/tt/105tt.jpg","",""
"null","../img/gs/105gs.jpg","null","reveal","image-keyboard-response","325","1082206","0.0-6.0-4.45","2596906","co38770","norming","","","","","","",""
"null","../img/tt/105tt.jpg","null","mooney2","image-keyboard-response","326","1084208","0.0-6.0-5.45","2596906","co38770","norming","","","","","","",""
"5373.759999999544","","","post_reveal_questions","survey-likert","327","1089584","0.0-6.0-6.45","2596906","co38770","norming","","","{""aha"":4}","[0]","../img/tt/105tt.jpg","",""
"null","<div style=""font-size:60px;""> </div>","null","fixation","html-keyboard-response","328","1089793","0.0-6.0-0.46","2596906","co38770","norming","","","","","","",""
"null","../img/tt/1066tt.jpg","null","mooney1","image-keyboard-response","329","1092797","0.0-6.0-1.46","2596906","co38770","norming","","","","","","",""
"4448.195000000065","","","post_mooney1_questions","survey-likert","330","1097248","0.0-6.0-2.46","2596906","co38770","norming","","","{""curiosity"":1,""confidence"":6}","[0,1]","../img/tt/1066tt.jpg","",""
"2062.429999999935","","","recognition","survey-text","331","1099312","0.0-6.0-3.46","2596906","co38770","norming","","","{""guess"":""bus""}","","../img/tt/1066tt.jpg","",""
"null","../img/gs/1066gs.jpg","null","reveal","image-keyboard-response","332","1101317","0.0-6.0-4.46","2596906","co38770","norming","","","","","","",""
"null","../img/tt/1066tt.jpg","null","mooney2","image-keyboard-response","333","1103328","0.0-6.0-5.46","2596906","co38770","norming","","","","","","",""
"3157.874999999767","","","post_reveal_questions","survey-likert","334","1106488","0.0-6.0-6.46","2596906","co38770","norming","","","{""aha"":0}","[0]","../img/tt/1066tt.jpg","",""
"null","<div style=""font-size:60px;""> </div>","null","fixation","html-keyboard-response","335","1106698","0.0-6.0-0.47","2596906","co38770","norming","","","","","","",""
"null","../img/tt/1089tt.jpg","null","mooney1","image-keyboard-response","336","1109705","0.0-6.0-1.47","2596906","co38770","norming","","","","","","",""
"4251.694999999832","","","post_mooney1_questions","survey-likert","337","1113960","0.0-6.0-2.47","2596906","co38770","norming","","","{""curiosity"":4,""confidence"":4}","[0,1]","../img/tt/1089tt.jpg","",""
"3366.0850000004284","","","recognition","survey-text","338","1117328","0.0-6.0-3.47","2596906","co38770","norming","","","{""guess"":""olifanten""}","","../img/tt/1089tt.jpg","",""
"null","../img/gs/1089gs.jpg","null","reveal","image-keyboard-response","339","1119330","0.0-6.0-4.47","2596906","co38770","norming","","","","","","",""
"null","../img/tt/1089tt.jpg","null","mooney2","image-keyboard-response","340","1121332","0.0-6.0-5.47","2596906","co38770","norming","","","","","","",""
"3874.2599999995437","","","post_reveal_questions","survey-likert","341","1125209","0.0-6.0-6.47","2596906","co38770","norming","","","{""aha"":4}","[0]","../img/tt/1089tt.jpg","",""
"null","<div style=""font-size:60px;""> </div>","null","fixation","html-keyboard-response","342","1125416","0.0-6.0-0.48","2596906","co38770","norming","","","","","","",""
"null","../img/tt/013tt.jpg","null","mooney1","image-keyboard-response","343","1128421","0.0-6.0-1.48","2596906","co38770","norming","","","","","","",""
"6368.670000000857","","","post_mooney1_questions","survey-likert","344","1134793","0.0-6.0-2.48","2596906","co38770","norming","","","{""curiosity"":3,""confidence"":0}","[0,1]","../img/tt/013tt.jpg","",""
"1342.04000000027","","","recognition","survey-text","345","1136136","0.0-6.0-3.48","2596906","co38770","norming","","","{""guess"":""""}","","../img/tt/013tt.jpg","",""
"null","../img/gs/013gs.jpg","null","reveal","image-keyboard-response","346","1138143","0.0-6.0-4.48","2596906","co38770","norming","","","","","","",""
"null","../img/tt/013tt.jpg","null","mooney2","image-keyboard-response","347","1140153","0.0-6.0-5.48","2596906","co38770","norming","","","","","","",""
"3532.9699999992736","","","post_reveal_questions","survey-likert","348","1143688","0.0-6.0-6.48","2596906","co38770","norming","","","{""aha"":4}","[0]","../img/tt/013tt.jpg","",""
"null","<div style=""font-size:60px;""> </div>","null","fixation","html-keyboard-response","349","1143893","0.0-6.0-0.49","2596906","co38770","norming","","","","","","",""
"null","../img/tt/456tt.jpg","null","mooney1","image-keyboard-response","350","1146905","0.0-6.0-1.49","2596906","co38770","norming","","","","","","",""
"5652.030000000028","","","post_mooney1_questions","survey-likert","351","1152561","0.0-6.0-2.49","2596906","co38770","norming","","","{""curiosity"":4,""confidence"":0}","[0,1]","../img/tt/456tt.jpg","",""
"774.0599999995902","","","recognition","survey-text","352","1153336","0.0-6.0-3.49","2596906","co38770","norming","","","{""guess"":""""}","","../img/tt/456tt.jpg","",""
"null","../img/gs/456gs.jpg","null","reveal","image-keyboard-response","353","1155338","0.0-6.0-4.49","2596906","co38770","norming","","","","","","",""
"null","../img/tt/456tt.jpg","null","mooney2","image-keyboard-response","354","1157342","0.0-6.0-5.49","2596906","co38770","norming","","","","","","",""
"2559.7299999999814","","","post_reveal_questions","survey-likert","355","1159904","0.0-6.0-6.49","2596906","co38770","norming","","","{""aha"":4}","[0]","../img/tt/456tt.jpg","",""
"null","<div style=""font-size:60px;""> </div>","null","fixation","html-keyboard-response","356","1160106","0.0-6.0-0.50","2596906","co38770","norming","","","","","","",""
"null","../img/tt/1063tt.jpg","null","mooney1","image-keyboard-response","357","1163113","0.0-6.0-1.50","2596906","co38770","norming","","","","","","",""
"4372.019999999786","","","post_mooney1_questions","survey-likert","358","1167488","0.0-6.0-2.50","2596906","co38770","norming","","","{""curiosity"":5,""confidence"":4}","[0,1]","../img/tt/1063tt.jpg","",""
"1630.4000000001397","","","recognition","survey-text","359","1169120","0.0-6.0-3.50","2596906","co38770","norming","","","{""guess"":""beer""}","","../img/tt/1063tt.jpg","",""
"null","../img/gs/1063gs.jpg","null","reveal","image-keyboard-response","360","1171124","0.0-6.0-4.50","2596906","co38770","norming","","","","","","",""
"null","../img/tt/1063tt.jpg","null","mooney2","image-keyboard-response","361","1173126","0.0-6.0-5.50","2596906","co38770","norming","","","","","","",""
"3376.269999999786","","","post_reveal_questions","survey-likert","362","1176504","0.0-6.0-6.50","2596906","co38770","norming","","","{""aha"":5}","[0]","../img/tt/1063tt.jpg","",""
"null","<div style=""font-size:60px;""> </div>","null","fixation","html-keyboard-response","363","1176712","0.0-6.0-0.51","2596906","co38770","norming","","","","","","",""
"null","../img/tt/1123tt.jpg","null","mooney1","image-keyboard-response","364","1179724","0.0-6.0-1.51","2596906","co38770","norming","","","","","","",""
"5185.054999999935","","","post_mooney1_questions","survey-likert","365","1184908","0.0-6.0-2.51","2596906","co38770","norming","","","{""curiosity"":5,""confidence"":4}","[0,1]","../img/tt/1123tt.jpg","",""
"4334.130000000121","","","recognition","survey-text","366","1189244","0.0-6.0-3.51","2596906","co38770","norming","","","{""guess"":""basketbalspeler""}","","../img/tt/1123tt.jpg","",""
"null","../img/gs/1123gs.jpg","null","reveal","image-keyboard-response","367","1191246","0.0-6.0-4.51","2596906","co38770","norming","","","","","","",""
"null","../img/tt/1123tt.jpg","null","mooney2","image-keyboard-response","368","1193253","0.0-6.0-5.51","2596906","co38770","norming","","","","","","",""
"5980.625","","","post_reveal_questions","survey-likert","369","1199236","0.0-6.0-6.51","2596906","co38770","norming","","","{""aha"":3}","[0]","../img/tt/1123tt.jpg","",""
"null","<div style=""font-size:60px;""> </div>","null","fixation","html-keyboard-response","370","1199438","0.0-6.0-0.52","2596906","co38770","norming","","","","","","",""
"null","../img/tt/1191tt.jpg","null","mooney1","image-keyboard-response","371","1202441","0.0-6.0-1.52","2596906","co38770","norming","","","","","","",""
"4215.879999999655","","","post_mooney1_questions","survey-likert","372","1206660","0.0-6.0-2.52","2596906","co38770","norming","","","{""curiosity"":4,""confidence"":2}","[0,1]","../img/tt/1191tt.jpg","",""
"2134.114999999758","","","recognition","survey-text","373","1208796","0.0-6.0-3.52","2596906","co38770","norming","","","{""guess"":""kamelen""}","","../img/tt/1191tt.jpg","",""
"null","../img/gs/1191gs.jpg","null","reveal","image-keyboard-response","374","1210797","0.0-6.0-4.52","2596906","co38770","norming","","","","","","",""
"null","../img/tt/1191tt.jpg","null","mooney2","image-keyboard-response","375","1212799","0.0-6.0-5.52","2596906","co38770","norming","","","","","","",""
"2962.2349999998696","","","post_reveal_questions","survey-likert","376","1215764","0.0-6.0-6.52","2596906","co38770","norming","","","{""aha"":4}","[0]","../img/tt/1191tt.jpg","",""
"null","<div style=""font-size:60px;""> </div>","null","fixation","html-keyboard-response","377","1215968","0.0-6.0-0.53","2596906","co38770","norming","","","","","","",""
"null","../img/tt/1069tt.jpg","null","mooney1","image-keyboard-response","378","1218970","0.0-6.0-1.53","2596906","co38770","norming","","","","","","",""
"6215.3100000005215","","","post_mooney1_questions","survey-likert","379","1225188","0.0-6.0-2.53","2596906","co38770","norming","","","{""curiosity"":4,""confidence"":0}","[0,1]","../img/tt/1069tt.jpg","",""
"1134.0600000002887","","","recognition","survey-text","380","1226324","0.0-6.0-3.53","2596906","co38770","norming","","","{""guess"":""""}","","../img/tt/1069tt.jpg","",""
"null","../img/gs/1069gs.jpg","null","reveal","image-keyboard-response","381","1228328","0.0-6.0-4.53","2596906","co38770","norming","","","","","","",""
"null","../img/tt/1069tt.jpg","null","mooney2","image-keyboard-response","382","1230331","0.0-6.0-5.53","2596906","co38770","norming","","","","","","",""
"3990.0699999998324","","","post_reveal_questions","survey-likert","383","1234324","0.0-6.0-6.53","2596906","co38770","norming","","","{""aha"":4}","[0]","../img/tt/1069tt.jpg","",""
"null","<div style=""font-size:60px;""> </div>","null","fixation","html-keyboard-response","384","1234526","0.0-6.0-0.54","2596906","co38770","norming","","","","","","",""
"null","../img/tt/081tt.jpg","null","mooney1","image-keyboard-response","385","1237528","0.0-6.0-1.54","2596906","co38770","norming","","","","","","",""
"3769.385000000475","","","post_mooney1_questions","survey-likert","386","1241300","0.0-6.0-2.54","2596906","co38770","norming","","","{""curiosity"":2,""confidence"":5}","[0,1]","../img/tt/081tt.jpg","",""
"3478","","","recognition","survey-text","387","1244782","0.0-6.0-3.54","2596906","co38770","norming","","","{""guess"":""kikker""}","","../img/tt/081tt.jpg","",""
"null","../img/gs/081gs.jpg","null","reveal","image-keyboard-response","388","1246786","0.0-6.0-4.54","2596906","co38770","norming","","","","","","",""
"null","../img/tt/081tt.jpg","null","mooney2","image-keyboard-response","389","1248790","0.0-6.0-5.54","2596906","co38770","norming","","","","","","",""
"2005.2249999998603","","","post_reveal_questions","survey-likert","390","1250798","0.0-6.0-6.54","2596906","co38770","norming","","","{""aha"":0}","[0]","../img/tt/081tt.jpg","",""
"null","<div style=""font-size:60px;""> </div>","null","fixation","html-keyboard-response","391","1250999","0.0-6.0-0.55","2596906","co38770","norming","","","","","","",""
"null","../img/tt/1027tt.jpg","null","mooney1","image-keyboard-response","392","1254006","0.0-6.0-1.55","2596906","co38770","norming","","","","","","",""
"2399.204999999609","","","post_mooney1_questions","survey-likert","393","1256406","0.0-6.0-2.55","2596906","co38770","norming","","","{""curiosity"":4,""confidence"":2}","[0,1]","../img/tt/1027tt.jpg","",""
"1654.0700000005309","","","recognition","survey-text","394","1258062","0.0-6.0-3.55","2596906","co38770","norming","","","{""guess"":""ezel""}","","../img/tt/1027tt.jpg","",""
"null","../img/gs/1027gs.jpg","null","reveal","image-keyboard-response","395","1260067","0.0-6.0-4.55","2596906","co38770","norming","","","","","","",""
"null","../img/tt/1027tt.jpg","null","mooney2","image-keyboard-response","396","1262069","0.0-6.0-5.55","2596906","co38770","norming","","","","","","",""
"2798.450000000419","","","post_reveal_questions","survey-likert","397","1264870","0.0-6.0-6.55","2596906","co38770","norming","","","{""aha"":5}","[0]","../img/tt/1027tt.jpg","",""
"null","<div style=""font-size:60px;""> </div>","null","fixation","html-keyboard-response","398","1265072","0.0-6.0-0.56","2596906","co38770","norming","","","","","","",""
"null","../img/tt/1091tt.jpg","null","mooney1","image-keyboard-response","399","1268079","0.0-6.0-1.56","2596906","co38770","norming","","","","","","",""
"3651.7750000001397","","","post_mooney1_questions","survey-likert","400","1271734","0.0-6.0-2.56","2596906","co38770","norming","","","{""curiosity"":0,""confidence"":6}","[0,1]","../img/tt/1091tt.jpg","",""
"1686.1849999995902","","","recognition","survey-text","401","1273422","0.0-6.0-3.56","2596906","co38770","norming","","","{""guess"":""paard""}","","../img/tt/1091tt.jpg","",""
"null","../img/gs/1091gs.jpg","null","reveal","image-keyboard-response","402","1275432","0.0-6.0-4.56","2596906","co38770","norming","","","","","","",""
"null","../img/tt/1091tt.jpg","null","mooney2","image-keyboard-response","403","1277434","0.0-6.0-5.56","2596906","co38770","norming","","","","","","",""
"13088.730000000447","","","post_reveal_questions","survey-likert","404","1290526","0.0-6.0-6.56","2596906","co38770","norming","","","{""aha"":0}","[0]","../img/tt/1091tt.jpg","",""
"null","<div style=""font-size:60px;""> </div>","null","fixation","html-keyboard-response","405","1290728","0.0-6.0-0.57","2596906","co38770","norming","","","","","","",""
"null","../img/tt/1148tt.jpg","null","mooney1","image-keyboard-response","406","1293733","0.0-6.0-1.57","2596906","co38770","norming","","","","","","",""
"4581.935000000056","","","post_mooney1_questions","survey-likert","407","1298318","0.0-6.0-2.57","2596906","co38770","norming","","","{""curiosity"":5,""confidence"":0}","[0,1]","../img/tt/1148tt.jpg","",""
"757.7299999995157","","","recognition","survey-text","408","1299078","0.0-6.0-3.57","2596906","co38770","norming","","","{""guess"":""""}","","../img/tt/1148tt.jpg","",""
"null","../img/gs/1148gs.jpg","null","reveal","image-keyboard-response","409","1301079","0.0-6.0-4.57","2596906","co38770","norming","","","","","","",""
"null","../img/tt/1148tt.jpg","null","mooney2","image-keyboard-response","410","1303087","0.0-6.0-5.57","2596906","co38770","norming","","","","","","",""
"4311.800000000279","","","post_reveal_questions","survey-likert","411","1307401","0.0-6.0-6.57","2596906","co38770","norming","","","{""aha"":5}","[0]","../img/tt/1148tt.jpg","",""
"null","<div style=""font-size:60px;""> </div>","null","fixation","html-keyboard-response","412","1307606","0.0-6.0-0.58","2596906","co38770","norming","","","","","","",""
"null","../img/tt/496tt.jpg","null","mooney1","image-keyboard-response","413","1310616","0.0-6.0-1.58","2596906","co38770","norming","","","","","","",""
"3174.065000000177","","","post_mooney1_questions","survey-likert","414","1313794","0.0-6.0-2.58","2596906","co38770","norming","","","{""curiosity"":4,""confidence"":1}","[0,1]","../img/tt/496tt.jpg","",""
"3581.9099999996834","","","recognition","survey-text","415","1317377","0.0-6.0-3.58","2596906","co38770","norming","","","{""guess"":""vogel""}","","../img/tt/496tt.jpg","",""
"null","../img/gs/496gs.jpg","null","reveal","image-keyboard-response","416","1319381","0.0-6.0-4.58","2596906","co38770","norming","","","","","","",""
"null","../img/tt/496tt.jpg","null","mooney2","image-keyboard-response","417","1321392","0.0-6.0-5.58","2596906","co38770","norming","","","","","","",""
"2669.9699999997392","","","post_reveal_questions","survey-likert","418","1324065","0.0-6.0-6.58","2596906","co38770","norming","","","{""aha"":4}","[0]","../img/tt/496tt.jpg","",""
"null","<div style=""font-size:60px;""> </div>","null","fixation","html-keyboard-response","419","1324275","0.0-6.0-0.59","2596906","co38770","norming","","","","","","",""
"null","../img/tt/001tt.jpg","null","mooney1","image-keyboard-response","420","1327278","0.0-6.0-1.59","2596906","co38770","norming","","","","","","",""
"7591.63000000082","","","post_mooney1_questions","survey-likert","421","1334873","0.0-6.0-2.59","2596906","co38770","norming","","","{""curiosity"":3,""confidence"":1}","[0,1]","../img/tt/001tt.jpg","",""
"1750.1599999996834","","","recognition","survey-text","422","1336625","0.0-6.0-3.59","2596906","co38770","norming","","","{""guess"":""bloem""}","","../img/tt/001tt.jpg","",""
"null","../img/gs/001gs.jpg","null","reveal","image-keyboard-response","423","1338626","0.0-6.0-4.59","2596906","co38770","norming","","","","","","",""
"null","../img/tt/001tt.jpg","null","mooney2","image-keyboard-response","424","1340632","0.0-6.0-5.59","2596906","co38770","norming","","","","","","",""
"3037.5649999997113","","","post_reveal_questions","survey-likert","425","1343673","0.0-6.0-6.59","2596906","co38770","norming","","","{""aha"":4}","[0]","../img/tt/001tt.jpg","",""
"null","<div style=""font-size:60px;""> </div>","null","fixation","html-keyboard-response","426","1343879","0.0-6.0-0.60","2596906","co38770","norming","","","","","","",""
"null","../img/tt/121tt.jpg","null","mooney1","image-keyboard-response","427","1346883","0.0-6.0-1.60","2596906","co38770","norming","","","","","","",""
"3058.6250000004657","","","post_mooney1_questions","survey-likert","428","1349945","0.0-6.0-2.60","2596906","co38770","norming","","","{""curiosity"":0,""confidence"":6}","[0,1]","../img/tt/121tt.jpg","",""
"2902.315000000177","","","recognition","survey-text","429","1352849","0.0-6.0-3.60","2596906","co38770","norming","","","{""guess"":""kangoeroe""}","","../img/tt/121tt.jpg","",""
"null","../img/gs/121gs.jpg","null","reveal","image-keyboard-response","430","1354851","0.0-6.0-4.60","2596906","co38770","norming","","","","","","",""
"null","../img/tt/121tt.jpg","null","mooney2","image-keyboard-response","431","1356862","0.0-6.0-5.60","2596906","co38770","norming","","","","","","",""
"5136.79499999946","","","post_reveal_questions","survey-likert","432","1362001","0.0-6.0-6.60","2596906","co38770","norming","","","{""aha"":0}","[0]","../img/tt/121tt.jpg","",""
"null","<div style=""font-size:60px;""> </div>","null","fixation","html-keyboard-response","433","1362206","0.0-6.0-0.61","2596906","co38770","norming","","","","","","",""
"null","../img/tt/1276tt.jpg","null","mooney1","image-keyboard-response","434","1365213","0.0-6.0-1.61","2596906","co38770","norming","","","","","","",""
"5808.739999999525","","","post_mooney1_questions","survey-likert","435","1371025","0.0-6.0-2.61","2596906","co38770","norming","","","{""curiosity"":5,""confidence"":0}","[0,1]","../img/tt/1276tt.jpg","",""
"678.1750000000466","","","recognition","survey-text","436","1371705","0.0-6.0-3.61","2596906","co38770","norming","","","{""guess"":""""}","","../img/tt/1276tt.jpg","",""
"null","../img/gs/1276gs.jpg","null","reveal","image-keyboard-response","437","1373706","0.0-6.0-4.61","2596906","co38770","norming","","","","","","",""
"null","../img/tt/1276tt.jpg","null","mooney2","image-keyboard-response","438","1375708","0.0-6.0-5.61","2596906","co38770","norming","","","","","","",""
"4362.980000000913","","","post_reveal_questions","survey-likert","439","1380073","0.0-6.0-6.61","2596906","co38770","norming","","","{""aha"":5}","[0]","../img/tt/1276tt.jpg","",""
"null","<div style=""font-size:60px;""> </div>","null","fixation","html-keyboard-response","440","1380275","0.0-6.0-0.62","2596906","co38770","norming","","","","","","",""
"null","../img/tt/477tt.jpg","null","mooney1","image-keyboard-response","441","1383277","0.0-6.0-1.62","2596906","co38770","norming","","","","","","",""
"2913.290000000503","","","post_mooney1_questions","survey-likert","442","1386193","0.0-6.0-2.62","2596906","co38770","norming","","","{""curiosity"":5,""confidence"":5}","[0,1]","../img/tt/477tt.jpg","",""
"1934.485000000568","","","recognition","survey-text","443","1388130","0.0-6.0-3.62","2596906","co38770","norming","","","{""guess"":""beer""}","","../img/tt/477tt.jpg","",""
"null","../img/gs/477gs.jpg","null","reveal","image-keyboard-response","444","1390134","0.0-6.0-4.62","2596906","co38770","norming","","","","","","",""
"null","../img/tt/477tt.jpg","null","mooney2","image-keyboard-response","445","1392136","0.0-6.0-5.62","2596906","co38770","norming","","","","","","",""
"2711.0300000004936","","","post_reveal_questions","survey-likert","446","1394849","0.0-6.0-6.62","2596906","co38770","norming","","","{""aha"":2}","[0]","../img/tt/477tt.jpg","",""
"null","<div style=""font-size:60px;""> </div>","null","fixation","html-keyboard-response","447","1395052","0.0-6.0-0.63","2596906","co38770","norming","","","","","","",""
"null","../img/tt/124tt.jpg","null","mooney1","image-keyboard-response","448","1398054","0.0-6.0-1.63","2596906","co38770","norming","","","","","","",""
"7168.280000000028","","","post_mooney1_questions","survey-likert","449","1405226","0.0-6.0-2.63","2596906","co38770","norming","","","{""curiosity"":1,""confidence"":6}","[0,1]","../img/tt/124tt.jpg","",""
"2502.2299999999814","","","recognition","survey-text","450","1407729","0.0-6.0-3.63","2596906","co38770","norming","","","{""guess"":""gorilla""}","","../img/tt/124tt.jpg","",""
"null","../img/gs/124gs.jpg","null","reveal","image-keyboard-response","451","1409736","0.0-6.0-4.63","2596906","co38770","norming","","","","","","",""
"null","../img/tt/124tt.jpg","null","mooney2","image-keyboard-response","452","1411747","0.0-6.0-5.63","2596906","co38770","norming","","","","","","",""
"2475.5849999992643","","","post_reveal_questions","survey-likert","453","1414225","0.0-6.0-6.63","2596906","co38770","norming","","","{""aha"":0}","[0]","../img/tt/124tt.jpg","",""
"null","<div style=""font-size:60px;""> </div>","null","fixation","html-keyboard-response","454","1414429","0.0-6.0-0.64","2596906","co38770","norming","","","","","","",""
"null","../img/tt/1224tt.jpg","null","mooney1","image-keyboard-response","455","1417433","0.0-6.0-1.64","2596906","co38770","norming","","","","","","",""
"4509.384999999544","","","post_mooney1_questions","survey-likert","456","1421945","0.0-6.0-2.64","2596906","co38770","norming","","","{""curiosity"":5,""confidence"":5}","[0,1]","../img/tt/1224tt.jpg","",""
"1365.934999999823","","","recognition","survey-text","457","1423313","0.0-6.0-3.64","2596906","co38770","norming","","","{""guess"":""man""}","","../img/tt/1224tt.jpg","",""
"null","../img/gs/1224gs.jpg","null","reveal","image-keyboard-response","458","1425317","0.0-6.0-4.64","2596906","co38770","norming","","","","","","",""
"null","../img/tt/1224tt.jpg","null","mooney2","image-keyboard-response","459","1427326","0.0-6.0-5.64","2596906","co38770","norming","","","","","","",""
"2985.2399999999907","","","post_reveal_questions","survey-likert","460","1430314","0.0-6.0-6.64","2596906","co38770","norming","","","{""aha"":2}","[0]","../img/tt/1224tt.jpg","",""
"null","<div style=""font-size:60px;""> </div>","null","fixation","html-keyboard-response","461","1430516","0.0-6.0-0.65","2596906","co38770","norming","","","","","","",""
"null","../img/tt/031tt.jpg","null","mooney1","image-keyboard-response","462","1433519","0.0-6.0-1.65","2596906","co38770","norming","","","","","","",""
"4327.545000000158","","","post_mooney1_questions","survey-likert","463","1437850","0.0-6.0-2.65","2596906","co38770","norming","","","{""curiosity"":1,""confidence"":0}","[0,1]","../img/tt/031tt.jpg","",""
"1798.0700000007637","","","recognition","survey-text","464","1439650","0.0-6.0-3.65","2596906","co38770","norming","","","{""guess"":""man""}","","../img/tt/031tt.jpg","",""
"null","../img/gs/031gs.jpg","null","reveal","image-keyboard-response","465","1441652","0.0-6.0-4.65","2596906","co38770","norming","","","","","","",""
"null","../img/tt/031tt.jpg","null","mooney2","image-keyboard-response","466","1443659","0.0-6.0-5.65","2596906","co38770","norming","","","","","","",""
"2187.6250000004657","","","post_reveal_questions","survey-likert","467","1445849","0.0-6.0-6.65","2596906","co38770","norming","","","{""aha"":5}","[0]","../img/tt/031tt.jpg","",""
"null","<div style=""font-size:60px;""> </div>","null","fixation","html-keyboard-response","468","1446052","0.0-6.0-0.66","2596906","co38770","norming","","","","","","",""
"null","../img/tt/599tt.jpg","null","mooney1","image-keyboard-response","469","1449054","0.0-6.0-1.66","2596906","co38770","norming","","","","","","",""
"4040.619999999879","","","post_mooney1_questions","survey-likert","470","1453098","0.0-6.0-2.66","2596906","co38770","norming","","","{""curiosity"":2,""confidence"":6}","[0,1]","../img/tt/599tt.jpg","",""
"3206.0300000002608","","","recognition","survey-text","471","1456306","0.0-6.0-3.66","2596906","co38770","norming","","","{""guess"":""uilen""}","","../img/tt/599tt.jpg","",""
"null","../img/gs/599gs.jpg","null","reveal","image-keyboard-response","472","1458307","0.0-6.0-4.66","2596906","co38770","norming","","","","","","",""
"null","../img/tt/599tt.jpg","null","mooney2","image-keyboard-response","473","1460318","0.0-6.0-5.66","2596906","co38770","norming","","","","","","",""
"2560.674999999581","","","post_reveal_questions","survey-likert","474","1462881","0.0-6.0-6.66","2596906","co38770","norming","","","{""aha"":0}","[0]","../img/tt/599tt.jpg","",""
"null","<div style=""font-size:60px;""> </div>","null","fixation","html-keyboard-response","475","1463091","0.0-6.0-0.67","2596906","co38770","norming","","","","","","",""
"null","../img/tt/1205tt.jpg","null","mooney1","image-keyboard-response","476","1466097","0.0-6.0-1.67","2596906","co38770","norming","","","","","","",""
"4885.954999999842","","","post_mooney1_questions","survey-likert","477","1470986","0.0-6.0-2.67","2596906","co38770","norming","","","{""curiosity"":4,""confidence"":0}","[0,1]","../img/tt/1205tt.jpg","",""
"1397.9449999995995","","","recognition","survey-text","478","1472386","0.0-6.0-3.67","2596906","co38770","norming","","","{""guess"":""""}","","../img/tt/1205tt.jpg","",""
"null","../img/gs/1205gs.jpg","null","reveal","image-keyboard-response","479","1474393","0.0-6.0-4.67","2596906","co38770","norming","","","","","","",""
"null","../img/tt/1205tt.jpg","null","mooney2","image-keyboard-response","480","1476403","0.0-6.0-5.67","2596906","co38770","norming","","","","","","",""
"3812.3600000001024","","","post_reveal_questions","survey-likert","481","1480218","0.0-6.0-6.67","2596906","co38770","norming","","","{""aha"":4}","[0]","../img/tt/1205tt.jpg","",""
"null","<div style=""font-size:60px;""> </div>","null","fixation","html-keyboard-response","482","1480419","0.0-6.0-0.68","2596906","co38770","norming","","","","","","",""
"null","../img/tt/1130tt.jpg","null","mooney1","image-keyboard-response","483","1483423","0.0-6.0-1.68","2596906","co38770","norming","","","","","","",""
"4134.874999999767","","","post_mooney1_questions","survey-likert","484","1487562","0.0-6.0-2.68","2596906","co38770","norming","","","{""curiosity"":1,""confidence"":6}","[0,1]","../img/tt/1130tt.jpg","",""
"3126.1299999996554","","","recognition","survey-text","485","1490689","0.0-6.0-3.68","2596906","co38770","norming","","","{""guess"":""fietser""}","","../img/tt/1130tt.jpg","",""
"null","../img/gs/1130gs.jpg","null","reveal","image-keyboard-response","486","1492694","0.0-6.0-4.68","2596906","co38770","norming","","","","","","",""
"null","../img/tt/1130tt.jpg","null","mooney2","image-keyboard-response","487","1494698","0.0-6.0-5.68","2596906","co38770","norming","","","","","","",""
"2965.0100000000093","","","post_reveal_questions","survey-likert","488","1497665","0.0-6.0-6.68","2596906","co38770","norming","","","{""aha"":0}","[0]","../img/tt/1130tt.jpg","",""
"null","<div style=""font-size:60px;""> </div>","null","fixation","html-keyboard-response","489","1497867","0.0-6.0-0.69","2596906","co38770","norming","","","","","","",""
"null","../img/tt/1247tt.jpg","null","mooney1","image-keyboard-response","490","1500871","0.0-6.0-1.69","2596906","co38770","norming","","","","","","",""
"4857.735000000568","","","post_mooney1_questions","survey-likert","491","1505730","0.0-6.0-2.69","2596906","co38770","norming","","","{""curiosity"":2,""confidence"":5}","[0,1]","../img/tt/1247tt.jpg","",""
"2766.014999999199","","","recognition","survey-text","492","1508497","0.0-6.0-3.69","2596906","co38770","norming","","","{""guess"":""luipaard""}","","../img/tt/1247tt.jpg","",""
"null","../img/gs/1247gs.jpg","null","reveal","image-keyboard-response","493","1510504","0.0-6.0-4.69","2596906","co38770","norming","","","","","","",""
"null","../img/tt/1247tt.jpg","null","mooney2","image-keyboard-response","494","1512513","0.0-6.0-5.69","2596906","co38770","norming","","","","","","",""
"3709.6400000001304","","","post_reveal_questions","survey-likert","495","1516226","0.0-6.0-6.69","2596906","co38770","norming","","","{""aha"":3}","[0]","../img/tt/1247tt.jpg","",""
"null","<div style=""font-size:60px;""> </div>","null","fixation","html-keyboard-response","496","1516429","0.0-6.0-0.70","2596906","co38770","norming","","","","","","",""
"null","../img/tt/1122tt.jpg","null","mooney1","image-keyboard-response","497","1519431","0.0-6.0-1.70","2596906","co38770","norming","","","","","","",""
"4854.8499999996275","","","post_mooney1_questions","survey-likert","498","1524289","0.0-6.0-2.70","2596906","co38770","norming","","","{""curiosity"":4,""confidence"":1}","[0,1]","../img/tt/1122tt.jpg","",""
"2478.1800000001676","","","recognition","survey-text","499","1526769","0.0-6.0-3.70","2596906","co38770","norming","","","{""guess"":""verkeer""}","","../img/tt/1122tt.jpg","",""
"null","../img/gs/1122gs.jpg","null","reveal","image-keyboard-response","500","1528776","0.0-6.0-4.70","2596906","co38770","norming","","","","","","",""
"null","../img/tt/1122tt.jpg","null","mooney2","image-keyboard-response","501","1530779","0.0-6.0-5.70","2596906","co38770","norming","","","","","","",""
"3084.430000000866","","","post_reveal_questions","survey-likert","502","1533866","0.0-6.0-6.70","2596906","co38770","norming","","","{""aha"":4}","[0]","../img/tt/1122tt.jpg","",""
"null","<div style=""font-size:60px;""> </div>","null","fixation","html-keyboard-response","503","1534069","0.0-6.0-0.71","2596906","co38770","norming","","","","","","",""
"null","../img/tt/1142tt.jpg","null","mooney1","image-keyboard-response","504","1537077","0.0-6.0-1.71","2596906","co38770","norming","","","","","","",""
"4417.13000000082","","","post_mooney1_questions","survey-likert","505","1541498","0.0-6.0-2.71","2596906","co38770","norming","","","{""curiosity"":2,""confidence"":5}","[0,1]","../img/tt/1142tt.jpg","",""
"5142.149999999674","","","recognition","survey-text","506","1546639","0.0-6.0-3.71","2596906","co38770","norming","","","{""guess"":""verspringster""}","","../img/tt/1142tt.jpg","",""
"null","../img/gs/1142gs.jpg","null","reveal","image-keyboard-response","507","1548645","0.0-6.0-4.71","2596906","co38770","norming","","","","","","",""
"null","../img/tt/1142tt.jpg","null","mooney2","image-keyboard-response","508","1550650","0.0-6.0-5.71","2596906","co38770","norming","","","","","","",""
"2794.700000000419","","","post_reveal_questions","survey-likert","509","1553447","0.0-6.0-6.71","2596906","co38770","norming","","","{""aha"":0}","[0]","../img/tt/1142tt.jpg","",""
"null","<div style=""font-size:60px;""> </div>","null","fixation","html-keyboard-response","510","1553649","0.0-6.0-0.72","2596906","co38770","norming","","","","","","",""
"null","../img/tt/380tt.jpg","null","mooney1","image-keyboard-response","511","1556653","0.0-6.0-1.72","2596906","co38770","norming","","","","","","",""
"5286.079999999842","","","post_mooney1_questions","survey-likert","512","1561943","0.0-6.0-2.72","2596906","co38770","norming","","","{""curiosity"":4,""confidence"":3}","[0,1]","../img/tt/380tt.jpg","",""
"2134.6600000006147","","","recognition","survey-text","513","1564079","0.0-6.0-3.72","2596906","co38770","norming","","","{""guess"":""vogel""}","","../img/tt/380tt.jpg","",""
"null","../img/gs/380gs.jpg","null","reveal","image-keyboard-response","514","1566086","0.0-6.0-4.72","2596906","co38770","norming","","","","","","",""
"null","../img/tt/380tt.jpg","null","mooney2","image-keyboard-response","515","1568093","0.0-6.0-5.72","2596906","co38770","norming","","","","","","",""
"5142.170000000158","","","post_reveal_questions","survey-likert","516","1573239","0.0-6.0-6.72","2596906","co38770","norming","","","{""aha"":2}","[0]","../img/tt/380tt.jpg","",""
"null","<div style=""font-size:60px;""> </div>","null","fixation","html-keyboard-response","517","1573449","0.0-6.0-0.73","2596906","co38770","norming","","","","","","",""
"null","../img/tt/1126tt.jpg","null","mooney1","image-keyboard-response","518","1576455","0.0-6.0-1.73","2596906","co38770","norming","","","","","","",""
"3524.649999999441","","","post_mooney1_questions","survey-likert","519","1579983","0.0-6.0-2.73","2596906","co38770","norming","","","{""curiosity"":2,""confidence"":5}","[0,1]","../img/tt/1126tt.jpg","",""
"4382.159999999916","","","recognition","survey-text","520","1584367","0.0-6.0-3.73","2596906","co38770","norming","","","{""guess"":""bergbeklimmer""}","","../img/tt/1126tt.jpg","",""
"null","../img/gs/1126gs.jpg","null","reveal","image-keyboard-response","521","1586369","0.0-6.0-4.73","2596906","co38770","norming","","","","","","",""
"null","../img/tt/1126tt.jpg","null","mooney2","image-keyboard-response","522","1588376","0.0-6.0-5.73","2596906","co38770","norming","","","","","","",""
"3994.760000000475","","","post_reveal_questions","survey-likert","523","1592375","0.0-6.0-6.73","2596906","co38770","norming","","","{""aha"":0}","[0]","../img/tt/1126tt.jpg","",""
"null","<div style=""font-size:60px;""> </div>","null","fixation","html-keyboard-response","524","1592584","0.0-6.0-0.74","2596906","co38770","norming","","","","","","",""
"null","../img/tt/108tt.jpg","null","mooney1","image-keyboard-response","525","1595594","0.0-6.0-1.74","2596906","co38770","norming","","","","","","",""
"5346.979999999283","","","post_mooney1_questions","survey-likert","526","1600945","0.0-6.0-2.74","2596906","co38770","norming","","","{""curiosity"":4,""confidence"":2}","[0,1]","../img/tt/108tt.jpg","",""
"1324.5450000003912","","","recognition","survey-text","527","1602271","0.0-6.0-3.74","2596906","co38770","norming","","","{""guess"":""dieren""}","","../img/tt/108tt.jpg","",""
"null","../img/gs/108gs.jpg","null","reveal","image-keyboard-response","528","1604279","0.0-6.0-4.74","2596906","co38770","norming","","","","","","",""
"null","../img/tt/108tt.jpg","null","mooney2","image-keyboard-response","529","1606287","0.0-6.0-5.74","2596906","co38770","norming","","","","","","",""
"2253.8099999991246","","","post_reveal_questions","survey-likert","530","1608539","0.0-6.0-6.74","2596906","co38770","norming","","","{""aha"":4}","[0]","../img/tt/108tt.jpg","",""
"null","<div style=""font-size:60px;""> </div>","null","fixation","html-keyboard-response","531","1608744","0.0-6.0-0.75","2596906","co38770","norming","","","","","","",""
"null","../img/tt/1262tt.jpg","null","mooney1","image-keyboard-response","532","1611747","0.0-6.0-1.75","2596906","co38770","norming","","","","","","",""
"3669.2000000001863","","","post_mooney1_questions","survey-likert","533","1615419","0.0-6.0-2.75","2596906","co38770","norming","","","{""curiosity"":4,""confidence"":4}","[0,1]","../img/tt/1262tt.jpg","",""
"1454.3549999999814","","","recognition","survey-text","534","1616875","0.0-6.0-3.75","2596906","co38770","norming","","","{""guess"":""panda""}","","../img/tt/1262tt.jpg","",""
"null","../img/gs/1262gs.jpg","null","reveal","image-keyboard-response","535","1618877","0.0-6.0-4.75","2596906","co38770","norming","","","","","","",""
"null","../img/tt/1262tt.jpg","null","mooney2","image-keyboard-response","536","1620879","0.0-6.0-5.75","2596906","co38770","norming","","","","","","",""
"2665.9600000001956","","","post_reveal_questions","survey-likert","537","1623547","0.0-6.0-6.75","2596906","co38770","norming","","","{""aha"":2}","[0]","../img/tt/1262tt.jpg","",""
"null","<div style=""font-size:60px;""> </div>","null","fixation","html-keyboard-response","538","1623756","0.0-6.0-0.76","2596906","co38770","norming","","","","","","",""
"null","../img/tt/1200tt.jpg","null","mooney1","image-keyboard-response","539","1626760","0.0-6.0-1.76","2596906","co38770","norming","","","","","","",""
"2553.284999999916","","","post_mooney1_questions","survey-likert","540","1629315","0.0-6.0-2.76","2596906","co38770","norming","","","{""curiosity"":1,""confidence"":6}","[0,1]","../img/tt/1200tt.jpg","",""
"6486.290000000037","","","recognition","survey-text","541","1635803","0.0-6.0-3.76","2596906","co38770","norming","","","{""guess"":""raceauto""}","","../img/tt/1200tt.jpg","",""
"null","../img/gs/1200gs.jpg","null","reveal","image-keyboard-response","542","1637811","0.0-6.0-4.76","2596906","co38770","norming","","","","","","",""
"null","../img/tt/1200tt.jpg","null","mooney2","image-keyboard-response","543","1639815","0.0-6.0-5.76","2596906","co38770","norming","","","","","","",""
"15258.979999999749","","","post_reveal_questions","survey-likert","544","1655075","0.0-6.0-6.76","2596906","co38770","norming","","","{""aha"":4}","[0]","../img/tt/1200tt.jpg","",""
"null","<div style=""font-size:60px;""> </div>","null","fixation","html-keyboard-response","545","1655279","0.0-6.0-0.77","2596906","co38770","norming","","","","","","",""
"null","../img/tt/085tt.jpg","null","mooney1","image-keyboard-response","546","1658283","0.0-6.0-1.77","2596906","co38770","norming","","","","","","",""
"4029.3149999997113","","","post_mooney1_questions","survey-likert","547","1662315","0.0-6.0-2.77","2596906","co38770","norming","","","{""curiosity"":5,""confidence"":2}","[0,1]","../img/tt/085tt.jpg","",""
"1902.1300000005867","","","recognition","survey-text","548","1664219","0.0-6.0-3.77","2596906","co38770","norming","","","{""guess"":""vogel""}","","../img/tt/085tt.jpg","",""
"null","../img/gs/085gs.jpg","null","reveal","image-keyboard-response","549","1666226","0.0-6.0-4.77","2596906","co38770","norming","","","","","","",""
"null","../img/tt/085tt.jpg","null","mooney2","image-keyboard-response","550","1668241","0.0-6.0-5.77","2596906","co38770","norming","","","","","","",""
"3322.265000000829","","","post_reveal_questions","survey-likert","551","1671566","0.0-6.0-6.77","2596906","co38770","norming","","","{""aha"":4}","[0]","../img/tt/085tt.jpg","",""
"null","<div style=""font-size:60px;""> </div>","null","fixation","html-keyboard-response","552","1671772","0.0-6.0-0.78","2596906","co38770","norming","","","","","","",""
