"rt","stimulus","key_press","test_part","trial_type","trial_index","time_elapsed","internal_node_id","totalTime","subject","experiment_name","button_pressed","success","responses","question_order","currentStim","old","correct"
"45032.200000000004","Welcome to the experiment. This is an online experiment so please don't close the tab/window until we say goodbye.  Press any key to begin.","32","instructions","html-keyboard-response","0","45041","0.0-0.0","2665354","co38674","norming","","","","","","",""
"33942.149999999994","<div style='word-wrap: break-word; width: 900px'><h3>Please consider this information carefully before deciding whether to participate in this research</h3><ul style='text-align: left; font-size: .8em;'><li><b>Purpose of the research</b>: To examine how people process images.</li><li><b>What you will do in this research</b>:  Stimuli (images) will be presented on the computer and you will be asked different questions about them.</li><li><b>Time required</b>: Participation will take between 45 and 60 minutes to complete.</li><li><b>Risks</b>:  There are no anticipated risks associated with participating in this study. The effects of participating should be comparable to those you would experience from viewing a computer monitor for 30 minutes and using a mouse or keyboard.</li><li><b>Benefits</b>:  This study provides no benefits to you individually except for the credit. The study provides important information about the nature of perception and learning.</li><li><b>Confidentiality</b>:  Your participation in this study will remain confidential. No personally identifiable information will be associated with your data. Your de-identified data may be shared with other researchers and used in future projects.</li><li><b>Participation and withdrawal</b>:  Your participation in this study is completely voluntary and you may refuse to participate or you may choose to withdraw at any time without penalty.</li><li><b>How to contact the researchers</b>: If you have questions or concerns about your participation or payment, or want to request a summary of research findings, please contact Sander Van de Cruys (KU Leuven), at sander.vandecruys@kuleuven.be.</li></ul><p>The nature and purpose of this research have been sufficiently explained and I agree to participate in this study.  I understand that I am free to withdraw at any time without incurring any penalty.</p><p>Please consent by clicking the button below to continue. Otherwise, please exit the study at this time.</p></div>","","instructions","html-button-response","1","78985","0.0-1.0","2665354","co38674","norming","0","","","","","",""
"","","","instructions","fullscreen","2","86960","0.0-2.0","2665354","co38674","norming","","true","","","","",""
"31831.829999999987","","","sona","survey-html-form","3","118797","0.0-3.0","2665354","co38674","norming","","","[{""name"":""sonaid"",""value"":""38674""},{""name"":""debrief"",""value"":""yes""},{""name"":""datajoin"",""value"":""yes""}]","","","",""
"57170.35499999998","<div style='word-wrap: break-word; width: 900px'><h3>Instructions</h3><p>This experiment will have 3 parts. In the first part you will see a series of distorted images like the one below on the left. As you can see in the righthand image, the distorted images are derived from actual photographs. In what follows, you will <strong>briefly</strong> be presented with <strong>only</strong> the distorted image.</p> <div style='float: left; margin-right: 20px;'><img src='../img/018tt.jpg' height='250' width='250'></img></div><div style='float: right; margin-left: 20px;'><img src='../img/018gs.jpg' height='250' width='250'></img></div><p>Subsequently you will be asked a few questions about the image: One question on how <strong>curious</strong> you are about the solution and one on how <strong>confident</strong> you are that you know the solution.</p>Next, we ask you to make a guess on what is in the image. Note that it is OK to name just the <strong>basic level category</strong>. For example when you see a parrot in the image, 'parrot' will obviously be a correct answer but also correct is 'bird'. However, 'animal' will <strong>not</strong> be counted as a correct response. For the example above, 'rose' would be correct or 'flower', but not 'plant'. When soccer players are depicted, 'soccer', 'football', 'soccer players' will be correct, but not 'humans', 'outdoors', or 'sports'. You do not need to describe the image in full, just name the main object in it <strong>in one or two words</strong>. All images depict objects from one of the following broad level categories: animals, inanimate objects, plants, sports, vehicles, and food. Recognizing means knowing <strong>more</strong> than these broad labels for a given image. But we always encourage you to <strong>make a guess</strong> if you can. Note that you are allowed to use <strong>Dutch and English</strong> in your answers, whatever comes easiest for you.</p><p>Press any key to continue.</p></div>","32","instructions","html-keyboard-response","4","175963","0.0-4.0","2665354","co38674","norming","","","","","","",""
"82863.185","<div style='word-wrap: break-word; width: 900px'><h3>Instructions</h3> <p>Next, the solution image will be revealed to you and you'll be asked to indicate how strong your <strong>aha-experience</strong> was after seeing the solution. This describes the positive feeling of the 'click' you sometimes experience, when the pieces of the 'puzzle' fall together and you suddenly have 'insight' in the image.</p><img src='aha.jpg' height='188' width='250'></img><p>Note that there are no right or wrong answers. We are interested in what <strong>you</strong> see in the image and how <strong>you</strong> feel about it.</p><p>Press any key to start the experiment.</p></div>","32","instructions","html-keyboard-response","5","258804","0.0-5.0","2665354","co38674","norming","","","","","","",""
"null","<div style=""font-size:60px;""> </div>","null","fixation","html-keyboard-response","6","259008","0.0-6.0-0.0","2665354","co38674","norming","","","","","","",""
"null","../img/tt/1012tt.jpg","null","mooney1","image-keyboard-response","7","262014","0.0-6.0-1.0","2665354","co38674","norming","","","","","","",""
"8037.97000000003","","","post_mooney1_questions","survey-likert","8","270053","0.0-6.0-2.0","2665354","co38674","norming","","","{""curiosity"":3,""confidence"":0}","[0,1]","../img/tt/1012tt.jpg","",""
"2732.859999999986","","","recognition","survey-text","9","272789","0.0-6.0-3.0","2665354","co38674","norming","","","{""guess"":""""}","","../img/tt/1012tt.jpg","",""
"null","../img/gs/1012gs.jpg","null","reveal","image-keyboard-response","10","274799","0.0-6.0-4.0","2665354","co38674","norming","","","","","","",""
"null","../img/tt/1012tt.jpg","null","mooney2","image-keyboard-response","11","276801","0.0-6.0-5.0","2665354","co38674","norming","","","","","","",""
"6842.690000000002","","","post_reveal_questions","survey-likert","12","283645","0.0-6.0-6.0","2665354","co38674","norming","","","{""aha"":5}","[0]","../img/tt/1012tt.jpg","",""
"null","<div style=""font-size:60px;""> </div>","null","fixation","html-keyboard-response","13","283857","0.0-6.0-0.1","2665354","co38674","norming","","","","","","",""
"null","../img/tt/049tt.jpg","null","mooney1","image-keyboard-response","14","286862","0.0-6.0-1.1","2665354","co38674","norming","","","","","","",""
"9612.86499999999","","","post_mooney1_questions","survey-likert","15","296477","0.0-6.0-2.1","2665354","co38674","norming","","","{""curiosity"":5,""confidence"":0}","[0,1]","../img/tt/049tt.jpg","",""
"1365.984999999986","","","recognition","survey-text","16","297845","0.0-6.0-3.1","2665354","co38674","norming","","","{""guess"":""""}","","../img/tt/049tt.jpg","",""
"null","../img/gs/049gs.jpg","null","reveal","image-keyboard-response","17","299855","0.0-6.0-4.1","2665354","co38674","norming","","","","","","",""
"null","../img/tt/049tt.jpg","null","mooney2","image-keyboard-response","18","301863","0.0-6.0-5.1","2665354","co38674","norming","","","","","","",""
"6707.959999999963","","","post_reveal_questions","survey-likert","19","308573","0.0-6.0-6.1","2665354","co38674","norming","","","{""aha"":3}","[0]","../img/tt/049tt.jpg","",""
"null","<div style=""font-size:60px;""> </div>","null","fixation","html-keyboard-response","20","308780","0.0-6.0-0.2","2665354","co38674","norming","","","","","","",""
"null","../img/tt/567tt.jpg","null","mooney1","image-keyboard-response","21","311783","0.0-6.0-1.2","2665354","co38674","norming","","","","","","",""
"6187.479999999981","","","post_mooney1_questions","survey-likert","22","317973","0.0-6.0-2.2","2665354","co38674","norming","","","{""curiosity"":4,""confidence"":0}","[0,1]","../img/tt/567tt.jpg","",""
"830.2150000000256","","","recognition","survey-text","23","318746","0.0-6.0-3.2","2665354","co38674","norming","","","{""guess"":""""}","","../img/tt/567tt.jpg","",""
"null","../img/gs/567gs.jpg","null","reveal","image-keyboard-response","24","320753","0.0-6.0-4.2","2665354","co38674","norming","","","","","","",""
"null","../img/tt/567tt.jpg","null","mooney2","image-keyboard-response","25","322756","0.0-6.0-5.2","2665354","co38674","norming","","","","","","",""
"3211.9599999999627","","","post_reveal_questions","survey-likert","26","325970","0.0-6.0-6.2","2665354","co38674","norming","","","{""aha"":2}","[0]","../img/tt/567tt.jpg","",""
"null","<div style=""font-size:60px;""> </div>","null","fixation","html-keyboard-response","27","326173","0.0-6.0-0.3","2665354","co38674","norming","","","","","","",""
"null","../img/tt/358tt.jpg","null","mooney1","image-keyboard-response","28","329179","0.0-6.0-1.3","2665354","co38674","norming","","","","","","",""
"5845.48000000004","","","post_mooney1_questions","survey-likert","29","335026","0.0-6.0-2.3","2665354","co38674","norming","","","{""curiosity"":4,""confidence"":2}","[0,1]","../img/tt/358tt.jpg","",""
"6854.339999999967","","","recognition","survey-text","30","341882","0.0-6.0-3.3","2665354","co38674","norming","","","{""guess"":""paard""}","","../img/tt/358tt.jpg","",""
"null","../img/gs/358gs.jpg","null","reveal","image-keyboard-response","31","343889","0.0-6.0-4.3","2665354","co38674","norming","","","","","","",""
"null","../img/tt/358tt.jpg","null","mooney2","image-keyboard-response","32","345897","0.0-6.0-5.3","2665354","co38674","norming","","","","","","",""
"2806.5800000000163","","","post_reveal_questions","survey-likert","33","348706","0.0-6.0-6.3","2665354","co38674","norming","","","{""aha"":4}","[0]","../img/tt/358tt.jpg","",""
"null","<div style=""font-size:60px;""> </div>","null","fixation","html-keyboard-response","34","348910","0.0-6.0-0.4","2665354","co38674","norming","","","","","","",""
"null","../img/tt/456tt.jpg","null","mooney1","image-keyboard-response","35","351921","0.0-6.0-1.4","2665354","co38674","norming","","","","","","",""
"5054.554999999993","","","post_mooney1_questions","survey-likert","36","356978","0.0-6.0-2.4","2665354","co38674","norming","","","{""curiosity"":5,""confidence"":0}","[0,1]","../img/tt/456tt.jpg","",""
"934.0999999999767","","","recognition","survey-text","37","357914","0.0-6.0-3.4","2665354","co38674","norming","","","{""guess"":""""}","","../img/tt/456tt.jpg","",""
"null","../img/gs/456gs.jpg","null","reveal","image-keyboard-response","38","359924","0.0-6.0-4.4","2665354","co38674","norming","","","","","","",""
"null","../img/tt/456tt.jpg","null","mooney2","image-keyboard-response","39","361929","0.0-6.0-5.4","2665354","co38674","norming","","","","","","",""
"3567.265000000014","","","post_reveal_questions","survey-likert","40","365498","0.0-6.0-6.4","2665354","co38674","norming","","","{""aha"":3}","[0]","../img/tt/456tt.jpg","",""
"null","<div style=""font-size:60px;""> </div>","null","fixation","html-keyboard-response","41","365699","0.0-6.0-0.5","2665354","co38674","norming","","","","","","",""
"null","../img/tt/079tt.jpg","null","mooney1","image-keyboard-response","42","368705","0.0-6.0-1.5","2665354","co38674","norming","","","","","","",""
"6086.999999999942","","","post_mooney1_questions","survey-likert","43","374794","0.0-6.0-2.5","2665354","co38674","norming","","","{""curiosity"":4,""confidence"":4}","[0,1]","../img/tt/079tt.jpg","",""
"4190.094999999972","","","recognition","survey-text","44","378930","0.0-6.0-3.5","2665354","co38674","norming","","","{""guess"":""beer""}","","../img/tt/079tt.jpg","",""
"null","../img/gs/079gs.jpg","null","reveal","image-keyboard-response","45","380933","0.0-6.0-4.5","2665354","co38674","norming","","","","","","",""
"null","../img/tt/079tt.jpg","null","mooney2","image-keyboard-response","46","382944","0.0-6.0-5.5","2665354","co38674","norming","","","","","","",""
"4320.359999999986","","","post_reveal_questions","survey-likert","47","387266","0.0-6.0-6.5","2665354","co38674","norming","","","{""aha"":3}","[0]","../img/tt/079tt.jpg","",""
"null","<div style=""font-size:60px;""> </div>","null","fixation","html-keyboard-response","48","387473","0.0-6.0-0.6","2665354","co38674","norming","","","","","","",""
"null","../img/tt/080tt.jpg","null","mooney1","image-keyboard-response","49","390476","0.0-6.0-1.6","2665354","co38674","norming","","","","","","",""
"6163.990000000049","","","post_mooney1_questions","survey-likert","50","396643","0.0-6.0-2.6","2665354","co38674","norming","","","{""curiosity"":5,""confidence"":0}","[0,1]","../img/tt/080tt.jpg","",""
"1093.9800000000978","","","recognition","survey-text","51","397738","0.0-6.0-3.6","2665354","co38674","norming","","","{""guess"":""""}","","../img/tt/080tt.jpg","",""
"null","../img/gs/080gs.jpg","null","reveal","image-keyboard-response","52","399742","0.0-6.0-4.6","2665354","co38674","norming","","","","","","",""
"null","../img/tt/080tt.jpg","null","mooney2","image-keyboard-response","53","401743","0.0-6.0-5.6","2665354","co38674","norming","","","","","","",""
"3176.8099999999395","","","post_reveal_questions","survey-likert","54","404922","0.0-6.0-6.6","2665354","co38674","norming","","","{""aha"":4}","[0]","../img/tt/080tt.jpg","",""
"null","<div style=""font-size:60px;""> </div>","null","fixation","html-keyboard-response","55","405124","0.0-6.0-0.7","2665354","co38674","norming","","","","","","",""
"null","../img/tt/406tt.jpg","null","mooney1","image-keyboard-response","56","408128","0.0-6.0-1.7","2665354","co38674","norming","","","","","","",""
"4223.489999999991","","","post_mooney1_questions","survey-likert","57","412355","0.0-6.0-2.7","2665354","co38674","norming","","","{""curiosity"":5,""confidence"":0}","[0,1]","../img/tt/406tt.jpg","",""
"886.1599999999162","","","recognition","survey-text","58","413242","0.0-6.0-3.7","2665354","co38674","norming","","","{""guess"":""""}","","../img/tt/406tt.jpg","",""
"null","../img/gs/406gs.jpg","null","reveal","image-keyboard-response","59","415245","0.0-6.0-4.7","2665354","co38674","norming","","","","","","",""
"null","../img/tt/406tt.jpg","null","mooney2","image-keyboard-response","60","417248","0.0-6.0-5.7","2665354","co38674","norming","","","","","","",""
"2631.7900000000373","","","post_reveal_questions","survey-likert","61","419882","0.0-6.0-6.7","2665354","co38674","norming","","","{""aha"":3}","[0]","../img/tt/406tt.jpg","",""
"null","<div style=""font-size:60px;""> </div>","null","fixation","html-keyboard-response","62","420085","0.0-6.0-0.8","2665354","co38674","norming","","","","","","",""
"null","../img/tt/020tt.jpg","null","mooney1","image-keyboard-response","63","423095","0.0-6.0-1.8","2665354","co38674","norming","","","","","","",""
"7800.780000000028","","","post_mooney1_questions","survey-likert","64","430898","0.0-6.0-2.8","2665354","co38674","norming","","","{""curiosity"":4,""confidence"":0}","[0,1]","../img/tt/020tt.jpg","",""
"678.140000000014","","","recognition","survey-text","65","431578","0.0-6.0-3.8","2665354","co38674","norming","","","{""guess"":""""}","","../img/tt/020tt.jpg","",""
"null","../img/gs/020gs.jpg","null","reveal","image-keyboard-response","66","433586","0.0-6.0-4.8","2665354","co38674","norming","","","","","","",""
"null","../img/tt/020tt.jpg","null","mooney2","image-keyboard-response","67","435598","0.0-6.0-5.8","2665354","co38674","norming","","","","","","",""
"4738.26999999996","","","post_reveal_questions","survey-likert","68","440286","0.0-6.0-6.8","2665354","co38674","norming","","","{""aha"":2}","[0]","../img/tt/020tt.jpg","",""
"null","<div style=""font-size:60px;""> </div>","null","fixation","html-keyboard-response","69","440495","0.0-6.0-0.9","2665354","co38674","norming","","","","","","",""
"null","../img/tt/082tt.jpg","null","mooney1","image-keyboard-response","70","443499","0.0-6.0-1.9","2665354","co38674","norming","","","","","","",""
"7818.489999999991","","","post_mooney1_questions","survey-likert","71","451318","0.0-6.0-2.9","2665354","co38674","norming","","","{""curiosity"":4,""confidence"":0}","[0,1]","../img/tt/082tt.jpg","",""
"2445.975000000093","","","recognition","survey-text","72","453766","0.0-6.0-3.9","2665354","co38674","norming","","","{""guess"":""""}","","../img/tt/082tt.jpg","",""
"null","../img/gs/082gs.jpg","null","reveal","image-keyboard-response","73","455773","0.0-6.0-4.9","2665354","co38674","norming","","","","","","",""
"null","../img/tt/082tt.jpg","null","mooney2","image-keyboard-response","74","457774","0.0-6.0-5.9","2665354","co38674","norming","","","","","","",""
"2965.0800000000745","","","post_reveal_questions","survey-likert","75","460742","0.0-6.0-6.9","2665354","co38674","norming","","","{""aha"":5}","[0]","../img/tt/082tt.jpg","",""
"null","<div style=""font-size:60px;""> </div>","null","fixation","html-keyboard-response","76","460946","0.0-6.0-0.10","2665354","co38674","norming","","","","","","",""
"null","../img/tt/1072tt.jpg","null","mooney1","image-keyboard-response","77","463954","0.0-6.0-1.10","2665354","co38674","norming","","","","","","",""
"6410.264999999956","","","post_mooney1_questions","survey-likert","78","470366","0.0-6.0-2.10","2665354","co38674","norming","","","{""curiosity"":4,""confidence"":3}","[0,1]","../img/tt/1072tt.jpg","",""
"3053.9099999999744","","","recognition","survey-text","79","473422","0.0-6.0-3.10","2665354","co38674","norming","","","{""guess"":""bank""}","","../img/tt/1072tt.jpg","",""
"null","../img/gs/1072gs.jpg","null","reveal","image-keyboard-response","80","475432","0.0-6.0-4.10","2665354","co38674","norming","","","","","","",""
"null","../img/tt/1072tt.jpg","null","mooney2","image-keyboard-response","81","477434","0.0-6.0-5.10","2665354","co38674","norming","","","","","","",""
"3682.4850000000442","","","post_reveal_questions","survey-likert","82","481118","0.0-6.0-6.10","2665354","co38674","norming","","","{""aha"":4}","[0]","../img/tt/1072tt.jpg","",""
"null","<div style=""font-size:60px;""> </div>","null","fixation","html-keyboard-response","83","481322","0.0-6.0-0.11","2665354","co38674","norming","","","","","","",""
"null","../img/tt/440tt.jpg","null","mooney1","image-keyboard-response","84","484331","0.0-6.0-1.11","2665354","co38674","norming","","","","","","",""
"7616.964999999909","","","post_mooney1_questions","survey-likert","85","491950","0.0-6.0-2.11","2665354","co38674","norming","","","{""curiosity"":4,""confidence"":0}","[0,1]","../img/tt/440tt.jpg","",""
"781.8300000000163","","","recognition","survey-text","86","492734","0.0-6.0-3.11","2665354","co38674","norming","","","{""guess"":""""}","","../img/tt/440tt.jpg","",""
"null","../img/gs/440gs.jpg","null","reveal","image-keyboard-response","87","494735","0.0-6.0-4.11","2665354","co38674","norming","","","","","","",""
"null","../img/tt/440tt.jpg","null","mooney2","image-keyboard-response","88","496742","0.0-6.0-5.11","2665354","co38674","norming","","","","","","",""
"6175.169999999984","","","post_reveal_questions","survey-likert","89","502860","0.0-6.0-6.11","2665354","co38674","norming","","","{""aha"":2}","[0]","../img/tt/440tt.jpg","",""
"null","<div style=""font-size:60px;""> </div>","null","fixation","html-keyboard-response","90","503067","0.0-6.0-0.12","2665354","co38674","norming","","","","","","",""
"null","../img/tt/1251tt.jpg","null","mooney1","image-keyboard-response","91","506078","0.0-6.0-1.12","2665354","co38674","norming","","","","","","",""
"3619.7299999999814","","","post_mooney1_questions","survey-likert","92","509700","0.0-6.0-2.12","2665354","co38674","norming","","","{""curiosity"":5,""confidence"":0}","[0,1]","../img/tt/1251tt.jpg","",""
"742.215000000142","","","recognition","survey-text","93","510444","0.0-6.0-3.12","2665354","co38674","norming","","","{""guess"":""""}","","../img/tt/1251tt.jpg","",""
"null","../img/gs/1251gs.jpg","null","reveal","image-keyboard-response","94","512445","0.0-6.0-4.12","2665354","co38674","norming","","","","","","",""
"null","../img/tt/1251tt.jpg","null","mooney2","image-keyboard-response","95","514455","0.0-6.0-5.12","2665354","co38674","norming","","","","","","",""
"3290.865000000049","","","post_reveal_questions","survey-likert","96","517748","0.0-6.0-6.12","2665354","co38674","norming","","","{""aha"":5}","[0]","../img/tt/1251tt.jpg","",""
"null","<div style=""font-size:60px;""> </div>","null","fixation","html-keyboard-response","97","517951","0.0-6.0-0.13","2665354","co38674","norming","","","","","","",""
"null","../img/tt/1122tt.jpg","null","mooney1","image-keyboard-response","98","520959","0.0-6.0-1.13","2665354","co38674","norming","","","","","","",""
"3995.039999999979","","","post_mooney1_questions","survey-likert","99","524956","0.0-6.0-2.13","2665354","co38674","norming","","","{""curiosity"":5,""confidence"":0}","[0,1]","../img/tt/1122tt.jpg","",""
"590.3800000000047","","","recognition","survey-text","100","525548","0.0-6.0-3.13","2665354","co38674","norming","","","{""guess"":""""}","","../img/tt/1122tt.jpg","",""
"null","../img/gs/1122gs.jpg","null","reveal","image-keyboard-response","101","527552","0.0-6.0-4.13","2665354","co38674","norming","","","","","","",""
"null","../img/tt/1122tt.jpg","null","mooney2","image-keyboard-response","102","529554","0.0-6.0-5.13","2665354","co38674","norming","","","","","","",""
"1832.5849999999627","","","post_reveal_questions","survey-likert","103","531388","0.0-6.0-6.13","2665354","co38674","norming","","","{""aha"":5}","[0]","../img/tt/1122tt.jpg","",""
"null","<div style=""font-size:60px;""> </div>","null","fixation","html-keyboard-response","104","531593","0.0-6.0-0.14","2665354","co38674","norming","","","","","","",""
"null","../img/tt/194tt.jpg","null","mooney1","image-keyboard-response","105","534603","0.0-6.0-1.14","2665354","co38674","norming","","","","","","",""
"11719.109999999986","","","post_mooney1_questions","survey-likert","106","546325","0.0-6.0-2.14","2665354","co38674","norming","","","{""curiosity"":3,""confidence"":3}","[0,1]","../img/tt/194tt.jpg","",""
"4742.160000000033","","","recognition","survey-text","107","551068","0.0-6.0-3.14","2665354","co38674","norming","","","{""guess"":""harp""}","","../img/tt/194tt.jpg","",""
"null","../img/gs/194gs.jpg","null","reveal","image-keyboard-response","108","553070","0.0-6.0-4.14","2665354","co38674","norming","","","","","","",""
"null","../img/tt/194tt.jpg","null","mooney2","image-keyboard-response","109","555077","0.0-6.0-5.14","2665354","co38674","norming","","","","","","",""
"3917.355000000098","","","post_reveal_questions","survey-likert","110","558996","0.0-6.0-6.14","2665354","co38674","norming","","","{""aha"":3}","[0]","../img/tt/194tt.jpg","",""
"null","<div style=""font-size:60px;""> </div>","null","fixation","html-keyboard-response","111","559207","0.0-6.0-0.15","2665354","co38674","norming","","","","","","",""
"null","../img/tt/032tt.jpg","null","mooney1","image-keyboard-response","112","562194","0.0-6.0-1.15","2665354","co38674","norming","","","","","","",""
"4447.510000000009","","","post_mooney1_questions","survey-likert","113","566644","0.0-6.0-2.15","2665354","co38674","norming","","","{""curiosity"":5,""confidence"":1}","[0,1]","../img/tt/032tt.jpg","",""
"3566.255000000121","","","recognition","survey-text","114","570212","0.0-6.0-3.15","2665354","co38674","norming","","","{""guess"":""beer""}","","../img/tt/032tt.jpg","",""
"null","../img/gs/032gs.jpg","null","reveal","image-keyboard-response","115","572222","0.0-6.0-4.15","2665354","co38674","norming","","","","","","",""
"null","../img/tt/032tt.jpg","null","mooney2","image-keyboard-response","116","574232","0.0-6.0-5.15","2665354","co38674","norming","","","","","","",""
"2762.8950000000186","","","post_reveal_questions","survey-likert","117","576996","0.0-6.0-6.15","2665354","co38674","norming","","","{""aha"":3}","[0]","../img/tt/032tt.jpg","",""
"null","<div style=""font-size:60px;""> </div>","null","fixation","html-keyboard-response","118","577203","0.0-6.0-0.16","2665354","co38674","norming","","","","","","",""
"null","../img/tt/1126tt.jpg","null","mooney1","image-keyboard-response","119","580214","0.0-6.0-1.16","2665354","co38674","norming","","","","","","",""
"5099.160000000033","","","post_mooney1_questions","survey-likert","120","585317","0.0-6.0-2.16","2665354","co38674","norming","","","{""curiosity"":5,""confidence"":0}","[0,1]","../img/tt/1126tt.jpg","",""
"1166.0299999999115","","","recognition","survey-text","121","586484","0.0-6.0-3.16","2665354","co38674","norming","","","{""guess"":""""}","","../img/tt/1126tt.jpg","",""
"null","../img/gs/1126gs.jpg","null","reveal","image-keyboard-response","122","588486","0.0-6.0-4.16","2665354","co38674","norming","","","","","","",""
"null","../img/tt/1126tt.jpg","null","mooney2","image-keyboard-response","123","590489","0.0-6.0-5.16","2665354","co38674","norming","","","","","","",""
"2257.1200000001118","","","post_reveal_questions","survey-likert","124","592749","0.0-6.0-6.16","2665354","co38674","norming","","","{""aha"":1}","[0]","../img/tt/1126tt.jpg","",""
"null","<div style=""font-size:60px;""> </div>","null","fixation","html-keyboard-response","125","592950","0.0-6.0-0.17","2665354","co38674","norming","","","","","","",""
"null","../img/tt/1262tt.jpg","null","mooney1","image-keyboard-response","126","595953","0.0-6.0-1.17","2665354","co38674","norming","","","","","","",""
"6808.965000000084","","","post_mooney1_questions","survey-likert","127","602765","0.0-6.0-2.17","2665354","co38674","norming","","","{""curiosity"":5,""confidence"":0}","[0,1]","../img/tt/1262tt.jpg","",""
"494.40500000002794","","","recognition","survey-text","128","603261","0.0-6.0-3.17","2665354","co38674","norming","","","{""guess"":""""}","","../img/tt/1262tt.jpg","",""
"null","../img/gs/1262gs.jpg","null","reveal","image-keyboard-response","129","605263","0.0-6.0-4.17","2665354","co38674","norming","","","","","","",""
"null","../img/tt/1262tt.jpg","null","mooney2","image-keyboard-response","130","607264","0.0-6.0-5.17","2665354","co38674","norming","","","","","","",""
"2490.0650000000605","","","post_reveal_questions","survey-likert","131","609757","0.0-6.0-6.17","2665354","co38674","norming","","","{""aha"":3}","[0]","../img/tt/1262tt.jpg","",""
"null","<div style=""font-size:60px;""> </div>","null","fixation","html-keyboard-response","132","609965","0.0-6.0-0.18","2665354","co38674","norming","","","","","","",""
"null","../img/tt/060tt.jpg","null","mooney1","image-keyboard-response","133","612977","0.0-6.0-1.18","2665354","co38674","norming","","","","","","",""
"4616.739999999874","","","post_mooney1_questions","survey-likert","134","617597","0.0-6.0-2.18","2665354","co38674","norming","","","{""curiosity"":5,""confidence"":1}","[0,1]","../img/tt/060tt.jpg","",""
"3734.0400000000373","","","recognition","survey-text","135","621332","0.0-6.0-3.18","2665354","co38674","norming","","","{""guess"":""kever""}","","../img/tt/060tt.jpg","",""
"null","../img/gs/060gs.jpg","null","reveal","image-keyboard-response","136","623334","0.0-6.0-4.18","2665354","co38674","norming","","","","","","",""
"null","../img/tt/060tt.jpg","null","mooney2","image-keyboard-response","137","625343","0.0-6.0-5.18","2665354","co38674","norming","","","","","","",""
"3467.515000000014","","","post_reveal_questions","survey-likert","138","628813","0.0-6.0-6.18","2665354","co38674","norming","","","{""aha"":4}","[0]","../img/tt/060tt.jpg","",""
"null","<div style=""font-size:60px;""> </div>","null","fixation","html-keyboard-response","139","629016","0.0-6.0-0.19","2665354","co38674","norming","","","","","","",""
"null","../img/tt/1199tt.jpg","null","mooney1","image-keyboard-response","140","632023","0.0-6.0-1.19","2665354","co38674","norming","","","","","","",""
"6251.165000000037","","","post_mooney1_questions","survey-likert","141","638277","0.0-6.0-2.19","2665354","co38674","norming","","","{""curiosity"":5,""confidence"":1}","[0,1]","../img/tt/1199tt.jpg","",""
"4838.215000000084","","","recognition","survey-text","142","643117","0.0-6.0-3.19","2665354","co38674","norming","","","{""guess"":""auto""}","","../img/tt/1199tt.jpg","",""
"null","../img/gs/1199gs.jpg","null","reveal","image-keyboard-response","143","645118","0.0-6.0-4.19","2665354","co38674","norming","","","","","","",""
"null","../img/tt/1199tt.jpg","null","mooney2","image-keyboard-response","144","647120","0.0-6.0-5.19","2665354","co38674","norming","","","","","","",""
"2289.8349999998463","","","post_reveal_questions","survey-likert","145","649412","0.0-6.0-6.19","2665354","co38674","norming","","","{""aha"":6}","[0]","../img/tt/1199tt.jpg","",""
"null","<div style=""font-size:60px;""> </div>","null","fixation","html-keyboard-response","146","649615","0.0-6.0-0.20","2665354","co38674","norming","","","","","","",""
"null","../img/tt/477tt.jpg","null","mooney1","image-keyboard-response","147","652624","0.0-6.0-1.20","2665354","co38674","norming","","","","","","",""
"4010.655000000028","","","post_mooney1_questions","survey-likert","148","656637","0.0-6.0-2.20","2665354","co38674","norming","","","{""curiosity"":5,""confidence"":0}","[0,1]","../img/tt/477tt.jpg","",""
"1126.0999999999767","","","recognition","survey-text","149","657764","0.0-6.0-3.20","2665354","co38674","norming","","","{""guess"":""""}","","../img/tt/477tt.jpg","",""
"null","../img/gs/477gs.jpg","null","reveal","image-keyboard-response","150","659767","0.0-6.0-4.20","2665354","co38674","norming","","","","","","",""
"null","../img/tt/477tt.jpg","null","mooney2","image-keyboard-response","151","661778","0.0-6.0-5.20","2665354","co38674","norming","","","","","","",""
"2808.454999999958","","","post_reveal_questions","survey-likert","152","664589","0.0-6.0-6.20","2665354","co38674","norming","","","{""aha"":3}","[0]","../img/tt/477tt.jpg","",""
"null","<div style=""font-size:60px;""> </div>","null","fixation","html-keyboard-response","153","664798","0.0-6.0-0.21","2665354","co38674","norming","","","","","","",""
"null","../img/tt/1261tt.jpg","null","mooney1","image-keyboard-response","154","667804","0.0-6.0-1.21","2665354","co38674","norming","","","","","","",""
"5789.945000000182","","","post_mooney1_questions","survey-likert","155","673597","0.0-6.0-2.21","2665354","co38674","norming","","","{""curiosity"":5,""confidence"":1}","[0,1]","../img/tt/1261tt.jpg","",""
"3054.064999999944","","","recognition","survey-text","156","676652","0.0-6.0-3.21","2665354","co38674","norming","","","{""guess"":""geit""}","","../img/tt/1261tt.jpg","",""
"null","../img/gs/1261gs.jpg","null","reveal","image-keyboard-response","157","678657","0.0-6.0-4.21","2665354","co38674","norming","","","","","","",""
"null","../img/tt/1261tt.jpg","null","mooney2","image-keyboard-response","158","680659","0.0-6.0-5.21","2665354","co38674","norming","","","","","","",""
"2496.4899999999907","","","post_reveal_questions","survey-likert","159","683156","0.0-6.0-6.21","2665354","co38674","norming","","","{""aha"":3}","[0]","../img/tt/1261tt.jpg","",""
"null","<div style=""font-size:60px;""> </div>","null","fixation","html-keyboard-response","160","683365","0.0-6.0-0.22","2665354","co38674","norming","","","","","","",""
"null","../img/tt/105tt.jpg","null","mooney1","image-keyboard-response","161","686374","0.0-6.0-1.22","2665354","co38674","norming","","","","","","",""
"5291.824999999953","","","post_mooney1_questions","survey-likert","162","691669","0.0-6.0-2.22","2665354","co38674","norming","","","{""curiosity"":5,""confidence"":0}","[0,1]","../img/tt/105tt.jpg","",""
"1037.969999999972","","","recognition","survey-text","163","692708","0.0-6.0-3.22","2665354","co38674","norming","","","{""guess"":""""}","","../img/tt/105tt.jpg","",""
"null","../img/gs/105gs.jpg","null","reveal","image-keyboard-response","164","694712","0.0-6.0-4.22","2665354","co38674","norming","","","","","","",""
"null","../img/tt/105tt.jpg","null","mooney2","image-keyboard-response","165","696716","0.0-6.0-5.22","2665354","co38674","norming","","","","","","",""
"2255.6199999999953","","","post_reveal_questions","survey-likert","166","698973","0.0-6.0-6.22","2665354","co38674","norming","","","{""aha"":3}","[0]","../img/tt/105tt.jpg","",""
"null","<div style=""font-size:60px;""> </div>","null","fixation","html-keyboard-response","167","699179","0.0-6.0-0.23","2665354","co38674","norming","","","","","","",""
"null","../img/tt/1097tt.jpg","null","mooney1","image-keyboard-response","168","702189","0.0-6.0-1.23","2665354","co38674","norming","","","","","","",""
"5996.435000000056","","","post_mooney1_questions","survey-likert","169","708189","0.0-6.0-2.23","2665354","co38674","norming","","","{""curiosity"":5,""confidence"":1}","[0,1]","../img/tt/1097tt.jpg","",""
"3078.344999999972","","","recognition","survey-text","170","711269","0.0-6.0-3.23","2665354","co38674","norming","","","{""guess"":""boer""}","","../img/tt/1097tt.jpg","",""
"null","../img/gs/1097gs.jpg","null","reveal","image-keyboard-response","171","713279","0.0-6.0-4.23","2665354","co38674","norming","","","","","","",""
"null","../img/tt/1097tt.jpg","null","mooney2","image-keyboard-response","172","715288","0.0-6.0-5.23","2665354","co38674","norming","","","","","","",""
"4122.7949999999255","","","post_reveal_questions","survey-likert","173","719413","0.0-6.0-6.23","2665354","co38674","norming","","","{""aha"":2}","[0]","../img/tt/1097tt.jpg","",""
"null","<div style=""font-size:60px;""> </div>","null","fixation","html-keyboard-response","174","719614","0.0-6.0-0.24","2665354","co38674","norming","","","","","","",""
"null","../img/tt/126tt.jpg","null","mooney1","image-keyboard-response","175","722618","0.0-6.0-1.24","2665354","co38674","norming","","","","","","",""
"4280.609999999986","","","post_mooney1_questions","survey-likert","176","726901","0.0-6.0-2.24","2665354","co38674","norming","","","{""curiosity"":5,""confidence"":0}","[0,1]","../img/tt/126tt.jpg","",""
"1030.0000000001164","","","recognition","survey-text","177","727933","0.0-6.0-3.24","2665354","co38674","norming","","","{""guess"":""""}","","../img/tt/126tt.jpg","",""
"null","../img/gs/126gs.jpg","null","reveal","image-keyboard-response","178","729935","0.0-6.0-4.24","2665354","co38674","norming","","","","","","",""
"null","../img/tt/126tt.jpg","null","mooney2","image-keyboard-response","179","731938","0.0-6.0-5.24","2665354","co38674","norming","","","","","","",""
"2376.844999999972","","","post_reveal_questions","survey-likert","180","734317","0.0-6.0-6.24","2665354","co38674","norming","","","{""aha"":2}","[0]","../img/tt/126tt.jpg","",""
"null","<div style=""font-size:60px;""> </div>","null","fixation","html-keyboard-response","181","734527","0.0-6.0-0.25","2665354","co38674","norming","","","","","","",""
"null","../img/tt/076tt.jpg","null","mooney1","image-keyboard-response","182","737530","0.0-6.0-1.25","2665354","co38674","norming","","","","","","",""
"4776.395000000019","","","post_mooney1_questions","survey-likert","183","742309","0.0-6.0-2.25","2665354","co38674","norming","","","{""curiosity"":5,""confidence"":0}","[0,1]","../img/tt/076tt.jpg","",""
"837.9450000000652","","","recognition","survey-text","184","743148","0.0-6.0-3.25","2665354","co38674","norming","","","{""guess"":""""}","","../img/tt/076tt.jpg","",""
"null","../img/gs/076gs.jpg","null","reveal","image-keyboard-response","185","745154","0.0-6.0-4.25","2665354","co38674","norming","","","","","","",""
"null","../img/tt/076tt.jpg","null","mooney2","image-keyboard-response","186","747162","0.0-6.0-5.25","2665354","co38674","norming","","","","","","",""
"2889.8000000000466","","","post_reveal_questions","survey-likert","187","750053","0.0-6.0-6.25","2665354","co38674","norming","","","{""aha"":6}","[0]","../img/tt/076tt.jpg","",""
"null","<div style=""font-size:60px;""> </div>","null","fixation","html-keyboard-response","188","750259","0.0-6.0-0.26","2665354","co38674","norming","","","","","","",""
"null","../img/tt/1228tt.jpg","null","mooney1","image-keyboard-response","189","753271","0.0-6.0-1.26","2665354","co38674","norming","","","","","","",""
"4851.175000000047","","","post_mooney1_questions","survey-likert","190","758125","0.0-6.0-2.26","2665354","co38674","norming","","","{""curiosity"":4,""confidence"":3}","[0,1]","../img/tt/1228tt.jpg","",""
"2758.170000000042","","","recognition","survey-text","191","760885","0.0-6.0-3.26","2665354","co38674","norming","","","{""guess"":""vogel""}","","../img/tt/1228tt.jpg","",""
"null","../img/gs/1228gs.jpg","null","reveal","image-keyboard-response","192","762889","0.0-6.0-4.26","2665354","co38674","norming","","","","","","",""
"null","../img/tt/1228tt.jpg","null","mooney2","image-keyboard-response","193","764892","0.0-6.0-5.26","2665354","co38674","norming","","","","","","",""
"1966.155000000028","","","post_reveal_questions","survey-likert","194","766861","0.0-6.0-6.26","2665354","co38674","norming","","","{""aha"":2}","[0]","../img/tt/1228tt.jpg","",""
"null","<div style=""font-size:60px;""> </div>","null","fixation","html-keyboard-response","195","767062","0.0-6.0-0.27","2665354","co38674","norming","","","","","","",""
"null","../img/tt/1096tt.jpg","null","mooney1","image-keyboard-response","196","770073","0.0-6.0-1.27","2665354","co38674","norming","","","","","","",""
"4160.589999999967","","","post_mooney1_questions","survey-likert","197","774237","0.0-6.0-2.27","2665354","co38674","norming","","","{""curiosity"":4,""confidence"":0}","[0,1]","../img/tt/1096tt.jpg","",""
"469.9199999999255","","","recognition","survey-text","198","774708","0.0-6.0-3.27","2665354","co38674","norming","","","{""guess"":""""}","","../img/tt/1096tt.jpg","",""
"null","../img/gs/1096gs.jpg","null","reveal","image-keyboard-response","199","776718","0.0-6.0-4.27","2665354","co38674","norming","","","","","","",""
"null","../img/tt/1096tt.jpg","null","mooney2","image-keyboard-response","200","778720","0.0-6.0-5.27","2665354","co38674","norming","","","","","","",""
"1931.780000000028","","","post_reveal_questions","survey-likert","201","780652","0.0-6.0-6.27","2665354","co38674","norming","","","{""aha"":2}","[0]","../img/tt/1096tt.jpg","",""
"null","<div style=""font-size:60px;""> </div>","null","fixation","html-keyboard-response","202","780863","0.0-6.0-0.28","2665354","co38674","norming","","","","","","",""
"null","../img/tt/1175tt.jpg","null","mooney1","image-keyboard-response","203","783867","0.0-6.0-1.28","2665354","co38674","norming","","","","","","",""
"2671.3249999999534","","","post_mooney1_questions","survey-likert","204","786541","0.0-6.0-2.28","2665354","co38674","norming","","","{""curiosity"":6,""confidence"":0}","[0,1]","../img/tt/1175tt.jpg","",""
"926.0850000000792","","","recognition","survey-text","205","787469","0.0-6.0-3.28","2665354","co38674","norming","","","{""guess"":""""}","","../img/tt/1175tt.jpg","",""
"null","../img/gs/1175gs.jpg","null","reveal","image-keyboard-response","206","789470","0.0-6.0-4.28","2665354","co38674","norming","","","","","","",""
"null","../img/tt/1175tt.jpg","null","mooney2","image-keyboard-response","207","791479","0.0-6.0-5.28","2665354","co38674","norming","","","","","","",""
"2884.954999999958","","","post_reveal_questions","survey-likert","208","794365","0.0-6.0-6.28","2665354","co38674","norming","","","{""aha"":3}","[0]","../img/tt/1175tt.jpg","",""
"null","<div style=""font-size:60px;""> </div>","null","fixation","html-keyboard-response","209","794571","0.0-6.0-0.29","2665354","co38674","norming","","","","","","",""
"null","../img/tt/1070tt.jpg","null","mooney1","image-keyboard-response","210","797581","0.0-6.0-1.29","2665354","co38674","norming","","","","","","",""
"3078.545000000042","","","post_mooney1_questions","survey-likert","211","800661","0.0-6.0-2.29","2665354","co38674","norming","","","{""curiosity"":5,""confidence"":0}","[0,1]","../img/tt/1070tt.jpg","",""
"678.2149999999674","","","recognition","survey-text","212","801341","0.0-6.0-3.29","2665354","co38674","norming","","","{""guess"":""""}","","../img/tt/1070tt.jpg","",""
"null","../img/gs/1070gs.jpg","null","reveal","image-keyboard-response","213","803346","0.0-6.0-4.29","2665354","co38674","norming","","","","","","",""
"null","../img/tt/1070tt.jpg","null","mooney2","image-keyboard-response","214","805348","0.0-6.0-5.29","2665354","co38674","norming","","","","","","",""
"1878.2300000000978","","","post_reveal_questions","survey-likert","215","807229","0.0-6.0-6.29","2665354","co38674","norming","","","{""aha"":5}","[0]","../img/tt/1070tt.jpg","",""
"null","<div style=""font-size:60px;""> </div>","null","fixation","html-keyboard-response","216","807433","0.0-6.0-0.30","2665354","co38674","norming","","","","","","",""
"null","../img/tt/1006tt.jpg","null","mooney1","image-keyboard-response","217","810437","0.0-6.0-1.30","2665354","co38674","norming","","","","","","",""
"4453.635000000009","","","post_mooney1_questions","survey-likert","218","814893","0.0-6.0-2.30","2665354","co38674","norming","","","{""curiosity"":5,""confidence"":1}","[0,1]","../img/tt/1006tt.jpg","",""
"3606.0050000000047","","","recognition","survey-text","219","818501","0.0-6.0-3.30","2665354","co38674","norming","","","{""guess"":""bergen""}","","../img/tt/1006tt.jpg","",""
"null","../img/gs/1006gs.jpg","null","reveal","image-keyboard-response","220","820511","0.0-6.0-4.30","2665354","co38674","norming","","","","","","",""
"null","../img/tt/1006tt.jpg","null","mooney2","image-keyboard-response","221","822513","0.0-6.0-5.30","2665354","co38674","norming","","","","","","",""
"1585.1999999999534","","","post_reveal_questions","survey-likert","222","824101","0.0-6.0-6.30","2665354","co38674","norming","","","{""aha"":5}","[0]","../img/tt/1006tt.jpg","",""
"null","<div style=""font-size:60px;""> </div>","null","fixation","html-keyboard-response","223","824309","0.0-6.0-0.31","2665354","co38674","norming","","","","","","",""
"null","../img/tt/098tt.jpg","null","mooney1","image-keyboard-response","224","827312","0.0-6.0-1.31","2665354","co38674","norming","","","","","","",""
"2977.8549999999814","","","post_mooney1_questions","survey-likert","225","830293","0.0-6.0-2.31","2665354","co38674","norming","","","{""curiosity"":5,""confidence"":0}","[0,1]","../img/tt/098tt.jpg","",""
"934.3399999999674","","","recognition","survey-text","226","831229","0.0-6.0-3.31","2665354","co38674","norming","","","{""guess"":""""}","","../img/tt/098tt.jpg","",""
"null","../img/gs/098gs.jpg","null","reveal","image-keyboard-response","227","833233","0.0-6.0-4.31","2665354","co38674","norming","","","","","","",""
"null","../img/tt/098tt.jpg","null","mooney2","image-keyboard-response","228","835236","0.0-6.0-5.31","2665354","co38674","norming","","","","","","",""
"1646.8550000000978","","","post_reveal_questions","survey-likert","229","836885","0.0-6.0-6.31","2665354","co38674","norming","","","{""aha"":4}","[0]","../img/tt/098tt.jpg","",""
"null","<div style=""font-size:60px;""> </div>","null","fixation","html-keyboard-response","230","837088","0.0-6.0-0.32","2665354","co38674","norming","","","","","","",""
"null","../img/tt/1127tt.jpg","null","mooney1","image-keyboard-response","231","840093","0.0-6.0-1.32","2665354","co38674","norming","","","","","","",""
"7046.034999999916","","","post_mooney1_questions","survey-likert","232","847141","0.0-6.0-2.32","2665354","co38674","norming","","","{""curiosity"":4,""confidence"":1}","[0,1]","../img/tt/1127tt.jpg","",""
"6629.564999999944","","","recognition","survey-text","233","853773","0.0-6.0-3.32","2665354","co38674","norming","","","{""guess"":""dans""}","","../img/tt/1127tt.jpg","",""
"null","../img/gs/1127gs.jpg","null","reveal","image-keyboard-response","234","855775","0.0-6.0-4.32","2665354","co38674","norming","","","","","","",""
"null","../img/tt/1127tt.jpg","null","mooney2","image-keyboard-response","235","857785","0.0-6.0-5.32","2665354","co38674","norming","","","","","","",""
"2465.25","","","post_reveal_questions","survey-likert","236","860253","0.0-6.0-6.32","2665354","co38674","norming","","","{""aha"":5}","[0]","../img/tt/1127tt.jpg","",""
"null","<div style=""font-size:60px;""> </div>","null","fixation","html-keyboard-response","237","860457","0.0-6.0-0.33","2665354","co38674","norming","","","","","","",""
"null","../img/tt/1227tt.jpg","null","mooney1","image-keyboard-response","238","863460","0.0-6.0-1.33","2665354","co38674","norming","","","","","","",""
"4078.079999999958","","","post_mooney1_questions","survey-likert","239","867541","0.0-6.0-2.33","2665354","co38674","norming","","","{""curiosity"":5,""confidence"":1}","[0,1]","../img/tt/1227tt.jpg","",""
"3662.1249999998836","","","recognition","survey-text","240","871205","0.0-6.0-3.33","2665354","co38674","norming","","","{""guess"":""kippen""}","","../img/tt/1227tt.jpg","",""
"null","../img/gs/1227gs.jpg","null","reveal","image-keyboard-response","241","873212","0.0-6.0-4.33","2665354","co38674","norming","","","","","","",""
"null","../img/tt/1227tt.jpg","null","mooney2","image-keyboard-response","242","875222","0.0-6.0-5.33","2665354","co38674","norming","","","","","","",""
"2916.890000000014","","","post_reveal_questions","survey-likert","243","878141","0.0-6.0-6.33","2665354","co38674","norming","","","{""aha"":5}","[0]","../img/tt/1227tt.jpg","",""
"null","<div style=""font-size:60px;""> </div>","null","fixation","html-keyboard-response","244","878351","0.0-6.0-0.34","2665354","co38674","norming","","","","","","",""
"null","../img/tt/378tt.jpg","null","mooney1","image-keyboard-response","245","881360","0.0-6.0-1.34","2665354","co38674","norming","","","","","","",""
"3809.804999999935","","","post_mooney1_questions","survey-likert","246","885173","0.0-6.0-2.34","2665354","co38674","norming","","","{""curiosity"":5,""confidence"":0}","[0,1]","../img/tt/378tt.jpg","",""
"1182.0550000000512","","","recognition","survey-text","247","886357","0.0-6.0-3.34","2665354","co38674","norming","","","{""guess"":""""}","","../img/tt/378tt.jpg","",""
"null","../img/gs/378gs.jpg","null","reveal","image-keyboard-response","248","888366","0.0-6.0-4.34","2665354","co38674","norming","","","","","","",""
"null","../img/tt/378tt.jpg","null","mooney2","image-keyboard-response","249","890369","0.0-6.0-5.34","2665354","co38674","norming","","","","","","",""
"1345.6749999999302","","","post_reveal_questions","survey-likert","250","891717","0.0-6.0-6.34","2665354","co38674","norming","","","{""aha"":2}","[0]","../img/tt/378tt.jpg","",""
"null","<div style=""font-size:60px;""> </div>","null","fixation","html-keyboard-response","251","891918","0.0-6.0-0.35","2665354","co38674","norming","","","","","","",""
"null","../img/tt/112tt.jpg","null","mooney1","image-keyboard-response","252","894926","0.0-6.0-1.35","2665354","co38674","norming","","","","","","",""
"7796.0800000000745","","","post_mooney1_questions","survey-likert","253","902725","0.0-6.0-2.35","2665354","co38674","norming","","","{""curiosity"":4,""confidence"":3}","[0,1]","../img/tt/112tt.jpg","",""
"4126.194999999949","","","recognition","survey-text","254","906853","0.0-6.0-3.35","2665354","co38674","norming","","","{""guess"":""vogel""}","","../img/tt/112tt.jpg","",""
"null","../img/gs/112gs.jpg","null","reveal","image-keyboard-response","255","908861","0.0-6.0-4.35","2665354","co38674","norming","","","","","","",""
"null","../img/tt/112tt.jpg","null","mooney2","image-keyboard-response","256","910865","0.0-6.0-5.35","2665354","co38674","norming","","","","","","",""
"2465.0950000000885","","","post_reveal_questions","survey-likert","257","913333","0.0-6.0-6.35","2665354","co38674","norming","","","{""aha"":6}","[0]","../img/tt/112tt.jpg","",""
"null","<div style=""font-size:60px;""> </div>","null","fixation","html-keyboard-response","258","913536","0.0-6.0-0.36","2665354","co38674","norming","","","","","","",""
"null","../img/tt/1061tt.jpg","null","mooney1","image-keyboard-response","259","916538","0.0-6.0-1.36","2665354","co38674","norming","","","","","","",""
"4735.859999999986","","","post_mooney1_questions","survey-likert","260","921277","0.0-6.0-2.36","2665354","co38674","norming","","","{""curiosity"":5,""confidence"":1}","[0,1]","../img/tt/1061tt.jpg","",""
"2773.6399999998976","","","recognition","survey-text","261","924053","0.0-6.0-3.36","2665354","co38674","norming","","","{""guess"":""park""}","","../img/tt/1061tt.jpg","",""
"null","../img/gs/1061gs.jpg","null","reveal","image-keyboard-response","262","926054","0.0-6.0-4.36","2665354","co38674","norming","","","","","","",""
"null","../img/tt/1061tt.jpg","null","mooney2","image-keyboard-response","263","928062","0.0-6.0-5.36","2665354","co38674","norming","","","","","","",""
"1853.990000000107","","","post_reveal_questions","survey-likert","264","929917","0.0-6.0-6.36","2665354","co38674","norming","","","{""aha"":5}","[0]","../img/tt/1061tt.jpg","",""
"null","<div style=""font-size:60px;""> </div>","null","fixation","html-keyboard-response","265","930120","0.0-6.0-0.37","2665354","co38674","norming","","","","","","",""
"null","../img/tt/1254tt.jpg","null","mooney1","image-keyboard-response","266","933130","0.0-6.0-1.37","2665354","co38674","norming","","","","","","",""
"5714.005000000121","","","post_mooney1_questions","survey-likert","267","938845","0.0-6.0-2.37","2665354","co38674","norming","","","{""curiosity"":5,""confidence"":0}","[0,1]","../img/tt/1254tt.jpg","",""
"653.5799999999581","","","recognition","survey-text","268","939501","0.0-6.0-3.37","2665354","co38674","norming","","","{""guess"":""""}","","../img/tt/1254tt.jpg","",""
"null","../img/gs/1254gs.jpg","null","reveal","image-keyboard-response","269","941502","0.0-6.0-4.37","2665354","co38674","norming","","","","","","",""
"null","../img/tt/1254tt.jpg","null","mooney2","image-keyboard-response","270","943505","0.0-6.0-5.37","2665354","co38674","norming","","","","","","",""
"1651.1750000000466","","","post_reveal_questions","survey-likert","271","945157","0.0-6.0-6.37","2665354","co38674","norming","","","{""aha"":2}","[0]","../img/tt/1254tt.jpg","",""
"null","<div style=""font-size:60px;""> </div>","null","fixation","html-keyboard-response","272","945367","0.0-6.0-0.38","2665354","co38674","norming","","","","","","",""
"null","../img/tt/279tt.jpg","null","mooney1","image-keyboard-response","273","948368","0.0-6.0-1.38","2665354","co38674","norming","","","","","","",""
"5699.89000000013","","","post_mooney1_questions","survey-likert","274","954069","0.0-6.0-2.38","2665354","co38674","norming","","","{""curiosity"":3,""confidence"":5}","[0,1]","../img/tt/279tt.jpg","",""
"3741.954999999958","","","recognition","survey-text","275","957813","0.0-6.0-3.38","2665354","co38674","norming","","","{""guess"":""kaola""}","","../img/tt/279tt.jpg","",""
"null","../img/gs/279gs.jpg","null","reveal","image-keyboard-response","276","959817","0.0-6.0-4.38","2665354","co38674","norming","","","","","","",""
"null","../img/tt/279tt.jpg","null","mooney2","image-keyboard-response","277","961819","0.0-6.0-5.38","2665354","co38674","norming","","","","","","",""
"5081.579999999725","","","post_reveal_questions","survey-likert","278","966901","0.0-6.0-6.38","2665354","co38674","norming","","","{""aha"":3}","[0]","../img/tt/279tt.jpg","",""
"null","<div style=""font-size:60px;""> </div>","null","fixation","html-keyboard-response","279","967103","0.0-6.0-0.39","2665354","co38674","norming","","","","","","",""
"null","../img/tt/1309tt.jpg","null","mooney1","image-keyboard-response","280","970109","0.0-6.0-1.39","2665354","co38674","norming","","","","","","",""
"3503.7500000001164","","","post_mooney1_questions","survey-likert","281","973614","0.0-6.0-2.39","2665354","co38674","norming","","","{""curiosity"":4,""confidence"":1}","[0,1]","../img/tt/1309tt.jpg","",""
"2717.8399999999674","","","recognition","survey-text","282","976333","0.0-6.0-3.39","2665354","co38674","norming","","","{""guess"":""bos""}","","../img/tt/1309tt.jpg","",""
"null","../img/gs/1309gs.jpg","null","reveal","image-keyboard-response","283","978339","0.0-6.0-4.39","2665354","co38674","norming","","","","","","",""
"null","../img/tt/1309tt.jpg","null","mooney2","image-keyboard-response","284","980341","0.0-6.0-5.39","2665354","co38674","norming","","","","","","",""
"3942.3649999998743","","","post_reveal_questions","survey-likert","285","984285","0.0-6.0-6.39","2665354","co38674","norming","","","{""aha"":3}","[0]","../img/tt/1309tt.jpg","",""
"null","<div style=""font-size:60px;""> </div>","null","fixation","html-keyboard-response","286","984487","0.0-6.0-0.40","2665354","co38674","norming","","","","","","",""
"null","../img/tt/1276tt.jpg","null","mooney1","image-keyboard-response","287","987494","0.0-6.0-1.40","2665354","co38674","norming","","","","","","",""
"3804.2949999999255","","","post_mooney1_questions","survey-likert","288","991302","0.0-6.0-2.40","2665354","co38674","norming","","","{""curiosity"":4,""confidence"":0}","[0,1]","../img/tt/1276tt.jpg","",""
"558.104999999865","","","recognition","survey-text","289","991862","0.0-6.0-3.40","2665354","co38674","norming","","","{""guess"":""""}","","../img/tt/1276tt.jpg","",""
"null","../img/gs/1276gs.jpg","null","reveal","image-keyboard-response","290","993863","0.0-6.0-4.40","2665354","co38674","norming","","","","","","",""
"null","../img/tt/1276tt.jpg","null","mooney2","image-keyboard-response","291","995868","0.0-6.0-5.40","2665354","co38674","norming","","","","","","",""
"3479.3549999999814","","","post_reveal_questions","survey-likert","292","999350","0.0-6.0-6.40","2665354","co38674","norming","","","{""aha"":5}","[0]","../img/tt/1276tt.jpg","",""
"null","<div style=""font-size:60px;""> </div>","null","fixation","html-keyboard-response","293","999561","0.0-6.0-0.41","2665354","co38674","norming","","","","","","",""
"null","../img/tt/124tt.jpg","null","mooney1","image-keyboard-response","294","1002565","0.0-6.0-1.41","2665354","co38674","norming","","","","","","",""
"3582.774999999907","","","post_mooney1_questions","survey-likert","295","1006150","0.0-6.0-2.41","2665354","co38674","norming","","","{""curiosity"":4,""confidence"":1}","[0,1]","../img/tt/124tt.jpg","",""
"2758.0949999998556","","","recognition","survey-text","296","1008910","0.0-6.0-3.41","2665354","co38674","norming","","","{""guess"":""mol""}","","../img/tt/124tt.jpg","",""
"null","../img/gs/124gs.jpg","null","reveal","image-keyboard-response","297","1010913","0.0-6.0-4.41","2665354","co38674","norming","","","","","","",""
"null","../img/tt/124tt.jpg","null","mooney2","image-keyboard-response","298","1012915","0.0-6.0-5.41","2665354","co38674","norming","","","","","","",""
"1561.2450000001118","","","post_reveal_questions","survey-likert","299","1014478","0.0-6.0-6.41","2665354","co38674","norming","","","{""aha"":5}","[0]","../img/tt/124tt.jpg","",""
"null","<div style=""font-size:60px;""> </div>","null","fixation","html-keyboard-response","300","1014681","0.0-6.0-0.42","2665354","co38674","norming","","","","","","",""
"null","../img/tt/013tt.jpg","null","mooney1","image-keyboard-response","301","1017683","0.0-6.0-1.42","2665354","co38674","norming","","","","","","",""
"2896.819999999949","","","post_mooney1_questions","survey-likert","302","1020582","0.0-6.0-2.42","2665354","co38674","norming","","","{""curiosity"":5,""confidence"":0}","[0,1]","../img/tt/013tt.jpg","",""
"742.1749999998137","","","recognition","survey-text","303","1021326","0.0-6.0-3.42","2665354","co38674","norming","","","{""guess"":""""}","","../img/tt/013tt.jpg","",""
"null","../img/gs/013gs.jpg","null","reveal","image-keyboard-response","304","1023333","0.0-6.0-4.42","2665354","co38674","norming","","","","","","",""
"null","../img/tt/013tt.jpg","null","mooney2","image-keyboard-response","305","1025336","0.0-6.0-5.42","2665354","co38674","norming","","","","","","",""
"2218.845000000205","","","post_reveal_questions","survey-likert","306","1027558","0.0-6.0-6.42","2665354","co38674","norming","","","{""aha"":5}","[0]","../img/tt/013tt.jpg","",""
"null","<div style=""font-size:60px;""> </div>","null","fixation","html-keyboard-response","307","1027759","0.0-6.0-0.43","2665354","co38674","norming","","","","","","",""
"null","../img/tt/1024tt.jpg","null","mooney1","image-keyboard-response","308","1030763","0.0-6.0-1.43","2665354","co38674","norming","","","","","","",""
"4842.444999999949","","","post_mooney1_questions","survey-likert","309","1035607","0.0-6.0-2.43","2665354","co38674","norming","","","{""curiosity"":5,""confidence"":0}","[0,1]","../img/tt/1024tt.jpg","",""
"806.0049999998882","","","recognition","survey-text","310","1036414","0.0-6.0-3.43","2665354","co38674","norming","","","{""guess"":""""}","","../img/tt/1024tt.jpg","",""
"null","../img/gs/1024gs.jpg","null","reveal","image-keyboard-response","311","1038419","0.0-6.0-4.43","2665354","co38674","norming","","","","","","",""
"null","../img/tt/1024tt.jpg","null","mooney2","image-keyboard-response","312","1040422","0.0-6.0-5.43","2665354","co38674","norming","","","","","","",""
"2325.5599999999395","","","post_reveal_questions","survey-likert","313","1042750","0.0-6.0-6.43","2665354","co38674","norming","","","{""aha"":1}","[0]","../img/tt/1024tt.jpg","",""
"null","<div style=""font-size:60px;""> </div>","null","fixation","html-keyboard-response","314","1042956","0.0-6.0-0.44","2665354","co38674","norming","","","","","","",""
"null","../img/tt/1040tt.jpg","null","mooney1","image-keyboard-response","315","1045963","0.0-6.0-1.44","2665354","co38674","norming","","","","","","",""
"5191.914999999921","","","post_mooney1_questions","survey-likert","316","1051154","0.0-6.0-2.44","2665354","co38674","norming","","","{""curiosity"":5,""confidence"":0}","[0,1]","../img/tt/1040tt.jpg","",""
"742.1149999999907","","","recognition","survey-text","317","1051898","0.0-6.0-3.44","2665354","co38674","norming","","","{""guess"":""""}","","../img/tt/1040tt.jpg","",""
"null","../img/gs/1040gs.jpg","null","reveal","image-keyboard-response","318","1053904","0.0-6.0-4.44","2665354","co38674","norming","","","","","","",""
"null","../img/tt/1040tt.jpg","null","mooney2","image-keyboard-response","319","1055906","0.0-6.0-5.44","2665354","co38674","norming","","","","","","",""
"2572.685000000056","","","post_reveal_questions","survey-likert","320","1058482","0.0-6.0-6.44","2665354","co38674","norming","","","{""aha"":4}","[0]","../img/tt/1040tt.jpg","",""
"null","<div style=""font-size:60px;""> </div>","null","fixation","html-keyboard-response","321","1058690","0.0-6.0-0.45","2665354","co38674","norming","","","","","","",""
"null","../img/tt/1123tt.jpg","null","mooney1","image-keyboard-response","322","1061692","0.0-6.0-1.45","2665354","co38674","norming","","","","","","",""
"4851.564999999944","","","post_mooney1_questions","survey-likert","323","1066547","0.0-6.0-2.45","2665354","co38674","norming","","","{""curiosity"":4,""confidence"":1}","[0,1]","../img/tt/1123tt.jpg","",""
"3181.695000000065","","","recognition","survey-text","324","1069730","0.0-6.0-3.45","2665354","co38674","norming","","","{""guess"":""bal""}","","../img/tt/1123tt.jpg","",""
"null","../img/gs/1123gs.jpg","null","reveal","image-keyboard-response","325","1071738","0.0-6.0-4.45","2665354","co38674","norming","","","","","","",""
"null","../img/tt/1123tt.jpg","null","mooney2","image-keyboard-response","326","1073740","0.0-6.0-5.45","2665354","co38674","norming","","","","","","",""
"1316.565000000177","","","post_reveal_questions","survey-likert","327","1075058","0.0-6.0-6.45","2665354","co38674","norming","","","{""aha"":5}","[0]","../img/tt/1123tt.jpg","",""
"null","<div style=""font-size:60px;""> </div>","null","fixation","html-keyboard-response","328","1075265","0.0-6.0-0.46","2665354","co38674","norming","","","","","","",""
"null","../img/tt/1027tt.jpg","null","mooney1","image-keyboard-response","329","1078268","0.0-6.0-1.46","2665354","co38674","norming","","","","","","",""
"5379.600000000093","","","post_mooney1_questions","survey-likert","330","1083651","0.0-6.0-2.46","2665354","co38674","norming","","","{""curiosity"":3,""confidence"":5}","[0,1]","../img/tt/1027tt.jpg","",""
"2525.970000000205","","","recognition","survey-text","331","1086178","0.0-6.0-3.46","2665354","co38674","norming","","","{""guess"":""koe""}","","../img/tt/1027tt.jpg","",""
"null","../img/gs/1027gs.jpg","null","reveal","image-keyboard-response","332","1088180","0.0-6.0-4.46","2665354","co38674","norming","","","","","","",""
"null","../img/tt/1027tt.jpg","null","mooney2","image-keyboard-response","333","1090182","0.0-6.0-5.46","2665354","co38674","norming","","","","","","",""
"3523.4850000001024","","","post_reveal_questions","survey-likert","334","1093707","0.0-6.0-6.46","2665354","co38674","norming","","","{""aha"":3}","[0]","../img/tt/1027tt.jpg","",""
"null","<div style=""font-size:60px;""> </div>","null","fixation","html-keyboard-response","335","1093914","0.0-6.0-0.47","2665354","co38674","norming","","","","","","",""
"null","../img/tt/1004tt.jpg","null","mooney1","image-keyboard-response","336","1096922","0.0-6.0-1.47","2665354","co38674","norming","","","","","","",""
"3229.405000000028","","","post_mooney1_questions","survey-likert","337","1100155","0.0-6.0-2.47","2665354","co38674","norming","","","{""curiosity"":5,""confidence"":0}","[0,1]","../img/tt/1004tt.jpg","",""
"453.35000000009313","","","recognition","survey-text","338","1100610","0.0-6.0-3.47","2665354","co38674","norming","","","{""guess"":""""}","","../img/tt/1004tt.jpg","",""
"null","../img/gs/1004gs.jpg","null","reveal","image-keyboard-response","339","1102613","0.0-6.0-4.47","2665354","co38674","norming","","","","","","",""
"null","../img/tt/1004tt.jpg","null","mooney2","image-keyboard-response","340","1104616","0.0-6.0-5.47","2665354","co38674","norming","","","","","","",""
"2191.9799999999814","","","post_reveal_questions","survey-likert","341","1106810","0.0-6.0-6.47","2665354","co38674","norming","","","{""aha"":1}","[0]","../img/tt/1004tt.jpg","",""
"null","<div style=""font-size:60px;""> </div>","null","fixation","html-keyboard-response","342","1107012","0.0-6.0-0.48","2665354","co38674","norming","","","","","","",""
"null","../img/tt/096tt.jpg","null","mooney1","image-keyboard-response","343","1110024","0.0-6.0-1.48","2665354","co38674","norming","","","","","","",""
"5015.770000000019","","","post_mooney1_questions","survey-likert","344","1115043","0.0-6.0-2.48","2665354","co38674","norming","","","{""curiosity"":3,""confidence"":5}","[0,1]","../img/tt/096tt.jpg","",""
"2926.2150000003166","","","recognition","survey-text","345","1117971","0.0-6.0-3.48","2665354","co38674","norming","","","{""guess"":""piano""}","","../img/tt/096tt.jpg","",""
"null","../img/gs/096gs.jpg","null","reveal","image-keyboard-response","346","1119978","0.0-6.0-4.48","2665354","co38674","norming","","","","","","",""
"null","../img/tt/096tt.jpg","null","mooney2","image-keyboard-response","347","1121980","0.0-6.0-5.48","2665354","co38674","norming","","","","","","",""
"2044.405000000028","","","post_reveal_questions","survey-likert","348","1124027","0.0-6.0-6.48","2665354","co38674","norming","","","{""aha"":3}","[0]","../img/tt/096tt.jpg","",""
"null","<div style=""font-size:60px;""> </div>","null","fixation","html-keyboard-response","349","1124237","0.0-6.0-0.49","2665354","co38674","norming","","","","","","",""
"null","../img/tt/1107tt.jpg","null","mooney1","image-keyboard-response","350","1127242","0.0-6.0-1.49","2665354","co38674","norming","","","","","","",""
"4581.899999999907","","","post_mooney1_questions","survey-likert","351","1131827","0.0-6.0-2.49","2665354","co38674","norming","","","{""curiosity"":5,""confidence"":0}","[0,1]","../img/tt/1107tt.jpg","",""
"2206.0749999999534","","","recognition","survey-text","352","1134035","0.0-6.0-3.49","2665354","co38674","norming","","","{""guess"":""""}","","../img/tt/1107tt.jpg","",""
"null","../img/gs/1107gs.jpg","null","reveal","image-keyboard-response","353","1136045","0.0-6.0-4.49","2665354","co38674","norming","","","","","","",""
"null","../img/tt/1107tt.jpg","null","mooney2","image-keyboard-response","354","1138047","0.0-6.0-5.49","2665354","co38674","norming","","","","","","",""
"1753.3549999999814","","","post_reveal_questions","survey-likert","355","1139803","0.0-6.0-6.49","2665354","co38674","norming","","","{""aha"":0}","[0]","../img/tt/1107tt.jpg","",""
"null","<div style=""font-size:60px;""> </div>","null","fixation","html-keyboard-response","356","1140007","0.0-6.0-0.50","2665354","co38674","norming","","","","","","",""
"null","../img/tt/468tt.jpg","null","mooney1","image-keyboard-response","357","1143010","0.0-6.0-1.50","2665354","co38674","norming","","","","","","",""
"5212.964999999851","","","post_mooney1_questions","survey-likert","358","1148227","0.0-6.0-2.50","2665354","co38674","norming","","","{""curiosity"":3,""confidence"":5}","[0,1]","../img/tt/468tt.jpg","",""
"4022.2900000000373","","","recognition","survey-text","359","1152251","0.0-6.0-3.50","2665354","co38674","norming","","","{""guess"":""viool""}","","../img/tt/468tt.jpg","",""
"null","../img/gs/468gs.jpg","null","reveal","image-keyboard-response","360","1154254","0.0-6.0-4.50","2665354","co38674","norming","","","","","","",""
"null","../img/tt/468tt.jpg","null","mooney2","image-keyboard-response","361","1156257","0.0-6.0-5.50","2665354","co38674","norming","","","","","","",""
"1208.0149999998976","","","post_reveal_questions","survey-likert","362","1157467","0.0-6.0-6.50","2665354","co38674","norming","","","{""aha"":2}","[0]","../img/tt/468tt.jpg","",""
"null","<div style=""font-size:60px;""> </div>","null","fixation","html-keyboard-response","363","1157673","0.0-6.0-0.51","2665354","co38674","norming","","","","","","",""
"null","../img/tt/1151tt.jpg","null","mooney1","image-keyboard-response","364","1160676","0.0-6.0-1.51","2665354","co38674","norming","","","","","","",""
"3022.2949999999255","","","post_mooney1_questions","survey-likert","365","1163699","0.0-6.0-2.51","2665354","co38674","norming","","","{""curiosity"":5,""confidence"":0}","[0,1]","../img/tt/1151tt.jpg","",""
"598.2050000000745","","","recognition","survey-text","366","1164299","0.0-6.0-3.51","2665354","co38674","norming","","","{""guess"":""""}","","../img/tt/1151tt.jpg","",""
"null","../img/gs/1151gs.jpg","null","reveal","image-keyboard-response","367","1166301","0.0-6.0-4.51","2665354","co38674","norming","","","","","","",""
"null","../img/tt/1151tt.jpg","null","mooney2","image-keyboard-response","368","1168310","0.0-6.0-5.51","2665354","co38674","norming","","","","","","",""
"2499.0500000000466","","","post_reveal_questions","survey-likert","369","1170811","0.0-6.0-6.51","2665354","co38674","norming","","","{""aha"":2}","[0]","../img/tt/1151tt.jpg","",""
"null","<div style=""font-size:60px;""> </div>","null","fixation","html-keyboard-response","370","1171013","0.0-6.0-0.52","2665354","co38674","norming","","","","","","",""
"null","../img/tt/534tt.jpg","null","mooney1","image-keyboard-response","371","1174031","0.0-6.0-1.52","2665354","co38674","norming","","","","","","",""
"3722.844999999972","","","post_mooney1_questions","survey-likert","372","1177757","0.0-6.0-2.52","2665354","co38674","norming","","","{""curiosity"":5,""confidence"":0}","[0,1]","../img/tt/534tt.jpg","",""
"1374.154999999795","","","recognition","survey-text","373","1179132","0.0-6.0-3.52","2665354","co38674","norming","","","{""guess"":""""}","","../img/tt/534tt.jpg","",""
"null","../img/gs/534gs.jpg","null","reveal","image-keyboard-response","374","1181137","0.0-6.0-4.52","2665354","co38674","norming","","","","","","",""
"null","../img/tt/534tt.jpg","null","mooney2","image-keyboard-response","375","1183141","0.0-6.0-5.52","2665354","co38674","norming","","","","","","",""
"1933.1850000000559","","","post_reveal_questions","survey-likert","376","1185076","0.0-6.0-6.52","2665354","co38674","norming","","","{""aha"":3}","[0]","../img/tt/534tt.jpg","",""
"null","<div style=""font-size:60px;""> </div>","null","fixation","html-keyboard-response","377","1185280","0.0-6.0-0.53","2665354","co38674","norming","","","","","","",""
"null","../img/tt/1181tt.jpg","null","mooney1","image-keyboard-response","378","1188286","0.0-6.0-1.53","2665354","co38674","norming","","","","","","",""
"5043.819999999832","","","post_mooney1_questions","survey-likert","379","1193333","0.0-6.0-2.53","2665354","co38674","norming","","","{""curiosity"":5,""confidence"":0}","[0,1]","../img/tt/1181tt.jpg","",""
"942.2150000000838","","","recognition","survey-text","380","1194277","0.0-6.0-3.53","2665354","co38674","norming","","","{""guess"":""""}","","../img/tt/1181tt.jpg","",""
"null","../img/gs/1181gs.jpg","null","reveal","image-keyboard-response","381","1196282","0.0-6.0-4.53","2665354","co38674","norming","","","","","","",""
"null","../img/tt/1181tt.jpg","null","mooney2","image-keyboard-response","382","1198285","0.0-6.0-5.53","2665354","co38674","norming","","","","","","",""
"4301.200000000186","","","post_reveal_questions","survey-likert","383","1202588","0.0-6.0-6.53","2665354","co38674","norming","","","{""aha"":4}","[0]","../img/tt/1181tt.jpg","",""
"null","<div style=""font-size:60px;""> </div>","null","fixation","html-keyboard-response","384","1202790","0.0-6.0-0.54","2665354","co38674","norming","","","","","","",""
"null","../img/tt/222tt.jpg","null","mooney1","image-keyboard-response","385","1205791","0.0-6.0-1.54","2665354","co38674","norming","","","","","","",""
"4282.635000000009","","","post_mooney1_questions","survey-likert","386","1210077","0.0-6.0-2.54","2665354","co38674","norming","","","{""curiosity"":5,""confidence"":0}","[0,1]","../img/tt/222tt.jpg","",""
"790.1400000001304","","","recognition","survey-text","387","1210868","0.0-6.0-3.54","2665354","co38674","norming","","","{""guess"":""""}","","../img/tt/222tt.jpg","",""
"null","../img/gs/222gs.jpg","null","reveal","image-keyboard-response","388","1212870","0.0-6.0-4.54","2665354","co38674","norming","","","","","","",""
"null","../img/tt/222tt.jpg","null","mooney2","image-keyboard-response","389","1214880","0.0-6.0-5.54","2665354","co38674","norming","","","","","","",""
"2137.679999999935","","","post_reveal_questions","survey-likert","390","1217021","0.0-6.0-6.54","2665354","co38674","norming","","","{""aha"":1}","[0]","../img/tt/222tt.jpg","",""
"null","<div style=""font-size:60px;""> </div>","null","fixation","html-keyboard-response","391","1217229","0.0-6.0-0.55","2665354","co38674","norming","","","","","","",""
"null","../img/tt/085tt.jpg","null","mooney1","image-keyboard-response","392","1220235","0.0-6.0-1.55","2665354","co38674","norming","","","","","","",""
"5878.239999999991","","","post_mooney1_questions","survey-likert","393","1226117","0.0-6.0-2.55","2665354","co38674","norming","","","{""curiosity"":5,""confidence"":0}","[0,1]","../img/tt/085tt.jpg","",""
"1429.9450000000652","","","recognition","survey-text","394","1227548","0.0-6.0-3.55","2665354","co38674","norming","","","{""guess"":""""}","","../img/tt/085tt.jpg","",""
"null","../img/gs/085gs.jpg","null","reveal","image-keyboard-response","395","1229555","0.0-6.0-4.55","2665354","co38674","norming","","","","","","",""
"null","../img/tt/085tt.jpg","null","mooney2","image-keyboard-response","396","1231557","0.0-6.0-5.55","2665354","co38674","norming","","","","","","",""
"1653.3549999999814","","","post_reveal_questions","survey-likert","397","1233213","0.0-6.0-6.55","2665354","co38674","norming","","","{""aha"":1}","[0]","../img/tt/085tt.jpg","",""
"null","<div style=""font-size:60px;""> </div>","null","fixation","html-keyboard-response","398","1233417","0.0-6.0-0.56","2665354","co38674","norming","","","","","","",""
"null","../img/tt/1196tt.jpg","null","mooney1","image-keyboard-response","399","1236425","0.0-6.0-1.56","2665354","co38674","norming","","","","","","",""
"3890.439999999944","","","post_mooney1_questions","survey-likert","400","1240319","0.0-6.0-2.56","2665354","co38674","norming","","","{""curiosity"":5,""confidence"":0}","[0,1]","../img/tt/1196tt.jpg","",""
"894.315000000177","","","recognition","survey-text","401","1241215","0.0-6.0-3.56","2665354","co38674","norming","","","{""guess"":""""}","","../img/tt/1196tt.jpg","",""
"null","../img/gs/1196gs.jpg","null","reveal","image-keyboard-response","402","1243217","0.0-6.0-4.56","2665354","co38674","norming","","","","","","",""
"null","../img/tt/1196tt.jpg","null","mooney2","image-keyboard-response","403","1245219","0.0-6.0-5.56","2665354","co38674","norming","","","","","","",""
"2491.5100000000093","","","post_reveal_questions","survey-likert","404","1247711","0.0-6.0-6.56","2665354","co38674","norming","","","{""aha"":4}","[0]","../img/tt/1196tt.jpg","",""
"null","<div style=""font-size:60px;""> </div>","null","fixation","html-keyboard-response","405","1247915","0.0-6.0-0.57","2665354","co38674","norming","","","","","","",""
"null","../img/tt/1046tt.jpg","null","mooney1","image-keyboard-response","406","1250918","0.0-6.0-1.57","2665354","co38674","norming","","","","","","",""
"7133.135000000009","","","post_mooney1_questions","survey-likert","407","1258055","0.0-6.0-2.57","2665354","co38674","norming","","","{""curiosity"":5,""confidence"":0}","[0,1]","../img/tt/1046tt.jpg","",""
"1526.1249999997672","","","recognition","survey-text","408","1259582","0.0-6.0-3.57","2665354","co38674","norming","","","{""guess"":""""}","","../img/tt/1046tt.jpg","",""
"null","../img/gs/1046gs.jpg","null","reveal","image-keyboard-response","409","1261584","0.0-6.0-4.57","2665354","co38674","norming","","","","","","",""
"null","../img/tt/1046tt.jpg","null","mooney2","image-keyboard-response","410","1263587","0.0-6.0-5.57","2665354","co38674","norming","","","","","","",""
"2521.3349999999627","","","post_reveal_questions","survey-likert","411","1266111","0.0-6.0-6.57","2665354","co38674","norming","","","{""aha"":0}","[0]","../img/tt/1046tt.jpg","",""
"null","<div style=""font-size:60px;""> </div>","null","fixation","html-keyboard-response","412","1266316","0.0-6.0-0.58","2665354","co38674","norming","","","","","","",""
"null","../img/tt/416tt.jpg","null","mooney1","image-keyboard-response","413","1269323","0.0-6.0-1.58","2665354","co38674","norming","","","","","","",""
"3248.524999999907","","","post_mooney1_questions","survey-likert","414","1272575","0.0-6.0-2.58","2665354","co38674","norming","","","{""curiosity"":5,""confidence"":2}","[0,1]","../img/tt/416tt.jpg","",""
"4501.685000000289","","","recognition","survey-text","415","1277078","0.0-6.0-3.58","2665354","co38674","norming","","","{""guess"":""paard""}","","../img/tt/416tt.jpg","",""
"null","../img/gs/416gs.jpg","null","reveal","image-keyboard-response","416","1279084","0.0-6.0-4.58","2665354","co38674","norming","","","","","","",""
"null","../img/tt/416tt.jpg","null","mooney2","image-keyboard-response","417","1281086","0.0-6.0-5.58","2665354","co38674","norming","","","","","","",""
"1693.9450000000652","","","post_reveal_questions","survey-likert","418","1282783","0.0-6.0-6.58","2665354","co38674","norming","","","{""aha"":2}","[0]","../img/tt/416tt.jpg","",""
"null","<div style=""font-size:60px;""> </div>","null","fixation","html-keyboard-response","419","1282987","0.0-6.0-0.59","2665354","co38674","norming","","","","","","",""
"null","../img/tt/1048tt.jpg","null","mooney1","image-keyboard-response","420","1285993","0.0-6.0-1.59","2665354","co38674","norming","","","","","","",""
"3170.5150000001304","","","post_mooney1_questions","survey-likert","421","1289167","0.0-6.0-2.59","2665354","co38674","norming","","","{""curiosity"":5,""confidence"":0}","[0,1]","../img/tt/1048tt.jpg","",""
"1254.1299999998882","","","recognition","survey-text","422","1290422","0.0-6.0-3.59","2665354","co38674","norming","","","{""guess"":""""}","","../img/tt/1048tt.jpg","",""
"null","../img/gs/1048gs.jpg","null","reveal","image-keyboard-response","423","1292429","0.0-6.0-4.59","2665354","co38674","norming","","","","","","",""
"null","../img/tt/1048tt.jpg","null","mooney2","image-keyboard-response","424","1294438","0.0-6.0-5.59","2665354","co38674","norming","","","","","","",""
"1990.065000000177","","","post_reveal_questions","survey-likert","425","1296423","0.0-6.0-6.59","2665354","co38674","norming","","","{""aha"":1}","[0]","../img/tt/1048tt.jpg","",""
"null","<div style=""font-size:60px;""> </div>","null","fixation","html-keyboard-response","426","1296626","0.0-6.0-0.60","2665354","co38674","norming","","","","","","",""
"null","../img/tt/357tt.jpg","null","mooney1","image-keyboard-response","427","1299630","0.0-6.0-1.60","2665354","co38674","norming","","","","","","",""
"3757.685000000056","","","post_mooney1_questions","survey-likert","428","1303391","0.0-6.0-2.60","2665354","co38674","norming","","","{""curiosity"":6,""confidence"":0}","[0,1]","../img/tt/357tt.jpg","",""
"1173.8300000000745","","","recognition","survey-text","429","1304567","0.0-6.0-3.60","2665354","co38674","norming","","","{""guess"":""""}","","../img/tt/357tt.jpg","",""
"null","../img/gs/357gs.jpg","null","reveal","image-keyboard-response","430","1306577","0.0-6.0-4.60","2665354","co38674","norming","","","","","","",""
"null","../img/tt/357tt.jpg","null","mooney2","image-keyboard-response","431","1308588","0.0-6.0-5.60","2665354","co38674","norming","","","","","","",""
"1905.0100000000093","","","post_reveal_questions","survey-likert","432","1310495","0.0-6.0-6.60","2665354","co38674","norming","","","{""aha"":1}","[0]","../img/tt/357tt.jpg","",""
"null","<div style=""font-size:60px;""> </div>","null","fixation","html-keyboard-response","433","1310697","0.0-6.0-0.61","2665354","co38674","norming","","","","","","",""
"null","../img/tt/1043tt.jpg","null","mooney1","image-keyboard-response","434","1313703","0.0-6.0-1.61","2665354","co38674","norming","","","","","","",""
"3340.465000000084","","","post_mooney1_questions","survey-likert","435","1317047","0.0-6.0-2.61","2665354","co38674","norming","","","{""curiosity"":5,""confidence"":0}","[0,1]","../img/tt/1043tt.jpg","",""
"1246.0649999997113","","","recognition","survey-text","436","1318295","0.0-6.0-3.61","2665354","co38674","norming","","","{""guess"":""""}","","../img/tt/1043tt.jpg","",""
"null","../img/gs/1043gs.jpg","null","reveal","image-keyboard-response","437","1320305","0.0-6.0-4.61","2665354","co38674","norming","","","","","","",""
"null","../img/tt/1043tt.jpg","null","mooney2","image-keyboard-response","438","1322315","0.0-6.0-5.61","2665354","co38674","norming","","","","","","",""
"1657.7050000000745","","","post_reveal_questions","survey-likert","439","1323975","0.0-6.0-6.61","2665354","co38674","norming","","","{""aha"":2}","[0]","../img/tt/1043tt.jpg","",""
"null","<div style=""font-size:60px;""> </div>","null","fixation","html-keyboard-response","440","1324183","0.0-6.0-0.62","2665354","co38674","norming","","","","","","",""
"null","../img/tt/121tt.jpg","null","mooney1","image-keyboard-response","441","1327189","0.0-6.0-1.62","2665354","co38674","norming","","","","","","",""
"9830.889999999898","","","post_mooney1_questions","survey-likert","442","1337023","0.0-6.0-2.62","2665354","co38674","norming","","","{""curiosity"":5,""confidence"":0}","[0,1]","../img/tt/121tt.jpg","",""
"877.9799999999814","","","recognition","survey-text","443","1337903","0.0-6.0-3.62","2665354","co38674","norming","","","{""guess"":""""}","","../img/tt/121tt.jpg","",""
"null","../img/gs/121gs.jpg","null","reveal","image-keyboard-response","444","1339906","0.0-6.0-4.62","2665354","co38674","norming","","","","","","",""
"null","../img/tt/121tt.jpg","null","mooney2","image-keyboard-response","445","1341908","0.0-6.0-5.62","2665354","co38674","norming","","","","","","",""
"2696.5150000001304","","","post_reveal_questions","survey-likert","446","1344607","0.0-6.0-6.62","2665354","co38674","norming","","","{""aha"":5}","[0]","../img/tt/121tt.jpg","",""
"null","<div style=""font-size:60px;""> </div>","null","fixation","html-keyboard-response","447","1344813","0.0-6.0-0.63","2665354","co38674","norming","","","","","","",""
"null","../img/tt/1188tt.jpg","null","mooney1","image-keyboard-response","448","1347823","0.0-6.0-1.63","2665354","co38674","norming","","","","","","",""
"3773.469999999972","","","post_mooney1_questions","survey-likert","449","1351599","0.0-6.0-2.63","2665354","co38674","norming","","","{""curiosity"":5,""confidence"":0}","[0,1]","../img/tt/1188tt.jpg","",""
"1294.1049999999814","","","recognition","survey-text","450","1352895","0.0-6.0-3.63","2665354","co38674","norming","","","{""guess"":""""}","","../img/tt/1188tt.jpg","",""
"null","../img/gs/1188gs.jpg","null","reveal","image-keyboard-response","451","1354902","0.0-6.0-4.63","2665354","co38674","norming","","","","","","",""
"null","../img/tt/1188tt.jpg","null","mooney2","image-keyboard-response","452","1356914","0.0-6.0-5.63","2665354","co38674","norming","","","","","","",""
"2267.0400000000373","","","post_reveal_questions","survey-likert","453","1359183","0.0-6.0-6.63","2665354","co38674","norming","","","{""aha"":4}","[0]","../img/tt/1188tt.jpg","",""
"null","<div style=""font-size:60px;""> </div>","null","fixation","html-keyboard-response","454","1359390","0.0-6.0-0.64","2665354","co38674","norming","","","","","","",""
"null","../img/tt/515tt.jpg","null","mooney1","image-keyboard-response","455","1362403","0.0-6.0-1.64","2665354","co38674","norming","","","","","","",""
"3473.2050000000745","","","post_mooney1_questions","survey-likert","456","1365879","0.0-6.0-2.64","2665354","co38674","norming","","","{""curiosity"":5,""confidence"":0}","[0,1]","../img/tt/515tt.jpg","",""
"1086.1350000000093","","","recognition","survey-text","457","1366967","0.0-6.0-3.64","2665354","co38674","norming","","","{""guess"":""""}","","../img/tt/515tt.jpg","",""
"null","../img/gs/515gs.jpg","null","reveal","image-keyboard-response","458","1368974","0.0-6.0-4.64","2665354","co38674","norming","","","","","","",""
"null","../img/tt/515tt.jpg","null","mooney2","image-keyboard-response","459","1370982","0.0-6.0-5.64","2665354","co38674","norming","","","","","","",""
"2222.5400000000373","","","post_reveal_questions","survey-likert","460","1373207","0.0-6.0-6.64","2665354","co38674","norming","","","{""aha"":4}","[0]","../img/tt/515tt.jpg","",""
"null","<div style=""font-size:60px;""> </div>","null","fixation","html-keyboard-response","461","1373412","0.0-6.0-0.65","2665354","co38674","norming","","","","","","",""
"null","../img/tt/418tt.jpg","null","mooney1","image-keyboard-response","462","1376420","0.0-6.0-1.65","2665354","co38674","norming","","","","","","",""
"3591.3499999998603","","","post_mooney1_questions","survey-likert","463","1380015","0.0-6.0-2.65","2665354","co38674","norming","","","{""curiosity"":5,""confidence"":1}","[0,1]","../img/tt/418tt.jpg","",""
"7126.334999999963","","","recognition","survey-text","464","1387143","0.0-6.0-3.65","2665354","co38674","norming","","","{""guess"":""vliegtuig""}","","../img/tt/418tt.jpg","",""
"null","../img/gs/418gs.jpg","null","reveal","image-keyboard-response","465","1389153","0.0-6.0-4.65","2665354","co38674","norming","","","","","","",""
"null","../img/tt/418tt.jpg","null","mooney2","image-keyboard-response","466","1391161","0.0-6.0-5.65","2665354","co38674","norming","","","","","","",""
"6243.514999999898","","","post_reveal_questions","survey-likert","467","1397407","0.0-6.0-6.65","2665354","co38674","norming","","","{""aha"":2}","[0]","../img/tt/418tt.jpg","",""
"null","<div style=""font-size:60px;""> </div>","null","fixation","html-keyboard-response","468","1397609","0.0-6.0-0.66","2665354","co38674","norming","","","","","","",""
"null","../img/tt/1091tt.jpg","null","mooney1","image-keyboard-response","469","1400616","0.0-6.0-1.66","2665354","co38674","norming","","","","","","",""
"5324.180000000168","","","post_mooney1_questions","survey-likert","470","1405944","0.0-6.0-2.66","2665354","co38674","norming","","","{""curiosity"":5,""confidence"":1}","[0,1]","../img/tt/1091tt.jpg","",""
"3533.8249999999534","","","recognition","survey-text","471","1409479","0.0-6.0-3.66","2665354","co38674","norming","","","{""guess"":""paard""}","","../img/tt/1091tt.jpg","",""
"null","../img/gs/1091gs.jpg","null","reveal","image-keyboard-response","472","1411482","0.0-6.0-4.66","2665354","co38674","norming","","","","","","",""
"null","../img/tt/1091tt.jpg","null","mooney2","image-keyboard-response","473","1413484","0.0-6.0-5.66","2665354","co38674","norming","","","","","","",""
"1906.714999999851","","","post_reveal_questions","survey-likert","474","1415391","0.0-6.0-6.66","2665354","co38674","norming","","","{""aha"":4}","[0]","../img/tt/1091tt.jpg","",""
"null","<div style=""font-size:60px;""> </div>","null","fixation","html-keyboard-response","475","1415600","0.0-6.0-0.67","2665354","co38674","norming","","","","","","",""
"null","../img/tt/319tt.jpg","null","mooney1","image-keyboard-response","476","1418605","0.0-6.0-1.67","2665354","co38674","norming","","","","","","",""
"5023.209999999963","","","post_mooney1_questions","survey-likert","477","1423631","0.0-6.0-2.67","2665354","co38674","norming","","","{""curiosity"":3,""confidence"":5}","[0,1]","../img/tt/319tt.jpg","",""
"2774.034999999916","","","recognition","survey-text","478","1426407","0.0-6.0-3.67","2665354","co38674","norming","","","{""guess"":""ezels""}","","../img/tt/319tt.jpg","",""
"null","../img/gs/319gs.jpg","null","reveal","image-keyboard-response","479","1428412","0.0-6.0-4.67","2665354","co38674","norming","","","","","","",""
"null","../img/tt/319tt.jpg","null","mooney2","image-keyboard-response","480","1430420","0.0-6.0-5.67","2665354","co38674","norming","","","","","","",""
"3712.969999999972","","","post_reveal_questions","survey-likert","481","1434135","0.0-6.0-6.67","2665354","co38674","norming","","","{""aha"":3}","[0]","../img/tt/319tt.jpg","",""
"null","<div style=""font-size:60px;""> </div>","null","fixation","html-keyboard-response","482","1434340","0.0-6.0-0.68","2665354","co38674","norming","","","","","","",""
"null","../img/tt/1084tt.jpg","null","mooney1","image-keyboard-response","483","1437347","0.0-6.0-1.68","2665354","co38674","norming","","","","","","",""
"3472.1350000000093","","","post_mooney1_questions","survey-likert","484","1440823","0.0-6.0-2.68","2665354","co38674","norming","","","{""curiosity"":5,""confidence"":1}","[0,1]","../img/tt/1084tt.jpg","",""
"2302.2050000000745","","","recognition","survey-text","485","1443127","0.0-6.0-3.68","2665354","co38674","norming","","","{""guess"":""taart""}","","../img/tt/1084tt.jpg","",""
"null","../img/gs/1084gs.jpg","null","reveal","image-keyboard-response","486","1445129","0.0-6.0-4.68","2665354","co38674","norming","","","","","","",""
"null","../img/tt/1084tt.jpg","null","mooney2","image-keyboard-response","487","1447136","0.0-6.0-5.68","2665354","co38674","norming","","","","","","",""
"1844.1700000001583","","","post_reveal_questions","survey-likert","488","1448983","0.0-6.0-6.68","2665354","co38674","norming","","","{""aha"":4}","[0]","../img/tt/1084tt.jpg","",""
"null","<div style=""font-size:60px;""> </div>","null","fixation","html-keyboard-response","489","1449187","0.0-6.0-0.69","2665354","co38674","norming","","","","","","",""
"null","../img/tt/1146tt.jpg","null","mooney1","image-keyboard-response","490","1452190","0.0-6.0-1.69","2665354","co38674","norming","","","","","","",""
"3214.5499999998137","","","post_mooney1_questions","survey-likert","491","1455408","0.0-6.0-2.69","2665354","co38674","norming","","","{""curiosity"":5,""confidence"":2}","[0,1]","../img/tt/1146tt.jpg","",""
"4157.539999999804","","","recognition","survey-text","492","1459567","0.0-6.0-3.69","2665354","co38674","norming","","","{""guess"":""boogschieten""}","","../img/tt/1146tt.jpg","",""
"null","../img/gs/1146gs.jpg","null","reveal","image-keyboard-response","493","1461569","0.0-6.0-4.69","2665354","co38674","norming","","","","","","",""
"null","../img/tt/1146tt.jpg","null","mooney2","image-keyboard-response","494","1463571","0.0-6.0-5.69","2665354","co38674","norming","","","","","","",""
"2617.6999999999534","","","post_reveal_questions","survey-likert","495","1466192","0.0-6.0-6.69","2665354","co38674","norming","","","{""aha"":3}","[0]","../img/tt/1146tt.jpg","",""
"null","<div style=""font-size:60px;""> </div>","null","fixation","html-keyboard-response","496","1466399","0.0-6.0-0.70","2665354","co38674","norming","","","","","","",""
"null","../img/tt/1211tt.jpg","null","mooney1","image-keyboard-response","497","1469402","0.0-6.0-1.70","2665354","co38674","norming","","","","","","",""
"3122.160000000149","","","post_mooney1_questions","survey-likert","498","1472528","0.0-6.0-2.70","2665354","co38674","norming","","","{""curiosity"":5,""confidence"":0}","[0,1]","../img/tt/1211tt.jpg","",""
"709.7050000000745","","","recognition","survey-text","499","1473239","0.0-6.0-3.70","2665354","co38674","norming","","","{""guess"":""""}","","../img/tt/1211tt.jpg","",""
"null","../img/gs/1211gs.jpg","null","reveal","image-keyboard-response","500","1475246","0.0-6.0-4.70","2665354","co38674","norming","","","","","","",""
"null","../img/tt/1211tt.jpg","null","mooney2","image-keyboard-response","501","1477248","0.0-6.0-5.70","2665354","co38674","norming","","","","","","",""
"2005.2699999997858","","","post_reveal_questions","survey-likert","502","1479249","0.0-6.0-6.70","2665354","co38674","norming","","","{""aha"":1}","[0]","../img/tt/1211tt.jpg","",""
"null","<div style=""font-size:60px;""> </div>","null","fixation","html-keyboard-response","503","1479451","0.0-6.0-0.71","2665354","co38674","norming","","","","","","",""
"null","../img/tt/064tt.jpg","null","mooney1","image-keyboard-response","504","1482458","0.0-6.0-1.71","2665354","co38674","norming","","","","","","",""
"3203.1150000002235","","","post_mooney1_questions","survey-likert","505","1485665","0.0-6.0-2.71","2665354","co38674","norming","","","{""curiosity"":5,""confidence"":1}","[0,1]","../img/tt/064tt.jpg","",""
"5854.2400000002235","","","recognition","survey-text","506","1491521","0.0-6.0-3.71","2665354","co38674","norming","","","{""guess"":""schildpad""}","","../img/tt/064tt.jpg","",""
"null","../img/gs/064gs.jpg","null","reveal","image-keyboard-response","507","1493530","0.0-6.0-4.71","2665354","co38674","norming","","","","","","",""
"null","../img/tt/064tt.jpg","null","mooney2","image-keyboard-response","508","1495537","0.0-6.0-5.71","2665354","co38674","norming","","","","","","",""
"3301.6350000000093","","","post_reveal_questions","survey-likert","509","1498841","0.0-6.0-6.71","2665354","co38674","norming","","","{""aha"":4}","[0]","../img/tt/064tt.jpg","",""
"null","<div style=""font-size:60px;""> </div>","null","fixation","html-keyboard-response","510","1499051","0.0-6.0-0.72","2665354","co38674","norming","","","","","","",""
"null","../img/tt/435tt.jpg","null","mooney1","image-keyboard-response","511","1502057","0.0-6.0-1.72","2665354","co38674","norming","","","","","","",""
"4516.7949999999255","","","post_mooney1_questions","survey-likert","512","1506577","0.0-6.0-2.72","2665354","co38674","norming","","","{""curiosity"":5,""confidence"":0}","[0,1]","../img/tt/435tt.jpg","",""
"957.964999999851","","","recognition","survey-text","513","1507537","0.0-6.0-3.72","2665354","co38674","norming","","","{""guess"":""""}","","../img/tt/435tt.jpg","",""
"null","../img/gs/435gs.jpg","null","reveal","image-keyboard-response","514","1509548","0.0-6.0-4.72","2665354","co38674","norming","","","","","","",""
"null","../img/tt/435tt.jpg","null","mooney2","image-keyboard-response","515","1511551","0.0-6.0-5.72","2665354","co38674","norming","","","","","","",""
"1567.7749999999069","","","post_reveal_questions","survey-likert","516","1513121","0.0-6.0-6.72","2665354","co38674","norming","","","{""aha"":5}","[0]","../img/tt/435tt.jpg","",""
"null","<div style=""font-size:60px;""> </div>","null","fixation","html-keyboard-response","517","1513332","0.0-6.0-0.73","2665354","co38674","norming","","","","","","",""
"null","../img/tt/140tt.jpg","null","mooney1","image-keyboard-response","518","1516335","0.0-6.0-1.73","2665354","co38674","norming","","","","","","",""
"4359.145000000019","","","post_mooney1_questions","survey-likert","519","1520697","0.0-6.0-2.73","2665354","co38674","norming","","","{""curiosity"":3,""confidence"":4}","[0,1]","../img/tt/140tt.jpg","",""
"2822.225000000093","","","recognition","survey-text","520","1523521","0.0-6.0-3.73","2665354","co38674","norming","","","{""guess"":""vorken""}","","../img/tt/140tt.jpg","",""
"null","../img/gs/140gs.jpg","null","reveal","image-keyboard-response","521","1525523","0.0-6.0-4.73","2665354","co38674","norming","","","","","","",""
"null","../img/tt/140tt.jpg","null","mooney2","image-keyboard-response","522","1527525","0.0-6.0-5.73","2665354","co38674","norming","","","","","","",""
"2889.3650000002235","","","post_reveal_questions","survey-likert","523","1530417","0.0-6.0-6.73","2665354","co38674","norming","","","{""aha"":3}","[0]","../img/tt/140tt.jpg","",""
"null","<div style=""font-size:60px;""> </div>","null","fixation","html-keyboard-response","524","1530621","0.0-6.0-0.74","2665354","co38674","norming","","","","","","",""
"null","../img/tt/524tt.jpg","null","mooney1","image-keyboard-response","525","1533626","0.0-6.0-1.74","2665354","co38674","norming","","","","","","",""
"3380.105000000214","","","post_mooney1_questions","survey-likert","526","1537010","0.0-6.0-2.74","2665354","co38674","norming","","","{""curiosity"":5,""confidence"":0}","[0,1]","../img/tt/524tt.jpg","",""
"1125.9599999999627","","","recognition","survey-text","527","1538137","0.0-6.0-3.74","2665354","co38674","norming","","","{""guess"":""""}","","../img/tt/524tt.jpg","",""
"null","../img/gs/524gs.jpg","null","reveal","image-keyboard-response","528","1540146","0.0-6.0-4.74","2665354","co38674","norming","","","","","","",""
"null","../img/tt/524tt.jpg","null","mooney2","image-keyboard-response","529","1542148","0.0-6.0-5.74","2665354","co38674","norming","","","","","","",""
"3057.094999999972","","","post_reveal_questions","survey-likert","530","1545207","0.0-6.0-6.74","2665354","co38674","norming","","","{""aha"":2}","[0]","../img/tt/524tt.jpg","",""
"null","<div style=""font-size:60px;""> </div>","null","fixation","html-keyboard-response","531","1545417","0.0-6.0-0.75","2665354","co38674","norming","","","","","","",""
"null","../img/tt/481tt.jpg","null","mooney1","image-keyboard-response","532","1548428","0.0-6.0-1.75","2665354","co38674","norming","","","","","","",""
"4279.709999999963","","","post_mooney1_questions","survey-likert","533","1552711","0.0-6.0-2.75","2665354","co38674","norming","","","{""curiosity"":5,""confidence"":0}","[0,1]","../img/tt/481tt.jpg","",""
"1141.994999999879","","","recognition","survey-text","534","1553855","0.0-6.0-3.75","2665354","co38674","norming","","","{""guess"":""""}","","../img/tt/481tt.jpg","",""
"null","../img/gs/481gs.jpg","null","reveal","image-keyboard-response","535","1555858","0.0-6.0-4.75","2665354","co38674","norming","","","","","","",""
"null","../img/tt/481tt.jpg","null","mooney2","image-keyboard-response","536","1557860","0.0-6.0-5.75","2665354","co38674","norming","","","","","","",""
"1856.4549999998417","","","post_reveal_questions","survey-likert","537","1559719","0.0-6.0-6.75","2665354","co38674","norming","","","{""aha"":2}","[0]","../img/tt/481tt.jpg","",""
"null","<div style=""font-size:60px;""> </div>","null","fixation","html-keyboard-response","538","1559930","0.0-6.0-0.76","2665354","co38674","norming","","","","","","",""
"null","../img/tt/036tt.jpg","null","mooney1","image-keyboard-response","539","1562937","0.0-6.0-1.76","2665354","co38674","norming","","","","","","",""
"3418.720000000205","","","post_mooney1_questions","survey-likert","540","1566360","0.0-6.0-2.76","2665354","co38674","norming","","","{""curiosity"":5,""confidence"":0}","[0,1]","../img/tt/036tt.jpg","",""
"518.0949999999721","","","recognition","survey-text","541","1566879","0.0-6.0-3.76","2665354","co38674","norming","","","{""guess"":""""}","","../img/tt/036tt.jpg","",""
"null","../img/gs/036gs.jpg","null","reveal","image-keyboard-response","542","1568886","0.0-6.0-4.76","2665354","co38674","norming","","","","","","",""
"null","../img/tt/036tt.jpg","null","mooney2","image-keyboard-response","543","1570894","0.0-6.0-5.76","2665354","co38674","norming","","","","","","",""
"3405.1049999999814","","","post_reveal_questions","survey-likert","544","1574303","0.0-6.0-6.76","2665354","co38674","norming","","","{""aha"":4}","[0]","../img/tt/036tt.jpg","",""
"null","<div style=""font-size:60px;""> </div>","null","fixation","html-keyboard-response","545","1574509","0.0-6.0-0.77","2665354","co38674","norming","","","","","","",""
"null","../img/tt/584tt.jpg","null","mooney1","image-keyboard-response","546","1577518","0.0-6.0-1.77","2665354","co38674","norming","","","","","","",""
"3198.2950000001583","","","post_mooney1_questions","survey-likert","547","1580719","0.0-6.0-2.77","2665354","co38674","norming","","","{""curiosity"":3,""confidence"":4}","[0,1]","../img/tt/584tt.jpg","",""
"4534.210000000196","","","recognition","survey-text","548","1585255","0.0-6.0-3.77","2665354","co38674","norming","","","{""guess"":""gereedschap""}","","../img/tt/584tt.jpg","",""
"null","../img/gs/584gs.jpg","null","reveal","image-keyboard-response","549","1587260","0.0-6.0-4.77","2665354","co38674","norming","","","","","","",""
"null","../img/tt/584tt.jpg","null","mooney2","image-keyboard-response","550","1589263","0.0-6.0-5.77","2665354","co38674","norming","","","","","","",""
"3182.2099999999627","","","post_reveal_questions","survey-likert","551","1592447","0.0-6.0-6.77","2665354","co38674","norming","","","{""aha"":3}","[0]","../img/tt/584tt.jpg","",""
"null","<div style=""font-size:60px;""> </div>","null","fixation","html-keyboard-response","552","1592649","0.0-6.0-0.78","2665354","co38674","norming","","","","","","",""
"null","../img/tt/1202tt.jpg","null","mooney1","image-keyboard-response","553","1595652","0.0-6.0-1.78","2665354","co38674","norming","","","","","","",""
