"rt","stimulus","key_press","test_part","trial_type","trial_index","time_elapsed","internal_node_id","totalTime","subject","experiment_name","button_pressed","success","responses","question_order","currentStim","old","correct"
"29011.40000000001","Welcome to the experiment. This is an online experiment so please don't close the tab/window until we say goodbye.  Press any key to begin.","74","instructions","html-keyboard-response","0","29018","0.0-0.0","2468791","co38779","norming","","","","","","",""
"62103","<div style='word-wrap: break-word; width: 900px'><h3>Please consider this information carefully before deciding whether to participate in this research</h3><ul style='text-align: left; font-size: .8em;'><li><b>Purpose of the research</b>: To examine how people process images.</li><li><b>What you will do in this research</b>:  Stimuli (images) will be presented on the computer and you will be asked different questions about them.</li><li><b>Time required</b>: Participation will take between 45 and 60 minutes to complete.</li><li><b>Risks</b>:  There are no anticipated risks associated with participating in this study. The effects of participating should be comparable to those you would experience from viewing a computer monitor for 30 minutes and using a mouse or keyboard.</li><li><b>Benefits</b>:  This study provides no benefits to you individually except for the credit. The study provides important information about the nature of perception and learning.</li><li><b>Confidentiality</b>:  Your participation in this study will remain confidential. No personally identifiable information will be associated with your data. Your de-identified data may be shared with other researchers and used in future projects.</li><li><b>Participation and withdrawal</b>:  Your participation in this study is completely voluntary and you may refuse to participate or you may choose to withdraw at any time without penalty.</li><li><b>How to contact the researchers</b>: If you have questions or concerns about your participation or payment, or want to request a summary of research findings, please contact Sander Van de Cruys (KU Leuven), at sander.vandecruys@kuleuven.be.</li></ul><p>The nature and purpose of this research have been sufficiently explained and I agree to participate in this study.  I understand that I am free to withdraw at any time without incurring any penalty.</p><p>Please consent by clicking the button below to continue. Otherwise, please exit the study at this time.</p></div>","","instructions","html-button-response","1","91128","0.0-1.0","2468791","co38779","norming","0","","","","","",""
"","","","instructions","fullscreen","2","97010","0.0-2.0","2468791","co38779","norming","","true","","","","",""
"65224.30000000002","","","sona","survey-html-form","3","162239","0.0-3.0","2468791","co38779","norming","","","[{""name"":""sonaid"",""value"":""38779""},{""name"":""debrief"",""value"":""yes""},{""name"":""datajoin"",""value"":""yes""}]","","","",""
"109889.1","<div style='word-wrap: break-word; width: 900px'><h3>Instructions</h3><p>This experiment will have 3 parts. In the first part you will see a series of distorted images like the one below on the left. As you can see in the righthand image, the distorted images are derived from actual photographs. In what follows, you will <strong>briefly</strong> be presented with <strong>only</strong> the distorted image.</p> <div style='float: left; margin-right: 20px;'><img src='../img/018tt.jpg' height='250' width='250'></img></div><div style='float: right; margin-left: 20px;'><img src='../img/018gs.jpg' height='250' width='250'></img></div><p>Subsequently you will be asked a few questions about the image: One question on how <strong>curious</strong> you are about the solution and one on how <strong>confident</strong> you are that you know the solution.</p>Next, we ask you to make a guess on what is in the image. Note that it is OK to name just the <strong>basic level category</strong>. For example when you see a parrot in the image, 'parrot' will obviously be a correct answer but also correct is 'bird'. However, 'animal' will <strong>not</strong> be counted as a correct response. For the example above, 'rose' would be correct or 'flower', but not 'plant'. When soccer players are depicted, 'soccer', 'football', 'soccer players' will be correct, but not 'humans', 'outdoors', or 'sports'. You do not need to describe the image in full, just name the main object in it <strong>in one or two words</strong>. All images depict objects from one of the following broad level categories: animals, inanimate objects, plants, sports, vehicles, and food. Recognizing means knowing <strong>more</strong> than these broad labels for a given image. But we always encourage you to <strong>make a guess</strong> if you can. Note that you are allowed to use <strong>Dutch and English</strong> in your answers, whatever comes easiest for you.</p><p>Press any key to continue.</p></div>","32","instructions","html-keyboard-response","4","272133","0.0-4.0","2468791","co38779","norming","","","","","","",""
"13011.799999999988","<div style='word-wrap: break-word; width: 900px'><h3>Instructions</h3> <p>Next, the solution image will be revealed to you and you'll be asked to indicate how strong your <strong>aha-experience</strong> was after seeing the solution. This describes the positive feeling of the 'click' you sometimes experience, when the pieces of the 'puzzle' fall together and you suddenly have 'insight' in the image.</p><img src='aha.jpg' height='188' width='250'></img><p>Note that there are no right or wrong answers. We are interested in what <strong>you</strong> see in the image and how <strong>you</strong> feel about it.</p><p>Press any key to start the experiment.</p></div>","74","instructions","html-keyboard-response","5","285149","0.0-5.0","2468791","co38779","norming","","","","","","",""
"null","<div style=""font-size:60px;""> </div>","null","fixation","html-keyboard-response","6","285377","0.0-6.0-0.0","2468791","co38779","norming","","","","","","",""
"null","../img/tt/064tt.jpg","null","mooney1","image-keyboard-response","7","288398","0.0-6.0-1.0","2468791","co38779","norming","","","","","","",""
"10728.5","","","post_mooney1_questions","survey-likert","8","299133","0.0-6.0-2.0","2468791","co38779","norming","","","{""curiosity"":5,""confidence"":1}","[0,1]","../img/tt/064tt.jpg","",""
"6596.200000000012","","","recognition","survey-text","9","305745","0.0-6.0-3.0","2468791","co38779","norming","","","{""guess"":""een boot""}","","../img/tt/064tt.jpg","",""
"null","../img/gs/064gs.jpg","null","reveal","image-keyboard-response","10","307762","0.0-6.0-4.0","2468791","co38779","norming","","","","","","",""
"null","../img/tt/064tt.jpg","null","mooney2","image-keyboard-response","11","309779","0.0-6.0-5.0","2468791","co38779","norming","","","","","","",""
"6336.399999999965","","","post_reveal_questions","survey-likert","12","316122","0.0-6.0-6.0","2468791","co38779","norming","","","{""aha"":6}","[0]","../img/tt/064tt.jpg","",""
"null","<div style=""font-size:60px;""> </div>","null","fixation","html-keyboard-response","13","316342","0.0-6.0-0.1","2468791","co38779","norming","","","","","","",""
"null","../img/tt/098tt.jpg","null","mooney1","image-keyboard-response","14","319372","0.0-6.0-1.1","2468791","co38779","norming","","","","","","",""
"8749.799999999988","","","post_mooney1_questions","survey-likert","15","328126","0.0-6.0-2.1","2468791","co38779","norming","","","{""curiosity"":6,""confidence"":0}","[0,1]","../img/tt/098tt.jpg","",""
"707.3999999999651","","","recognition","survey-text","16","328847","0.0-6.0-3.1","2468791","co38779","norming","","","{""guess"":""""}","","../img/tt/098tt.jpg","",""
"null","../img/gs/098gs.jpg","null","reveal","image-keyboard-response","17","330874","0.0-6.0-4.1","2468791","co38779","norming","","","","","","",""
"null","../img/tt/098tt.jpg","null","mooney2","image-keyboard-response","18","332855","0.0-6.0-5.1","2468791","co38779","norming","","","","","","",""
"4582","","","post_reveal_questions","survey-likert","19","337441","0.0-6.0-6.1","2468791","co38779","norming","","","{""aha"":5}","[0]","../img/tt/098tt.jpg","",""
"null","<div style=""font-size:60px;""> </div>","null","fixation","html-keyboard-response","20","337670","0.0-6.0-0.2","2468791","co38779","norming","","","","","","",""
"null","../img/tt/353tt.jpg","null","mooney1","image-keyboard-response","21","340693","0.0-6.0-1.2","2468791","co38779","norming","","","","","","",""
"13557.099999999976","","","post_mooney1_questions","survey-likert","22","354257","0.0-6.0-2.2","2468791","co38779","norming","","","{""curiosity"":6,""confidence"":0}","[0,1]","../img/tt/353tt.jpg","",""
"2281.7000000000116","","","recognition","survey-text","23","356553","0.0-6.0-3.2","2468791","co38779","norming","","","{""guess"":""konijn""}","","../img/tt/353tt.jpg","",""
"null","../img/gs/353gs.jpg","null","reveal","image-keyboard-response","24","358570","0.0-6.0-4.2","2468791","co38779","norming","","","","","","",""
"null","../img/tt/353tt.jpg","null","mooney2","image-keyboard-response","25","360556","0.0-6.0-5.2","2468791","co38779","norming","","","","","","",""
"5050.799999999988","","","post_reveal_questions","survey-likert","26","365612","0.0-6.0-6.2","2468791","co38779","norming","","","{""aha"":3}","[0]","../img/tt/353tt.jpg","",""
"null","<div style=""font-size:60px;""> </div>","null","fixation","html-keyboard-response","27","365827","0.0-6.0-0.3","2468791","co38779","norming","","","","","","",""
"null","../img/tt/559tt.jpg","null","mooney1","image-keyboard-response","28","368860","0.0-6.0-1.3","2468791","co38779","norming","","","","","","",""
"6148.699999999953","","","post_mooney1_questions","survey-likert","29","375014","0.0-6.0-2.3","2468791","co38779","norming","","","{""curiosity"":6,""confidence"":0}","[0,1]","../img/tt/559tt.jpg","",""
"1854.2999999999883","","","recognition","survey-text","30","376880","0.0-6.0-3.3","2468791","co38779","norming","","","{""guess"":""beer""}","","../img/tt/559tt.jpg","",""
"null","../img/gs/559gs.jpg","null","reveal","image-keyboard-response","31","378906","0.0-6.0-4.3","2468791","co38779","norming","","","","","","",""
"null","../img/tt/559tt.jpg","null","mooney2","image-keyboard-response","32","380898","0.0-6.0-5.3","2468791","co38779","norming","","","","","","",""
"3658.5999999999767","","","post_reveal_questions","survey-likert","33","384562","0.0-6.0-6.3","2468791","co38779","norming","","","{""aha"":0}","[0]","../img/tt/559tt.jpg","",""
"null","<div style=""font-size:60px;""> </div>","null","fixation","html-keyboard-response","34","384764","0.0-6.0-0.4","2468791","co38779","norming","","","","","","",""
"null","../img/tt/300tt.jpg","null","mooney1","image-keyboard-response","35","387780","0.0-6.0-1.4","2468791","co38779","norming","","","","","","",""
"19857.20000000001","","","post_mooney1_questions","survey-likert","36","407642","0.0-6.0-2.4","2468791","co38779","norming","","","{""curiosity"":6,""confidence"":0}","[0,1]","../img/tt/300tt.jpg","",""
"3527","","","recognition","survey-text","37","411183","0.0-6.0-3.4","2468791","co38779","norming","","","{""guess"":""""}","","../img/tt/300tt.jpg","",""
"null","../img/gs/300gs.jpg","null","reveal","image-keyboard-response","38","413201","0.0-6.0-4.4","2468791","co38779","norming","","","","","","",""
"null","../img/tt/300tt.jpg","null","mooney2","image-keyboard-response","39","415213","0.0-6.0-5.4","2468791","co38779","norming","","","","","","",""
"3479.7999999999883","","","post_reveal_questions","survey-likert","40","418697","0.0-6.0-6.4","2468791","co38779","norming","","","{""aha"":4}","[0]","../img/tt/300tt.jpg","",""
"null","<div style=""font-size:60px;""> </div>","null","fixation","html-keyboard-response","41","418916","0.0-6.0-0.5","2468791","co38779","norming","","","","","","",""
"null","../img/tt/1200tt.jpg","null","mooney1","image-keyboard-response","42","421939","0.0-6.0-1.5","2468791","co38779","norming","","","","","","",""
"6406.800000000047","","","post_mooney1_questions","survey-likert","43","428351","0.0-6.0-2.5","2468791","co38779","norming","","","{""curiosity"":4,""confidence"":3}","[0,1]","../img/tt/1200tt.jpg","",""
"2016","","","recognition","survey-text","44","430378","0.0-6.0-3.5","2468791","co38779","norming","","","{""guess"":""boot""}","","../img/tt/1200tt.jpg","",""
"null","../img/gs/1200gs.jpg","null","reveal","image-keyboard-response","45","432385","0.0-6.0-4.5","2468791","co38779","norming","","","","","","",""
"null","../img/tt/1200tt.jpg","null","mooney2","image-keyboard-response","46","434393","0.0-6.0-5.5","2468791","co38779","norming","","","","","","",""
"2335.899999999965","","","post_reveal_questions","survey-likert","47","436734","0.0-6.0-6.5","2468791","co38779","norming","","","{""aha"":3}","[0]","../img/tt/1200tt.jpg","",""
"null","<div style=""font-size:60px;""> </div>","null","fixation","html-keyboard-response","48","436959","0.0-6.0-0.6","2468791","co38779","norming","","","","","","",""
"null","../img/tt/1043tt.jpg","null","mooney1","image-keyboard-response","49","439980","0.0-6.0-1.6","2468791","co38779","norming","","","","","","",""
"6690.200000000012","","","post_mooney1_questions","survey-likert","50","446674","0.0-6.0-2.6","2468791","co38779","norming","","","{""curiosity"":4,""confidence"":3}","[0,1]","../img/tt/1043tt.jpg","",""
"1676.7999999999301","","","recognition","survey-text","51","448366","0.0-6.0-3.6","2468791","co38779","norming","","","{""guess"":""auto""}","","../img/tt/1043tt.jpg","",""
"null","../img/gs/1043gs.jpg","null","reveal","image-keyboard-response","52","450380","0.0-6.0-4.6","2468791","co38779","norming","","","","","","",""
"null","../img/tt/1043tt.jpg","null","mooney2","image-keyboard-response","53","452402","0.0-6.0-5.6","2468791","co38779","norming","","","","","","",""
"5263.099999999977","","","post_reveal_questions","survey-likert","54","457668","0.0-6.0-6.6","2468791","co38779","norming","","","{""aha"":2}","[0]","../img/tt/1043tt.jpg","",""
"null","<div style=""font-size:60px;""> </div>","null","fixation","html-keyboard-response","55","457895","0.0-6.0-0.7","2468791","co38779","norming","","","","","","",""
"null","../img/tt/1004tt.jpg","null","mooney1","image-keyboard-response","56","460916","0.0-6.0-1.7","2468791","co38779","norming","","","","","","",""
"4567.5","","","post_mooney1_questions","survey-likert","57","465488","0.0-6.0-2.7","2468791","co38779","norming","","","{""curiosity"":6,""confidence"":0}","[0,1]","../img/tt/1004tt.jpg","",""
"1655","","","recognition","survey-text","58","467156","0.0-6.0-3.7","2468791","co38779","norming","","","{""guess"":""""}","","../img/tt/1004tt.jpg","",""
"null","../img/gs/1004gs.jpg","null","reveal","image-keyboard-response","59","469184","0.0-6.0-4.7","2468791","co38779","norming","","","","","","",""
"null","../img/tt/1004tt.jpg","null","mooney2","image-keyboard-response","60","471183","0.0-6.0-5.7","2468791","co38779","norming","","","","","","",""
"4030.3000000000465","","","post_reveal_questions","survey-likert","61","475218","0.0-6.0-6.7","2468791","co38779","norming","","","{""aha"":6}","[0]","../img/tt/1004tt.jpg","",""
"null","<div style=""font-size:60px;""> </div>","null","fixation","html-keyboard-response","62","475426","0.0-6.0-0.8","2468791","co38779","norming","","","","","","",""
"null","../img/tt/1156tt.jpg","null","mooney1","image-keyboard-response","63","478453","0.0-6.0-1.8","2468791","co38779","norming","","","","","","",""
"8216.800000000046","","","post_mooney1_questions","survey-likert","64","486674","0.0-6.0-2.8","2468791","co38779","norming","","","{""curiosity"":5,""confidence"":2}","[0,1]","../img/tt/1156tt.jpg","",""
"1629.5","","","recognition","survey-text","65","488315","0.0-6.0-3.8","2468791","co38779","norming","","","{""guess"":""vogel""}","","../img/tt/1156tt.jpg","",""
"null","../img/gs/1156gs.jpg","null","reveal","image-keyboard-response","66","490335","0.0-6.0-4.8","2468791","co38779","norming","","","","","","",""
"null","../img/tt/1156tt.jpg","null","mooney2","image-keyboard-response","67","492334","0.0-6.0-5.8","2468791","co38779","norming","","","","","","",""
"4119.199999999953","","","post_reveal_questions","survey-likert","68","496458","0.0-6.0-6.8","2468791","co38779","norming","","","{""aha"":6}","[0]","../img/tt/1156tt.jpg","",""
"null","<div style=""font-size:60px;""> </div>","null","fixation","html-keyboard-response","69","496674","0.0-6.0-0.9","2468791","co38779","norming","","","","","","",""
"null","../img/tt/001tt.jpg","null","mooney1","image-keyboard-response","70","499681","0.0-6.0-1.9","2468791","co38779","norming","","","","","","",""
"5554.70000000007","","","post_mooney1_questions","survey-likert","71","505239","0.0-6.0-2.9","2468791","co38779","norming","","","{""curiosity"":5,""confidence"":0}","[0,1]","../img/tt/001tt.jpg","",""
"1850","","","recognition","survey-text","72","507102","0.0-6.0-3.9","2468791","co38779","norming","","","{""guess"":""olifant""}","","../img/tt/001tt.jpg","",""
"null","../img/gs/001gs.jpg","null","reveal","image-keyboard-response","73","509110","0.0-6.0-4.9","2468791","co38779","norming","","","","","","",""
"null","../img/tt/001tt.jpg","null","mooney2","image-keyboard-response","74","511120","0.0-6.0-5.9","2468791","co38779","norming","","","","","","",""
"4363.900000000023","","","post_reveal_questions","survey-likert","75","515489","0.0-6.0-6.9","2468791","co38779","norming","","","{""aha"":1}","[0]","../img/tt/001tt.jpg","",""
"null","<div style=""font-size:60px;""> </div>","null","fixation","html-keyboard-response","76","515706","0.0-6.0-0.10","2468791","co38779","norming","","","","","","",""
"null","../img/tt/1078tt.jpg","null","mooney1","image-keyboard-response","77","518738","0.0-6.0-1.10","2468791","co38779","norming","","","","","","",""
"7407.400000000023","","","post_mooney1_questions","survey-likert","78","526150","0.0-6.0-2.10","2468791","co38779","norming","","","{""curiosity"":4,""confidence"":2}","[0,1]","../img/tt/1078tt.jpg","",""
"2658","","","recognition","survey-text","79","528821","0.0-6.0-3.10","2468791","co38779","norming","","","{""guess"":""restaurant""}","","../img/tt/1078tt.jpg","",""
"null","../img/gs/1078gs.jpg","null","reveal","image-keyboard-response","80","530845","0.0-6.0-4.10","2468791","co38779","norming","","","","","","",""
"null","../img/tt/1078tt.jpg","null","mooney2","image-keyboard-response","81","532830","0.0-6.0-5.10","2468791","co38779","norming","","","","","","",""
"4708.20000000007","","","post_reveal_questions","survey-likert","82","537543","0.0-6.0-6.10","2468791","co38779","norming","","","{""aha"":2}","[0]","../img/tt/1078tt.jpg","",""
"null","<div style=""font-size:60px;""> </div>","null","fixation","html-keyboard-response","83","537746","0.0-6.0-0.11","2468791","co38779","norming","","","","","","",""
"null","../img/tt/549tt.jpg","null","mooney1","image-keyboard-response","84","540760","0.0-6.0-1.11","2468791","co38779","norming","","","","","","",""
"6653.900000000023","","","post_mooney1_questions","survey-likert","85","547420","0.0-6.0-2.11","2468791","co38779","norming","","","{""curiosity"":4,""confidence"":2}","[0,1]","../img/tt/549tt.jpg","",""
"4189.5","","","recognition","survey-text","86","551622","0.0-6.0-3.11","2468791","co38779","norming","","","{""guess"":""piano""}","","../img/tt/549tt.jpg","",""
"null","../img/gs/549gs.jpg","null","reveal","image-keyboard-response","87","553628","0.0-6.0-4.11","2468791","co38779","norming","","","","","","",""
"null","../img/tt/549tt.jpg","null","mooney2","image-keyboard-response","88","555630","0.0-6.0-5.11","2468791","co38779","norming","","","","","","",""
"3707.5999999999767","","","post_reveal_questions","survey-likert","89","559342","0.0-6.0-6.11","2468791","co38779","norming","","","{""aha"":1}","[0]","../img/tt/549tt.jpg","",""
"null","<div style=""font-size:60px;""> </div>","null","fixation","html-keyboard-response","90","559569","0.0-6.0-0.12","2468791","co38779","norming","","","","","","",""
"null","../img/tt/440tt.jpg","null","mooney1","image-keyboard-response","91","562584","0.0-6.0-1.12","2468791","co38779","norming","","","","","","",""
"5395.599999999977","","","post_mooney1_questions","survey-likert","92","567984","0.0-6.0-2.12","2468791","co38779","norming","","","{""curiosity"":5,""confidence"":0}","[0,1]","../img/tt/440tt.jpg","",""
"2654.8000000000465","","","recognition","survey-text","93","570652","0.0-6.0-3.12","2468791","co38779","norming","","","{""guess"":""sprinkaan""}","","../img/tt/440tt.jpg","",""
"null","../img/gs/440gs.jpg","null","reveal","image-keyboard-response","94","572668","0.0-6.0-4.12","2468791","co38779","norming","","","","","","",""
"null","../img/tt/440tt.jpg","null","mooney2","image-keyboard-response","95","574669","0.0-6.0-5.12","2468791","co38779","norming","","","","","","",""
"3604.5","","","post_reveal_questions","survey-likert","96","578277","0.0-6.0-6.12","2468791","co38779","norming","","","{""aha"":0}","[0]","../img/tt/440tt.jpg","",""
"null","<div style=""font-size:60px;""> </div>","null","fixation","html-keyboard-response","97","578494","0.0-6.0-0.13","2468791","co38779","norming","","","","","","",""
"null","../img/tt/1080tt.jpg","null","mooney1","image-keyboard-response","98","581522","0.0-6.0-1.13","2468791","co38779","norming","","","","","","",""
"4896.599999999977","","","post_mooney1_questions","survey-likert","99","586422","0.0-6.0-2.13","2468791","co38779","norming","","","{""curiosity"":5,""confidence"":0}","[0,1]","../img/tt/1080tt.jpg","",""
"1507.8000000000465","","","recognition","survey-text","100","587941","0.0-6.0-3.13","2468791","co38779","norming","","","{""guess"":""brug""}","","../img/tt/1080tt.jpg","",""
"null","../img/gs/1080gs.jpg","null","reveal","image-keyboard-response","101","589956","0.0-6.0-4.13","2468791","co38779","norming","","","","","","",""
"null","../img/tt/1080tt.jpg","null","mooney2","image-keyboard-response","102","591953","0.0-6.0-5.13","2468791","co38779","norming","","","","","","",""
"3815.79999999993","","","post_reveal_questions","survey-likert","103","595773","0.0-6.0-6.13","2468791","co38779","norming","","","{""aha"":6}","[0]","../img/tt/1080tt.jpg","",""
"null","<div style=""font-size:60px;""> </div>","null","fixation","html-keyboard-response","104","595984","0.0-6.0-0.14","2468791","co38779","norming","","","","","","",""
"null","../img/tt/296tt.jpg","null","mooney1","image-keyboard-response","105","598985","0.0-6.0-1.14","2468791","co38779","norming","","","","","","",""
"4189.400000000023","","","post_mooney1_questions","survey-likert","106","603180","0.0-6.0-2.14","2468791","co38779","norming","","","{""curiosity"":3,""confidence"":3}","[0,1]","../img/tt/296tt.jpg","",""
"2121.3000000000465","","","recognition","survey-text","107","605313","0.0-6.0-3.14","2468791","co38779","norming","","","{""guess"":""laptop""}","","../img/tt/296tt.jpg","",""
"null","../img/gs/296gs.jpg","null","reveal","image-keyboard-response","108","607334","0.0-6.0-4.14","2468791","co38779","norming","","","","","","",""
"null","../img/tt/296tt.jpg","null","mooney2","image-keyboard-response","109","609322","0.0-6.0-5.14","2468791","co38779","norming","","","","","","",""
"4678.79999999993","","","post_reveal_questions","survey-likert","110","614005","0.0-6.0-6.14","2468791","co38779","norming","","","{""aha"":1}","[0]","../img/tt/296tt.jpg","",""
"null","<div style=""font-size:60px;""> </div>","null","fixation","html-keyboard-response","111","614228","0.0-6.0-0.15","2468791","co38779","norming","","","","","","",""
"null","../img/tt/522tt.jpg","null","mooney1","image-keyboard-response","112","617238","0.0-6.0-1.15","2468791","co38779","norming","","","","","","",""
"5190.400000000023","","","post_mooney1_questions","survey-likert","113","622432","0.0-6.0-2.15","2468791","co38779","norming","","","{""curiosity"":6,""confidence"":0}","[0,1]","../img/tt/522tt.jpg","",""
"2063.29999999993","","","recognition","survey-text","114","624507","0.0-6.0-3.15","2468791","co38779","norming","","","{""guess"":""operatie""}","","../img/tt/522tt.jpg","",""
"null","../img/gs/522gs.jpg","null","reveal","image-keyboard-response","115","626526","0.0-6.0-4.15","2468791","co38779","norming","","","","","","",""
"null","../img/tt/522tt.jpg","null","mooney2","image-keyboard-response","116","628537","0.0-6.0-5.15","2468791","co38779","norming","","","","","","",""
"3392","","","post_reveal_questions","survey-likert","117","631935","0.0-6.0-6.15","2468791","co38779","norming","","","{""aha"":6}","[0]","../img/tt/522tt.jpg","",""
"null","<div style=""font-size:60px;""> </div>","null","fixation","html-keyboard-response","118","632154","0.0-6.0-0.16","2468791","co38779","norming","","","","","","",""
"null","../img/tt/307tt.jpg","null","mooney1","image-keyboard-response","119","635163","0.0-6.0-1.16","2468791","co38779","norming","","","","","","",""
"5757.900000000023","","","post_mooney1_questions","survey-likert","120","640925","0.0-6.0-2.16","2468791","co38779","norming","","","{""curiosity"":6,""confidence"":1}","[0,1]","../img/tt/307tt.jpg","",""
"2647.5999999999767","","","recognition","survey-text","121","643588","0.0-6.0-3.16","2468791","co38779","norming","","","{""guess"":""schaap""}","","../img/tt/307tt.jpg","",""
"null","../img/gs/307gs.jpg","null","reveal","image-keyboard-response","122","645607","0.0-6.0-4.16","2468791","co38779","norming","","","","","","",""
"null","../img/tt/307tt.jpg","null","mooney2","image-keyboard-response","123","647610","0.0-6.0-5.16","2468791","co38779","norming","","","","","","",""
"2835.70000000007","","","post_reveal_questions","survey-likert","124","650450","0.0-6.0-6.16","2468791","co38779","norming","","","{""aha"":5}","[0]","../img/tt/307tt.jpg","",""
"null","<div style=""font-size:60px;""> </div>","null","fixation","html-keyboard-response","125","650679","0.0-6.0-0.17","2468791","co38779","norming","","","","","","",""
"null","../img/tt/580tt.jpg","null","mooney1","image-keyboard-response","126","653693","0.0-6.0-1.17","2468791","co38779","norming","","","","","","",""
"5681.699999999953","","","post_mooney1_questions","survey-likert","127","659380","0.0-6.0-2.17","2468791","co38779","norming","","","{""curiosity"":5,""confidence"":1}","[0,1]","../img/tt/580tt.jpg","",""
"5819.699999999953","","","recognition","survey-text","128","665210","0.0-6.0-3.17","2468791","co38779","norming","","","{""guess"":""tijger""}","","../img/tt/580tt.jpg","",""
"null","../img/gs/580gs.jpg","null","reveal","image-keyboard-response","129","667230","0.0-6.0-4.17","2468791","co38779","norming","","","","","","",""
"null","../img/tt/580tt.jpg","null","mooney2","image-keyboard-response","130","669228","0.0-6.0-5.17","2468791","co38779","norming","","","","","","",""
"2439.79999999993","","","post_reveal_questions","survey-likert","131","671672","0.0-6.0-6.17","2468791","co38779","norming","","","{""aha"":5}","[0]","../img/tt/580tt.jpg","",""
"null","<div style=""font-size:60px;""> </div>","null","fixation","html-keyboard-response","132","671881","0.0-6.0-0.18","2468791","co38779","norming","","","","","","",""
"null","../img/tt/020tt.jpg","null","mooney1","image-keyboard-response","133","674902","0.0-6.0-1.18","2468791","co38779","norming","","","","","","",""
"6595.199999999953","","","post_mooney1_questions","survey-likert","134","681502","0.0-6.0-2.18","2468791","co38779","norming","","","{""curiosity"":6,""confidence"":0}","[0,1]","../img/tt/020tt.jpg","",""
"213.80000000004657","","","recognition","survey-text","135","681723","0.0-6.0-3.18","2468791","co38779","norming","","","{""guess"":""""}","","../img/tt/020tt.jpg","",""
"null","../img/gs/020gs.jpg","null","reveal","image-keyboard-response","136","683744","0.0-6.0-4.18","2468791","co38779","norming","","","","","","",""
"null","../img/tt/020tt.jpg","null","mooney2","image-keyboard-response","137","685726","0.0-6.0-5.18","2468791","co38779","norming","","","","","","",""
"3182.5","","","post_reveal_questions","survey-likert","138","688913","0.0-6.0-6.18","2468791","co38779","norming","","","{""aha"":0}","[0]","../img/tt/020tt.jpg","",""
"null","<div style=""font-size:60px;""> </div>","null","fixation","html-keyboard-response","139","689135","0.0-6.0-0.19","2468791","co38779","norming","","","","","","",""
"null","../img/tt/052tt.jpg","null","mooney1","image-keyboard-response","140","692159","0.0-6.0-1.19","2468791","co38779","norming","","","","","","",""
"6726.099999999977","","","post_mooney1_questions","survey-likert","141","698890","0.0-6.0-2.19","2468791","co38779","norming","","","{""curiosity"":5,""confidence"":1}","[0,1]","../img/tt/052tt.jpg","",""
"2949.0999999999767","","","recognition","survey-text","142","701844","0.0-6.0-3.19","2468791","co38779","norming","","","{""guess"":""trommel""}","","../img/tt/052tt.jpg","",""
"null","../img/gs/052gs.jpg","null","reveal","image-keyboard-response","143","703862","0.0-6.0-4.19","2468791","co38779","norming","","","","","","",""
"null","../img/tt/052tt.jpg","null","mooney2","image-keyboard-response","144","705851","0.0-6.0-5.19","2468791","co38779","norming","","","","","","",""
"2576.6999999999534","","","post_reveal_questions","survey-likert","145","708432","0.0-6.0-6.19","2468791","co38779","norming","","","{""aha"":5}","[0]","../img/tt/052tt.jpg","",""
"null","<div style=""font-size:60px;""> </div>","null","fixation","html-keyboard-response","146","708653","0.0-6.0-0.20","2468791","co38779","norming","","","","","","",""
"null","../img/tt/1128tt.jpg","null","mooney1","image-keyboard-response","147","711673","0.0-6.0-1.20","2468791","co38779","norming","","","","","","",""
"4616.099999999977","","","post_mooney1_questions","survey-likert","148","716293","0.0-6.0-2.20","2468791","co38779","norming","","","{""curiosity"":6,""confidence"":0}","[0,1]","../img/tt/1128tt.jpg","",""
"638.2999999999301","","","recognition","survey-text","149","716945","0.0-6.0-3.20","2468791","co38779","norming","","","{""guess"":""""}","","../img/tt/1128tt.jpg","",""
"null","../img/gs/1128gs.jpg","null","reveal","image-keyboard-response","150","718955","0.0-6.0-4.20","2468791","co38779","norming","","","","","","",""
"null","../img/tt/1128tt.jpg","null","mooney2","image-keyboard-response","151","720956","0.0-6.0-5.20","2468791","co38779","norming","","","","","","",""
"5389.400000000023","","","post_reveal_questions","survey-likert","152","726351","0.0-6.0-6.20","2468791","co38779","norming","","","{""aha"":5}","[0]","../img/tt/1128tt.jpg","",""
"null","<div style=""font-size:60px;""> </div>","null","fixation","html-keyboard-response","153","726582","0.0-6.0-0.21","2468791","co38779","norming","","","","","","",""
"null","../img/tt/060tt.jpg","null","mooney1","image-keyboard-response","154","729591","0.0-6.0-1.21","2468791","co38779","norming","","","","","","",""
"4346","","","post_mooney1_questions","survey-likert","155","733942","0.0-6.0-2.21","2468791","co38779","norming","","","{""curiosity"":6,""confidence"":1}","[0,1]","../img/tt/060tt.jpg","",""
"2549","","","recognition","survey-text","156","736502","0.0-6.0-3.21","2468791","co38779","norming","","","{""guess"":""paard""}","","../img/tt/060tt.jpg","",""
"null","../img/gs/060gs.jpg","null","reveal","image-keyboard-response","157","738520","0.0-6.0-4.21","2468791","co38779","norming","","","","","","",""
"null","../img/tt/060tt.jpg","null","mooney2","image-keyboard-response","158","740507","0.0-6.0-5.21","2468791","co38779","norming","","","","","","",""
"2517.29999999993","","","post_reveal_questions","survey-likert","159","743028","0.0-6.0-6.21","2468791","co38779","norming","","","{""aha"":3}","[0]","../img/tt/060tt.jpg","",""
"null","<div style=""font-size:60px;""> </div>","null","fixation","html-keyboard-response","160","743237","0.0-6.0-0.22","2468791","co38779","norming","","","","","","",""
"null","../img/tt/416tt.jpg","null","mooney1","image-keyboard-response","161","746262","0.0-6.0-1.22","2468791","co38779","norming","","","","","","",""
"4677.400000000023","","","post_mooney1_questions","survey-likert","162","750944","0.0-6.0-2.22","2468791","co38779","norming","","","{""curiosity"":6,""confidence"":0}","[0,1]","../img/tt/416tt.jpg","",""
"482.5","","","recognition","survey-text","163","751432","0.0-6.0-3.22","2468791","co38779","norming","","","{""guess"":""""}","","../img/tt/416tt.jpg","",""
"null","../img/gs/416gs.jpg","null","reveal","image-keyboard-response","164","753447","0.0-6.0-4.22","2468791","co38779","norming","","","","","","",""
"null","../img/tt/416tt.jpg","null","mooney2","image-keyboard-response","165","755449","0.0-6.0-5.22","2468791","co38779","norming","","","","","","",""
"9704.699999999953","","","post_reveal_questions","survey-likert","166","765157","0.0-6.0-6.22","2468791","co38779","norming","","","{""aha"":0}","[0]","../img/tt/416tt.jpg","",""
"null","<div style=""font-size:60px;""> </div>","null","fixation","html-keyboard-response","167","765378","0.0-6.0-0.23","2468791","co38779","norming","","","","","","",""
"null","../img/tt/1236tt.jpg","null","mooney1","image-keyboard-response","168","768400","0.0-6.0-1.23","2468791","co38779","norming","","","","","","",""
"8981.800000000046","","","post_mooney1_questions","survey-likert","169","777385","0.0-6.0-2.23","2468791","co38779","norming","","","{""curiosity"":6,""confidence"":0}","[0,1]","../img/tt/1236tt.jpg","",""
"487.79999999993015","","","recognition","survey-text","170","777880","0.0-6.0-3.23","2468791","co38779","norming","","","{""guess"":""""}","","../img/tt/1236tt.jpg","",""
"null","../img/gs/1236gs.jpg","null","reveal","image-keyboard-response","171","779890","0.0-6.0-4.23","2468791","co38779","norming","","","","","","",""
"null","../img/tt/1236tt.jpg","null","mooney2","image-keyboard-response","172","781902","0.0-6.0-5.23","2468791","co38779","norming","","","","","","",""
"3681.899999999907","","","post_reveal_questions","survey-likert","173","785588","0.0-6.0-6.23","2468791","co38779","norming","","","{""aha"":0}","[0]","../img/tt/1236tt.jpg","",""
"null","<div style=""font-size:60px;""> </div>","null","fixation","html-keyboard-response","174","785798","0.0-6.0-0.24","2468791","co38779","norming","","","","","","",""
"null","../img/tt/1040tt.jpg","null","mooney1","image-keyboard-response","175","788831","0.0-6.0-1.24","2468791","co38779","norming","","","","","","",""
"4683.100000000093","","","post_mooney1_questions","survey-likert","176","793519","0.0-6.0-2.24","2468791","co38779","norming","","","{""curiosity"":6,""confidence"":1}","[0,1]","../img/tt/1040tt.jpg","",""
"2930.20000000007","","","recognition","survey-text","177","796465","0.0-6.0-3.24","2468791","co38779","norming","","","{""guess"":""café""}","","../img/tt/1040tt.jpg","",""
"null","../img/gs/1040gs.jpg","null","reveal","image-keyboard-response","178","798478","0.0-6.0-4.24","2468791","co38779","norming","","","","","","",""
"null","../img/tt/1040tt.jpg","null","mooney2","image-keyboard-response","179","800485","0.0-6.0-5.24","2468791","co38779","norming","","","","","","",""
"2956","","","post_reveal_questions","survey-likert","180","803446","0.0-6.0-6.24","2468791","co38779","norming","","","{""aha"":2}","[0]","../img/tt/1040tt.jpg","",""
"null","<div style=""font-size:60px;""> </div>","null","fixation","html-keyboard-response","181","803660","0.0-6.0-0.25","2468791","co38779","norming","","","","","","",""
"null","../img/tt/140tt.jpg","null","mooney1","image-keyboard-response","182","806674","0.0-6.0-1.25","2468791","co38779","norming","","","","","","",""
"7792.099999999977","","","post_mooney1_questions","survey-likert","183","814470","0.0-6.0-2.25","2468791","co38779","norming","","","{""curiosity"":6,""confidence"":6}","[0,1]","../img/tt/140tt.jpg","",""
"1969.3000000000465","","","recognition","survey-text","184","816451","0.0-6.0-3.25","2468791","co38779","norming","","","{""guess"":""vorken""}","","../img/tt/140tt.jpg","",""
"null","../img/gs/140gs.jpg","null","reveal","image-keyboard-response","185","818535","0.0-6.0-4.25","2468791","co38779","norming","","","","","","",""
"null","../img/tt/140tt.jpg","null","mooney2","image-keyboard-response","186","820518","0.0-6.0-5.25","2468791","co38779","norming","","","","","","",""
"3692.5","","","post_reveal_questions","survey-likert","187","824214","0.0-6.0-6.25","2468791","co38779","norming","","","{""aha"":1}","[0]","../img/tt/140tt.jpg","",""
"null","<div style=""font-size:60px;""> </div>","null","fixation","html-keyboard-response","188","824432","0.0-6.0-0.26","2468791","co38779","norming","","","","","","",""
"null","../img/tt/096tt.jpg","null","mooney1","image-keyboard-response","189","827454","0.0-6.0-1.26","2468791","co38779","norming","","","","","","",""
"6595.5","","","post_mooney1_questions","survey-likert","190","834055","0.0-6.0-2.26","2468791","co38779","norming","","","{""curiosity"":6,""confidence"":6}","[0,1]","../img/tt/096tt.jpg","",""
"2054.1999999999534","","","recognition","survey-text","191","836123","0.0-6.0-3.26","2468791","co38779","norming","","","{""guess"":""piano""}","","../img/tt/096tt.jpg","",""
"null","../img/gs/096gs.jpg","null","reveal","image-keyboard-response","192","838140","0.0-6.0-4.26","2468791","co38779","norming","","","","","","",""
"null","../img/tt/096tt.jpg","null","mooney2","image-keyboard-response","193","840132","0.0-6.0-5.26","2468791","co38779","norming","","","","","","",""
"3406.5999999999767","","","post_reveal_questions","survey-likert","194","843543","0.0-6.0-6.26","2468791","co38779","norming","","","{""aha"":3}","[0]","../img/tt/096tt.jpg","",""
"null","<div style=""font-size:60px;""> </div>","null","fixation","html-keyboard-response","195","843757","0.0-6.0-0.27","2468791","co38779","norming","","","","","","",""
"null","../img/tt/358tt.jpg","null","mooney1","image-keyboard-response","196","846764","0.0-6.0-1.27","2468791","co38779","norming","","","","","","",""
"6598.79999999993","","","post_mooney1_questions","survey-likert","197","853368","0.0-6.0-2.27","2468791","co38779","norming","","","{""curiosity"":6,""confidence"":1}","[0,1]","../img/tt/358tt.jpg","",""
"957.3000000000466","","","recognition","survey-text","198","854337","0.0-6.0-3.27","2468791","co38779","norming","","","{""guess"":""eend""}","","../img/tt/358tt.jpg","",""
"null","../img/gs/358gs.jpg","null","reveal","image-keyboard-response","199","856335","0.0-6.0-4.27","2468791","co38779","norming","","","","","","",""
"null","../img/tt/358tt.jpg","null","mooney2","image-keyboard-response","200","858340","0.0-6.0-5.27","2468791","co38779","norming","","","","","","",""
"2751.0999999999767","","","post_reveal_questions","survey-likert","201","861096","0.0-6.0-6.27","2468791","co38779","norming","","","{""aha"":6}","[0]","../img/tt/358tt.jpg","",""
"null","<div style=""font-size:60px;""> </div>","null","fixation","html-keyboard-response","202","861313","0.0-6.0-0.28","2468791","co38779","norming","","","","","","",""
"null","../img/tt/517tt.jpg","null","mooney1","image-keyboard-response","203","864322","0.0-6.0-1.28","2468791","co38779","norming","","","","","","",""
"4043.4000000000233","","","post_mooney1_questions","survey-likert","204","868370","0.0-6.0-2.28","2468791","co38779","norming","","","{""curiosity"":6,""confidence"":1}","[0,1]","../img/tt/517tt.jpg","",""
"2318.79999999993","","","recognition","survey-text","205","870701","0.0-6.0-3.28","2468791","co38779","norming","","","{""guess"":""panda""}","","../img/tt/517tt.jpg","",""
"null","../img/gs/517gs.jpg","null","reveal","image-keyboard-response","206","872715","0.0-6.0-4.28","2468791","co38779","norming","","","","","","",""
"null","../img/tt/517tt.jpg","null","mooney2","image-keyboard-response","207","874701","0.0-6.0-5.28","2468791","co38779","norming","","","","","","",""
"2882.6999999999534","","","post_reveal_questions","survey-likert","208","877588","0.0-6.0-6.28","2468791","co38779","norming","","","{""aha"":6}","[0]","../img/tt/517tt.jpg","",""
"null","<div style=""font-size:60px;""> </div>","null","fixation","html-keyboard-response","209","877808","0.0-6.0-0.29","2468791","co38779","norming","","","","","","",""
"null","../img/tt/1091tt.jpg","null","mooney1","image-keyboard-response","210","880822","0.0-6.0-1.29","2468791","co38779","norming","","","","","","",""
"3001","","","post_mooney1_questions","survey-likert","211","883826","0.0-6.0-2.29","2468791","co38779","norming","","","{""curiosity"":6,""confidence"":1}","[0,1]","../img/tt/1091tt.jpg","",""
"2390.600000000093","","","recognition","survey-text","212","886221","0.0-6.0-3.29","2468791","co38779","norming","","","{""guess"":""olifant""}","","../img/tt/1091tt.jpg","",""
"null","../img/gs/1091gs.jpg","null","reveal","image-keyboard-response","213","888242","0.0-6.0-4.29","2468791","co38779","norming","","","","","","",""
"null","../img/tt/1091tt.jpg","null","mooney2","image-keyboard-response","214","890236","0.0-6.0-5.29","2468791","co38779","norming","","","","","","",""
"2672.0999999999767","","","post_reveal_questions","survey-likert","215","892913","0.0-6.0-6.29","2468791","co38779","norming","","","{""aha"":6}","[0]","../img/tt/1091tt.jpg","",""
"null","<div style=""font-size:60px;""> </div>","null","fixation","html-keyboard-response","216","893135","0.0-6.0-0.30","2468791","co38779","norming","","","","","","",""
"null","../img/tt/1123tt.jpg","null","mooney1","image-keyboard-response","217","896150","0.0-6.0-1.30","2468791","co38779","norming","","","","","","",""
"8662.900000000023","","","post_mooney1_questions","survey-likert","218","904817","0.0-6.0-2.30","2468791","co38779","norming","","","{""curiosity"":6,""confidence"":5}","[0,1]","../img/tt/1123tt.jpg","",""
"2501.399999999907","","","recognition","survey-text","219","907331","0.0-6.0-3.30","2468791","co38779","norming","","","{""guess"":""voetballer""}","","../img/tt/1123tt.jpg","",""
"null","../img/gs/1123gs.jpg","null","reveal","image-keyboard-response","220","909344","0.0-6.0-4.30","2468791","co38779","norming","","","","","","",""
"null","../img/tt/1123tt.jpg","null","mooney2","image-keyboard-response","221","911345","0.0-6.0-5.30","2468791","co38779","norming","","","","","","",""
"2878","","","post_reveal_questions","survey-likert","222","914228","0.0-6.0-6.30","2468791","co38779","norming","","","{""aha"":6}","[0]","../img/tt/1123tt.jpg","",""
"null","<div style=""font-size:60px;""> </div>","null","fixation","html-keyboard-response","223","914442","0.0-6.0-0.31","2468791","co38779","norming","","","","","","",""
"null","../img/tt/534tt.jpg","null","mooney1","image-keyboard-response","224","917448","0.0-6.0-1.31","2468791","co38779","norming","","","","","","",""
"5940.199999999953","","","post_mooney1_questions","survey-likert","225","923393","0.0-6.0-2.31","2468791","co38779","norming","","","{""curiosity"":6,""confidence"":0}","[0,1]","../img/tt/534tt.jpg","",""
"1821.2999999999301","","","recognition","survey-text","226","925228","0.0-6.0-3.31","2468791","co38779","norming","","","{""guess"":""""}","","../img/tt/534tt.jpg","",""
"null","../img/gs/534gs.jpg","null","reveal","image-keyboard-response","227","927295","0.0-6.0-4.31","2468791","co38779","norming","","","","","","",""
"null","../img/tt/534tt.jpg","null","mooney2","image-keyboard-response","228","929275","0.0-6.0-5.31","2468791","co38779","norming","","","","","","",""
"3750.0999999999767","","","post_reveal_questions","survey-likert","229","933030","0.0-6.0-6.31","2468791","co38779","norming","","","{""aha"":0}","[0]","../img/tt/534tt.jpg","",""
"null","<div style=""font-size:60px;""> </div>","null","fixation","html-keyboard-response","230","933250","0.0-6.0-0.32","2468791","co38779","norming","","","","","","",""
"null","../img/tt/1048tt.jpg","null","mooney1","image-keyboard-response","231","936263","0.0-6.0-1.32","2468791","co38779","norming","","","","","","",""
"4019.9000000000233","","","post_mooney1_questions","survey-likert","232","940288","0.0-6.0-2.32","2468791","co38779","norming","","","{""curiosity"":6,""confidence"":0}","[0,1]","../img/tt/1048tt.jpg","",""
"291.5","","","recognition","survey-text","233","940586","0.0-6.0-3.32","2468791","co38779","norming","","","{""guess"":""""}","","../img/tt/1048tt.jpg","",""
"null","../img/gs/1048gs.jpg","null","reveal","image-keyboard-response","234","942603","0.0-6.0-4.32","2468791","co38779","norming","","","","","","",""
"null","../img/tt/1048tt.jpg","null","mooney2","image-keyboard-response","235","944605","0.0-6.0-5.32","2468791","co38779","norming","","","","","","",""
"3866","","","post_reveal_questions","survey-likert","236","948475","0.0-6.0-6.32","2468791","co38779","norming","","","{""aha"":0}","[0]","../img/tt/1048tt.jpg","",""
"null","<div style=""font-size:60px;""> </div>","null","fixation","html-keyboard-response","237","948694","0.0-6.0-0.33","2468791","co38779","norming","","","","","","",""
"null","../img/tt/1353tt.jpg","null","mooney1","image-keyboard-response","238","951709","0.0-6.0-1.33","2468791","co38779","norming","","","","","","",""
"4473.599999999977","","","post_mooney1_questions","survey-likert","239","956187","0.0-6.0-2.33","2468791","co38779","norming","","","{""curiosity"":6,""confidence"":0}","[0,1]","../img/tt/1353tt.jpg","",""
"281","","","recognition","survey-text","240","956472","0.0-6.0-3.33","2468791","co38779","norming","","","{""guess"":""""}","","../img/tt/1353tt.jpg","",""
"null","../img/gs/1353gs.jpg","null","reveal","image-keyboard-response","241","958488","0.0-6.0-4.33","2468791","co38779","norming","","","","","","",""
"null","../img/tt/1353tt.jpg","null","mooney2","image-keyboard-response","242","960486","0.0-6.0-5.33","2468791","co38779","norming","","","","","","",""
"3806.600000000093","","","post_reveal_questions","survey-likert","243","964298","0.0-6.0-6.33","2468791","co38779","norming","","","{""aha"":6}","[0]","../img/tt/1353tt.jpg","",""
"null","<div style=""font-size:60px;""> </div>","null","fixation","html-keyboard-response","244","964519","0.0-6.0-0.34","2468791","co38779","norming","","","","","","",""
"null","../img/tt/1033tt.jpg","null","mooney1","image-keyboard-response","245","967533","0.0-6.0-1.34","2468791","co38779","norming","","","","","","",""
"4636","","","post_mooney1_questions","survey-likert","246","972176","0.0-6.0-2.34","2468791","co38779","norming","","","{""curiosity"":6,""confidence"":2}","[0,1]","../img/tt/1033tt.jpg","",""
"2864.8000000000465","","","recognition","survey-text","247","975046","0.0-6.0-3.34","2468791","co38779","norming","","","{""guess"":""schutter""}","","../img/tt/1033tt.jpg","",""
"null","../img/gs/1033gs.jpg","null","reveal","image-keyboard-response","248","977074","0.0-6.0-4.34","2468791","co38779","norming","","","","","","",""
"null","../img/tt/1033tt.jpg","null","mooney2","image-keyboard-response","249","979064","0.0-6.0-5.34","2468791","co38779","norming","","","","","","",""
"3150.5999999998603","","","post_reveal_questions","survey-likert","250","982219","0.0-6.0-6.34","2468791","co38779","norming","","","{""aha"":6}","[0]","../img/tt/1033tt.jpg","",""
"null","<div style=""font-size:60px;""> </div>","null","fixation","html-keyboard-response","251","982444","0.0-6.0-0.35","2468791","co38779","norming","","","","","","",""
"null","../img/tt/1268tt.jpg","null","mooney1","image-keyboard-response","252","985464","0.0-6.0-1.35","2468791","co38779","norming","","","","","","",""
"4510.200000000186","","","post_mooney1_questions","survey-likert","253","989979","0.0-6.0-2.35","2468791","co38779","norming","","","{""curiosity"":6,""confidence"":0}","[0,1]","../img/tt/1268tt.jpg","",""
"1258.3000000000465","","","recognition","survey-text","254","991250","0.0-6.0-3.35","2468791","co38779","norming","","","{""guess"":""""}","","../img/tt/1268tt.jpg","",""
"null","../img/gs/1268gs.jpg","null","reveal","image-keyboard-response","255","993275","0.0-6.0-4.35","2468791","co38779","norming","","","","","","",""
"null","../img/tt/1268tt.jpg","null","mooney2","image-keyboard-response","256","995269","0.0-6.0-5.35","2468791","co38779","norming","","","","","","",""
"2153.3000000000465","","","post_reveal_questions","survey-likert","257","997427","0.0-6.0-6.35","2468791","co38779","norming","","","{""aha"":6}","[0]","../img/tt/1268tt.jpg","",""
"null","<div style=""font-size:60px;""> </div>","null","fixation","html-keyboard-response","258","997649","0.0-6.0-0.36","2468791","co38779","norming","","","","","","",""
"null","../img/tt/1235tt.jpg","null","mooney1","image-keyboard-response","259","1000652","0.0-6.0-1.36","2468791","co38779","norming","","","","","","",""
"3707.399999999907","","","post_mooney1_questions","survey-likert","260","1004364","0.0-6.0-2.36","2468791","co38779","norming","","","{""curiosity"":6,""confidence"":0}","[0,1]","../img/tt/1235tt.jpg","",""
"577.1000000000931","","","recognition","survey-text","261","1004953","0.0-6.0-3.36","2468791","co38779","norming","","","{""guess"":""""}","","../img/tt/1235tt.jpg","",""
"null","../img/gs/1235gs.jpg","null","reveal","image-keyboard-response","262","1006986","0.0-6.0-4.36","2468791","co38779","norming","","","","","","",""
"null","../img/tt/1235tt.jpg","null","mooney2","image-keyboard-response","263","1008965","0.0-6.0-5.36","2468791","co38779","norming","","","","","","",""
"3537.399999999907","","","post_reveal_questions","survey-likert","264","1012507","0.0-6.0-6.36","2468791","co38779","norming","","","{""aha"":5}","[0]","../img/tt/1235tt.jpg","",""
"null","<div style=""font-size:60px;""> </div>","null","fixation","html-keyboard-response","265","1012710","0.0-6.0-0.37","2468791","co38779","norming","","","","","","",""
"null","../img/tt/590tt.jpg","null","mooney1","image-keyboard-response","266","1015725","0.0-6.0-1.37","2468791","co38779","norming","","","","","","",""
"4108.5","","","post_mooney1_questions","survey-likert","267","1019840","0.0-6.0-2.37","2468791","co38779","norming","","","{""curiosity"":6,""confidence"":1}","[0,1]","../img/tt/590tt.jpg","",""
"3017.5999999998603","","","recognition","survey-text","268","1022870","0.0-6.0-3.37","2468791","co38779","norming","","","{""guess"":""pianist""}","","../img/tt/590tt.jpg","",""
"null","../img/gs/590gs.jpg","null","reveal","image-keyboard-response","269","1024892","0.0-6.0-4.37","2468791","co38779","norming","","","","","","",""
"null","../img/tt/590tt.jpg","null","mooney2","image-keyboard-response","270","1026873","0.0-6.0-5.37","2468791","co38779","norming","","","","","","",""
"2094.3000000000465","","","post_reveal_questions","survey-likert","271","1028972","0.0-6.0-6.37","2468791","co38779","norming","","","{""aha"":6}","[0]","../img/tt/590tt.jpg","",""
"null","<div style=""font-size:60px;""> </div>","null","fixation","html-keyboard-response","272","1029192","0.0-6.0-0.38","2468791","co38779","norming","","","","","","",""
"null","../img/tt/1116tt.jpg","null","mooney1","image-keyboard-response","273","1032213","0.0-6.0-1.38","2468791","co38779","norming","","","","","","",""
"5611.59999999986","","","post_mooney1_questions","survey-likert","274","1037830","0.0-6.0-2.38","2468791","co38779","norming","","","{""curiosity"":6,""confidence"":0}","[0,1]","../img/tt/1116tt.jpg","",""
"1321","","","recognition","survey-text","275","1039164","0.0-6.0-3.38","2468791","co38779","norming","","","{""guess"":""vogels""}","","../img/tt/1116tt.jpg","",""
"null","../img/gs/1116gs.jpg","null","reveal","image-keyboard-response","276","1041185","0.0-6.0-4.38","2468791","co38779","norming","","","","","","",""
"null","../img/tt/1116tt.jpg","null","mooney2","image-keyboard-response","277","1043182","0.0-6.0-5.38","2468791","co38779","norming","","","","","","",""
"2382.1999999999534","","","post_reveal_questions","survey-likert","278","1045569","0.0-6.0-6.38","2468791","co38779","norming","","","{""aha"":6}","[0]","../img/tt/1116tt.jpg","",""
"null","<div style=""font-size:60px;""> </div>","null","fixation","html-keyboard-response","279","1045789","0.0-6.0-0.39","2468791","co38779","norming","","","","","","",""
"null","../img/tt/1061tt.jpg","null","mooney1","image-keyboard-response","280","1048796","0.0-6.0-1.39","2468791","co38779","norming","","","","","","",""
"4601.90000000014","","","post_mooney1_questions","survey-likert","281","1053402","0.0-6.0-2.39","2468791","co38779","norming","","","{""curiosity"":6,""confidence"":0}","[0,1]","../img/tt/1061tt.jpg","",""
"355.5999999998603","","","recognition","survey-text","282","1053763","0.0-6.0-3.39","2468791","co38779","norming","","","{""guess"":""""}","","../img/tt/1061tt.jpg","",""
"null","../img/gs/1061gs.jpg","null","reveal","image-keyboard-response","283","1055784","0.0-6.0-4.39","2468791","co38779","norming","","","","","","",""
"null","../img/tt/1061tt.jpg","null","mooney2","image-keyboard-response","284","1057781","0.0-6.0-5.39","2468791","co38779","norming","","","","","","",""
"2850.399999999907","","","post_reveal_questions","survey-likert","285","1060635","0.0-6.0-6.39","2468791","co38779","norming","","","{""aha"":6}","[0]","../img/tt/1061tt.jpg","",""
"null","<div style=""font-size:60px;""> </div>","null","fixation","html-keyboard-response","286","1060843","0.0-6.0-0.40","2468791","co38779","norming","","","","","","",""
"null","../img/tt/1089tt.jpg","null","mooney1","image-keyboard-response","287","1063866","0.0-6.0-1.40","2468791","co38779","norming","","","","","","",""
"6086.899999999907","","","post_mooney1_questions","survey-likert","288","1069959","0.0-6.0-2.40","2468791","co38779","norming","","","{""curiosity"":6,""confidence"":6}","[0,1]","../img/tt/1089tt.jpg","",""
"2378.600000000093","","","recognition","survey-text","289","1072344","0.0-6.0-3.40","2468791","co38779","norming","","","{""guess"":""olifant""}","","../img/tt/1089tt.jpg","",""
"null","../img/gs/1089gs.jpg","null","reveal","image-keyboard-response","290","1074363","0.0-6.0-4.40","2468791","co38779","norming","","","","","","",""
"null","../img/tt/1089tt.jpg","null","mooney2","image-keyboard-response","291","1076361","0.0-6.0-5.40","2468791","co38779","norming","","","","","","",""
"4170.59999999986","","","post_reveal_questions","survey-likert","292","1080537","0.0-6.0-6.40","2468791","co38779","norming","","","{""aha"":2}","[0]","../img/tt/1089tt.jpg","",""
"null","<div style=""font-size:60px;""> </div>","null","fixation","html-keyboard-response","293","1080750","0.0-6.0-0.41","2468791","co38779","norming","","","","","","",""
"null","../img/tt/481tt.jpg","null","mooney1","image-keyboard-response","294","1083782","0.0-6.0-1.41","2468791","co38779","norming","","","","","","",""
"7755.5","","","post_mooney1_questions","survey-likert","295","1091541","0.0-6.0-2.41","2468791","co38779","norming","","","{""curiosity"":6,""confidence"":6}","[0,1]","../img/tt/481tt.jpg","",""
"2194.5","","","recognition","survey-text","296","1093741","0.0-6.0-3.41","2468791","co38779","norming","","","{""guess"":""hond""}","","../img/tt/481tt.jpg","",""
"null","../img/gs/481gs.jpg","null","reveal","image-keyboard-response","297","1095757","0.0-6.0-4.41","2468791","co38779","norming","","","","","","",""
"null","../img/tt/481tt.jpg","null","mooney2","image-keyboard-response","298","1097760","0.0-6.0-5.41","2468791","co38779","norming","","","","","","",""
"3614.3000000000465","","","post_reveal_questions","survey-likert","299","1101380","0.0-6.0-6.41","2468791","co38779","norming","","","{""aha"":2}","[0]","../img/tt/481tt.jpg","",""
"null","<div style=""font-size:60px;""> </div>","null","fixation","html-keyboard-response","300","1101610","0.0-6.0-0.42","2468791","co38779","norming","","","","","","",""
"null","../img/tt/1269tt.jpg","null","mooney1","image-keyboard-response","301","1104625","0.0-6.0-1.42","2468791","co38779","norming","","","","","","",""
"10999.699999999953","","","post_mooney1_questions","survey-likert","302","1115630","0.0-6.0-2.42","2468791","co38779","norming","","","{""curiosity"":6,""confidence"":3}","[0,1]","../img/tt/1269tt.jpg","",""
"1841.0999999998603","","","recognition","survey-text","303","1117484","0.0-6.0-3.42","2468791","co38779","norming","","","{""guess"":""kat""}","","../img/tt/1269tt.jpg","",""
"null","../img/gs/1269gs.jpg","null","reveal","image-keyboard-response","304","1119497","0.0-6.0-4.42","2468791","co38779","norming","","","","","","",""
"null","../img/tt/1269tt.jpg","null","mooney2","image-keyboard-response","305","1121497","0.0-6.0-5.42","2468791","co38779","norming","","","","","","",""
"4992.399999999907","","","post_reveal_questions","survey-likert","306","1126493","0.0-6.0-6.42","2468791","co38779","norming","","","{""aha"":1}","[0]","../img/tt/1269tt.jpg","",""
"null","<div style=""font-size:60px;""> </div>","null","fixation","html-keyboard-response","307","1126715","0.0-6.0-0.43","2468791","co38779","norming","","","","","","",""
"null","../img/tt/270tt.jpg","null","mooney1","image-keyboard-response","308","1129733","0.0-6.0-1.43","2468791","co38779","norming","","","","","","",""
"3306.8000000000465","","","post_mooney1_questions","survey-likert","309","1133045","0.0-6.0-2.43","2468791","co38779","norming","","","{""curiosity"":6,""confidence"":0}","[0,1]","../img/tt/270tt.jpg","",""
"486.0999999998603","","","recognition","survey-text","310","1133538","0.0-6.0-3.43","2468791","co38779","norming","","","{""guess"":""""}","","../img/tt/270tt.jpg","",""
"null","../img/gs/270gs.jpg","null","reveal","image-keyboard-response","311","1135559","0.0-6.0-4.43","2468791","co38779","norming","","","","","","",""
"null","../img/tt/270tt.jpg","null","mooney2","image-keyboard-response","312","1137566","0.0-6.0-5.43","2468791","co38779","norming","","","","","","",""
"3332.100000000093","","","post_reveal_questions","survey-likert","313","1140903","0.0-6.0-6.43","2468791","co38779","norming","","","{""aha"":0}","[0]","../img/tt/270tt.jpg","",""
"null","<div style=""font-size:60px;""> </div>","null","fixation","html-keyboard-response","314","1141125","0.0-6.0-0.44","2468791","co38779","norming","","","","","","",""
"null","../img/tt/468tt.jpg","null","mooney1","image-keyboard-response","315","1144138","0.0-6.0-1.44","2468791","co38779","norming","","","","","","",""
"7541.300000000047","","","post_mooney1_questions","survey-likert","316","1151685","0.0-6.0-2.44","2468791","co38779","norming","","","{""curiosity"":6,""confidence"":0}","[0,1]","../img/tt/468tt.jpg","",""
"1004.8000000000466","","","recognition","survey-text","317","1152696","0.0-6.0-3.44","2468791","co38779","norming","","","{""guess"":""""}","","../img/tt/468tt.jpg","",""
"null","../img/gs/468gs.jpg","null","reveal","image-keyboard-response","318","1154710","0.0-6.0-4.44","2468791","co38779","norming","","","","","","",""
"null","../img/tt/468tt.jpg","null","mooney2","image-keyboard-response","319","1156704","0.0-6.0-5.44","2468791","co38779","norming","","","","","","",""
"2635.5999999998603","","","post_reveal_questions","survey-likert","320","1159345","0.0-6.0-6.44","2468791","co38779","norming","","","{""aha"":6}","[0]","../img/tt/468tt.jpg","",""
"null","<div style=""font-size:60px;""> </div>","null","fixation","html-keyboard-response","321","1159570","0.0-6.0-0.45","2468791","co38779","norming","","","","","","",""
"null","../img/tt/076tt.jpg","null","mooney1","image-keyboard-response","322","1162573","0.0-6.0-1.45","2468791","co38779","norming","","","","","","",""
"5038.199999999953","","","post_mooney1_questions","survey-likert","323","1167616","0.0-6.0-2.45","2468791","co38779","norming","","","{""curiosity"":6,""confidence"":1}","[0,1]","../img/tt/076tt.jpg","",""
"2707.6999999999534","","","recognition","survey-text","324","1170329","0.0-6.0-3.45","2468791","co38779","norming","","","{""guess"":""rollerskat'e""}","","../img/tt/076tt.jpg","",""
"null","../img/gs/076gs.jpg","null","reveal","image-keyboard-response","325","1172342","0.0-6.0-4.45","2468791","co38779","norming","","","","","","",""
"null","../img/tt/076tt.jpg","null","mooney2","image-keyboard-response","326","1174338","0.0-6.0-5.45","2468791","co38779","norming","","","","","","",""
"3947","","","post_reveal_questions","survey-likert","327","1178289","0.0-6.0-6.45","2468791","co38779","norming","","","{""aha"":2}","[0]","../img/tt/076tt.jpg","",""
"null","<div style=""font-size:60px;""> </div>","null","fixation","html-keyboard-response","328","1178508","0.0-6.0-0.46","2468791","co38779","norming","","","","","","",""
"null","../img/tt/552tt.jpg","null","mooney1","image-keyboard-response","329","1181534","0.0-6.0-1.46","2468791","co38779","norming","","","","","","",""
"5307.199999999953","","","post_mooney1_questions","survey-likert","330","1186846","0.0-6.0-2.46","2468791","co38779","norming","","","{""curiosity"":6,""confidence"":0}","[0,1]","../img/tt/552tt.jpg","",""
"1464","","","recognition","survey-text","331","1188322","0.0-6.0-3.46","2468791","co38779","norming","","","{""guess"":""""}","","../img/tt/552tt.jpg","",""
"null","../img/gs/552gs.jpg","null","reveal","image-keyboard-response","332","1190330","0.0-6.0-4.46","2468791","co38779","norming","","","","","","",""
"null","../img/tt/552tt.jpg","null","mooney2","image-keyboard-response","333","1192338","0.0-6.0-5.46","2468791","co38779","norming","","","","","","",""
"3268.8000000000465","","","post_reveal_questions","survey-likert","334","1195611","0.0-6.0-6.46","2468791","co38779","norming","","","{""aha"":6}","[0]","../img/tt/552tt.jpg","",""
"null","<div style=""font-size:60px;""> </div>","null","fixation","html-keyboard-response","335","1195848","0.0-6.0-0.47","2468791","co38779","norming","","","","","","",""
"null","../img/tt/1171tt.jpg","null","mooney1","image-keyboard-response","336","1198866","0.0-6.0-1.47","2468791","co38779","norming","","","","","","",""
"4545.600000000093","","","post_mooney1_questions","survey-likert","337","1203418","0.0-6.0-2.47","2468791","co38779","norming","","","{""curiosity"":6,""confidence"":0}","[0,1]","../img/tt/1171tt.jpg","",""
"843.8999999999069","","","recognition","survey-text","338","1204279","0.0-6.0-3.47","2468791","co38779","norming","","","{""guess"":""""}","","../img/tt/1171tt.jpg","",""
"null","../img/gs/1171gs.jpg","null","reveal","image-keyboard-response","339","1206299","0.0-6.0-4.47","2468791","co38779","norming","","","","","","",""
"null","../img/tt/1171tt.jpg","null","mooney2","image-keyboard-response","340","1208297","0.0-6.0-5.47","2468791","co38779","norming","","","","","","",""
"3456.600000000093","","","post_reveal_questions","survey-likert","341","1211759","0.0-6.0-6.47","2468791","co38779","norming","","","{""aha"":6}","[0]","../img/tt/1171tt.jpg","",""
"null","<div style=""font-size:60px;""> </div>","null","fixation","html-keyboard-response","342","1211969","0.0-6.0-0.48","2468791","co38779","norming","","","","","","",""
"null","../img/tt/1161tt.jpg","null","mooney1","image-keyboard-response","343","1214993","0.0-6.0-1.48","2468791","co38779","norming","","","","","","",""
"4248.300000000047","","","post_mooney1_questions","survey-likert","344","1219248","0.0-6.0-2.48","2468791","co38779","norming","","","{""curiosity"":6,""confidence"":0}","[0,1]","../img/tt/1161tt.jpg","",""
"366.19999999995343","","","recognition","survey-text","345","1219630","0.0-6.0-3.48","2468791","co38779","norming","","","{""guess"":""""}","","../img/tt/1161tt.jpg","",""
"null","../img/gs/1161gs.jpg","null","reveal","image-keyboard-response","346","1221652","0.0-6.0-4.48","2468791","co38779","norming","","","","","","",""
"null","../img/tt/1161tt.jpg","null","mooney2","image-keyboard-response","347","1223641","0.0-6.0-5.48","2468791","co38779","norming","","","","","","",""
"3372.6999999999534","","","post_reveal_questions","survey-likert","348","1227018","0.0-6.0-6.48","2468791","co38779","norming","","","{""aha"":4}","[0]","../img/tt/1161tt.jpg","",""
"null","<div style=""font-size:60px;""> </div>","null","fixation","html-keyboard-response","349","1227226","0.0-6.0-0.49","2468791","co38779","norming","","","","","","",""
"null","../img/tt/1226tt.jpg","null","mooney1","image-keyboard-response","350","1230240","0.0-6.0-1.49","2468791","co38779","norming","","","","","","",""
"5884","","","post_mooney1_questions","survey-likert","351","1236128","0.0-6.0-2.49","2468791","co38779","norming","","","{""curiosity"":6,""confidence"":1}","[0,1]","../img/tt/1226tt.jpg","",""
"2446","","","recognition","survey-text","352","1238579","0.0-6.0-3.49","2468791","co38779","norming","","","{""guess"":""zwaan""}","","../img/tt/1226tt.jpg","",""
"null","../img/gs/1226gs.jpg","null","reveal","image-keyboard-response","353","1240599","0.0-6.0-4.49","2468791","co38779","norming","","","","","","",""
"null","../img/tt/1226tt.jpg","null","mooney2","image-keyboard-response","354","1242603","0.0-6.0-5.49","2468791","co38779","norming","","","","","","",""
"3762.2999999998137","","","post_reveal_questions","survey-likert","355","1246370","0.0-6.0-6.49","2468791","co38779","norming","","","{""aha"":3}","[0]","../img/tt/1226tt.jpg","",""
"null","<div style=""font-size:60px;""> </div>","null","fixation","html-keyboard-response","356","1246593","0.0-6.0-0.50","2468791","co38779","norming","","","","","","",""
"null","../img/tt/329tt.jpg","null","mooney1","image-keyboard-response","357","1249605","0.0-6.0-1.50","2468791","co38779","norming","","","","","","",""
"6392.799999999814","","","post_mooney1_questions","survey-likert","358","1256002","0.0-6.0-2.50","2468791","co38779","norming","","","{""curiosity"":6,""confidence"":0}","[0,1]","../img/tt/329tt.jpg","",""
"832.2999999998137","","","recognition","survey-text","359","1256848","0.0-6.0-3.50","2468791","co38779","norming","","","{""guess"":""""}","","../img/tt/329tt.jpg","",""
"null","../img/gs/329gs.jpg","null","reveal","image-keyboard-response","360","1258853","0.0-6.0-4.50","2468791","co38779","norming","","","","","","",""
"null","../img/tt/329tt.jpg","null","mooney2","image-keyboard-response","361","1260868","0.0-6.0-5.50","2468791","co38779","norming","","","","","","",""
"5058.5","","","post_reveal_questions","survey-likert","362","1265932","0.0-6.0-6.50","2468791","co38779","norming","","","{""aha"":6}","[0]","../img/tt/329tt.jpg","",""
"null","<div style=""font-size:60px;""> </div>","null","fixation","html-keyboard-response","363","1266150","0.0-6.0-0.51","2468791","co38779","norming","","","","","","",""
"null","../img/tt/105tt.jpg","null","mooney1","image-keyboard-response","364","1269177","0.0-6.0-1.51","2468791","co38779","norming","","","","","","",""
"22154.899999999907","","","post_mooney1_questions","survey-likert","365","1291337","0.0-6.0-2.51","2468791","co38779","norming","","","{""curiosity"":6,""confidence"":0}","[0,1]","../img/tt/105tt.jpg","",""
"4734.09999999986","","","recognition","survey-text","366","1296084","0.0-6.0-3.51","2468791","co38779","norming","","","{""guess"":""pieceteken""}","","../img/tt/105tt.jpg","",""
"null","../img/gs/105gs.jpg","null","reveal","image-keyboard-response","367","1298103","0.0-6.0-4.51","2468791","co38779","norming","","","","","","",""
"null","../img/tt/105tt.jpg","null","mooney2","image-keyboard-response","368","1300097","0.0-6.0-5.51","2468791","co38779","norming","","","","","","",""
"2921.2000000001862","","","post_reveal_questions","survey-likert","369","1303023","0.0-6.0-6.51","2468791","co38779","norming","","","{""aha"":6}","[0]","../img/tt/105tt.jpg","",""
"null","<div style=""font-size:60px;""> </div>","null","fixation","html-keyboard-response","370","1303234","0.0-6.0-0.52","2468791","co38779","norming","","","","","","",""
"null","../img/tt/1261tt.jpg","null","mooney1","image-keyboard-response","371","1306244","0.0-6.0-1.52","2468791","co38779","norming","","","","","","",""
"3672.899999999907","","","post_mooney1_questions","survey-likert","372","1309923","0.0-6.0-2.52","2468791","co38779","norming","","","{""curiosity"":6,""confidence"":0}","[0,1]","../img/tt/1261tt.jpg","",""
"2058.2000000001862","","","recognition","survey-text","373","1311994","0.0-6.0-3.52","2468791","co38779","norming","","","{""guess"":""garfield""}","","../img/tt/1261tt.jpg","",""
"null","../img/gs/1261gs.jpg","null","reveal","image-keyboard-response","374","1314009","0.0-6.0-4.52","2468791","co38779","norming","","","","","","",""
"null","../img/tt/1261tt.jpg","null","mooney2","image-keyboard-response","375","1316006","0.0-6.0-5.52","2468791","co38779","norming","","","","","","",""
"3483.8000000000465","","","post_reveal_questions","survey-likert","376","1319494","0.0-6.0-6.52","2468791","co38779","norming","","","{""aha"":6}","[0]","../img/tt/1261tt.jpg","",""
"null","<div style=""font-size:60px;""> </div>","null","fixation","html-keyboard-response","377","1319705","0.0-6.0-0.53","2468791","co38779","norming","","","","","","",""
"null","../img/tt/008tt.jpg","null","mooney1","image-keyboard-response","378","1322716","0.0-6.0-1.53","2468791","co38779","norming","","","","","","",""
"4062.5","","","post_mooney1_questions","survey-likert","379","1326783","0.0-6.0-2.53","2468791","co38779","norming","","","{""curiosity"":6,""confidence"":1}","[0,1]","../img/tt/008tt.jpg","",""
"4003.4000000001397","","","recognition","survey-text","380","1330792","0.0-6.0-3.53","2468791","co38779","norming","","","{""guess"":""springkaan""}","","../img/tt/008tt.jpg","",""
"null","../img/gs/008gs.jpg","null","reveal","image-keyboard-response","381","1332812","0.0-6.0-4.53","2468791","co38779","norming","","","","","","",""
"null","../img/tt/008tt.jpg","null","mooney2","image-keyboard-response","382","1334796","0.0-6.0-5.53","2468791","co38779","norming","","","","","","",""
"3024.3000000000465","","","post_reveal_questions","survey-likert","383","1337825","0.0-6.0-6.53","2468791","co38779","norming","","","{""aha"":6}","[0]","../img/tt/008tt.jpg","",""
"null","<div style=""font-size:60px;""> </div>","null","fixation","html-keyboard-response","384","1338036","0.0-6.0-0.54","2468791","co38779","norming","","","","","","",""
"null","../img/tt/111tt.jpg","null","mooney1","image-keyboard-response","385","1341069","0.0-6.0-1.54","2468791","co38779","norming","","","","","","",""
"5321.100000000093","","","post_mooney1_questions","survey-likert","386","1346395","0.0-6.0-2.54","2468791","co38779","norming","","","{""curiosity"":6,""confidence"":0}","[0,1]","../img/tt/111tt.jpg","",""
"1475.5999999998603","","","recognition","survey-text","387","1347885","0.0-6.0-3.54","2468791","co38779","norming","","","{""guess"":""""}","","../img/tt/111tt.jpg","",""
"null","../img/gs/111gs.jpg","null","reveal","image-keyboard-response","388","1349917","0.0-6.0-4.54","2468791","co38779","norming","","","","","","",""
"null","../img/tt/111tt.jpg","null","mooney2","image-keyboard-response","389","1351907","0.0-6.0-5.54","2468791","co38779","norming","","","","","","",""
"2675.5","","","post_reveal_questions","survey-likert","390","1354588","0.0-6.0-6.54","2468791","co38779","norming","","","{""aha"":6}","[0]","../img/tt/111tt.jpg","",""
"null","<div style=""font-size:60px;""> </div>","null","fixation","html-keyboard-response","391","1354795","0.0-6.0-0.55","2468791","co38779","norming","","","","","","",""
"null","../img/tt/1242tt.jpg","null","mooney1","image-keyboard-response","392","1357807","0.0-6.0-1.55","2468791","co38779","norming","","","","","","",""
"8246.700000000186","","","post_mooney1_questions","survey-likert","393","1366062","0.0-6.0-2.55","2468791","co38779","norming","","","{""curiosity"":6,""confidence"":0}","[0,1]","../img/tt/1242tt.jpg","",""
"911.2000000001863","","","recognition","survey-text","394","1366988","0.0-6.0-3.55","2468791","co38779","norming","","","{""guess"":""""}","","../img/tt/1242tt.jpg","",""
"null","../img/gs/1242gs.jpg","null","reveal","image-keyboard-response","395","1369012","0.0-6.0-4.55","2468791","co38779","norming","","","","","","",""
"null","../img/tt/1242tt.jpg","null","mooney2","image-keyboard-response","396","1370994","0.0-6.0-5.55","2468791","co38779","norming","","","","","","",""
"4295.800000000047","","","post_reveal_questions","survey-likert","397","1375295","0.0-6.0-6.55","2468791","co38779","norming","","","{""aha"":5}","[0]","../img/tt/1242tt.jpg","",""
"null","<div style=""font-size:60px;""> </div>","null","fixation","html-keyboard-response","398","1375518","0.0-6.0-0.56","2468791","co38779","norming","","","","","","",""
"null","../img/tt/1290tt.jpg","null","mooney1","image-keyboard-response","399","1378532","0.0-6.0-1.56","2468791","co38779","norming","","","","","","",""
"5175.399999999907","","","post_mooney1_questions","survey-likert","400","1383712","0.0-6.0-2.56","2468791","co38779","norming","","","{""curiosity"":6,""confidence"":1}","[0,1]","../img/tt/1290tt.jpg","",""
"1384.4000000001397","","","recognition","survey-text","401","1385101","0.0-6.0-3.56","2468791","co38779","norming","","","{""guess"":""dief""}","","../img/tt/1290tt.jpg","",""
"null","../img/gs/1290gs.jpg","null","reveal","image-keyboard-response","402","1387113","0.0-6.0-4.56","2468791","co38779","norming","","","","","","",""
"null","../img/tt/1290tt.jpg","null","mooney2","image-keyboard-response","403","1389110","0.0-6.0-5.56","2468791","co38779","norming","","","","","","",""
"3195.7000000001862","","","post_reveal_questions","survey-likert","404","1392311","0.0-6.0-6.56","2468791","co38779","norming","","","{""aha"":6}","[0]","../img/tt/1290tt.jpg","",""
"null","<div style=""font-size:60px;""> </div>","null","fixation","html-keyboard-response","405","1392539","0.0-6.0-0.57","2468791","co38779","norming","","","","","","",""
"null","../img/tt/049tt.jpg","null","mooney1","image-keyboard-response","406","1395561","0.0-6.0-1.57","2468791","co38779","norming","","","","","","",""
"5201","","","post_mooney1_questions","survey-likert","407","1400768","0.0-6.0-2.57","2468791","co38779","norming","","","{""curiosity"":6,""confidence"":0}","[0,1]","../img/tt/049tt.jpg","",""
"1593.3000000000465","","","recognition","survey-text","408","1402375","0.0-6.0-3.57","2468791","co38779","norming","","","{""guess"":""""}","","../img/tt/049tt.jpg","",""
"null","../img/gs/049gs.jpg","null","reveal","image-keyboard-response","409","1404382","0.0-6.0-4.57","2468791","co38779","norming","","","","","","",""
"null","../img/tt/049tt.jpg","null","mooney2","image-keyboard-response","410","1406401","0.0-6.0-5.57","2468791","co38779","norming","","","","","","",""
"2303.3000000000465","","","post_reveal_questions","survey-likert","411","1408709","0.0-6.0-6.57","2468791","co38779","norming","","","{""aha"":6}","[0]","../img/tt/049tt.jpg","",""
"null","<div style=""font-size:60px;""> </div>","null","fixation","html-keyboard-response","412","1408933","0.0-6.0-0.58","2468791","co38779","norming","","","","","","",""
"null","../img/tt/194tt.jpg","null","mooney1","image-keyboard-response","413","1411948","0.0-6.0-1.58","2468791","co38779","norming","","","","","","",""
"8021.200000000186","","","post_mooney1_questions","survey-likert","414","1419974","0.0-6.0-2.58","2468791","co38779","norming","","","{""curiosity"":6,""confidence"":1}","[0,1]","../img/tt/194tt.jpg","",""
"1517.6999999999534","","","recognition","survey-text","415","1421499","0.0-6.0-3.58","2468791","co38779","norming","","","{""guess"":""bank""}","","../img/tt/194tt.jpg","",""
"null","../img/gs/194gs.jpg","null","reveal","image-keyboard-response","416","1423516","0.0-6.0-4.58","2468791","co38779","norming","","","","","","",""
"null","../img/tt/194tt.jpg","null","mooney2","image-keyboard-response","417","1425511","0.0-6.0-5.58","2468791","co38779","norming","","","","","","",""
"2069.3000000000465","","","post_reveal_questions","survey-likert","418","1427585","0.0-6.0-6.58","2468791","co38779","norming","","","{""aha"":6}","[0]","../img/tt/194tt.jpg","",""
"null","<div style=""font-size:60px;""> </div>","null","fixation","html-keyboard-response","419","1427809","0.0-6.0-0.59","2468791","co38779","norming","","","","","","",""
"null","../img/tt/435tt.jpg","null","mooney1","image-keyboard-response","420","1430826","0.0-6.0-1.59","2468791","co38779","norming","","","","","","",""
"4180.100000000093","","","post_mooney1_questions","survey-likert","421","1435010","0.0-6.0-2.59","2468791","co38779","norming","","","{""curiosity"":6,""confidence"":6}","[0,1]","../img/tt/435tt.jpg","",""
"3704.4000000001397","","","recognition","survey-text","422","1438722","0.0-6.0-3.59","2468791","co38779","norming","","","{""guess"":""pooltafel""}","","../img/tt/435tt.jpg","",""
"null","../img/gs/435gs.jpg","null","reveal","image-keyboard-response","423","1440754","0.0-6.0-4.59","2468791","co38779","norming","","","","","","",""
"null","../img/tt/435tt.jpg","null","mooney2","image-keyboard-response","424","1442753","0.0-6.0-5.59","2468791","co38779","norming","","","","","","",""
"2015","","","post_reveal_questions","survey-likert","425","1444773","0.0-6.0-6.59","2468791","co38779","norming","","","{""aha"":6}","[0]","../img/tt/435tt.jpg","",""
"null","<div style=""font-size:60px;""> </div>","null","fixation","html-keyboard-response","426","1445002","0.0-6.0-0.60","2468791","co38779","norming","","","","","","",""
"null","../img/tt/1254tt.jpg","null","mooney1","image-keyboard-response","427","1448003","0.0-6.0-1.60","2468791","co38779","norming","","","","","","",""
"3956.899999999907","","","post_mooney1_questions","survey-likert","428","1451966","0.0-6.0-2.60","2468791","co38779","norming","","","{""curiosity"":6,""confidence"":0}","[0,1]","../img/tt/1254tt.jpg","",""
"303.69999999995343","","","recognition","survey-text","429","1452276","0.0-6.0-3.60","2468791","co38779","norming","","","{""guess"":""""}","","../img/tt/1254tt.jpg","",""
"null","../img/gs/1254gs.jpg","null","reveal","image-keyboard-response","430","1454282","0.0-6.0-4.60","2468791","co38779","norming","","","","","","",""
"null","../img/tt/1254tt.jpg","null","mooney2","image-keyboard-response","431","1456278","0.0-6.0-5.60","2468791","co38779","norming","","","","","","",""
"4591.90000000014","","","post_reveal_questions","survey-likert","432","1460875","0.0-6.0-6.60","2468791","co38779","norming","","","{""aha"":6}","[0]","../img/tt/1254tt.jpg","",""
"null","<div style=""font-size:60px;""> </div>","null","fixation","html-keyboard-response","433","1461097","0.0-6.0-0.61","2468791","co38779","norming","","","","","","",""
"null","../img/tt/222tt.jpg","null","mooney1","image-keyboard-response","434","1464124","0.0-6.0-1.61","2468791","co38779","norming","","","","","","",""
"8700","","","post_mooney1_questions","survey-likert","435","1472827","0.0-6.0-2.61","2468791","co38779","norming","","","{""curiosity"":6,""confidence"":0}","[0,1]","../img/tt/222tt.jpg","",""
"267.5999999998603","","","recognition","survey-text","436","1473102","0.0-6.0-3.61","2468791","co38779","norming","","","{""guess"":""""}","","../img/tt/222tt.jpg","",""
"null","../img/gs/222gs.jpg","null","reveal","image-keyboard-response","437","1475119","0.0-6.0-4.61","2468791","co38779","norming","","","","","","",""
"null","../img/tt/222tt.jpg","null","mooney2","image-keyboard-response","438","1477124","0.0-6.0-5.61","2468791","co38779","norming","","","","","","",""
"3128.0999999998603","","","post_reveal_questions","survey-likert","439","1480257","0.0-6.0-6.61","2468791","co38779","norming","","","{""aha"":6}","[0]","../img/tt/222tt.jpg","",""
"null","<div style=""font-size:60px;""> </div>","null","fixation","html-keyboard-response","440","1480469","0.0-6.0-0.62","2468791","co38779","norming","","","","","","",""
"null","../img/tt/007tt.jpg","null","mooney1","image-keyboard-response","441","1483482","0.0-6.0-1.62","2468791","co38779","norming","","","","","","",""
"3725.600000000093","","","post_mooney1_questions","survey-likert","442","1487213","0.0-6.0-2.62","2468791","co38779","norming","","","{""curiosity"":6,""confidence"":0}","[0,1]","../img/tt/007tt.jpg","",""
"609.1000000000931","","","recognition","survey-text","443","1487828","0.0-6.0-3.62","2468791","co38779","norming","","","{""guess"":""µ""}","","../img/tt/007tt.jpg","",""
"null","../img/gs/007gs.jpg","null","reveal","image-keyboard-response","444","1489851","0.0-6.0-4.62","2468791","co38779","norming","","","","","","",""
"null","../img/tt/007tt.jpg","null","mooney2","image-keyboard-response","445","1491863","0.0-6.0-5.62","2468791","co38779","norming","","","","","","",""
"4670.600000000093","","","post_reveal_questions","survey-likert","446","1496539","0.0-6.0-6.62","2468791","co38779","norming","","","{""aha"":5}","[0]","../img/tt/007tt.jpg","",""
"null","<div style=""font-size:60px;""> </div>","null","fixation","html-keyboard-response","447","1496756","0.0-6.0-0.63","2468791","co38779","norming","","","","","","",""
"null","../img/tt/1055tt.jpg","null","mooney1","image-keyboard-response","448","1499769","0.0-6.0-1.63","2468791","co38779","norming","","","","","","",""
"3955","","","post_mooney1_questions","survey-likert","449","1503731","0.0-6.0-2.63","2468791","co38779","norming","","","{""curiosity"":6,""confidence"":1}","[0,1]","../img/tt/1055tt.jpg","",""
"1753.7000000001862","","","recognition","survey-text","450","1505493","0.0-6.0-3.63","2468791","co38779","norming","","","{""guess"":""zee""}","","../img/tt/1055tt.jpg","",""
"null","../img/gs/1055gs.jpg","null","reveal","image-keyboard-response","451","1507507","0.0-6.0-4.63","2468791","co38779","norming","","","","","","",""
"null","../img/tt/1055tt.jpg","null","mooney2","image-keyboard-response","452","1509513","0.0-6.0-5.63","2468791","co38779","norming","","","","","","",""
"3278.399999999907","","","post_reveal_questions","survey-likert","453","1512795","0.0-6.0-6.63","2468791","co38779","norming","","","{""aha"":6}","[0]","../img/tt/1055tt.jpg","",""
"null","<div style=""font-size:60px;""> </div>","null","fixation","html-keyboard-response","454","1513015","0.0-6.0-0.64","2468791","co38779","norming","","","","","","",""
"null","../img/tt/189tt.jpg","null","mooney1","image-keyboard-response","455","1516035","0.0-6.0-1.64","2468791","co38779","norming","","","","","","",""
"2728.399999999907","","","post_mooney1_questions","survey-likert","456","1518768","0.0-6.0-2.64","2468791","co38779","norming","","","{""curiosity"":6,""confidence"":1}","[0,1]","../img/tt/189tt.jpg","",""
"1784.4000000001397","","","recognition","survey-text","457","1520557","0.0-6.0-3.64","2468791","co38779","norming","","","{""guess"":""bureau""}","","../img/tt/189tt.jpg","",""
"null","../img/gs/189gs.jpg","null","reveal","image-keyboard-response","458","1522566","0.0-6.0-4.64","2468791","co38779","norming","","","","","","",""
"null","../img/tt/189tt.jpg","null","mooney2","image-keyboard-response","459","1524587","0.0-6.0-5.64","2468791","co38779","norming","","","","","","",""
"3462.399999999907","","","post_reveal_questions","survey-likert","460","1528053","0.0-6.0-6.64","2468791","co38779","norming","","","{""aha"":6}","[0]","../img/tt/189tt.jpg","",""
"null","<div style=""font-size:60px;""> </div>","null","fixation","html-keyboard-response","461","1528278","0.0-6.0-0.65","2468791","co38779","norming","","","","","","",""
"null","../img/tt/301tt.jpg","null","mooney1","image-keyboard-response","462","1531299","0.0-6.0-1.65","2468791","co38779","norming","","","","","","",""
"5057.5","","","post_mooney1_questions","survey-likert","463","1536362","0.0-6.0-2.65","2468791","co38779","norming","","","{""curiosity"":6,""confidence"":0}","[0,1]","../img/tt/301tt.jpg","",""
"246.0999999998603","","","recognition","survey-text","464","1536622","0.0-6.0-3.65","2468791","co38779","norming","","","{""guess"":""""}","","../img/tt/301tt.jpg","",""
"null","../img/gs/301gs.jpg","null","reveal","image-keyboard-response","465","1538626","0.0-6.0-4.65","2468791","co38779","norming","","","","","","",""
"null","../img/tt/301tt.jpg","null","mooney2","image-keyboard-response","466","1540626","0.0-6.0-5.65","2468791","co38779","norming","","","","","","",""
"2830.399999999907","","","post_reveal_questions","survey-likert","467","1543461","0.0-6.0-6.65","2468791","co38779","norming","","","{""aha"":6}","[0]","../img/tt/301tt.jpg","",""
"null","<div style=""font-size:60px;""> </div>","null","fixation","html-keyboard-response","468","1543675","0.0-6.0-0.66","2468791","co38779","norming","","","","","","",""
"null","../img/tt/418tt.jpg","null","mooney1","image-keyboard-response","469","1546688","0.0-6.0-1.66","2468791","co38779","norming","","","","","","",""
"2717.1999999999534","","","post_mooney1_questions","survey-likert","470","1549411","0.0-6.0-2.66","2468791","co38779","norming","","","{""curiosity"":6,""confidence"":0}","[0,1]","../img/tt/418tt.jpg","",""
"251.39999999990687","","","recognition","survey-text","471","1549667","0.0-6.0-3.66","2468791","co38779","norming","","","{""guess"":""""}","","../img/tt/418tt.jpg","",""
"null","../img/gs/418gs.jpg","null","reveal","image-keyboard-response","472","1551673","0.0-6.0-4.66","2468791","co38779","norming","","","","","","",""
"null","../img/tt/418tt.jpg","null","mooney2","image-keyboard-response","473","1553673","0.0-6.0-5.66","2468791","co38779","norming","","","","","","",""
"4611.899999999907","","","post_reveal_questions","survey-likert","474","1558290","0.0-6.0-6.66","2468791","co38779","norming","","","{""aha"":6}","[0]","../img/tt/418tt.jpg","",""
"null","<div style=""font-size:60px;""> </div>","null","fixation","html-keyboard-response","475","1558500","0.0-6.0-0.67","2468791","co38779","norming","","","","","","",""
"null","../img/tt/044tt.jpg","null","mooney1","image-keyboard-response","476","1561529","0.0-6.0-1.67","2468791","co38779","norming","","","","","","",""
"4632.5","","","post_mooney1_questions","survey-likert","477","1566167","0.0-6.0-2.67","2468791","co38779","norming","","","{""curiosity"":6,""confidence"":0}","[0,1]","../img/tt/044tt.jpg","",""
"350.70000000018626","","","recognition","survey-text","478","1566525","0.0-6.0-3.67","2468791","co38779","norming","","","{""guess"":""""}","","../img/tt/044tt.jpg","",""
"null","../img/gs/044gs.jpg","null","reveal","image-keyboard-response","479","1568528","0.0-6.0-4.67","2468791","co38779","norming","","","","","","",""
"null","../img/tt/044tt.jpg","null","mooney2","image-keyboard-response","480","1570541","0.0-6.0-5.67","2468791","co38779","norming","","","","","","",""
"2318.899999999907","","","post_reveal_questions","survey-likert","481","1572865","0.0-6.0-6.67","2468791","co38779","norming","","","{""aha"":6}","[0]","../img/tt/044tt.jpg","",""
"null","<div style=""font-size:60px;""> </div>","null","fixation","html-keyboard-response","482","1573079","0.0-6.0-0.68","2468791","co38779","norming","","","","","","",""
"null","../img/tt/1237tt.jpg","null","mooney1","image-keyboard-response","483","1576091","0.0-6.0-1.68","2468791","co38779","norming","","","","","","",""
"3717.100000000093","","","post_mooney1_questions","survey-likert","484","1579814","0.0-6.0-2.68","2468791","co38779","norming","","","{""curiosity"":6,""confidence"":1}","[0,1]","../img/tt/1237tt.jpg","",""
"1092.1000000000931","","","recognition","survey-text","485","1580914","0.0-6.0-3.68","2468791","co38779","norming","","","{""guess"":""boot""}","","../img/tt/1237tt.jpg","",""
"null","../img/gs/1237gs.jpg","null","reveal","image-keyboard-response","486","1582928","0.0-6.0-4.68","2468791","co38779","norming","","","","","","",""
"null","../img/tt/1237tt.jpg","null","mooney2","image-keyboard-response","487","1584914","0.0-6.0-5.68","2468791","co38779","norming","","","","","","",""
"2362.7999999998137","","","post_reveal_questions","survey-likert","488","1587282","0.0-6.0-6.68","2468791","co38779","norming","","","{""aha"":6}","[0]","../img/tt/1237tt.jpg","",""
"null","<div style=""font-size:60px;""> </div>","null","fixation","html-keyboard-response","489","1587505","0.0-6.0-0.69","2468791","co38779","norming","","","","","","",""
"null","../img/tt/010tt.jpg","null","mooney1","image-keyboard-response","490","1590517","0.0-6.0-1.69","2468791","co38779","norming","","","","","","",""
"4400.199999999953","","","post_mooney1_questions","survey-likert","491","1594923","0.0-6.0-2.69","2468791","co38779","norming","","","{""curiosity"":6,""confidence"":0}","[0,1]","../img/tt/010tt.jpg","",""
"509.20000000018626","","","recognition","survey-text","492","1595447","0.0-6.0-3.69","2468791","co38779","norming","","","{""guess"":""""}","","../img/tt/010tt.jpg","",""
"null","../img/gs/010gs.jpg","null","reveal","image-keyboard-response","493","1597467","0.0-6.0-4.69","2468791","co38779","norming","","","","","","",""
"null","../img/tt/010tt.jpg","null","mooney2","image-keyboard-response","494","1599463","0.0-6.0-5.69","2468791","co38779","norming","","","","","","",""
"3100.5","","","post_reveal_questions","survey-likert","495","1602569","0.0-6.0-6.69","2468791","co38779","norming","","","{""aha"":6}","[0]","../img/tt/010tt.jpg","",""
"null","<div style=""font-size:60px;""> </div>","null","fixation","html-keyboard-response","496","1602785","0.0-6.0-0.70","2468791","co38779","norming","","","","","","",""
"null","../img/tt/1044tt.jpg","null","mooney1","image-keyboard-response","497","1605796","0.0-6.0-1.70","2468791","co38779","norming","","","","","","",""
"5683.699999999953","","","post_mooney1_questions","survey-likert","498","1611485","0.0-6.0-2.70","2468791","co38779","norming","","","{""curiosity"":6,""confidence"":1}","[0,1]","../img/tt/1044tt.jpg","",""
"1447.8000000000465","","","recognition","survey-text","499","1612949","0.0-6.0-3.70","2468791","co38779","norming","","","{""guess"":""""}","","../img/tt/1044tt.jpg","",""
"null","../img/gs/1044gs.jpg","null","reveal","image-keyboard-response","500","1614986","0.0-6.0-4.70","2468791","co38779","norming","","","","","","",""
"null","../img/tt/1044tt.jpg","null","mooney2","image-keyboard-response","501","1616957","0.0-6.0-5.70","2468791","co38779","norming","","","","","","",""
"1985.5","","","post_reveal_questions","survey-likert","502","1618947","0.0-6.0-6.70","2468791","co38779","norming","","","{""aha"":6}","[0]","../img/tt/1044tt.jpg","",""
"null","<div style=""font-size:60px;""> </div>","null","fixation","html-keyboard-response","503","1619158","0.0-6.0-0.71","2468791","co38779","norming","","","","","","",""
"null","../img/tt/1272tt.jpg","null","mooney1","image-keyboard-response","504","1622170","0.0-6.0-1.71","2468791","co38779","norming","","","","","","",""
"5469.09999999986","","","post_mooney1_questions","survey-likert","505","1627646","0.0-6.0-2.71","2468791","co38779","norming","","","{""curiosity"":6,""confidence"":0}","[0,1]","../img/tt/1272tt.jpg","",""
"448.20000000018626","","","recognition","survey-text","506","1628109","0.0-6.0-3.71","2468791","co38779","norming","","","{""guess"":""""}","","../img/tt/1272tt.jpg","",""
"null","../img/gs/1272gs.jpg","null","reveal","image-keyboard-response","507","1630135","0.0-6.0-4.71","2468791","co38779","norming","","","","","","",""
"null","../img/tt/1272tt.jpg","null","mooney2","image-keyboard-response","508","1632134","0.0-6.0-5.71","2468791","co38779","norming","","","","","","",""
"2363.8000000000465","","","post_reveal_questions","survey-likert","509","1634502","0.0-6.0-6.71","2468791","co38779","norming","","","{""aha"":6}","[0]","../img/tt/1272tt.jpg","",""
"null","<div style=""font-size:60px;""> </div>","null","fixation","html-keyboard-response","510","1634721","0.0-6.0-0.72","2468791","co38779","norming","","","","","","",""
"null","../img/tt/1118tt.jpg","null","mooney1","image-keyboard-response","511","1637732","0.0-6.0-1.72","2468791","co38779","norming","","","","","","",""
"3002.399999999907","","","post_mooney1_questions","survey-likert","512","1640739","0.0-6.0-2.72","2468791","co38779","norming","","","{""curiosity"":6,""confidence"":0}","[0,1]","../img/tt/1118tt.jpg","",""
"565.8999999999069","","","recognition","survey-text","513","1641310","0.0-6.0-3.72","2468791","co38779","norming","","","{""guess"":""""}","","../img/tt/1118tt.jpg","",""
"null","../img/gs/1118gs.jpg","null","reveal","image-keyboard-response","514","1643338","0.0-6.0-4.72","2468791","co38779","norming","","","","","","",""
"null","../img/tt/1118tt.jpg","null","mooney2","image-keyboard-response","515","1645337","0.0-6.0-5.72","2468791","co38779","norming","","","","","","",""
"1620.6999999999534","","","post_reveal_questions","survey-likert","516","1646963","0.0-6.0-6.72","2468791","co38779","norming","","","{""aha"":6}","[0]","../img/tt/1118tt.jpg","",""
"null","<div style=""font-size:60px;""> </div>","null","fixation","html-keyboard-response","517","1647192","0.0-6.0-0.73","2468791","co38779","norming","","","","","","",""
"null","../img/tt/1101tt.jpg","null","mooney1","image-keyboard-response","518","1650194","0.0-6.0-1.73","2468791","co38779","norming","","","","","","",""
"3282.4000000001397","","","post_mooney1_questions","survey-likert","519","1653495","0.0-6.0-2.73","2468791","co38779","norming","","","{""curiosity"":6,""confidence"":1}","[0,1]","../img/tt/1101tt.jpg","",""
"2214.6999999999534","","","recognition","survey-text","520","1655716","0.0-6.0-3.73","2468791","co38779","norming","","","{""guess"":""persoon""}","","../img/tt/1101tt.jpg","",""
"null","../img/gs/1101gs.jpg","null","reveal","image-keyboard-response","521","1657720","0.0-6.0-4.73","2468791","co38779","norming","","","","","","",""
"null","../img/tt/1101tt.jpg","null","mooney2","image-keyboard-response","522","1659748","0.0-6.0-5.73","2468791","co38779","norming","","","","","","",""
"2775.899999999907","","","post_reveal_questions","survey-likert","523","1662529","0.0-6.0-6.73","2468791","co38779","norming","","","{""aha"":6}","[0]","../img/tt/1101tt.jpg","",""
"null","<div style=""font-size:60px;""> </div>","null","fixation","html-keyboard-response","524","1662756","0.0-6.0-0.74","2468791","co38779","norming","","","","","","",""
"null","../img/tt/063tt.jpg","null","mooney1","image-keyboard-response","525","1665764","0.0-6.0-1.74","2468791","co38779","norming","","","","","","",""
"3449","","","post_mooney1_questions","survey-likert","526","1669217","0.0-6.0-2.74","2468791","co38779","norming","","","{""curiosity"":6,""confidence"":0}","[0,1]","../img/tt/063tt.jpg","",""
"201.80000000004657","","","recognition","survey-text","527","1669425","0.0-6.0-3.74","2468791","co38779","norming","","","{""guess"":""""}","","../img/tt/063tt.jpg","",""
"null","../img/gs/063gs.jpg","null","reveal","image-keyboard-response","528","1671449","0.0-6.0-4.74","2468791","co38779","norming","","","","","","",""
"null","../img/tt/063tt.jpg","null","mooney2","image-keyboard-response","529","1673446","0.0-6.0-5.74","2468791","co38779","norming","","","","","","",""
"4062.1999999999534","","","post_reveal_questions","survey-likert","530","1677510","0.0-6.0-6.74","2468791","co38779","norming","","","{""aha"":6}","[0]","../img/tt/063tt.jpg","",""
"null","<div style=""font-size:60px;""> </div>","null","fixation","html-keyboard-response","531","1677722","0.0-6.0-0.75","2468791","co38779","norming","","","","","","",""
"null","../img/tt/1151tt.jpg","null","mooney1","image-keyboard-response","532","1680758","0.0-6.0-1.75","2468791","co38779","norming","","","","","","",""
"4651","","","post_mooney1_questions","survey-likert","533","1685414","0.0-6.0-2.75","2468791","co38779","norming","","","{""curiosity"":6,""confidence"":1}","[0,1]","../img/tt/1151tt.jpg","",""
"2734","","","recognition","survey-text","534","1688161","0.0-6.0-3.75","2468791","co38779","norming","","","{""guess"":""honkbal""}","","../img/tt/1151tt.jpg","",""
"null","../img/gs/1151gs.jpg","null","reveal","image-keyboard-response","535","1690186","0.0-6.0-4.75","2468791","co38779","norming","","","","","","",""
"null","../img/tt/1151tt.jpg","null","mooney2","image-keyboard-response","536","1692183","0.0-6.0-5.75","2468791","co38779","norming","","","","","","",""
"5107.59999999986","","","post_reveal_questions","survey-likert","537","1697296","0.0-6.0-6.75","2468791","co38779","norming","","","{""aha"":6}","[0]","../img/tt/1151tt.jpg","",""
"null","<div style=""font-size:60px;""> </div>","null","fixation","html-keyboard-response","538","1697518","0.0-6.0-0.76","2468791","co38779","norming","","","","","","",""
"null","../img/tt/032tt.jpg","null","mooney1","image-keyboard-response","539","1700535","0.0-6.0-1.76","2468791","co38779","norming","","","","","","",""
"4267.600000000093","","","post_mooney1_questions","survey-likert","540","1704808","0.0-6.0-2.76","2468791","co38779","norming","","","{""curiosity"":6,""confidence"":0}","[0,1]","../img/tt/032tt.jpg","",""
"690.6000000000931","","","recognition","survey-text","541","1705504","0.0-6.0-3.76","2468791","co38779","norming","","","{""guess"":""""}","","../img/tt/032tt.jpg","",""
"null","../img/gs/032gs.jpg","null","reveal","image-keyboard-response","542","1707505","0.0-6.0-4.76","2468791","co38779","norming","","","","","","",""
"null","../img/tt/032tt.jpg","null","mooney2","image-keyboard-response","543","1709516","0.0-6.0-5.76","2468791","co38779","norming","","","","","","",""
"3145.100000000093","","","post_reveal_questions","survey-likert","544","1712666","0.0-6.0-6.76","2468791","co38779","norming","","","{""aha"":6}","[0]","../img/tt/032tt.jpg","",""
"null","<div style=""font-size:60px;""> </div>","null","fixation","html-keyboard-response","545","1712878","0.0-6.0-0.77","2468791","co38779","norming","","","","","","",""
"null","../img/tt/036tt.jpg","null","mooney1","image-keyboard-response","546","1715895","0.0-6.0-1.77","2468791","co38779","norming","","","","","","",""
"3989.9000000001397","","","post_mooney1_questions","survey-likert","547","1719891","0.0-6.0-2.77","2468791","co38779","norming","","","{""curiosity"":6,""confidence"":0}","[0,1]","../img/tt/036tt.jpg","",""
"974.8999999999069","","","recognition","survey-text","548","1720880","0.0-6.0-3.77","2468791","co38779","norming","","","{""guess"":""""}","","../img/tt/036tt.jpg","",""
"null","../img/gs/036gs.jpg","null","reveal","image-keyboard-response","549","1722893","0.0-6.0-4.77","2468791","co38779","norming","","","","","","",""
"null","../img/tt/036tt.jpg","null","mooney2","image-keyboard-response","550","1724900","0.0-6.0-5.77","2468791","co38779","norming","","","","","","",""
"3407.6999999999534","","","post_reveal_questions","survey-likert","551","1728313","0.0-6.0-6.77","2468791","co38779","norming","","","{""aha"":6}","[0]","../img/tt/036tt.jpg","",""
"null","<div style=""font-size:60px;""> </div>","null","fixation","html-keyboard-response","552","1728523","0.0-6.0-0.78","2468791","co38779","norming","","","","","","",""
"null","../img/tt/118tt.jpg","null","mooney1","image-keyboard-response","553","1731545","0.0-6.0-1.78","2468791","co38779","norming","","","","","","",""
"7022.399999999907","","","post_mooney1_questions","survey-likert","554","1738572","0.0-6.0-2.78","2468791","co38779","norming","","","{""curiosity"":6,""confidence"":0}","[0,1]","../img/tt/118tt.jpg","",""
"783.3000000000466","","","recognition","survey-text","555","1739361","0.0-6.0-3.78","2468791","co38779","norming","","","{""guess"":""""}","","../img/tt/118tt.jpg","",""
"null","../img/gs/118gs.jpg","null","reveal","image-keyboard-response","556","1741374","0.0-6.0-4.78","2468791","co38779","norming","","","","","","",""
