"rt","stimulus","key_press","test_part","trial_type","trial_index","time_elapsed","internal_node_id","totalTime","subject","experiment_name","button_pressed","success","responses","question_order","currentStim","old","correct"
"8718.174999999974","Welcome to the experiment. This is an online experiment so please don't close the tab/window until we say goodbye.  Press any key to begin.","32","instructions","html-keyboard-response","0","8734","0.0-0.0","3167134","co38503","norming","","","","","","",""
"55984.300000000076","<div style='word-wrap: break-word; width: 900px'><h3>Please consider this information carefully before deciding whether to participate in this research</h3><ul style='text-align: left; font-size: .8em;'><li><b>Purpose of the research</b>: To examine how people process images.</li><li><b>What you will do in this research</b>:  Stimuli (images) will be presented on the computer and you will be asked different questions about them.</li><li><b>Time required</b>: Participation will take between 45 and 60 minutes to complete.</li><li><b>Risks</b>:  There are no anticipated risks associated with participating in this study. The effects of participating should be comparable to those you would experience from viewing a computer monitor for 30 minutes and using a mouse or keyboard.</li><li><b>Benefits</b>:  This study provides no benefits to you individually except for the credit. The study provides important information about the nature of perception and learning.</li><li><b>Confidentiality</b>:  Your participation in this study will remain confidential. No personally identifiable information will be associated with your data. Your de-identified data may be shared with other researchers and used in future projects.</li><li><b>Participation and withdrawal</b>:  Your participation in this study is completely voluntary and you may refuse to participate or you may choose to withdraw at any time without penalty.</li><li><b>How to contact the researchers</b>: If you have questions or concerns about your participation or payment, or want to request a summary of research findings, please contact Sander Van de Cruys (KU Leuven), at sander.vandecruys@kuleuven.be.</li></ul><p>The nature and purpose of this research have been sufficiently explained and I agree to participate in this study.  I understand that I am free to withdraw at any time without incurring any penalty.</p><p>Please consent by clicking the button below to continue. Otherwise, please exit the study at this time.</p></div>","","instructions","html-button-response","1","64720","0.0-1.0","3167134","co38503","norming","0","","","","","",""
"","","","instructions","fullscreen","2","70666","0.0-2.0","3167134","co38503","norming","","true","","","","",""
"27797.409999999218","","","sona","survey-html-form","3","98468","0.0-3.0","3167134","co38503","norming","","","[{""name"":""sonaid"",""value"":""38503""},{""name"":""debrief"",""value"":""yes""},{""name"":""datajoin"",""value"":""yes""}]","","","",""
"76995.85499999922","<div style='word-wrap: break-word; width: 900px'><h3>Instructions</h3><p>This experiment will have 3 parts. In the first part you will see a series of distorted images like the one below on the left. As you can see in the righthand image, the distorted images are derived from actual photographs. In what follows, you will <strong>briefly</strong> be presented with <strong>only</strong> the distorted image.</p> <div style='float: left; margin-right: 20px;'><img src='../img/018tt.jpg' height='250' width='250'></img></div><div style='float: right; margin-left: 20px;'><img src='../img/018gs.jpg' height='250' width='250'></img></div><p>Subsequently you will be asked a few questions about the image: One question on how <strong>curious</strong> you are about the solution and one on how <strong>confident</strong> you are that you know the solution.</p>Next, we ask you to make a guess on what is in the image. Note that it is OK to name just the <strong>basic level category</strong>. For example when you see a parrot in the image, 'parrot' will obviously be a correct answer but also correct is 'bird'. However, 'animal' will <strong>not</strong> be counted as a correct response. For the example above, 'rose' would be correct or 'flower', but not 'plant'. When soccer players are depicted, 'soccer', 'football', 'soccer players' will be correct, but not 'humans', 'outdoors', or 'sports'. You do not need to describe the image in full, just name the main object in it <strong>in one or two words</strong>. All images depict objects from one of the following broad level categories: animals, inanimate objects, plants, sports, vehicles, and food. Recognizing means knowing <strong>more</strong> than these broad labels for a given image. But we always encourage you to <strong>make a guess</strong> if you can. Note that you are allowed to use <strong>Dutch and English</strong> in your answers, whatever comes easiest for you.</p><p>Press any key to continue.</p></div>","32","instructions","html-keyboard-response","4","175464","0.0-4.0","3167134","co38503","norming","","","","","","",""
"164237.81000000052","<div style='word-wrap: break-word; width: 900px'><h3>Instructions</h3> <p>Next, the solution image will be revealed to you and you'll be asked to indicate how strong your <strong>aha-experience</strong> was after seeing the solution. This describes the positive feeling of the 'click' you sometimes experience, when the pieces of the 'puzzle' fall together and you suddenly have 'insight' in the image.</p><img src='aha.jpg' height='188' width='250'></img><p>Note that there are no right or wrong answers. We are interested in what <strong>you</strong> see in the image and how <strong>you</strong> feel about it.</p><p>Press any key to start the experiment.</p></div>","32","instructions","html-keyboard-response","5","339706","0.0-5.0","3167134","co38503","norming","","","","","","",""
"null","<div style=""font-size:60px;""> </div>","null","fixation","html-keyboard-response","6","339917","0.0-6.0-0.0","3167134","co38503","norming","","","","","","",""
"null","../img/tt/1309tt.jpg","null","mooney1","image-keyboard-response","7","342922","0.0-6.0-1.0","3167134","co38503","norming","","","","","","",""
"20140.29500000109","","","post_mooney1_questions","survey-likert","8","363066","0.0-6.0-2.0","3167134","co38503","norming","","","{""curiosity"":3,""confidence"":1}","[0,1]","../img/tt/1309tt.jpg","",""
"6525.304999999178","","","recognition","survey-text","9","369593","0.0-6.0-3.0","3167134","co38503","norming","","","{""guess"":""Bos""}","","../img/tt/1309tt.jpg","",""
"null","../img/gs/1309gs.jpg","null","reveal","image-keyboard-response","10","371597","0.0-6.0-4.0","3167134","co38503","norming","","","","","","",""
"null","../img/tt/1309tt.jpg","null","mooney2","image-keyboard-response","11","373598","0.0-6.0-5.0","3167134","co38503","norming","","","","","","",""
"4890.575000001234","","","post_reveal_questions","survey-likert","12","378489","0.0-6.0-6.0","3167134","co38503","norming","","","{""aha"":5}","[0]","../img/tt/1309tt.jpg","",""
"null","<div style=""font-size:60px;""> </div>","null","fixation","html-keyboard-response","13","378695","0.0-6.0-0.1","3167134","co38503","norming","","","","","","",""
"null","../img/tt/1002tt.jpg","null","mooney1","image-keyboard-response","14","381698","0.0-6.0-1.1","3167134","co38503","norming","","","","","","",""
"12718.440000000526","","","post_mooney1_questions","survey-likert","15","394417","0.0-6.0-2.1","3167134","co38503","norming","","","{""curiosity"":5,""confidence"":3}","[0,1]","../img/tt/1002tt.jpg","",""
"5173.630000001111","","","recognition","survey-text","16","399593","0.0-6.0-3.1","3167134","co38503","norming","","","{""guess"":""Olifant""}","","../img/tt/1002tt.jpg","",""
"null","../img/gs/1002gs.jpg","null","reveal","image-keyboard-response","17","401603","0.0-6.0-4.1","3167134","co38503","norming","","","","","","",""
"null","../img/tt/1002tt.jpg","null","mooney2","image-keyboard-response","18","403608","0.0-6.0-5.1","3167134","co38503","norming","","","","","","",""
"5012.209999998915","","","post_reveal_questions","survey-likert","19","408621","0.0-6.0-6.1","3167134","co38503","norming","","","{""aha"":5}","[0]","../img/tt/1002tt.jpg","",""
"null","<div style=""font-size:60px;""> </div>","null","fixation","html-keyboard-response","20","408830","0.0-6.0-0.2","3167134","co38503","norming","","","","","","",""
"null","../img/tt/1199tt.jpg","null","mooney1","image-keyboard-response","21","411835","0.0-6.0-1.2","3167134","co38503","norming","","","","","","",""
"3503.3700000003446","","","post_mooney1_questions","survey-likert","22","415341","0.0-6.0-2.2","3167134","co38503","norming","","","{""curiosity"":6,""confidence"":0}","[0,1]","../img/tt/1199tt.jpg","",""
"1534.0849999993225","","","recognition","survey-text","23","416877","0.0-6.0-3.2","3167134","co38503","norming","","","{""guess"":""""}","","../img/tt/1199tt.jpg","",""
"null","../img/gs/1199gs.jpg","null","reveal","image-keyboard-response","24","418879","0.0-6.0-4.2","3167134","co38503","norming","","","","","","",""
"null","../img/tt/1199tt.jpg","null","mooney2","image-keyboard-response","25","420888","0.0-6.0-5.2","3167134","co38503","norming","","","","","","",""
"2139.075000000943","","","post_reveal_questions","survey-likert","26","423029","0.0-6.0-6.2","3167134","co38503","norming","","","{""aha"":6}","[0]","../img/tt/1199tt.jpg","",""
"null","<div style=""font-size:60px;""> </div>","null","fixation","html-keyboard-response","27","423231","0.0-6.0-0.3","3167134","co38503","norming","","","","","","",""
"null","../img/tt/020tt.jpg","null","mooney1","image-keyboard-response","28","426239","0.0-6.0-1.3","3167134","co38503","norming","","","","","","",""
"8059.025000000489","","","post_mooney1_questions","survey-likert","29","434301","0.0-6.0-2.3","3167134","co38503","norming","","","{""curiosity"":6,""confidence"":0}","[0,1]","../img/tt/020tt.jpg","",""
"1030.0999999999185","","","recognition","survey-text","30","435333","0.0-6.0-3.3","3167134","co38503","norming","","","{""guess"":""""}","","../img/tt/020tt.jpg","",""
"null","../img/gs/020gs.jpg","null","reveal","image-keyboard-response","31","437338","0.0-6.0-4.3","3167134","co38503","norming","","","","","","",""
"null","../img/tt/020tt.jpg","null","mooney2","image-keyboard-response","32","439343","0.0-6.0-5.3","3167134","co38503","norming","","","","","","",""
"3347.5699999998906","","","post_reveal_questions","survey-likert","33","442693","0.0-6.0-6.3","3167134","co38503","norming","","","{""aha"":6}","[0]","../img/tt/020tt.jpg","",""
"null","<div style=""font-size:60px;""> </div>","null","fixation","html-keyboard-response","34","442894","0.0-6.0-0.4","3167134","co38503","norming","","","","","","",""
"null","../img/tt/049tt.jpg","null","mooney1","image-keyboard-response","35","445905","0.0-6.0-1.4","3167134","co38503","norming","","","","","","",""
"6177.980000000389","","","post_mooney1_questions","survey-likert","36","452085","0.0-6.0-2.4","3167134","co38503","norming","","","{""curiosity"":4,""confidence"":1}","[0,1]","../img/tt/049tt.jpg","",""
"3366.0099999997765","","","recognition","survey-text","37","455453","0.0-6.0-3.4","3167134","co38503","norming","","","{""guess"":""Vogel""}","","../img/tt/049tt.jpg","",""
"null","../img/gs/049gs.jpg","null","reveal","image-keyboard-response","38","457457","0.0-6.0-4.4","3167134","co38503","norming","","","","","","",""
"null","../img/tt/049tt.jpg","null","mooney2","image-keyboard-response","39","459463","0.0-6.0-5.4","3167134","co38503","norming","","","","","","",""
"3107.9249999984168","","","post_reveal_questions","survey-likert","40","462567","0.0-6.0-6.4","3167134","co38503","norming","","","{""aha"":4}","[0]","../img/tt/049tt.jpg","",""
"null","<div style=""font-size:60px;""> </div>","null","fixation","html-keyboard-response","41","462771","0.0-6.0-0.5","3167134","co38503","norming","","","","","","",""
"null","../img/tt/1171tt.jpg","null","mooney1","image-keyboard-response","42","465779","0.0-6.0-1.5","3167134","co38503","norming","","","","","","",""
"12970.155000000901","","","post_mooney1_questions","survey-likert","43","478752","0.0-6.0-2.5","3167134","co38503","norming","","","{""curiosity"":6,""confidence"":1}","[0,1]","../img/tt/1171tt.jpg","",""
"7286.135000000242","","","recognition","survey-text","44","486039","0.0-6.0-3.5","3167134","co38503","norming","","","{""guess"":""Basketbalspeler""}","","../img/tt/1171tt.jpg","",""
"null","../img/gs/1171gs.jpg","null","reveal","image-keyboard-response","45","488045","0.0-6.0-4.5","3167134","co38503","norming","","","","","","",""
"null","../img/tt/1171tt.jpg","null","mooney2","image-keyboard-response","46","490050","0.0-6.0-5.5","3167134","co38503","norming","","","","","","",""
"4819.405000000203","","","post_reveal_questions","survey-likert","47","494871","0.0-6.0-6.5","3167134","co38503","norming","","","{""aha"":3}","[0]","../img/tt/1171tt.jpg","",""
"null","<div style=""font-size:60px;""> </div>","null","fixation","html-keyboard-response","48","495074","0.0-6.0-0.6","3167134","co38503","norming","","","","","","",""
"null","../img/tt/358tt.jpg","null","mooney1","image-keyboard-response","49","498077","0.0-6.0-1.6","3167134","co38503","norming","","","","","","",""
"6855.87999999919","","","post_mooney1_questions","survey-likert","50","504936","0.0-6.0-2.6","3167134","co38503","norming","","","{""curiosity"":5,""confidence"":0}","[0,1]","../img/tt/358tt.jpg","",""
"902.1200000006356","","","recognition","survey-text","51","505839","0.0-6.0-3.6","3167134","co38503","norming","","","{""guess"":""""}","","../img/tt/358tt.jpg","",""
"null","../img/gs/358gs.jpg","null","reveal","image-keyboard-response","52","507847","0.0-6.0-4.6","3167134","co38503","norming","","","","","","",""
"null","../img/tt/358tt.jpg","null","mooney2","image-keyboard-response","53","509849","0.0-6.0-5.6","3167134","co38503","norming","","","","","","",""
"2004.83499999973","","","post_reveal_questions","survey-likert","54","511855","0.0-6.0-6.6","3167134","co38503","norming","","","{""aha"":6}","[0]","../img/tt/358tt.jpg","",""
"null","<div style=""font-size:60px;""> </div>","null","fixation","html-keyboard-response","55","512057","0.0-6.0-0.7","3167134","co38503","norming","","","","","","",""
"null","../img/tt/1276tt.jpg","null","mooney1","image-keyboard-response","56","515067","0.0-6.0-1.7","3167134","co38503","norming","","","","","","",""
"8602.119999999646","","","post_mooney1_questions","survey-likert","57","523677","0.0-6.0-2.7","3167134","co38503","norming","","","{""curiosity"":5,""confidence"":0}","[0,1]","../img/tt/1276tt.jpg","",""
"982.090000001248","","","recognition","survey-text","58","524660","0.0-6.0-3.7","3167134","co38503","norming","","","{""guess"":""""}","","../img/tt/1276tt.jpg","",""
"null","../img/gs/1276gs.jpg","null","reveal","image-keyboard-response","59","526666","0.0-6.0-4.7","3167134","co38503","norming","","","","","","",""
"null","../img/tt/1276tt.jpg","null","mooney2","image-keyboard-response","60","528668","0.0-6.0-5.7","3167134","co38503","norming","","","","","","",""
"2414.9049999995623","","","post_reveal_questions","survey-likert","61","531085","0.0-6.0-6.7","3167134","co38503","norming","","","{""aha"":5}","[0]","../img/tt/1276tt.jpg","",""
"null","<div style=""font-size:60px;""> </div>","null","fixation","html-keyboard-response","62","531290","0.0-6.0-0.8","3167134","co38503","norming","","","","","","",""
"null","../img/tt/1096tt.jpg","null","mooney1","image-keyboard-response","63","534298","0.0-6.0-1.8","3167134","co38503","norming","","","","","","",""
"5223.925000000279","","","post_mooney1_questions","survey-likert","64","539525","0.0-6.0-2.8","3167134","co38503","norming","","","{""curiosity"":5,""confidence"":1}","[0,1]","../img/tt/1096tt.jpg","",""
"3750.2850000000326","","","recognition","survey-text","65","543277","0.0-6.0-3.8","3167134","co38503","norming","","","{""guess"":""Trap""}","","../img/tt/1096tt.jpg","",""
"null","../img/gs/1096gs.jpg","null","reveal","image-keyboard-response","66","545284","0.0-6.0-4.8","3167134","co38503","norming","","","","","","",""
"null","../img/tt/1096tt.jpg","null","mooney2","image-keyboard-response","67","547286","0.0-6.0-5.8","3167134","co38503","norming","","","","","","",""
"4668.275000000023","","","post_reveal_questions","survey-likert","68","551957","0.0-6.0-6.8","3167134","co38503","norming","","","{""aha"":5}","[0]","../img/tt/1096tt.jpg","",""
"null","<div style=""font-size:60px;""> </div>","null","fixation","html-keyboard-response","69","552159","0.0-6.0-0.9","3167134","co38503","norming","","","","","","",""
"null","../img/tt/552tt.jpg","null","mooney1","image-keyboard-response","70","555162","0.0-6.0-1.9","3167134","co38503","norming","","","","","","",""
"6569.595000000787","","","post_mooney1_questions","survey-likert","71","561733","0.0-6.0-2.9","3167134","co38503","norming","","","{""curiosity"":4,""confidence"":0}","[0,1]","../img/tt/552tt.jpg","",""
"838.0250000009546","","","recognition","survey-text","72","562573","0.0-6.0-3.9","3167134","co38503","norming","","","{""guess"":""""}","","../img/tt/552tt.jpg","",""
"null","../img/gs/552gs.jpg","null","reveal","image-keyboard-response","73","564575","0.0-6.0-4.9","3167134","co38503","norming","","","","","","",""
"null","../img/tt/552tt.jpg","null","mooney2","image-keyboard-response","74","566584","0.0-6.0-5.9","3167134","co38503","norming","","","","","","",""
"1554.554999998887","","","post_reveal_questions","survey-likert","75","568141","0.0-6.0-6.9","3167134","co38503","norming","","","{""aha"":6}","[0]","../img/tt/552tt.jpg","",""
"null","<div style=""font-size:60px;""> </div>","null","fixation","html-keyboard-response","76","568342","0.0-6.0-0.10","3167134","co38503","norming","","","","","","",""
"null","../img/tt/1033tt.jpg","null","mooney1","image-keyboard-response","77","571351","0.0-6.0-1.10","3167134","co38503","norming","","","","","","",""
"9067.259999999776","","","post_mooney1_questions","survey-likert","78","580421","0.0-6.0-2.10","3167134","co38503","norming","","","{""curiosity"":5,""confidence"":1}","[0,1]","../img/tt/1033tt.jpg","",""
"2902.2199999998556","","","recognition","survey-text","79","583320","0.0-6.0-3.10","3167134","co38503","norming","","","{""guess"":""Paard""}","","../img/tt/1033tt.jpg","",""
"null","../img/gs/1033gs.jpg","null","reveal","image-keyboard-response","80","585328","0.0-6.0-4.10","3167134","co38503","norming","","","","","","",""
"null","../img/tt/1033tt.jpg","null","mooney2","image-keyboard-response","81","587337","0.0-6.0-5.10","3167134","co38503","norming","","","","","","",""
"1908.7299999991665","","","post_reveal_questions","survey-likert","82","589248","0.0-6.0-6.10","3167134","co38503","norming","","","{""aha"":4}","[0]","../img/tt/1033tt.jpg","",""
"null","<div style=""font-size:60px;""> </div>","null","fixation","html-keyboard-response","83","589449","0.0-6.0-0.11","3167134","co38503","norming","","","","","","",""
"null","../img/tt/416tt.jpg","null","mooney1","image-keyboard-response","84","592456","0.0-6.0-1.11","3167134","co38503","norming","","","","","","",""
"4901.554999998538","","","post_mooney1_questions","survey-likert","85","597360","0.0-6.0-2.11","3167134","co38503","norming","","","{""curiosity"":4,""confidence"":3}","[0,1]","../img/tt/416tt.jpg","",""
"5717.829999999609","","","recognition","survey-text","86","603079","0.0-6.0-3.11","3167134","co38503","norming","","","{""guess"":""Flamingo's""}","","../img/tt/416tt.jpg","",""
"null","../img/gs/416gs.jpg","null","reveal","image-keyboard-response","87","605081","0.0-6.0-4.11","3167134","co38503","norming","","","","","","",""
"null","../img/tt/416tt.jpg","null","mooney2","image-keyboard-response","88","607089","0.0-6.0-5.11","3167134","co38503","norming","","","","","","",""
"3484.130000000703","","","post_reveal_questions","survey-likert","89","610576","0.0-6.0-6.11","3167134","co38503","norming","","","{""aha"":5}","[0]","../img/tt/416tt.jpg","",""
"null","<div style=""font-size:60px;""> </div>","null","fixation","html-keyboard-response","90","610781","0.0-6.0-0.12","3167134","co38503","norming","","","","","","",""
"null","../img/tt/1237tt.jpg","null","mooney1","image-keyboard-response","91","613785","0.0-6.0-1.12","3167134","co38503","norming","","","","","","",""
"6948.7400000016205","","","post_mooney1_questions","survey-likert","92","620736","0.0-6.0-2.12","3167134","co38503","norming","","","{""curiosity"":3,""confidence"":6}","[0,1]","../img/tt/1237tt.jpg","",""
"2950.0450000013225","","","recognition","survey-text","93","623687","0.0-6.0-3.12","3167134","co38503","norming","","","{""guess"":""Eend""}","","../img/tt/1237tt.jpg","",""
"null","../img/gs/1237gs.jpg","null","reveal","image-keyboard-response","94","625694","0.0-6.0-4.12","3167134","co38503","norming","","","","","","",""
"null","../img/tt/1237tt.jpg","null","mooney2","image-keyboard-response","95","627700","0.0-6.0-5.12","3167134","co38503","norming","","","","","","",""
"4074.1500000003725","","","post_reveal_questions","survey-likert","96","631775","0.0-6.0-6.12","3167134","co38503","norming","","","{""aha"":2}","[0]","../img/tt/1237tt.jpg","",""
"null","<div style=""font-size:60px;""> </div>","null","fixation","html-keyboard-response","97","631984","0.0-6.0-0.13","3167134","co38503","norming","","","","","","",""
"null","../img/tt/412tt.jpg","null","mooney1","image-keyboard-response","98","634987","0.0-6.0-1.13","3167134","co38503","norming","","","","","","",""
"5737.930000001215","","","post_mooney1_questions","survey-likert","99","640728","0.0-6.0-2.13","3167134","co38503","norming","","","{""curiosity"":5,""confidence"":1}","[0,1]","../img/tt/412tt.jpg","",""
"2254.324999999837","","","recognition","survey-text","100","642984","0.0-6.0-3.13","3167134","co38503","norming","","","{""guess"":""Fles""}","","../img/tt/412tt.jpg","",""
"null","../img/gs/412gs.jpg","null","reveal","image-keyboard-response","101","644986","0.0-6.0-4.13","3167134","co38503","norming","","","","","","",""
"null","../img/tt/412tt.jpg","null","mooney2","image-keyboard-response","102","646997","0.0-6.0-5.13","3167134","co38503","norming","","","","","","",""
"3801.0799999992596","","","post_reveal_questions","survey-likert","103","650800","0.0-6.0-6.13","3167134","co38503","norming","","","{""aha"":4}","[0]","../img/tt/412tt.jpg","",""
"null","<div style=""font-size:60px;""> </div>","null","fixation","html-keyboard-response","104","651003","0.0-6.0-0.14","3167134","co38503","norming","","","","","","",""
"null","../img/tt/438tt.jpg","null","mooney1","image-keyboard-response","105","654007","0.0-6.0-1.14","3167134","co38503","norming","","","","","","",""
"5510.48999999871","","","post_mooney1_questions","survey-likert","106","659520","0.0-6.0-2.14","3167134","co38503","norming","","","{""curiosity"":5,""confidence"":2}","[0,1]","../img/tt/438tt.jpg","",""
"2966.1800000012154","","","recognition","survey-text","107","662488","0.0-6.0-3.14","3167134","co38503","norming","","","{""guess"":""Giraf""}","","../img/tt/438tt.jpg","",""
"null","../img/gs/438gs.jpg","null","reveal","image-keyboard-response","108","664493","0.0-6.0-4.14","3167134","co38503","norming","","","","","","",""
"null","../img/tt/438tt.jpg","null","mooney2","image-keyboard-response","109","666504","0.0-6.0-5.14","3167134","co38503","norming","","","","","","",""
"3174.06000000122","","","post_reveal_questions","survey-likert","110","669680","0.0-6.0-6.14","3167134","co38503","norming","","","{""aha"":5}","[0]","../img/tt/438tt.jpg","",""
"null","<div style=""font-size:60px;""> </div>","null","fixation","html-keyboard-response","111","669882","0.0-6.0-0.15","3167134","co38503","norming","","","","","","",""
"null","../img/tt/1283tt.jpg","null","mooney1","image-keyboard-response","112","672889","0.0-6.0-1.15","3167134","co38503","norming","","","","","","",""
"11052.850000000093","","","post_mooney1_questions","survey-likert","113","683944","0.0-6.0-2.15","3167134","co38503","norming","","","{""curiosity"":4,""confidence"":1}","[0,1]","../img/tt/1283tt.jpg","",""
"2317.9049999999115","","","recognition","survey-text","114","686264","0.0-6.0-3.15","3167134","co38503","norming","","","{""guess"":""Bos""}","","../img/tt/1283tt.jpg","",""
"null","../img/gs/1283gs.jpg","null","reveal","image-keyboard-response","115","688269","0.0-6.0-4.15","3167134","co38503","norming","","","","","","",""
"null","../img/tt/1283tt.jpg","null","mooney2","image-keyboard-response","116","690279","0.0-6.0-5.15","3167134","co38503","norming","","","","","","",""
"1632.2149999996182","","","post_reveal_questions","survey-likert","117","691912","0.0-6.0-6.15","3167134","co38503","norming","","","{""aha"":6}","[0]","../img/tt/1283tt.jpg","",""
"null","<div style=""font-size:60px;""> </div>","null","fixation","html-keyboard-response","118","692117","0.0-6.0-0.16","3167134","co38503","norming","","","","","","",""
"null","../img/tt/053tt.jpg","null","mooney1","image-keyboard-response","119","695120","0.0-6.0-1.16","3167134","co38503","norming","","","","","","",""
"6214.555000000517","","","post_mooney1_questions","survey-likert","120","701336","0.0-6.0-2.16","3167134","co38503","norming","","","{""curiosity"":5,""confidence"":1}","[0,1]","../img/tt/053tt.jpg","",""
"2894.0999999996275","","","recognition","survey-text","121","704230","0.0-6.0-3.16","3167134","co38503","norming","","","{""guess"":""Golven""}","","../img/tt/053tt.jpg","",""
"null","../img/gs/053gs.jpg","null","reveal","image-keyboard-response","122","706239","0.0-6.0-4.16","3167134","co38503","norming","","","","","","",""
"null","../img/tt/053tt.jpg","null","mooney2","image-keyboard-response","123","708242","0.0-6.0-5.16","3167134","co38503","norming","","","","","","",""
"3610.1799999995856","","","post_reveal_questions","survey-likert","124","711854","0.0-6.0-6.16","3167134","co38503","norming","","","{""aha"":5}","[0]","../img/tt/053tt.jpg","",""
"null","<div style=""font-size:60px;""> </div>","null","fixation","html-keyboard-response","125","712055","0.0-6.0-0.17","3167134","co38503","norming","","","","","","",""
"null","../img/tt/076tt.jpg","null","mooney1","image-keyboard-response","126","715065","0.0-6.0-1.17","3167134","co38503","norming","","","","","","",""
"5451.10000000021","","","post_mooney1_questions","survey-likert","127","720519","0.0-6.0-2.17","3167134","co38503","norming","","","{""curiosity"":4,""confidence"":2}","[0,1]","../img/tt/076tt.jpg","",""
"2877.9850000009174","","","recognition","survey-text","128","723398","0.0-6.0-3.17","3167134","co38503","norming","","","{""guess"":""Schoen""}","","../img/tt/076tt.jpg","",""
"null","../img/gs/076gs.jpg","null","reveal","image-keyboard-response","129","725400","0.0-6.0-4.17","3167134","co38503","norming","","","","","","",""
"null","../img/tt/076tt.jpg","null","mooney2","image-keyboard-response","130","727405","0.0-6.0-5.17","3167134","co38503","norming","","","","","","",""
"3006.965000000433","","","post_reveal_questions","survey-likert","131","730414","0.0-6.0-6.17","3167134","co38503","norming","","","{""aha"":4}","[0]","../img/tt/076tt.jpg","",""
"null","<div style=""font-size:60px;""> </div>","null","fixation","html-keyboard-response","132","730620","0.0-6.0-0.18","3167134","co38503","norming","","","","","","",""
"null","../img/tt/194tt.jpg","null","mooney1","image-keyboard-response","133","733626","0.0-6.0-1.18","3167134","co38503","norming","","","","","","",""
"5843.254999999772","","","post_mooney1_questions","survey-likert","134","739471","0.0-6.0-2.18","3167134","co38503","norming","","","{""curiosity"":4,""confidence"":3}","[0,1]","../img/tt/194tt.jpg","",""
"3606.239999999176","","","recognition","survey-text","135","743079","0.0-6.0-3.18","3167134","co38503","norming","","","{""guess"":""Muzikant""}","","../img/tt/194tt.jpg","",""
"null","../img/gs/194gs.jpg","null","reveal","image-keyboard-response","136","745088","0.0-6.0-4.18","3167134","co38503","norming","","","","","","",""
"null","../img/tt/194tt.jpg","null","mooney2","image-keyboard-response","137","747090","0.0-6.0-5.18","3167134","co38503","norming","","","","","","",""
"2434.3500000013737","","","post_reveal_questions","survey-likert","138","749527","0.0-6.0-6.18","3167134","co38503","norming","","","{""aha"":4}","[0]","../img/tt/194tt.jpg","",""
"null","<div style=""font-size:60px;""> </div>","null","fixation","html-keyboard-response","139","749728","0.0-6.0-0.19","3167134","co38503","norming","","","","","","",""
"null","../img/tt/1272tt.jpg","null","mooney1","image-keyboard-response","140","752733","0.0-6.0-1.19","3167134","co38503","norming","","","","","","",""
"8271.434999998775","","","post_mooney1_questions","survey-likert","141","761007","0.0-6.0-2.19","3167134","co38503","norming","","","{""curiosity"":5,""confidence"":1}","[0,1]","../img/tt/1272tt.jpg","",""
"6214.210000000079","","","recognition","survey-text","142","767231","0.0-6.0-3.19","3167134","co38503","norming","","","{""guess"":""Varken""}","","../img/tt/1272tt.jpg","",""
"null","../img/gs/1272gs.jpg","null","reveal","image-keyboard-response","143","769240","0.0-6.0-4.19","3167134","co38503","norming","","","","","","",""
"null","../img/tt/1272tt.jpg","null","mooney2","image-keyboard-response","144","771243","0.0-6.0-5.19","3167134","co38503","norming","","","","","","",""
"1594.0000000010477","","","post_reveal_questions","survey-likert","145","772839","0.0-6.0-6.19","3167134","co38503","norming","","","{""aha"":6}","[0]","../img/tt/1272tt.jpg","",""
"null","<div style=""font-size:60px;""> </div>","null","fixation","html-keyboard-response","146","773040","0.0-6.0-0.20","3167134","co38503","norming","","","","","","",""
"null","../img/tt/1148tt.jpg","null","mooney1","image-keyboard-response","147","776046","0.0-6.0-1.20","3167134","co38503","norming","","","","","","",""
"6606.85000000021","","","post_mooney1_questions","survey-likert","148","782655","0.0-6.0-2.20","3167134","co38503","norming","","","{""curiosity"":6,""confidence"":1}","[0,1]","../img/tt/1148tt.jpg","",""
"3502.2299999999814","","","recognition","survey-text","149","786159","0.0-6.0-3.20","3167134","co38503","norming","","","{""guess"":""Turnster""}","","../img/tt/1148tt.jpg","",""
"null","../img/gs/1148gs.jpg","null","reveal","image-keyboard-response","150","788165","0.0-6.0-4.20","3167134","co38503","norming","","","","","","",""
"null","../img/tt/1148tt.jpg","null","mooney2","image-keyboard-response","151","790169","0.0-6.0-5.20","3167134","co38503","norming","","","","","","",""
"1788.0000000004657","","","post_reveal_questions","survey-likert","152","791959","0.0-6.0-6.20","3167134","co38503","norming","","","{""aha"":6}","[0]","../img/tt/1148tt.jpg","",""
"null","<div style=""font-size:60px;""> </div>","null","fixation","html-keyboard-response","153","792164","0.0-6.0-0.21","3167134","co38503","norming","","","","","","",""
"null","../img/tt/515tt.jpg","null","mooney1","image-keyboard-response","154","795172","0.0-6.0-1.21","3167134","co38503","norming","","","","","","",""
"8687.985000000452","","","post_mooney1_questions","survey-likert","155","803863","0.0-6.0-2.21","3167134","co38503","norming","","","{""curiosity"":5,""confidence"":1}","[0,1]","../img/tt/515tt.jpg","",""
"2565.8850000000093","","","recognition","survey-text","156","806431","0.0-6.0-3.21","3167134","co38503","norming","","","{""guess"":""Vlinder""}","","../img/tt/515tt.jpg","",""
"null","../img/gs/515gs.jpg","null","reveal","image-keyboard-response","157","808437","0.0-6.0-4.21","3167134","co38503","norming","","","","","","",""
"null","../img/tt/515tt.jpg","null","mooney2","image-keyboard-response","158","810446","0.0-6.0-5.21","3167134","co38503","norming","","","","","","",""
"2822.424999998533","","","post_reveal_questions","survey-likert","159","813271","0.0-6.0-6.21","3167134","co38503","norming","","","{""aha"":6}","[0]","../img/tt/515tt.jpg","",""
"null","<div style=""font-size:60px;""> </div>","null","fixation","html-keyboard-response","160","813475","0.0-6.0-0.22","3167134","co38503","norming","","","","","","",""
"null","../img/tt/126tt.jpg","null","mooney1","image-keyboard-response","161","816485","0.0-6.0-1.22","3167134","co38503","norming","","","","","","",""
"9438.94999999972","","","post_mooney1_questions","survey-likert","162","825919","0.0-6.0-2.22","3167134","co38503","norming","","","{""curiosity"":6,""confidence"":1}","[0,1]","../img/tt/126tt.jpg","",""
"3014.215000001015","","","recognition","survey-text","163","828935","0.0-6.0-3.22","3167134","co38503","norming","","","{""guess"":""Hagedis""}","","../img/tt/126tt.jpg","",""
"null","../img/gs/126gs.jpg","null","reveal","image-keyboard-response","164","830937","0.0-6.0-4.22","3167134","co38503","norming","","","","","","",""
"null","../img/tt/126tt.jpg","null","mooney2","image-keyboard-response","165","832946","0.0-6.0-5.22","3167134","co38503","norming","","","","","","",""
"1939.0200000016484","","","post_reveal_questions","survey-likert","166","834887","0.0-6.0-6.22","3167134","co38503","norming","","","{""aha"":3}","[0]","../img/tt/126tt.jpg","",""
"null","<div style=""font-size:60px;""> </div>","null","fixation","html-keyboard-response","167","835088","0.0-6.0-0.23","3167134","co38503","norming","","","","","","",""
"null","../img/tt/442tt.jpg","null","mooney1","image-keyboard-response","168","838096","0.0-6.0-1.23","3167134","co38503","norming","","","","","","",""
"10148.4099999998","","","post_mooney1_questions","survey-likert","169","848247","0.0-6.0-2.23","3167134","co38503","norming","","","{""curiosity"":6,""confidence"":0}","[0,1]","../img/tt/442tt.jpg","",""
"1133.9600000010105","","","recognition","survey-text","170","849383","0.0-6.0-3.23","3167134","co38503","norming","","","{""guess"":""""}","","../img/tt/442tt.jpg","",""
"null","../img/gs/442gs.jpg","null","reveal","image-keyboard-response","171","851391","0.0-6.0-4.23","3167134","co38503","norming","","","","","","",""
"null","../img/tt/442tt.jpg","null","mooney2","image-keyboard-response","172","853393","0.0-6.0-5.23","3167134","co38503","norming","","","","","","",""
"1834.6799999999348","","","post_reveal_questions","survey-likert","173","855231","0.0-6.0-6.23","3167134","co38503","norming","","","{""aha"":6}","[0]","../img/tt/442tt.jpg","",""
"null","<div style=""font-size:60px;""> </div>","null","fixation","html-keyboard-response","174","855442","0.0-6.0-0.24","3167134","co38503","norming","","","","","","",""
"null","../img/tt/1080tt.jpg","null","mooney1","image-keyboard-response","175","858450","0.0-6.0-1.24","3167134","co38503","norming","","","","","","",""
"18210.490000001388","","","post_mooney1_questions","survey-likert","176","876663","0.0-6.0-2.24","3167134","co38503","norming","","","{""curiosity"":5,""confidence"":1}","[0,1]","../img/tt/1080tt.jpg","",""
"3518.0749999999534","","","recognition","survey-text","177","880183","0.0-6.0-3.24","3167134","co38503","norming","","","{""guess"":""Soldaat""}","","../img/tt/1080tt.jpg","",""
"null","../img/gs/1080gs.jpg","null","reveal","image-keyboard-response","178","882194","0.0-6.0-4.24","3167134","co38503","norming","","","","","","",""
"null","../img/tt/1080tt.jpg","null","mooney2","image-keyboard-response","179","884196","0.0-6.0-5.24","3167134","co38503","norming","","","","","","",""
"1777.3699999997625","","","post_reveal_questions","survey-likert","180","885976","0.0-6.0-6.24","3167134","co38503","norming","","","{""aha"":6}","[0]","../img/tt/1080tt.jpg","",""
"null","<div style=""font-size:60px;""> </div>","null","fixation","html-keyboard-response","181","886185","0.0-6.0-0.25","3167134","co38503","norming","","","","","","",""
"null","../img/tt/1053tt.jpg","null","mooney1","image-keyboard-response","182","889193","0.0-6.0-1.25","3167134","co38503","norming","","","","","","",""
"7972.195000000182","","","post_mooney1_questions","survey-likert","183","897168","0.0-6.0-2.25","3167134","co38503","norming","","","{""curiosity"":2,""confidence"":5}","[0,1]","../img/tt/1053tt.jpg","",""
"3221.655000001192","","","recognition","survey-text","184","900391","0.0-6.0-3.25","3167134","co38503","norming","","","{""guess"":""Koeien""}","","../img/tt/1053tt.jpg","",""
"null","../img/gs/1053gs.jpg","null","reveal","image-keyboard-response","185","902393","0.0-6.0-4.25","3167134","co38503","norming","","","","","","",""
"null","../img/tt/1053tt.jpg","null","mooney2","image-keyboard-response","186","904396","0.0-6.0-5.25","3167134","co38503","norming","","","","","","",""
"3450.230000000447","","","post_reveal_questions","survey-likert","187","907847","0.0-6.0-6.25","3167134","co38503","norming","","","{""aha"":2}","[0]","../img/tt/1053tt.jpg","",""
"null","<div style=""font-size:60px;""> </div>","null","fixation","html-keyboard-response","188","908052","0.0-6.0-0.26","3167134","co38503","norming","","","","","","",""
"null","../img/tt/1211tt.jpg","null","mooney1","image-keyboard-response","189","911057","0.0-6.0-1.26","3167134","co38503","norming","","","","","","",""
"6277.394999999087","","","post_mooney1_questions","survey-likert","190","917335","0.0-6.0-2.26","3167134","co38503","norming","","","{""curiosity"":5,""confidence"":1}","[0,1]","../img/tt/1211tt.jpg","",""
"2126.0899999997346","","","recognition","survey-text","191","919463","0.0-6.0-3.26","3167134","co38503","norming","","","{""guess"":""Boot""}","","../img/tt/1211tt.jpg","",""
"null","../img/gs/1211gs.jpg","null","reveal","image-keyboard-response","192","921474","0.0-6.0-4.26","3167134","co38503","norming","","","","","","",""
"null","../img/tt/1211tt.jpg","null","mooney2","image-keyboard-response","193","923475","0.0-6.0-5.26","3167134","co38503","norming","","","","","","",""
"3091.5150000001304","","","post_reveal_questions","survey-likert","194","926567","0.0-6.0-6.26","3167134","co38503","norming","","","{""aha"":4}","[0]","../img/tt/1211tt.jpg","",""
"null","<div style=""font-size:60px;""> </div>","null","fixation","html-keyboard-response","195","926771","0.0-6.0-0.27","3167134","co38503","norming","","","","","","",""
"null","../img/tt/111tt.jpg","null","mooney1","image-keyboard-response","196","929776","0.0-6.0-1.27","3167134","co38503","norming","","","","","","",""
"4934.719999999274","","","post_mooney1_questions","survey-likert","197","934712","0.0-6.0-2.27","3167134","co38503","norming","","","{""curiosity"":6,""confidence"":1}","[0,1]","../img/tt/111tt.jpg","",""
"3181.974999999511","","","recognition","survey-text","198","937896","0.0-6.0-3.27","3167134","co38503","norming","","","{""guess"":""Telefoon""}","","../img/tt/111tt.jpg","",""
"null","../img/gs/111gs.jpg","null","reveal","image-keyboard-response","199","939899","0.0-6.0-4.27","3167134","co38503","norming","","","","","","",""
"null","../img/tt/111tt.jpg","null","mooney2","image-keyboard-response","200","941909","0.0-6.0-5.27","3167134","co38503","norming","","","","","","",""
"2392.5849999996135","","","post_reveal_questions","survey-likert","201","944304","0.0-6.0-6.27","3167134","co38503","norming","","","{""aha"":6}","[0]","../img/tt/111tt.jpg","",""
"null","<div style=""font-size:60px;""> </div>","null","fixation","html-keyboard-response","202","944505","0.0-6.0-0.28","3167134","co38503","norming","","","","","","",""
"null","../img/tt/406tt.jpg","null","mooney1","image-keyboard-response","203","947524","0.0-6.0-1.28","3167134","co38503","norming","","","","","","",""
"7163.529999999795","","","post_mooney1_questions","survey-likert","204","954690","0.0-6.0-2.28","3167134","co38503","norming","","","{""curiosity"":5,""confidence"":1}","[0,1]","../img/tt/406tt.jpg","",""
"4094.0950000003213","","","recognition","survey-text","205","958786","0.0-6.0-3.28","3167134","co38503","norming","","","{""guess"":""Vleermuis""}","","../img/tt/406tt.jpg","",""
"null","../img/gs/406gs.jpg","null","reveal","image-keyboard-response","206","960796","0.0-6.0-4.28","3167134","co38503","norming","","","","","","",""
"null","../img/tt/406tt.jpg","null","mooney2","image-keyboard-response","207","962805","0.0-6.0-5.28","3167134","co38503","norming","","","","","","",""
"3162.2900000001537","","","post_reveal_questions","survey-likert","208","965970","0.0-6.0-6.28","3167134","co38503","norming","","","{""aha"":4}","[0]","../img/tt/406tt.jpg","",""
"null","<div style=""font-size:60px;""> </div>","null","fixation","html-keyboard-response","209","966180","0.0-6.0-0.29","3167134","co38503","norming","","","","","","",""
"null","../img/tt/1156tt.jpg","null","mooney1","image-keyboard-response","210","969185","0.0-6.0-1.29","3167134","co38503","norming","","","","","","",""
"3669.839999998687","","","post_mooney1_questions","survey-likert","211","972858","0.0-6.0-2.29","3167134","co38503","norming","","","{""curiosity"":6,""confidence"":0}","[0,1]","../img/tt/1156tt.jpg","",""
"974.1300000004703","","","recognition","survey-text","212","973834","0.0-6.0-3.29","3167134","co38503","norming","","","{""guess"":""""}","","../img/tt/1156tt.jpg","",""
"null","../img/gs/1156gs.jpg","null","reveal","image-keyboard-response","213","975836","0.0-6.0-4.29","3167134","co38503","norming","","","","","","",""
"null","../img/tt/1156tt.jpg","null","mooney2","image-keyboard-response","214","977839","0.0-6.0-5.29","3167134","co38503","norming","","","","","","",""
"2160.7850000000326","","","post_reveal_questions","survey-likert","215","980002","0.0-6.0-6.29","3167134","co38503","norming","","","{""aha"":6}","[0]","../img/tt/1156tt.jpg","",""
"null","<div style=""font-size:60px;""> </div>","null","fixation","html-keyboard-response","216","980204","0.0-6.0-0.30","3167134","co38503","norming","","","","","","",""
"null","../img/tt/1061tt.jpg","null","mooney1","image-keyboard-response","217","983212","0.0-6.0-1.30","3167134","co38503","norming","","","","","","",""
"9348.909999998752","","","post_mooney1_questions","survey-likert","218","992562","0.0-6.0-2.30","3167134","co38503","norming","","","{""curiosity"":4,""confidence"":1}","[0,1]","../img/tt/1061tt.jpg","",""
"2974.2050000004238","","","recognition","survey-text","219","995538","0.0-6.0-3.30","3167134","co38503","norming","","","{""guess"":""Golf""}","","../img/tt/1061tt.jpg","",""
"null","../img/gs/1061gs.jpg","null","reveal","image-keyboard-response","220","997548","0.0-6.0-4.30","3167134","co38503","norming","","","","","","",""
"null","../img/tt/1061tt.jpg","null","mooney2","image-keyboard-response","221","999558","0.0-6.0-5.30","3167134","co38503","norming","","","","","","",""
"3113.625","","","post_reveal_questions","survey-likert","222","1002674","0.0-6.0-6.30","3167134","co38503","norming","","","{""aha"":5}","[0]","../img/tt/1061tt.jpg","",""
"null","<div style=""font-size:60px;""> </div>","null","fixation","html-keyboard-response","223","1002882","0.0-6.0-0.31","3167134","co38503","norming","","","","","","",""
"null","../img/tt/078tt.jpg","null","mooney1","image-keyboard-response","224","1005886","0.0-6.0-1.31","3167134","co38503","norming","","","","","","",""
"10257.284999999683","","","post_mooney1_questions","survey-likert","225","1016139","0.0-6.0-2.31","3167134","co38503","norming","","","{""curiosity"":4,""confidence"":5}","[0,1]","../img/tt/078tt.jpg","",""
"3133.5450000005076","","","recognition","survey-text","226","1019275","0.0-6.0-3.31","3167134","co38503","norming","","","{""guess"":""Druiven""}","","../img/tt/078tt.jpg","",""
"null","../img/gs/078gs.jpg","null","reveal","image-keyboard-response","227","1021280","0.0-6.0-4.31","3167134","co38503","norming","","","","","","",""
"null","../img/tt/078tt.jpg","null","mooney2","image-keyboard-response","228","1023282","0.0-6.0-5.31","3167134","co38503","norming","","","","","","",""
"3238.5749999993714","","","post_reveal_questions","survey-likert","229","1026523","0.0-6.0-6.31","3167134","co38503","norming","","","{""aha"":2}","[0]","../img/tt/078tt.jpg","",""
"null","<div style=""font-size:60px;""> </div>","null","fixation","html-keyboard-response","230","1026733","0.0-6.0-0.32","3167134","co38503","norming","","","","","","",""
"null","../img/tt/1196tt.jpg","null","mooney1","image-keyboard-response","231","1029741","0.0-6.0-1.32","3167134","co38503","norming","","","","","","",""
"6741.09499999939","","","post_mooney1_questions","survey-likert","232","1036483","0.0-6.0-2.32","3167134","co38503","norming","","","{""curiosity"":5,""confidence"":1}","[0,1]","../img/tt/1196tt.jpg","",""
"2630.1100000001024","","","recognition","survey-text","233","1039115","0.0-6.0-3.32","3167134","co38503","norming","","","{""guess"":""Judo""}","","../img/tt/1196tt.jpg","",""
"null","../img/gs/1196gs.jpg","null","reveal","image-keyboard-response","234","1041117","0.0-6.0-4.32","3167134","co38503","norming","","","","","","",""
"null","../img/tt/1196tt.jpg","null","mooney2","image-keyboard-response","235","1043123","0.0-6.0-5.32","3167134","co38503","norming","","","","","","",""
"4238.694999999949","","","post_reveal_questions","survey-likert","236","1047363","0.0-6.0-6.32","3167134","co38503","norming","","","{""aha"":4}","[0]","../img/tt/1196tt.jpg","",""
"null","<div style=""font-size:60px;""> </div>","null","fixation","html-keyboard-response","237","1047564","0.0-6.0-0.33","3167134","co38503","norming","","","","","","",""
"null","../img/tt/1260tt.jpg","null","mooney1","image-keyboard-response","238","1050568","0.0-6.0-1.33","3167134","co38503","norming","","","","","","",""
"5960.8499999996275","","","post_mooney1_questions","survey-likert","239","1056531","0.0-6.0-2.33","3167134","co38503","norming","","","{""curiosity"":5,""confidence"":2}","[0,1]","../img/tt/1260tt.jpg","",""
"2661.985000000568","","","recognition","survey-text","240","1059195","0.0-6.0-3.33","3167134","co38503","norming","","","{""guess"":""Tijger""}","","../img/tt/1260tt.jpg","",""
"null","../img/gs/1260gs.jpg","null","reveal","image-keyboard-response","241","1061204","0.0-6.0-4.33","3167134","co38503","norming","","","","","","",""
"null","../img/tt/1260tt.jpg","null","mooney2","image-keyboard-response","242","1063214","0.0-6.0-5.33","3167134","co38503","norming","","","","","","",""
"3722.8749999995343","","","post_reveal_questions","survey-likert","243","1066939","0.0-6.0-6.33","3167134","co38503","norming","","","{""aha"":5}","[0]","../img/tt/1260tt.jpg","",""
"null","<div style=""font-size:60px;""> </div>","null","fixation","html-keyboard-response","244","1067146","0.0-6.0-0.34","3167134","co38503","norming","","","","","","",""
"null","../img/tt/435tt.jpg","null","mooney1","image-keyboard-response","245","1070162","0.0-6.0-1.34","3167134","co38503","norming","","","","","","",""
"5023.0199999988545","","","post_mooney1_questions","survey-likert","246","1075188","0.0-6.0-2.34","3167134","co38503","norming","","","{""curiosity"":6,""confidence"":0}","[0,1]","../img/tt/435tt.jpg","",""
"838.0849999994971","","","recognition","survey-text","247","1076028","0.0-6.0-3.34","3167134","co38503","norming","","","{""guess"":""""}","","../img/tt/435tt.jpg","",""
"null","../img/gs/435gs.jpg","null","reveal","image-keyboard-response","248","1078031","0.0-6.0-4.34","3167134","co38503","norming","","","","","","",""
"null","../img/tt/435tt.jpg","null","mooney2","image-keyboard-response","249","1080042","0.0-6.0-5.34","3167134","co38503","norming","","","","","","",""
"2264.2850000010803","","","post_reveal_questions","survey-likert","250","1082308","0.0-6.0-6.34","3167134","co38503","norming","","","{""aha"":6}","[0]","../img/tt/435tt.jpg","",""
"null","<div style=""font-size:60px;""> </div>","null","fixation","html-keyboard-response","251","1082510","0.0-6.0-0.35","3167134","co38503","norming","","","","","","",""
"null","../img/tt/1101tt.jpg","null","mooney1","image-keyboard-response","252","1085514","0.0-6.0-1.35","3167134","co38503","norming","","","","","","",""
"9231.590000001248","","","post_mooney1_questions","survey-likert","253","1094748","0.0-6.0-2.35","3167134","co38503","norming","","","{""curiosity"":4,""confidence"":2}","[0,1]","../img/tt/1101tt.jpg","",""
"5062.110000000801","","","recognition","survey-text","254","1099812","0.0-6.0-3.35","3167134","co38503","norming","","","{""guess"":""Voetballer""}","","../img/tt/1101tt.jpg","",""
"null","../img/gs/1101gs.jpg","null","reveal","image-keyboard-response","255","1101820","0.0-6.0-4.35","3167134","co38503","norming","","","","","","",""
"null","../img/tt/1101tt.jpg","null","mooney2","image-keyboard-response","256","1103823","0.0-6.0-5.35","3167134","co38503","norming","","","","","","",""
"2362.320000000298","","","post_reveal_questions","survey-likert","257","1106188","0.0-6.0-6.35","3167134","co38503","norming","","","{""aha"":4}","[0]","../img/tt/1101tt.jpg","",""
"null","<div style=""font-size:60px;""> </div>","null","fixation","html-keyboard-response","258","1106392","0.0-6.0-0.36","3167134","co38503","norming","","","","","","",""
"null","../img/tt/559tt.jpg","null","mooney1","image-keyboard-response","259","1109397","0.0-6.0-1.36","3167134","co38503","norming","","","","","","",""
"5116.089999999618","","","post_mooney1_questions","survey-likert","260","1114516","0.0-6.0-2.36","3167134","co38503","norming","","","{""curiosity"":6,""confidence"":0}","[0,1]","../img/tt/559tt.jpg","",""
"798.0500000012107","","","recognition","survey-text","261","1115316","0.0-6.0-3.36","3167134","co38503","norming","","","{""guess"":""""}","","../img/tt/559tt.jpg","",""
"null","../img/gs/559gs.jpg","null","reveal","image-keyboard-response","262","1117322","0.0-6.0-4.36","3167134","co38503","norming","","","","","","",""
"null","../img/tt/559tt.jpg","null","mooney2","image-keyboard-response","263","1119324","0.0-6.0-5.36","3167134","co38503","norming","","","","","","",""
"1925.9999999995343","","","post_reveal_questions","survey-likert","264","1121252","0.0-6.0-6.36","3167134","co38503","norming","","","{""aha"":4}","[0]","../img/tt/559tt.jpg","",""
"null","<div style=""font-size:60px;""> </div>","null","fixation","html-keyboard-response","265","1121458","0.0-6.0-0.37","3167134","co38503","norming","","","","","","",""
"null","../img/tt/567tt.jpg","null","mooney1","image-keyboard-response","266","1124470","0.0-6.0-1.37","3167134","co38503","norming","","","","","","",""
"5627.445000000065","","","post_mooney1_questions","survey-likert","267","1130100","0.0-6.0-2.37","3167134","co38503","norming","","","{""curiosity"":3,""confidence"":5}","[0,1]","../img/tt/567tt.jpg","",""
"4926.120000000112","","","recognition","survey-text","268","1135024","0.0-6.0-3.37","3167134","co38503","norming","","","{""guess"":""Broodrooster""}","","../img/tt/567tt.jpg","",""
"null","../img/gs/567gs.jpg","null","reveal","image-keyboard-response","269","1137028","0.0-6.0-4.37","3167134","co38503","norming","","","","","","",""
"null","../img/tt/567tt.jpg","null","mooney2","image-keyboard-response","270","1139033","0.0-6.0-5.37","3167134","co38503","norming","","","","","","",""
"2924.9099999996834","","","post_reveal_questions","survey-likert","271","1141960","0.0-6.0-6.37","3167134","co38503","norming","","","{""aha"":2}","[0]","../img/tt/567tt.jpg","",""
"null","<div style=""font-size:60px;""> </div>","null","fixation","html-keyboard-response","272","1142164","0.0-6.0-0.38","3167134","co38503","norming","","","","","","",""
"null","../img/tt/036tt.jpg","null","mooney1","image-keyboard-response","273","1145174","0.0-6.0-1.38","3167134","co38503","norming","","","","","","",""
"14582.615000001155","","","post_mooney1_questions","survey-likert","274","1159760","0.0-6.0-2.38","3167134","co38503","norming","","","{""curiosity"":5,""confidence"":1}","[0,1]","../img/tt/036tt.jpg","",""
"4542.294999999227","","","recognition","survey-text","275","1164304","0.0-6.0-3.38","3167134","co38503","norming","","","{""guess"":""Water""}","","../img/tt/036tt.jpg","",""
"null","../img/gs/036gs.jpg","null","reveal","image-keyboard-response","276","1166306","0.0-6.0-4.38","3167134","co38503","norming","","","","","","",""
"null","../img/tt/036tt.jpg","null","mooney2","image-keyboard-response","277","1168307","0.0-6.0-5.38","3167134","co38503","norming","","","","","","",""
"4434.099999998696","","","post_reveal_questions","survey-likert","278","1172744","0.0-6.0-6.38","3167134","co38503","norming","","","{""aha"":4}","[0]","../img/tt/036tt.jpg","",""
"null","<div style=""font-size:60px;""> </div>","null","fixation","html-keyboard-response","279","1172954","0.0-6.0-0.39","3167134","co38503","norming","","","","","","",""
"null","../img/tt/496tt.jpg","null","mooney1","image-keyboard-response","280","1175961","0.0-6.0-1.39","3167134","co38503","norming","","","","","","",""
"5539.89000000013","","","post_mooney1_questions","survey-likert","281","1181504","0.0-6.0-2.39","3167134","co38503","norming","","","{""curiosity"":5,""confidence"":0}","[0,1]","../img/tt/496tt.jpg","",""
"974.0400000009686","","","recognition","survey-text","282","1182480","0.0-6.0-3.39","3167134","co38503","norming","","","{""guess"":""""}","","../img/tt/496tt.jpg","",""
"null","../img/gs/496gs.jpg","null","reveal","image-keyboard-response","283","1184482","0.0-6.0-4.39","3167134","co38503","norming","","","","","","",""
"null","../img/tt/496tt.jpg","null","mooney2","image-keyboard-response","284","1186483","0.0-6.0-5.39","3167134","co38503","norming","","","","","","",""
"1467.8899999998976","","","post_reveal_questions","survey-likert","285","1187952","0.0-6.0-6.39","3167134","co38503","norming","","","{""aha"":5}","[0]","../img/tt/496tt.jpg","",""
"null","<div style=""font-size:60px;""> </div>","null","fixation","html-keyboard-response","286","1188154","0.0-6.0-0.40","3167134","co38503","norming","","","","","","",""
"null","../img/tt/1151tt.jpg","null","mooney1","image-keyboard-response","287","1191160","0.0-6.0-1.40","3167134","co38503","norming","","","","","","",""
"4396.9550000000745","","","post_mooney1_questions","survey-likert","288","1195562","0.0-6.0-2.40","3167134","co38503","norming","","","{""curiosity"":5,""confidence"":1}","[0,1]","../img/tt/1151tt.jpg","",""
"2197.9250000005122","","","recognition","survey-text","289","1197762","0.0-6.0-3.40","3167134","co38503","norming","","","{""guess"":""Fles""}","","../img/tt/1151tt.jpg","",""
"null","../img/gs/1151gs.jpg","null","reveal","image-keyboard-response","290","1199769","0.0-6.0-4.40","3167134","co38503","norming","","","","","","",""
"null","../img/tt/1151tt.jpg","null","mooney2","image-keyboard-response","291","1201779","0.0-6.0-5.40","3167134","co38503","norming","","","","","","",""
"2269.285000000149","","","post_reveal_questions","survey-likert","292","1204050","0.0-6.0-6.40","3167134","co38503","norming","","","{""aha"":5}","[0]","../img/tt/1151tt.jpg","",""
"null","<div style=""font-size:60px;""> </div>","null","fixation","html-keyboard-response","293","1204252","0.0-6.0-0.41","3167134","co38503","norming","","","","","","",""
"null","../img/tt/1190tt.jpg","null","mooney1","image-keyboard-response","294","1207261","0.0-6.0-1.41","3167134","co38503","norming","","","","","","",""
"9202.354999999516","","","post_mooney1_questions","survey-likert","295","1216466","0.0-6.0-2.41","3167134","co38503","norming","","","{""curiosity"":4,""confidence"":0}","[0,1]","../img/tt/1190tt.jpg","",""
"750.025000001071","","","recognition","survey-text","296","1217217","0.0-6.0-3.41","3167134","co38503","norming","","","{""guess"":""""}","","../img/tt/1190tt.jpg","",""
"null","../img/gs/1190gs.jpg","null","reveal","image-keyboard-response","297","1219221","0.0-6.0-4.41","3167134","co38503","norming","","","","","","",""
"null","../img/tt/1190tt.jpg","null","mooney2","image-keyboard-response","298","1221223","0.0-6.0-5.41","3167134","co38503","norming","","","","","","",""
"2896.515000000363","","","post_reveal_questions","survey-likert","299","1224122","0.0-6.0-6.41","3167134","co38503","norming","","","{""aha"":4}","[0]","../img/tt/1190tt.jpg","",""
"null","<div style=""font-size:60px;""> </div>","null","fixation","html-keyboard-response","300","1224329","0.0-6.0-0.42","3167134","co38503","norming","","","","","","",""
"null","../img/tt/1055tt.jpg","null","mooney1","image-keyboard-response","301","1227333","0.0-6.0-1.42","3167134","co38503","norming","","","","","","",""
"9729.515000001062","","","post_mooney1_questions","survey-likert","302","1237066","0.0-6.0-2.42","3167134","co38503","norming","","","{""curiosity"":6,""confidence"":1}","[0,1]","../img/tt/1055tt.jpg","",""
"2101.9850000012666","","","recognition","survey-text","303","1239170","0.0-6.0-3.42","3167134","co38503","norming","","","{""guess"":""Eend""}","","../img/tt/1055tt.jpg","",""
"null","../img/gs/1055gs.jpg","null","reveal","image-keyboard-response","304","1241177","0.0-6.0-4.42","3167134","co38503","norming","","","","","","",""
"null","../img/tt/1055tt.jpg","null","mooney2","image-keyboard-response","305","1243179","0.0-6.0-5.42","3167134","co38503","norming","","","","","","",""
"6346.219999999506","","","post_reveal_questions","survey-likert","306","1249530","0.0-6.0-6.42","3167134","co38503","norming","","","{""aha"":4}","[0]","../img/tt/1055tt.jpg","",""
"null","<div style=""font-size:60px;""> </div>","null","fixation","html-keyboard-response","307","1249737","0.0-6.0-0.43","3167134","co38503","norming","","","","","","",""
"null","../img/tt/064tt.jpg","null","mooney1","image-keyboard-response","308","1252745","0.0-6.0-1.43","3167134","co38503","norming","","","","","","",""
"6533.570000001462","","","post_mooney1_questions","survey-likert","309","1259281","0.0-6.0-2.43","3167134","co38503","norming","","","{""curiosity"":6,""confidence"":0}","[0,1]","../img/tt/064tt.jpg","",""
"1061.8699999994133","","","recognition","survey-text","310","1260344","0.0-6.0-3.43","3167134","co38503","norming","","","{""guess"":""""}","","../img/tt/064tt.jpg","",""
"null","../img/gs/064gs.jpg","null","reveal","image-keyboard-response","311","1262351","0.0-6.0-4.43","3167134","co38503","norming","","","","","","",""
"null","../img/tt/064tt.jpg","null","mooney2","image-keyboard-response","312","1264353","0.0-6.0-5.43","3167134","co38503","norming","","","","","","",""
"1661.1699999994598","","","post_reveal_questions","survey-likert","313","1266016","0.0-6.0-6.43","3167134","co38503","norming","","","{""aha"":6}","[0]","../img/tt/064tt.jpg","",""
"null","<div style=""font-size:60px;""> </div>","null","fixation","html-keyboard-response","314","1266218","0.0-6.0-0.44","3167134","co38503","norming","","","","","","",""
"null","../img/tt/456tt.jpg","null","mooney1","image-keyboard-response","315","1269227","0.0-6.0-1.44","3167134","co38503","norming","","","","","","",""
"8667.129999999655","","","post_mooney1_questions","survey-likert","316","1277897","0.0-6.0-2.44","3167134","co38503","norming","","","{""curiosity"":6,""confidence"":1}","[0,1]","../img/tt/456tt.jpg","",""
"3557.5399999998044","","","recognition","survey-text","317","1281456","0.0-6.0-3.44","3167134","co38503","norming","","","{""guess"":""Schaap""}","","../img/tt/456tt.jpg","",""
"null","../img/gs/456gs.jpg","null","reveal","image-keyboard-response","318","1283461","0.0-6.0-4.44","3167134","co38503","norming","","","","","","",""
"null","../img/tt/456tt.jpg","null","mooney2","image-keyboard-response","319","1285463","0.0-6.0-5.44","3167134","co38503","norming","","","","","","",""
"3270.725000000326","","","post_reveal_questions","survey-likert","320","1288736","0.0-6.0-6.44","3167134","co38503","norming","","","{""aha"":5}","[0]","../img/tt/456tt.jpg","",""
"null","<div style=""font-size:60px;""> </div>","null","fixation","html-keyboard-response","321","1288942","0.0-6.0-0.45","3167134","co38503","norming","","","","","","",""
"null","../img/tt/1217tt.jpg","null","mooney1","image-keyboard-response","322","1291954","0.0-6.0-1.45","3167134","co38503","norming","","","","","","",""
"14603.680000000168","","","post_mooney1_questions","survey-likert","323","1306561","0.0-6.0-2.45","3167134","co38503","norming","","","{""curiosity"":5,""confidence"":0}","[0,1]","../img/tt/1217tt.jpg","",""
"877.8600000005681","","","recognition","survey-text","324","1307440","0.0-6.0-3.45","3167134","co38503","norming","","","{""guess"":""""}","","../img/tt/1217tt.jpg","",""
"null","../img/gs/1217gs.jpg","null","reveal","image-keyboard-response","325","1309443","0.0-6.0-4.45","3167134","co38503","norming","","","","","","",""
"null","../img/tt/1217tt.jpg","null","mooney2","image-keyboard-response","326","1311444","0.0-6.0-5.45","3167134","co38503","norming","","","","","","",""
"3769.6500000001397","","","post_reveal_questions","survey-likert","327","1315216","0.0-6.0-6.45","3167134","co38503","norming","","","{""aha"":4}","[0]","../img/tt/1217tt.jpg","",""
"null","<div style=""font-size:60px;""> </div>","null","fixation","html-keyboard-response","328","1315426","0.0-6.0-0.46","3167134","co38503","norming","","","","","","",""
"null","../img/tt/1241tt.jpg","null","mooney1","image-keyboard-response","329","1318438","0.0-6.0-1.46","3167134","co38503","norming","","","","","","",""
"5437.740000001155","","","post_mooney1_questions","survey-likert","330","1323879","0.0-6.0-2.46","3167134","co38503","norming","","","{""curiosity"":5,""confidence"":3}","[0,1]","../img/tt/1241tt.jpg","",""
"2285.9649999991525","","","recognition","survey-text","331","1326167","0.0-6.0-3.46","3167134","co38503","norming","","","{""guess"":""Hond""}","","../img/tt/1241tt.jpg","",""
"null","../img/gs/1241gs.jpg","null","reveal","image-keyboard-response","332","1328177","0.0-6.0-4.46","3167134","co38503","norming","","","","","","",""
"null","../img/tt/1241tt.jpg","null","mooney2","image-keyboard-response","333","1330179","0.0-6.0-5.46","3167134","co38503","norming","","","","","","",""
"2993.4150000007357","","","post_reveal_questions","survey-likert","334","1333174","0.0-6.0-6.46","3167134","co38503","norming","","","{""aha"":4}","[0]","../img/tt/1241tt.jpg","",""
"null","<div style=""font-size:60px;""> </div>","null","fixation","html-keyboard-response","335","1333383","0.0-6.0-0.47","3167134","co38503","norming","","","","","","",""
"null","../img/tt/1097tt.jpg","null","mooney1","image-keyboard-response","336","1336387","0.0-6.0-1.47","3167134","co38503","norming","","","","","","",""
"5496.720000000903","","","post_mooney1_questions","survey-likert","337","1341887","0.0-6.0-2.47","3167134","co38503","norming","","","{""curiosity"":5,""confidence"":2}","[0,1]","../img/tt/1097tt.jpg","",""
"2917.3049999992363","","","recognition","survey-text","338","1344806","0.0-6.0-3.47","3167134","co38503","norming","","","{""guess"":""Boer""}","","../img/tt/1097tt.jpg","",""
"null","../img/gs/1097gs.jpg","null","reveal","image-keyboard-response","339","1346813","0.0-6.0-4.47","3167134","co38503","norming","","","","","","",""
"null","../img/tt/1097tt.jpg","null","mooney2","image-keyboard-response","340","1348816","0.0-6.0-5.47","3167134","co38503","norming","","","","","","",""
"2515.8499999998603","","","post_reveal_questions","survey-likert","341","1351334","0.0-6.0-6.47","3167134","co38503","norming","","","{""aha"":5}","[0]","../img/tt/1097tt.jpg","",""
"null","<div style=""font-size:60px;""> </div>","null","fixation","html-keyboard-response","342","1351545","0.0-6.0-0.48","3167134","co38503","norming","","","","","","",""
"null","../img/tt/060tt.jpg","null","mooney1","image-keyboard-response","343","1354546","0.0-6.0-1.48","3167134","co38503","norming","","","","","","",""
"9369.789999998873","","","post_mooney1_questions","survey-likert","344","1363919","0.0-6.0-2.48","3167134","co38503","norming","","","{""curiosity"":5,""confidence"":0}","[0,1]","../img/tt/060tt.jpg","",""
"1349.6750000012107","","","recognition","survey-text","345","1365270","0.0-6.0-3.48","3167134","co38503","norming","","","{""guess"":""""}","","../img/tt/060tt.jpg","",""
"null","../img/gs/060gs.jpg","null","reveal","image-keyboard-response","346","1367276","0.0-6.0-4.48","3167134","co38503","norming","","","","","","",""
"null","../img/tt/060tt.jpg","null","mooney2","image-keyboard-response","347","1369281","0.0-6.0-5.48","3167134","co38503","norming","","","","","","",""
"4195.344999999972","","","post_reveal_questions","survey-likert","348","1373479","0.0-6.0-6.48","3167134","co38503","norming","","","{""aha"":5}","[0]","../img/tt/060tt.jpg","",""
"null","<div style=""font-size:60px;""> </div>","null","fixation","html-keyboard-response","349","1373680","0.0-6.0-0.49","3167134","co38503","norming","","","","","","",""
"null","../img/tt/052tt.jpg","null","mooney1","image-keyboard-response","350","1376681","0.0-6.0-1.49","3167134","co38503","norming","","","","","","",""
"3362.074999999255","","","post_mooney1_questions","survey-likert","351","1380047","0.0-6.0-2.49","3167134","co38503","norming","","","{""curiosity"":5,""confidence"":3}","[0,1]","../img/tt/052tt.jpg","",""
"4854.250000000233","","","recognition","survey-text","352","1384903","0.0-6.0-3.49","3167134","co38503","norming","","","{""guess"":""Pannenkoeken""}","","../img/tt/052tt.jpg","",""
"null","../img/gs/052gs.jpg","null","reveal","image-keyboard-response","353","1386911","0.0-6.0-4.49","3167134","co38503","norming","","","","","","",""
"null","../img/tt/052tt.jpg","null","mooney2","image-keyboard-response","354","1388921","0.0-6.0-5.49","3167134","co38503","norming","","","","","","",""
"2507.379999998957","","","post_reveal_questions","survey-likert","355","1391431","0.0-6.0-6.49","3167134","co38503","norming","","","{""aha"":5}","[0]","../img/tt/052tt.jpg","",""
"null","<div style=""font-size:60px;""> </div>","null","fixation","html-keyboard-response","356","1391641","0.0-6.0-0.50","3167134","co38503","norming","","","","","","",""
"null","../img/tt/008tt.jpg","null","mooney1","image-keyboard-response","357","1394653","0.0-6.0-1.50","3167134","co38503","norming","","","","","","",""
"7448.29000000027","","","post_mooney1_questions","survey-likert","358","1402103","0.0-6.0-2.50","3167134","co38503","norming","","","{""curiosity"":6,""confidence"":1}","[0,1]","../img/tt/008tt.jpg","",""
"5902.190000000875","","","recognition","survey-text","359","1408007","0.0-6.0-3.50","3167134","co38503","norming","","","{""guess"":""Troffee""}","","../img/tt/008tt.jpg","",""
"null","../img/gs/008gs.jpg","null","reveal","image-keyboard-response","360","1410009","0.0-6.0-4.50","3167134","co38503","norming","","","","","","",""
"null","../img/tt/008tt.jpg","null","mooney2","image-keyboard-response","361","1412016","0.0-6.0-5.50","3167134","co38503","norming","","","","","","",""
"3364.799999999348","","","post_reveal_questions","survey-likert","362","1415383","0.0-6.0-6.50","3167134","co38503","norming","","","{""aha"":5}","[0]","../img/tt/008tt.jpg","",""
"null","<div style=""font-size:60px;""> </div>","null","fixation","html-keyboard-response","363","1415588","0.0-6.0-0.51","3167134","co38503","norming","","","","","","",""
"null","../img/tt/1027tt.jpg","null","mooney1","image-keyboard-response","364","1418592","0.0-6.0-1.51","3167134","co38503","norming","","","","","","",""
"6100.730000000214","","","post_mooney1_questions","survey-likert","365","1424695","0.0-6.0-2.51","3167134","co38503","norming","","","{""curiosity"":4,""confidence"":6}","[0,1]","../img/tt/1027tt.jpg","",""
"1869.795000000624","","","recognition","survey-text","366","1426567","0.0-6.0-3.51","3167134","co38503","norming","","","{""guess"":""Koe""}","","../img/tt/1027tt.jpg","",""
"null","../img/gs/1027gs.jpg","null","reveal","image-keyboard-response","367","1428568","0.0-6.0-4.51","3167134","co38503","norming","","","","","","",""
"null","../img/tt/1027tt.jpg","null","mooney2","image-keyboard-response","368","1430570","0.0-6.0-5.51","3167134","co38503","norming","","","","","","",""
"5450.979999999516","","","post_reveal_questions","survey-likert","369","1436023","0.0-6.0-6.51","3167134","co38503","norming","","","{""aha"":1}","[0]","../img/tt/1027tt.jpg","",""
"null","<div style=""font-size:60px;""> </div>","null","fixation","html-keyboard-response","370","1436228","0.0-6.0-0.52","3167134","co38503","norming","","","","","","",""
"null","../img/tt/1189tt.jpg","null","mooney1","image-keyboard-response","371","1439237","0.0-6.0-1.52","3167134","co38503","norming","","","","","","",""
"8831.475000001024","","","post_mooney1_questions","survey-likert","372","1448070","0.0-6.0-2.52","3167134","co38503","norming","","","{""curiosity"":5,""confidence"":1}","[0,1]","../img/tt/1189tt.jpg","",""
"3822.025000001304","","","recognition","survey-text","373","1451894","0.0-6.0-3.52","3167134","co38503","norming","","","{""guess"":""Zwemmer""}","","../img/tt/1189tt.jpg","",""
"null","../img/gs/1189gs.jpg","null","reveal","image-keyboard-response","374","1453899","0.0-6.0-4.52","3167134","co38503","norming","","","","","","",""
"null","../img/tt/1189tt.jpg","null","mooney2","image-keyboard-response","375","1455902","0.0-6.0-5.52","3167134","co38503","norming","","","","","","",""
"1693.6850000000559","","","post_reveal_questions","survey-likert","376","1457598","0.0-6.0-6.52","3167134","co38503","norming","","","{""aha"":5}","[0]","../img/tt/1189tt.jpg","",""
"null","<div style=""font-size:60px;""> </div>","null","fixation","html-keyboard-response","377","1457806","0.0-6.0-0.53","3167134","co38503","norming","","","","","","",""
"null","../img/tt/1181tt.jpg","null","mooney1","image-keyboard-response","378","1460809","0.0-6.0-1.53","3167134","co38503","norming","","","","","","",""
"12313.72499999986","","","post_mooney1_questions","survey-likert","379","1473126","0.0-6.0-2.53","3167134","co38503","norming","","","{""curiosity"":6,""confidence"":0}","[0,1]","../img/tt/1181tt.jpg","",""
"710.0449999996927","","","recognition","survey-text","380","1473838","0.0-6.0-3.53","3167134","co38503","norming","","","{""guess"":""""}","","../img/tt/1181tt.jpg","",""
"null","../img/gs/1181gs.jpg","null","reveal","image-keyboard-response","381","1475842","0.0-6.0-4.53","3167134","co38503","norming","","","","","","",""
"null","../img/tt/1181tt.jpg","null","mooney2","image-keyboard-response","382","1477847","0.0-6.0-5.53","3167134","co38503","norming","","","","","","",""
"1684.5599999995902","","","post_reveal_questions","survey-likert","383","1479534","0.0-6.0-6.53","3167134","co38503","norming","","","{""aha"":5}","[0]","../img/tt/1181tt.jpg","",""
"null","<div style=""font-size:60px;""> </div>","null","fixation","html-keyboard-response","384","1479735","0.0-6.0-0.54","3167134","co38503","norming","","","","","","",""
"null","../img/tt/1159tt.jpg","null","mooney1","image-keyboard-response","385","1482740","0.0-6.0-1.54","3167134","co38503","norming","","","","","","",""
"7190.894999999786","","","post_mooney1_questions","survey-likert","386","1489934","0.0-6.0-2.54","3167134","co38503","norming","","","{""curiosity"":5,""confidence"":1}","[0,1]","../img/tt/1159tt.jpg","",""
"2838.059999999823","","","recognition","survey-text","387","1492774","0.0-6.0-3.54","3167134","co38503","norming","","","{""guess"":""Podium""}","","../img/tt/1159tt.jpg","",""
"null","../img/gs/1159gs.jpg","null","reveal","image-keyboard-response","388","1494779","0.0-6.0-4.54","3167134","co38503","norming","","","","","","",""
"null","../img/tt/1159tt.jpg","null","mooney2","image-keyboard-response","389","1496782","0.0-6.0-5.54","3167134","co38503","norming","","","","","","",""
"1613.444999998901","","","post_reveal_questions","survey-likert","390","1498398","0.0-6.0-6.54","3167134","co38503","norming","","","{""aha"":6}","[0]","../img/tt/1159tt.jpg","",""
"null","<div style=""font-size:60px;""> </div>","null","fixation","html-keyboard-response","391","1498602","0.0-6.0-0.55","3167134","co38503","norming","","","","","","",""
"null","../img/tt/306tt.jpg","null","mooney1","image-keyboard-response","392","1501609","0.0-6.0-1.55","3167134","co38503","norming","","","","","","",""
"7002.264999999199","","","post_mooney1_questions","survey-likert","393","1508611","0.0-6.0-2.55","3167134","co38503","norming","","","{""curiosity"":6,""confidence"":0}","[0,1]","../img/tt/306tt.jpg","",""
"870.0149999987334","","","recognition","survey-text","394","1509483","0.0-6.0-3.55","3167134","co38503","norming","","","{""guess"":""""}","","../img/tt/306tt.jpg","",""
"null","../img/gs/306gs.jpg","null","reveal","image-keyboard-response","395","1511489","0.0-6.0-4.55","3167134","co38503","norming","","","","","","",""
"null","../img/tt/306tt.jpg","null","mooney2","image-keyboard-response","396","1513491","0.0-6.0-5.55","3167134","co38503","norming","","","","","","",""
"2301.1200000001118","","","post_reveal_questions","survey-likert","397","1515795","0.0-6.0-6.55","3167134","co38503","norming","","","{""aha"":5}","[0]","../img/tt/306tt.jpg","",""
"null","<div style=""font-size:60px;""> </div>","null","fixation","html-keyboard-response","398","1515996","0.0-6.0-0.56","3167134","co38503","norming","","","","","","",""
"null","../img/tt/590tt.jpg","null","mooney1","image-keyboard-response","399","1519003","0.0-6.0-1.56","3167134","co38503","norming","","","","","","",""
"6709.160000000382","","","post_mooney1_questions","survey-likert","400","1525715","0.0-6.0-2.56","3167134","co38503","norming","","","{""curiosity"":5,""confidence"":0}","[0,1]","../img/tt/590tt.jpg","",""
"702.1499999989755","","","recognition","survey-text","401","1526419","0.0-6.0-3.56","3167134","co38503","norming","","","{""guess"":""""}","","../img/tt/590tt.jpg","",""
"null","../img/gs/590gs.jpg","null","reveal","image-keyboard-response","402","1528425","0.0-6.0-4.56","3167134","co38503","norming","","","","","","",""
"null","../img/tt/590tt.jpg","null","mooney2","image-keyboard-response","403","1530428","0.0-6.0-5.56","3167134","co38503","norming","","","","","","",""
"3540.6100000001024","","","post_reveal_questions","survey-likert","404","1533971","0.0-6.0-6.56","3167134","co38503","norming","","","{""aha"":4}","[0]","../img/tt/590tt.jpg","",""
"null","<div style=""font-size:60px;""> </div>","null","fixation","html-keyboard-response","405","1534176","0.0-6.0-0.57","3167134","co38503","norming","","","","","","",""
"null","../img/tt/301tt.jpg","null","mooney1","image-keyboard-response","406","1537177","0.0-6.0-1.57","3167134","co38503","norming","","","","","","",""
"8286.39499999932","","","post_mooney1_questions","survey-likert","407","1545467","0.0-6.0-2.57","3167134","co38503","norming","","","{""curiosity"":4,""confidence"":1}","[0,1]","../img/tt/301tt.jpg","",""
"2054.045000000857","","","recognition","survey-text","408","1547523","0.0-6.0-3.57","3167134","co38503","norming","","","{""guess"":""Deur""}","","../img/tt/301tt.jpg","",""
"null","../img/gs/301gs.jpg","null","reveal","image-keyboard-response","409","1549533","0.0-6.0-4.57","3167134","co38503","norming","","","","","","",""
"null","../img/tt/301tt.jpg","null","mooney2","image-keyboard-response","410","1551535","0.0-6.0-5.57","3167134","co38503","norming","","","","","","",""
"1585.139999999199","","","post_reveal_questions","survey-likert","411","1553123","0.0-6.0-6.57","3167134","co38503","norming","","","{""aha"":4}","[0]","../img/tt/301tt.jpg","",""
"null","<div style=""font-size:60px;""> </div>","null","fixation","html-keyboard-response","412","1553328","0.0-6.0-0.58","3167134","co38503","norming","","","","","","",""
"null","../img/tt/1255tt.jpg","null","mooney1","image-keyboard-response","413","1556336","0.0-6.0-1.58","3167134","co38503","norming","","","","","","",""
"10454.9449999996","","","post_mooney1_questions","survey-likert","414","1566793","0.0-6.0-2.58","3167134","co38503","norming","","","{""curiosity"":4,""confidence"":0}","[0,1]","../img/tt/1255tt.jpg","",""
"837.6549999993294","","","recognition","survey-text","415","1567632","0.0-6.0-3.58","3167134","co38503","norming","","","{""guess"":""""}","","../img/tt/1255tt.jpg","",""
"null","../img/gs/1255gs.jpg","null","reveal","image-keyboard-response","416","1569634","0.0-6.0-4.58","3167134","co38503","norming","","","","","","",""
"null","../img/tt/1255tt.jpg","null","mooney2","image-keyboard-response","417","1571640","0.0-6.0-5.58","3167134","co38503","norming","","","","","","",""
"1670.090000001248","","","post_reveal_questions","survey-likert","418","1573312","0.0-6.0-6.58","3167134","co38503","norming","","","{""aha"":2}","[0]","../img/tt/1255tt.jpg","",""
"null","<div style=""font-size:60px;""> </div>","null","fixation","html-keyboard-response","419","1573523","0.0-6.0-0.59","3167134","co38503","norming","","","","","","",""
"null","../img/tt/1037tt.jpg","null","mooney1","image-keyboard-response","420","1576530","0.0-6.0-1.59","3167134","co38503","norming","","","","","","",""
"6651.229999999516","","","post_mooney1_questions","survey-likert","421","1583185","0.0-6.0-2.59","3167134","co38503","norming","","","{""curiosity"":6,""confidence"":2}","[0,1]","../img/tt/1037tt.jpg","",""
"2941.66500000027","","","recognition","survey-text","422","1586128","0.0-6.0-3.59","3167134","co38503","norming","","","{""guess"":""Surfers""}","","../img/tt/1037tt.jpg","",""
"null","../img/gs/1037gs.jpg","null","reveal","image-keyboard-response","423","1588131","0.0-6.0-4.59","3167134","co38503","norming","","","","","","",""
"null","../img/tt/1037tt.jpg","null","mooney2","image-keyboard-response","424","1590138","0.0-6.0-5.59","3167134","co38503","norming","","","","","","",""
"1787.3550000002142","","","post_reveal_questions","survey-likert","425","1591928","0.0-6.0-6.59","3167134","co38503","norming","","","{""aha"":5}","[0]","../img/tt/1037tt.jpg","",""
"null","<div style=""font-size:60px;""> </div>","null","fixation","html-keyboard-response","426","1592131","0.0-6.0-0.60","3167134","co38503","norming","","","","","","",""
"null","../img/tt/549tt.jpg","null","mooney1","image-keyboard-response","427","1595139","0.0-6.0-1.60","3167134","co38503","norming","","","","","","",""
"9770.930000000633","","","post_mooney1_questions","survey-likert","428","1604913","0.0-6.0-2.60","3167134","co38503","norming","","","{""curiosity"":4,""confidence"":0}","[0,1]","../img/tt/549tt.jpg","",""
"717.7350000001024","","","recognition","survey-text","429","1605632","0.0-6.0-3.60","3167134","co38503","norming","","","{""guess"":""""}","","../img/tt/549tt.jpg","",""
"null","../img/gs/549gs.jpg","null","reveal","image-keyboard-response","430","1607638","0.0-6.0-4.60","3167134","co38503","norming","","","","","","",""
"null","../img/tt/549tt.jpg","null","mooney2","image-keyboard-response","431","1609644","0.0-6.0-5.60","3167134","co38503","norming","","","","","","",""
"3409.799999999581","","","post_reveal_questions","survey-likert","432","1613057","0.0-6.0-6.60","3167134","co38503","norming","","","{""aha"":5}","[0]","../img/tt/549tt.jpg","",""
"null","<div style=""font-size:60px;""> </div>","null","fixation","html-keyboard-response","433","1613258","0.0-6.0-0.61","3167134","co38503","norming","","","","","","",""
"null","../img/tt/094tt.jpg","null","mooney1","image-keyboard-response","434","1616265","0.0-6.0-1.61","3167134","co38503","norming","","","","","","",""
"6381.550000000047","","","post_mooney1_questions","survey-likert","435","1622649","0.0-6.0-2.61","3167134","co38503","norming","","","{""curiosity"":6,""confidence"":4}","[0,1]","../img/tt/094tt.jpg","",""
"5157.859999999404","","","recognition","survey-text","436","1627816","0.0-6.0-3.61","3167134","co38503","norming","","","{""guess"":""Hond""}","","../img/tt/094tt.jpg","",""
"null","../img/gs/094gs.jpg","null","reveal","image-keyboard-response","437","1629820","0.0-6.0-4.61","3167134","co38503","norming","","","","","","",""
"null","../img/tt/094tt.jpg","null","mooney2","image-keyboard-response","438","1631821","0.0-6.0-5.61","3167134","co38503","norming","","","","","","",""
"2592.5399999995716","","","post_reveal_questions","survey-likert","439","1634416","0.0-6.0-6.61","3167134","co38503","norming","","","{""aha"":4}","[0]","../img/tt/094tt.jpg","",""
"null","<div style=""font-size:60px;""> </div>","null","fixation","html-keyboard-response","440","1634619","0.0-6.0-0.62","3167134","co38503","norming","","","","","","",""
"null","../img/tt/063tt.jpg","null","mooney1","image-keyboard-response","441","1637622","0.0-6.0-1.62","3167134","co38503","norming","","","","","","",""
"4326.8100000005215","","","post_mooney1_questions","survey-likert","442","1641952","0.0-6.0-2.62","3167134","co38503","norming","","","{""curiosity"":6,""confidence"":5}","[0,1]","../img/tt/063tt.jpg","",""
"3349.8450000006706","","","recognition","survey-text","443","1645304","0.0-6.0-3.62","3167134","co38503","norming","","","{""guess"":""Accordeon""}","","../img/tt/063tt.jpg","",""
"null","../img/gs/063gs.jpg","null","reveal","image-keyboard-response","444","1647311","0.0-6.0-4.62","3167134","co38503","norming","","","","","","",""
"null","../img/tt/063tt.jpg","null","mooney2","image-keyboard-response","445","1649313","0.0-6.0-5.62","3167134","co38503","norming","","","","","","",""
"2940.54499999946","","","post_reveal_questions","survey-likert","446","1652256","0.0-6.0-6.62","3167134","co38503","norming","","","{""aha"":1}","[0]","../img/tt/063tt.jpg","",""
"null","<div style=""font-size:60px;""> </div>","null","fixation","html-keyboard-response","447","1652463","0.0-6.0-0.63","3167134","co38503","norming","","","","","","",""
"null","../img/tt/105tt.jpg","null","mooney1","image-keyboard-response","448","1655469","0.0-6.0-1.63","3167134","co38503","norming","","","","","","",""
"4271.655000000261","","","post_mooney1_questions","survey-likert","449","1659744","0.0-6.0-2.63","3167134","co38503","norming","","","{""curiosity"":5,""confidence"":0}","[0,1]","../img/tt/105tt.jpg","",""
"526.0049999998882","","","recognition","survey-text","450","1660272","0.0-6.0-3.63","3167134","co38503","norming","","","{""guess"":""""}","","../img/tt/105tt.jpg","",""
"null","../img/gs/105gs.jpg","null","reveal","image-keyboard-response","451","1662282","0.0-6.0-4.63","3167134","co38503","norming","","","","","","",""
"null","../img/tt/105tt.jpg","null","mooney2","image-keyboard-response","452","1664290","0.0-6.0-5.63","3167134","co38503","norming","","","","","","",""
"4579.489999999991","","","post_reveal_questions","survey-likert","453","1668872","0.0-6.0-6.63","3167134","co38503","norming","","","{""aha"":4}","[0]","../img/tt/105tt.jpg","",""
"null","<div style=""font-size:60px;""> </div>","null","fixation","html-keyboard-response","454","1669074","0.0-6.0-0.64","3167134","co38503","norming","","","","","","",""
"null","../img/tt/522tt.jpg","null","mooney1","image-keyboard-response","455","1672078","0.0-6.0-1.64","3167134","co38503","norming","","","","","","",""
"4318.139999999432","","","post_mooney1_questions","survey-likert","456","1676400","0.0-6.0-2.64","3167134","co38503","norming","","","{""curiosity"":5,""confidence"":6}","[0,1]","../img/tt/522tt.jpg","",""
"2230.1999999999534","","","recognition","survey-text","457","1678632","0.0-6.0-3.64","3167134","co38503","norming","","","{""guess"":""Kat""}","","../img/tt/522tt.jpg","",""
"null","../img/gs/522gs.jpg","null","reveal","image-keyboard-response","458","1680633","0.0-6.0-4.64","3167134","co38503","norming","","","","","","",""
"null","../img/tt/522tt.jpg","null","mooney2","image-keyboard-response","459","1682636","0.0-6.0-5.64","3167134","co38503","norming","","","","","","",""
"4097.46499999892","","","post_reveal_questions","survey-likert","460","1686736","0.0-6.0-6.64","3167134","co38503","norming","","","{""aha"":1}","[0]","../img/tt/522tt.jpg","",""
"null","<div style=""font-size:60px;""> </div>","null","fixation","html-keyboard-response","461","1686939","0.0-6.0-0.65","3167134","co38503","norming","","","","","","",""
"null","../img/tt/329tt.jpg","null","mooney1","image-keyboard-response","462","1689946","0.0-6.0-1.65","3167134","co38503","norming","","","","","","",""
"5123.090000000782","","","post_mooney1_questions","survey-likert","463","1695072","0.0-6.0-2.65","3167134","co38503","norming","","","{""curiosity"":5,""confidence"":2}","[0,1]","../img/tt/329tt.jpg","",""
"1845.9850000001024","","","recognition","survey-text","464","1696920","0.0-6.0-3.65","3167134","co38503","norming","","","{""guess"":""Hond""}","","../img/tt/329tt.jpg","",""
"null","../img/gs/329gs.jpg","null","reveal","image-keyboard-response","465","1698928","0.0-6.0-4.65","3167134","co38503","norming","","","","","","",""
"null","../img/tt/329tt.jpg","null","mooney2","image-keyboard-response","466","1700929","0.0-6.0-5.65","3167134","co38503","norming","","","","","","",""
"1628.2499999997672","","","post_reveal_questions","survey-likert","467","1702560","0.0-6.0-6.65","3167134","co38503","norming","","","{""aha"":4}","[0]","../img/tt/329tt.jpg","",""
"null","<div style=""font-size:60px;""> </div>","null","fixation","html-keyboard-response","468","1702763","0.0-6.0-0.66","3167134","co38503","norming","","","","","","",""
"null","../img/tt/1122tt.jpg","null","mooney1","image-keyboard-response","469","1705773","0.0-6.0-1.66","3167134","co38503","norming","","","","","","",""
"6521.724999998696","","","post_mooney1_questions","survey-likert","470","1712296","0.0-6.0-2.66","3167134","co38503","norming","","","{""curiosity"":5,""confidence"":4}","[0,1]","../img/tt/1122tt.jpg","",""
"2430.024999999674","","","recognition","survey-text","471","1714728","0.0-6.0-3.66","3167134","co38503","norming","","","{""guess"":""Boten""}","","../img/tt/1122tt.jpg","",""
"null","../img/gs/1122gs.jpg","null","reveal","image-keyboard-response","472","1716737","0.0-6.0-4.66","3167134","co38503","norming","","","","","","",""
"null","../img/tt/1122tt.jpg","null","mooney2","image-keyboard-response","473","1718738","0.0-6.0-5.66","3167134","co38503","norming","","","","","","",""
"1147.2450000001118","","","post_reveal_questions","survey-likert","474","1719888","0.0-6.0-6.66","3167134","co38503","norming","","","{""aha"":3}","[0]","../img/tt/1122tt.jpg","",""
"null","<div style=""font-size:60px;""> </div>","null","fixation","html-keyboard-response","475","1720097","0.0-6.0-0.67","3167134","co38503","norming","","","","","","",""
"null","../img/tt/1102tt.jpg","null","mooney1","image-keyboard-response","476","1723100","0.0-6.0-1.67","3167134","co38503","norming","","","","","","",""
"6184.3300000000745","","","post_mooney1_questions","survey-likert","477","1729288","0.0-6.0-2.67","3167134","co38503","norming","","","{""curiosity"":4,""confidence"":0}","[0,1]","../img/tt/1102tt.jpg","",""
"845.910000000149","","","recognition","survey-text","478","1730136","0.0-6.0-3.67","3167134","co38503","norming","","","{""guess"":""""}","","../img/tt/1102tt.jpg","",""
"null","../img/gs/1102gs.jpg","null","reveal","image-keyboard-response","479","1732137","0.0-6.0-4.67","3167134","co38503","norming","","","","","","",""
"null","../img/tt/1102tt.jpg","null","mooney2","image-keyboard-response","480","1734142","0.0-6.0-5.67","3167134","co38503","norming","","","","","","",""
"2847.8200000009965","","","post_reveal_questions","survey-likert","481","1736992","0.0-6.0-6.67","3167134","co38503","norming","","","{""aha"":5}","[0]","../img/tt/1102tt.jpg","",""
"null","<div style=""font-size:60px;""> </div>","null","fixation","html-keyboard-response","482","1737194","0.0-6.0-0.68","3167134","co38503","norming","","","","","","",""
"null","../img/tt/1004tt.jpg","null","mooney1","image-keyboard-response","483","1740202","0.0-6.0-1.68","3167134","co38503","norming","","","","","","",""
"6513.810000000289","","","post_mooney1_questions","survey-likert","484","1746720","0.0-6.0-2.68","3167134","co38503","norming","","","{""curiosity"":6,""confidence"":4}","[0,1]","../img/tt/1004tt.jpg","",""
"2262.0900000003166","","","recognition","survey-text","485","1748977","0.0-6.0-3.68","3167134","co38503","norming","","","{""guess"":""Wolf""}","","../img/tt/1004tt.jpg","",""
"null","../img/gs/1004gs.jpg","null","reveal","image-keyboard-response","486","1750979","0.0-6.0-4.68","3167134","co38503","norming","","","","","","",""
"null","../img/tt/1004tt.jpg","null","mooney2","image-keyboard-response","487","1752980","0.0-6.0-5.68","3167134","co38503","norming","","","","","","",""
"1641.7949999994598","","","post_reveal_questions","survey-likert","488","1754625","0.0-6.0-6.68","3167134","co38503","norming","","","{""aha"":4}","[0]","../img/tt/1004tt.jpg","",""
"null","<div style=""font-size:60px;""> </div>","null","fixation","html-keyboard-response","489","1754831","0.0-6.0-0.69","3167134","co38503","norming","","","","","","",""
"null","../img/tt/1353tt.jpg","null","mooney1","image-keyboard-response","490","1757839","0.0-6.0-1.69","3167134","co38503","norming","","","","","","",""
"7920.330000000773","","","post_mooney1_questions","survey-likert","491","1765761","0.0-6.0-2.69","3167134","co38503","norming","","","{""curiosity"":4,""confidence"":0}","[0,1]","../img/tt/1353tt.jpg","",""
"1221.955000000773","","","recognition","survey-text","492","1766985","0.0-6.0-3.69","3167134","co38503","norming","","","{""guess"":""""}","","../img/tt/1353tt.jpg","",""
"null","../img/gs/1353gs.jpg","null","reveal","image-keyboard-response","493","1768991","0.0-6.0-4.69","3167134","co38503","norming","","","","","","",""
"null","../img/tt/1353tt.jpg","null","mooney2","image-keyboard-response","494","1770994","0.0-6.0-5.69","3167134","co38503","norming","","","","","","",""
"3803.785000000149","","","post_reveal_questions","survey-likert","495","1774801","0.0-6.0-6.69","3167134","co38503","norming","","","{""aha"":4}","[0]","../img/tt/1353tt.jpg","",""
"null","<div style=""font-size:60px;""> </div>","null","fixation","html-keyboard-response","496","1775010","0.0-6.0-0.70","3167134","co38503","norming","","","","","","",""
"null","../img/tt/1125tt.jpg","null","mooney1","image-keyboard-response","497","1778019","0.0-6.0-1.70","3167134","co38503","norming","","","","","","",""
"4363.294999999227","","","post_mooney1_questions","survey-likert","498","1782385","0.0-6.0-2.70","3167134","co38503","norming","","","{""curiosity"":4,""confidence"":0}","[0,1]","../img/tt/1125tt.jpg","",""
"781.9050000014249","","","recognition","survey-text","499","1783169","0.0-6.0-3.70","3167134","co38503","norming","","","{""guess"":""""}","","../img/tt/1125tt.jpg","",""
"null","../img/gs/1125gs.jpg","null","reveal","image-keyboard-response","500","1785177","0.0-6.0-4.70","3167134","co38503","norming","","","","","","",""
"null","../img/tt/1125tt.jpg","null","mooney2","image-keyboard-response","501","1787185","0.0-6.0-5.70","3167134","co38503","norming","","","","","","",""
"2733.350000000559","","","post_reveal_questions","survey-likert","502","1789921","0.0-6.0-6.70","3167134","co38503","norming","","","{""aha"":2}","[0]","../img/tt/1125tt.jpg","",""
"null","<div style=""font-size:60px;""> </div>","null","fixation","html-keyboard-response","503","1790125","0.0-6.0-0.71","3167134","co38503","norming","","","","","","",""
"null","../img/tt/1012tt.jpg","null","mooney1","image-keyboard-response","504","1793137","0.0-6.0-1.71","3167134","co38503","norming","","","","","","",""
"7764.634999999544","","","post_mooney1_questions","survey-likert","505","1800905","0.0-6.0-2.71","3167134","co38503","norming","","","{""curiosity"":3,""confidence"":0}","[0,1]","../img/tt/1012tt.jpg","",""
"1037.9750000012573","","","recognition","survey-text","506","1801945","0.0-6.0-3.71","3167134","co38503","norming","","","{""guess"":""""}","","../img/tt/1012tt.jpg","",""
"null","../img/gs/1012gs.jpg","null","reveal","image-keyboard-response","507","1803955","0.0-6.0-4.71","3167134","co38503","norming","","","","","","",""
"null","../img/tt/1012tt.jpg","null","mooney2","image-keyboard-response","508","1805958","0.0-6.0-5.71","3167134","co38503","norming","","","","","","",""
"2184.704999999609","","","post_reveal_questions","survey-likert","509","1808144","0.0-6.0-6.71","3167134","co38503","norming","","","{""aha"":4}","[0]","../img/tt/1012tt.jpg","",""
"null","<div style=""font-size:60px;""> </div>","null","fixation","html-keyboard-response","510","1808348","0.0-6.0-0.72","3167134","co38503","norming","","","","","","",""
"null","../img/tt/1236tt.jpg","null","mooney1","image-keyboard-response","511","1811356","0.0-6.0-1.72","3167134","co38503","norming","","","","","","",""
"10184.230000000913","","","post_mooney1_questions","survey-likert","512","1821544","0.0-6.0-2.72","3167134","co38503","norming","","","{""curiosity"":3,""confidence"":0}","[0,1]","../img/tt/1236tt.jpg","",""
"797.8249999997206","","","recognition","survey-text","513","1822344","0.0-6.0-3.72","3167134","co38503","norming","","","{""guess"":""""}","","../img/tt/1236tt.jpg","",""
"null","../img/gs/1236gs.jpg","null","reveal","image-keyboard-response","514","1824353","0.0-6.0-4.72","3167134","co38503","norming","","","","","","",""
"null","../img/tt/1236tt.jpg","null","mooney2","image-keyboard-response","515","1826354","0.0-6.0-5.72","3167134","co38503","norming","","","","","","",""
"1827.2049999996088","","","post_reveal_questions","survey-likert","516","1828184","0.0-6.0-6.72","3167134","co38503","norming","","","{""aha"":5}","[0]","../img/tt/1236tt.jpg","",""
"null","<div style=""font-size:60px;""> </div>","null","fixation","html-keyboard-response","517","1828395","0.0-6.0-0.73","3167134","co38503","norming","","","","","","",""
"null","../img/tt/1362tt.jpg","null","mooney1","image-keyboard-response","518","1831399","0.0-6.0-1.73","3167134","co38503","norming","","","","","","",""
"5141.4199999999255","","","post_mooney1_questions","survey-likert","519","1836544","0.0-6.0-2.73","3167134","co38503","norming","","","{""curiosity"":5,""confidence"":3}","[0,1]","../img/tt/1362tt.jpg","",""
"2782.165000000503","","","recognition","survey-text","520","1839328","0.0-6.0-3.73","3167134","co38503","norming","","","{""guess"":""Fornuis""}","","../img/tt/1362tt.jpg","",""
"null","../img/gs/1362gs.jpg","null","reveal","image-keyboard-response","521","1841330","0.0-6.0-4.73","3167134","co38503","norming","","","","","","",""
"null","../img/tt/1362tt.jpg","null","mooney2","image-keyboard-response","522","1843331","0.0-6.0-5.73","3167134","co38503","norming","","","","","","",""
"2490.155000001192","","","post_reveal_questions","survey-likert","523","1845824","0.0-6.0-6.73","3167134","co38503","norming","","","{""aha"":1}","[0]","../img/tt/1362tt.jpg","",""
"null","<div style=""font-size:60px;""> </div>","null","fixation","html-keyboard-response","524","1846028","0.0-6.0-0.74","3167134","co38503","norming","","","","","","",""
"null","../img/tt/1363tt.jpg","null","mooney1","image-keyboard-response","525","1849035","0.0-6.0-1.74","3167134","co38503","norming","","","","","","",""
"5162.084999999963","","","post_mooney1_questions","survey-likert","526","1854200","0.0-6.0-2.74","3167134","co38503","norming","","","{""curiosity"":5,""confidence"":1}","[0,1]","../img/tt/1363tt.jpg","",""
"2469.7300000009127","","","recognition","survey-text","527","1856672","0.0-6.0-3.74","3167134","co38503","norming","","","{""guess"":""Schaal""}","","../img/tt/1363tt.jpg","",""
"null","../img/gs/1363gs.jpg","null","reveal","image-keyboard-response","528","1858680","0.0-6.0-4.74","3167134","co38503","norming","","","","","","",""
"null","../img/tt/1363tt.jpg","null","mooney2","image-keyboard-response","529","1860691","0.0-6.0-5.74","3167134","co38503","norming","","","","","","",""
"6164.305000000168","","","post_reveal_questions","survey-likert","530","1866856","0.0-6.0-6.74","3167134","co38503","norming","","","{""aha"":4}","[0]","../img/tt/1363tt.jpg","",""
"null","<div style=""font-size:60px;""> </div>","null","fixation","html-keyboard-response","531","1867066","0.0-6.0-0.75","3167134","co38503","norming","","","","","","",""
"null","../img/tt/481tt.jpg","null","mooney1","image-keyboard-response","532","1870078","0.0-6.0-1.75","3167134","co38503","norming","","","","","","",""
"6311.370000001276","","","post_mooney1_questions","survey-likert","533","1876393","0.0-6.0-2.75","3167134","co38503","norming","","","{""curiosity"":5,""confidence"":2}","[0,1]","../img/tt/481tt.jpg","",""
"1885.8200000014622","","","recognition","survey-text","534","1878281","0.0-6.0-3.75","3167134","co38503","norming","","","{""guess"":""Hond""}","","../img/tt/481tt.jpg","",""
"null","../img/gs/481gs.jpg","null","reveal","image-keyboard-response","535","1880286","0.0-6.0-4.75","3167134","co38503","norming","","","","","","",""
"null","../img/tt/481tt.jpg","null","mooney2","image-keyboard-response","536","1882289","0.0-6.0-5.75","3167134","co38503","norming","","","","","","",""
"3317.385000000475","","","post_reveal_questions","survey-likert","537","1885609","0.0-6.0-6.75","3167134","co38503","norming","","","{""aha"":4}","[0]","../img/tt/481tt.jpg","",""
"null","<div style=""font-size:60px;""> </div>","null","fixation","html-keyboard-response","538","1885819","0.0-6.0-0.76","3167134","co38503","norming","","","","","","",""
"null","../img/tt/1200tt.jpg","null","mooney1","image-keyboard-response","539","1888822","0.0-6.0-1.76","3167134","co38503","norming","","","","","","",""
"5734.800000000279","","","post_mooney1_questions","survey-likert","540","1894561","0.0-6.0-2.76","3167134","co38503","norming","","","{""curiosity"":5,""confidence"":4}","[0,1]","../img/tt/1200tt.jpg","",""
"4357.9649999991525","","","recognition","survey-text","541","1898920","0.0-6.0-3.76","3167134","co38503","norming","","","{""guess"":""Kayakkers""}","","../img/tt/1200tt.jpg","",""
"null","../img/gs/1200gs.jpg","null","reveal","image-keyboard-response","542","1900930","0.0-6.0-4.76","3167134","co38503","norming","","","","","","",""
"null","../img/tt/1200tt.jpg","null","mooney2","image-keyboard-response","543","1902932","0.0-6.0-5.76","3167134","co38503","norming","","","","","","",""
"1634.1499999999069","","","post_reveal_questions","survey-likert","544","1904569","0.0-6.0-6.76","3167134","co38503","norming","","","{""aha"":1}","[0]","../img/tt/1200tt.jpg","",""
"null","<div style=""font-size:60px;""> </div>","null","fixation","html-keyboard-response","545","1904778","0.0-6.0-0.77","3167134","co38503","norming","","","","","","",""
"null","../img/tt/319tt.jpg","null","mooney1","image-keyboard-response","546","1907780","0.0-6.0-1.77","3167134","co38503","norming","","","","","","",""
"4355.7050000000745","","","post_mooney1_questions","survey-likert","547","1912137","0.0-6.0-2.77","3167134","co38503","norming","","","{""curiosity"":5,""confidence"":6}","[0,1]","../img/tt/319tt.jpg","",""
"2222.0699999998324","","","recognition","survey-text","548","1914361","0.0-6.0-3.77","3167134","co38503","norming","","","{""guess"":""Ezels""}","","../img/tt/319tt.jpg","",""
"null","../img/gs/319gs.jpg","null","reveal","image-keyboard-response","549","1916365","0.0-6.0-4.77","3167134","co38503","norming","","","","","","",""
"null","../img/tt/319tt.jpg","null","mooney2","image-keyboard-response","550","1918367","0.0-6.0-5.77","3167134","co38503","norming","","","","","","",""
"1118.5549999990035","","","post_reveal_questions","survey-likert","551","1919489","0.0-6.0-6.77","3167134","co38503","norming","","","{""aha"":0}","[0]","../img/tt/319tt.jpg","",""
"null","<div style=""font-size:60px;""> </div>","null","fixation","html-keyboard-response","552","1919694","0.0-6.0-0.78","3167134","co38503","norming","","","","","","",""
