"rt","stimulus","key_press","test_part","trial_type","trial_index","time_elapsed","internal_node_id","totalTime","subject","experiment_name","button_pressed","success","responses","question_order","currentStim","old","correct"
"7233.700000000681","Welcome to the experiment. This is an online experiment so please don't close the tab/window until we say goodbye.  Press any key to begin.","13","instructions","html-keyboard-response","0","7260","0.0-0.0","2851517","co38296","norming","","","","","","",""
"4158.250000000407","<div style='word-wrap: break-word; width: 900px'><h3>Please consider this information carefully before deciding whether to participate in this research</h3><ul style='text-align: left; font-size: .8em;'><li><b>Purpose of the research</b>: To examine how people process images.</li><li><b>What you will do in this research</b>:  Stimuli (images) will be presented on the computer and you will be asked different questions about them.</li><li><b>Time required</b>: Participation will take between 45 and 60 minutes to complete.</li><li><b>Risks</b>:  There are no anticipated risks associated with participating in this study. The effects of participating should be comparable to those you would experience from viewing a computer monitor for 30 minutes and using a mouse or keyboard.</li><li><b>Benefits</b>:  This study provides no benefits to you individually except for the credit. The study provides important information about the nature of perception and learning.</li><li><b>Confidentiality</b>:  Your participation in this study will remain confidential. No personally identifiable information will be associated with your data. Your de-identified data may be shared with other researchers and used in future projects.</li><li><b>Participation and withdrawal</b>:  Your participation in this study is completely voluntary and you may refuse to participate or you may choose to withdraw at any time without penalty.</li><li><b>How to contact the researchers</b>: If you have questions or concerns about your participation or payment, or want to request a summary of research findings, please contact Sander Van de Cruys (KU Leuven), at sander.vandecruys@kuleuven.be.</li></ul><p>The nature and purpose of this research have been sufficiently explained and I agree to participate in this study.  I understand that I am free to withdraw at any time without incurring any penalty.</p><p>Please consent by clicking the button below to continue. Otherwise, please exit the study at this time.</p></div>","","instructions","html-button-response","1","11420","0.0-1.0","2851517","co38296","norming","0","","","","","",""
"","","","instructions","fullscreen","2","16814","0.0-2.0","2851517","co38296","norming","","true","","","","",""
"68754.93500000084","","","sona","survey-html-form","3","85583","0.0-3.0","2851517","co38296","norming","","","[{""name"":""sonaid"",""value"":""38296""},{""name"":""debrief"",""value"":""yes""},{""name"":""datajoin"",""value"":""yes""}]","","","",""
"89234.80999999992","<div style='word-wrap: break-word; width: 900px'><h3>Instructions</h3><p>This experiment will have 3 parts. In the first part you will see a series of distorted images like the one below on the left. As you can see in the righthand image, the distorted images are derived from actual photographs. In what follows, you will <strong>briefly</strong> be presented with <strong>only</strong> the distorted image.</p> <div style='float: left; margin-right: 20px;'><img src='../img/018tt.jpg' height='250' width='250'></img></div><div style='float: right; margin-left: 20px;'><img src='../img/018gs.jpg' height='250' width='250'></img></div><p>Subsequently you will be asked a few questions about the image: One question on how <strong>curious</strong> you are about the solution and one on how <strong>confident</strong> you are that you know the solution.</p>Next, we ask you to make a guess on what is in the image. Note that it is OK to name just the <strong>basic level category</strong>. For example when you see a parrot in the image, 'parrot' will obviously be a correct answer but also correct is 'bird'. However, 'animal' will <strong>not</strong> be counted as a correct response. For the example above, 'rose' would be correct or 'flower', but not 'plant'. When soccer players are depicted, 'soccer', 'football', 'soccer players' will be correct, but not 'humans', 'outdoors', or 'sports'. You do not need to describe the image in full, just name the main object in it <strong>in one or two words</strong>. All images depict objects from one of the following broad level categories: animals, inanimate objects, plants, sports, vehicles, and food. Recognizing means knowing <strong>more</strong> than these broad labels for a given image. But we always encourage you to <strong>make a guess</strong> if you can. Note that you are allowed to use <strong>Dutch and English</strong> in your answers, whatever comes easiest for you.</p><p>Press any key to continue.</p></div>","13","instructions","html-keyboard-response","4","174819","0.0-4.0","2851517","co38296","norming","","","","","","",""
"24735.299999998446","<div style='word-wrap: break-word; width: 900px'><h3>Instructions</h3> <p>Next, the solution image will be revealed to you and you'll be asked to indicate how strong your <strong>aha-experience</strong> was after seeing the solution. This describes the positive feeling of the 'click' you sometimes experience, when the pieces of the 'puzzle' fall together and you suddenly have 'insight' in the image.</p><img src='aha.jpg' height='188' width='250'></img><p>Note that there are no right or wrong answers. We are interested in what <strong>you</strong> see in the image and how <strong>you</strong> feel about it.</p><p>Press any key to start the experiment.</p></div>","13","instructions","html-keyboard-response","5","199555","0.0-5.0","2851517","co38296","norming","","","","","","",""
"null","<div style=""font-size:60px;""> </div>","null","fixation","html-keyboard-response","6","199756","0.0-6.0-0.0","2851517","co38296","norming","","","","","","",""
"null","../img/tt/1261tt.jpg","null","mooney1","image-keyboard-response","7","202767","0.0-6.0-1.0","2851517","co38296","norming","","","","","","",""
"14466.259999999224","","","post_mooney1_questions","survey-likert","8","217236","0.0-6.0-2.0","2851517","co38296","norming","","","{""curiosity"":3,""confidence"":1}","[0,1]","../img/tt/1261tt.jpg","",""
"5149.475000000151","","","recognition","survey-text","9","222387","0.0-6.0-3.0","2851517","co38296","norming","","","{""guess"":""rose""}","","../img/tt/1261tt.jpg","",""
"null","../img/gs/1261gs.jpg","null","reveal","image-keyboard-response","10","224395","0.0-6.0-4.0","2851517","co38296","norming","","","","","","",""
"null","../img/tt/1261tt.jpg","null","mooney2","image-keyboard-response","11","226405","0.0-6.0-5.0","2851517","co38296","norming","","","","","","",""
"3275.990000000107","","","post_reveal_questions","survey-likert","12","229683","0.0-6.0-6.0","2851517","co38296","norming","","","{""aha"":4}","[0]","../img/tt/1261tt.jpg","",""
"null","<div style=""font-size:60px;""> </div>","null","fixation","html-keyboard-response","13","229885","0.0-6.0-0.1","2851517","co38296","norming","","","","","","",""
"null","../img/tt/085tt.jpg","null","mooney1","image-keyboard-response","14","232893","0.0-6.0-1.1","2851517","co38296","norming","","","","","","",""
"14971.830000000424","","","post_mooney1_questions","survey-likert","15","247870","0.0-6.0-2.1","2851517","co38296","norming","","","{""curiosity"":4,""confidence"":0}","[0,1]","../img/tt/085tt.jpg","",""
"11541.924999999523","","","recognition","survey-text","16","259414","0.0-6.0-3.1","2851517","co38296","norming","","","{""guess"":""hamster""}","","../img/tt/085tt.jpg","",""
"null","../img/gs/085gs.jpg","null","reveal","image-keyboard-response","17","261424","0.0-6.0-4.1","2851517","co38296","norming","","","","","","",""
"null","../img/tt/085tt.jpg","null","mooney2","image-keyboard-response","18","263434","0.0-6.0-5.1","2851517","co38296","norming","","","","","","",""
"9818.250000000233","","","post_reveal_questions","survey-likert","19","273254","0.0-6.0-6.1","2851517","co38296","norming","","","{""aha"":2}","[0]","../img/tt/085tt.jpg","",""
"null","<div style=""font-size:60px;""> </div>","null","fixation","html-keyboard-response","20","273462","0.0-6.0-0.2","2851517","co38296","norming","","","","","","",""
"null","../img/tt/1243tt.jpg","null","mooney1","image-keyboard-response","21","276466","0.0-6.0-1.2","2851517","co38296","norming","","","","","","",""
"9321.29999999958","","","post_mooney1_questions","survey-likert","22","285790","0.0-6.0-2.2","2851517","co38296","norming","","","{""curiosity"":4,""confidence"":2}","[0,1]","../img/tt/1243tt.jpg","",""
"1846.0699999995995","","","recognition","survey-text","23","287638","0.0-6.0-3.2","2851517","co38296","norming","","","{""guess"":""aap""}","","../img/tt/1243tt.jpg","",""
"null","../img/gs/1243gs.jpg","null","reveal","image-keyboard-response","24","289641","0.0-6.0-4.2","2851517","co38296","norming","","","","","","",""
"null","../img/tt/1243tt.jpg","null","mooney2","image-keyboard-response","25","291643","0.0-6.0-5.2","2851517","co38296","norming","","","","","","",""
"4616.309999999474","","","post_reveal_questions","survey-likert","26","296262","0.0-6.0-6.2","2851517","co38296","norming","","","{""aha"":5}","[0]","../img/tt/1243tt.jpg","",""
"null","<div style=""font-size:60px;""> </div>","null","fixation","html-keyboard-response","27","296470","0.0-6.0-0.3","2851517","co38296","norming","","","","","","",""
"null","../img/tt/124tt.jpg","null","mooney1","image-keyboard-response","28","299475","0.0-6.0-1.3","2851517","co38296","norming","","","","","","",""
"5265.155000000959","","","post_mooney1_questions","survey-likert","29","304742","0.0-6.0-2.3","2851517","co38296","norming","","","{""curiosity"":4,""confidence"":1}","[0,1]","../img/tt/124tt.jpg","",""
"5646.369999998598","","","recognition","survey-text","30","310390","0.0-6.0-3.3","2851517","co38296","norming","","","{""guess"":""hond""}","","../img/tt/124tt.jpg","",""
"null","../img/gs/124gs.jpg","null","reveal","image-keyboard-response","31","312398","0.0-6.0-4.3","2851517","co38296","norming","","","","","","",""
"null","../img/tt/124tt.jpg","null","mooney2","image-keyboard-response","32","314400","0.0-6.0-5.3","2851517","co38296","norming","","","","","","",""
"2740.2199999997392","","","post_reveal_questions","survey-likert","33","317142","0.0-6.0-6.3","2851517","co38296","norming","","","{""aha"":1}","[0]","../img/tt/124tt.jpg","",""
"null","<div style=""font-size:60px;""> </div>","null","fixation","html-keyboard-response","34","317343","0.0-6.0-0.4","2851517","co38296","norming","","","","","","",""
"null","../img/tt/111tt.jpg","null","mooney1","image-keyboard-response","35","320352","0.0-6.0-1.4","2851517","co38296","norming","","","","","","",""
"3996.345000001369","","","post_mooney1_questions","survey-likert","36","324350","0.0-6.0-2.4","2851517","co38296","norming","","","{""curiosity"":4,""confidence"":1}","[0,1]","../img/tt/111tt.jpg","",""
"5126.404999999038","","","recognition","survey-text","37","329478","0.0-6.0-3.4","2851517","co38296","norming","","","{""guess"":""Vlinder""}","","../img/tt/111tt.jpg","",""
"null","../img/gs/111gs.jpg","null","reveal","image-keyboard-response","38","331487","0.0-6.0-4.4","2851517","co38296","norming","","","","","","",""
"null","../img/tt/111tt.jpg","null","mooney2","image-keyboard-response","39","333495","0.0-6.0-5.4","2851517","co38296","norming","","","","","","",""
"1677.7750000001397","","","post_reveal_questions","survey-likert","40","335174","0.0-6.0-6.4","2851517","co38296","norming","","","{""aha"":5}","[0]","../img/tt/111tt.jpg","",""
"null","<div style=""font-size:60px;""> </div>","null","fixation","html-keyboard-response","41","335378","0.0-6.0-0.5","2851517","co38296","norming","","","","","","",""
"null","../img/tt/496tt.jpg","null","mooney1","image-keyboard-response","42","338382","0.0-6.0-1.5","2851517","co38296","norming","","","","","","",""
"4501.440000000002","","","post_mooney1_questions","survey-likert","43","342886","0.0-6.0-2.5","2851517","co38296","norming","","","{""curiosity"":3,""confidence"":1}","[0,1]","../img/tt/496tt.jpg","",""
"2222.33500000037","","","recognition","survey-text","44","345110","0.0-6.0-3.5","2851517","co38296","norming","","","{""guess"":""Kat""}","","../img/tt/496tt.jpg","",""
"null","../img/gs/496gs.jpg","null","reveal","image-keyboard-response","45","347117","0.0-6.0-4.5","2851517","co38296","norming","","","","","","",""
"null","../img/tt/496tt.jpg","null","mooney2","image-keyboard-response","46","349118","0.0-6.0-5.5","2851517","co38296","norming","","","","","","",""
"1726.4649999997346","","","post_reveal_questions","survey-likert","47","350846","0.0-6.0-6.5","2851517","co38296","norming","","","{""aha"":2}","[0]","../img/tt/496tt.jpg","",""
"null","<div style=""font-size:60px;""> </div>","null","fixation","html-keyboard-response","48","351048","0.0-6.0-0.6","2851517","co38296","norming","","","","","","",""
"null","../img/tt/194tt.jpg","null","mooney1","image-keyboard-response","49","354052","0.0-6.0-1.6","2851517","co38296","norming","","","","","","",""
"5512.645000000717","","","post_mooney1_questions","survey-likert","50","359564","0.0-6.0-2.6","2851517","co38296","norming","","","{""curiosity"":3,""confidence"":1}","[0,1]","../img/tt/194tt.jpg","",""
"2070.19500000024","","","recognition","survey-text","51","361636","0.0-6.0-3.6","2851517","co38296","norming","","","{""guess"":""Meisje""}","","../img/tt/194tt.jpg","",""
"null","../img/gs/194gs.jpg","null","reveal","image-keyboard-response","52","363641","0.0-6.0-4.6","2851517","co38296","norming","","","","","","",""
"null","../img/tt/194tt.jpg","null","mooney2","image-keyboard-response","53","365650","0.0-6.0-5.6","2851517","co38296","norming","","","","","","",""
"3696.58999999956","","","post_reveal_questions","survey-likert","54","369348","0.0-6.0-6.6","2851517","co38296","norming","","","{""aha"":4}","[0]","../img/tt/194tt.jpg","",""
"null","<div style=""font-size:60px;""> </div>","null","fixation","html-keyboard-response","55","369552","0.0-6.0-0.7","2851517","co38296","norming","","","","","","",""
"null","../img/tt/1366tt.jpg","null","mooney1","image-keyboard-response","56","372555","0.0-6.0-1.7","2851517","co38296","norming","","","","","","",""
"3952.115000000049","","","post_mooney1_questions","survey-likert","57","376508","0.0-6.0-2.7","2851517","co38296","norming","","","{""curiosity"":5,""confidence"":0}","[0,1]","../img/tt/1366tt.jpg","",""
"10022.194999999541","","","recognition","survey-text","58","386532","0.0-6.0-3.7","2851517","co38296","norming","","","{""guess"":""""}","","../img/tt/1366tt.jpg","",""
"null","../img/gs/1366gs.jpg","null","reveal","image-keyboard-response","59","388535","0.0-6.0-4.7","2851517","co38296","norming","","","","","","",""
"null","../img/tt/1366tt.jpg","null","mooney2","image-keyboard-response","60","390545","0.0-6.0-5.7","2851517","co38296","norming","","","","","","",""
"7490.639999999956","","","post_reveal_questions","survey-likert","61","398036","0.0-6.0-6.7","2851517","co38296","norming","","","{""aha"":0}","[0]","../img/tt/1366tt.jpg","",""
"null","<div style=""font-size:60px;""> </div>","null","fixation","html-keyboard-response","62","398239","0.0-6.0-0.8","2851517","co38296","norming","","","","","","",""
"null","../img/tt/049tt.jpg","null","mooney1","image-keyboard-response","63","401245","0.0-6.0-1.8","2851517","co38296","norming","","","","","","",""
"7149.540000000328","","","post_mooney1_questions","survey-likert","64","408397","0.0-6.0-2.8","2851517","co38296","norming","","","{""curiosity"":4,""confidence"":0}","[0,1]","../img/tt/049tt.jpg","",""
"5693.920000001497","","","recognition","survey-text","65","414092","0.0-6.0-3.8","2851517","co38296","norming","","","{""guess"":""""}","","../img/tt/049tt.jpg","",""
"null","../img/gs/049gs.jpg","null","reveal","image-keyboard-response","66","416102","0.0-6.0-4.8","2851517","co38296","norming","","","","","","",""
"null","../img/tt/049tt.jpg","null","mooney2","image-keyboard-response","67","418116","0.0-6.0-5.8","2851517","co38296","norming","","","","","","",""
"2331.4799999989336","","","post_reveal_questions","survey-likert","68","420449","0.0-6.0-6.8","2851517","co38296","norming","","","{""aha"":0}","[0]","../img/tt/049tt.jpg","",""
"null","<div style=""font-size:60px;""> </div>","null","fixation","html-keyboard-response","69","420658","0.0-6.0-0.9","2851517","co38296","norming","","","","","","",""
"null","../img/tt/1156tt.jpg","null","mooney1","image-keyboard-response","70","423669","0.0-6.0-1.9","2851517","co38296","norming","","","","","","",""
"4586.559999999765","","","post_mooney1_questions","survey-likert","71","428257","0.0-6.0-2.9","2851517","co38296","norming","","","{""curiosity"":3,""confidence"":5}","[0,1]","../img/tt/1156tt.jpg","",""
"8926.204999999783","","","recognition","survey-text","72","437185","0.0-6.0-3.9","2851517","co38296","norming","","","{""guess"":""bikini""}","","../img/tt/1156tt.jpg","",""
"null","../img/gs/1156gs.jpg","null","reveal","image-keyboard-response","73","439191","0.0-6.0-4.9","2851517","co38296","norming","","","","","","",""
"null","../img/tt/1156tt.jpg","null","mooney2","image-keyboard-response","74","441201","0.0-6.0-5.9","2851517","co38296","norming","","","","","","",""
"1774.04000000027","","","post_reveal_questions","survey-likert","75","442977","0.0-6.0-6.9","2851517","co38296","norming","","","{""aha"":1}","[0]","../img/tt/1156tt.jpg","",""
"null","<div style=""font-size:60px;""> </div>","null","fixation","html-keyboard-response","76","443182","0.0-6.0-0.10","2851517","co38296","norming","","","","","","",""
"null","../img/tt/1363tt.jpg","null","mooney1","image-keyboard-response","77","446184","0.0-6.0-1.10","2851517","co38296","norming","","","","","","",""
"3967.5950000000885","","","post_mooney1_questions","survey-likert","78","450153","0.0-6.0-2.10","2851517","co38296","norming","","","{""curiosity"":4,""confidence"":1}","[0,1]","../img/tt/1363tt.jpg","",""
"1838.289999999688","","","recognition","survey-text","79","451993","0.0-6.0-3.10","2851517","co38296","norming","","","{""guess"":""bord""}","","../img/tt/1363tt.jpg","",""
"null","../img/gs/1363gs.jpg","null","reveal","image-keyboard-response","80","454004","0.0-6.0-4.10","2851517","co38296","norming","","","","","","",""
"null","../img/tt/1363tt.jpg","null","mooney2","image-keyboard-response","81","456013","0.0-6.0-5.10","2851517","co38296","norming","","","","","","",""
"7850.875000000058","","","post_reveal_questions","survey-likert","82","463865","0.0-6.0-6.10","2851517","co38296","norming","","","{""aha"":5}","[0]","../img/tt/1363tt.jpg","",""
"null","<div style=""font-size:60px;""> </div>","null","fixation","html-keyboard-response","83","464072","0.0-6.0-0.11","2851517","co38296","norming","","","","","","",""
"null","../img/tt/052tt.jpg","null","mooney1","image-keyboard-response","84","467074","0.0-6.0-1.11","2851517","co38296","norming","","","","","","",""
"4509.364999999874","","","post_mooney1_questions","survey-likert","85","471585","0.0-6.0-2.11","2851517","co38296","norming","","","{""curiosity"":5,""confidence"":1}","[0,1]","../img/tt/052tt.jpg","",""
"2870.0949999984005","","","recognition","survey-text","86","474457","0.0-6.0-3.11","2851517","co38296","norming","","","{""guess"":""zwembad""}","","../img/tt/052tt.jpg","",""
"null","../img/gs/052gs.jpg","null","reveal","image-keyboard-response","87","476465","0.0-6.0-4.11","2851517","co38296","norming","","","","","","",""
"null","../img/tt/052tt.jpg","null","mooney2","image-keyboard-response","88","478474","0.0-6.0-5.11","2851517","co38296","norming","","","","","","",""
"3134.2450000011013","","","post_reveal_questions","survey-likert","89","481610","0.0-6.0-6.11","2851517","co38296","norming","","","{""aha"":4}","[0]","../img/tt/052tt.jpg","",""
"null","<div style=""font-size:60px;""> </div>","null","fixation","html-keyboard-response","90","481817","0.0-6.0-0.12","2851517","co38296","norming","","","","","","",""
"null","../img/tt/1055tt.jpg","null","mooney1","image-keyboard-response","91","484824","0.0-6.0-1.12","2851517","co38296","norming","","","","","","",""
"3888.100000000093","","","post_mooney1_questions","survey-likert","92","488714","0.0-6.0-2.12","2851517","co38296","norming","","","{""curiosity"":4,""confidence"":0}","[0,1]","../img/tt/1055tt.jpg","",""
"2478.1899999998277","","","recognition","survey-text","93","491194","0.0-6.0-3.12","2851517","co38296","norming","","","{""guess"":""schoen""}","","../img/tt/1055tt.jpg","",""
"null","../img/gs/1055gs.jpg","null","reveal","image-keyboard-response","94","493199","0.0-6.0-4.12","2851517","co38296","norming","","","","","","",""
"null","../img/tt/1055tt.jpg","null","mooney2","image-keyboard-response","95","495208","0.0-6.0-5.12","2851517","co38296","norming","","","","","","",""
"3176.030000000552","","","post_reveal_questions","survey-likert","96","498386","0.0-6.0-6.12","2851517","co38296","norming","","","{""aha"":4}","[0]","../img/tt/1055tt.jpg","",""
"null","<div style=""font-size:60px;""> </div>","null","fixation","html-keyboard-response","97","498589","0.0-6.0-0.13","2851517","co38296","norming","","","","","","",""
"null","../img/tt/599tt.jpg","null","mooney1","image-keyboard-response","98","501600","0.0-6.0-1.13","2851517","co38296","norming","","","","","","",""
"4791.999999999476","","","post_mooney1_questions","survey-likert","99","506394","0.0-6.0-2.13","2851517","co38296","norming","","","{""curiosity"":4,""confidence"":1}","[0,1]","../img/tt/599tt.jpg","",""
"1950.4049999995623","","","recognition","survey-text","100","508346","0.0-6.0-3.13","2851517","co38296","norming","","","{""guess"":""vrouw""}","","../img/tt/599tt.jpg","",""
"null","../img/gs/599gs.jpg","null","reveal","image-keyboard-response","101","510348","0.0-6.0-4.13","2851517","co38296","norming","","","","","","",""
"null","../img/tt/599tt.jpg","null","mooney2","image-keyboard-response","102","512350","0.0-6.0-5.13","2851517","co38296","norming","","","","","","",""
"3778.6049999995157","","","post_reveal_questions","survey-likert","103","516130","0.0-6.0-6.13","2851517","co38296","norming","","","{""aha"":5}","[0]","../img/tt/599tt.jpg","",""
"null","<div style=""font-size:60px;""> </div>","null","fixation","html-keyboard-response","104","516333","0.0-6.0-0.14","2851517","co38296","norming","","","","","","",""
"null","../img/tt/108tt.jpg","null","mooney1","image-keyboard-response","105","519339","0.0-6.0-1.14","2851517","co38296","norming","","","","","","",""
"5996.914999999746","","","post_mooney1_questions","survey-likert","106","525338","0.0-6.0-2.14","2851517","co38296","norming","","","{""curiosity"":5,""confidence"":0}","[0,1]","../img/tt/108tt.jpg","",""
"814.1149999991758","","","recognition","survey-text","107","526154","0.0-6.0-3.14","2851517","co38296","norming","","","{""guess"":""""}","","../img/tt/108tt.jpg","",""
"null","../img/gs/108gs.jpg","null","reveal","image-keyboard-response","108","528163","0.0-6.0-4.14","2851517","co38296","norming","","","","","","",""
"null","../img/tt/108tt.jpg","null","mooney2","image-keyboard-response","109","530165","0.0-6.0-5.14","2851517","co38296","norming","","","","","","",""
"4602.965000000084","","","post_reveal_questions","survey-likert","110","534770","0.0-6.0-6.14","2851517","co38296","norming","","","{""aha"":4}","[0]","../img/tt/108tt.jpg","",""
"null","<div style=""font-size:60px;""> </div>","null","fixation","html-keyboard-response","111","534973","0.0-6.0-0.15","2851517","co38296","norming","","","","","","",""
"null","../img/tt/1232tt.jpg","null","mooney1","image-keyboard-response","112","537981","0.0-6.0-1.15","2851517","co38296","norming","","","","","","",""
"6683.134999999311","","","post_mooney1_questions","survey-likert","113","544658","0.0-6.0-2.15","2851517","co38296","norming","","","{""curiosity"":4,""confidence"":0}","[0,1]","../img/tt/1232tt.jpg","",""
"1310.1150000002235","","","recognition","survey-text","114","545970","0.0-6.0-3.15","2851517","co38296","norming","","","{""guess"":""""}","","../img/tt/1232tt.jpg","",""
"null","../img/gs/1232gs.jpg","null","reveal","image-keyboard-response","115","547973","0.0-6.0-4.15","2851517","co38296","norming","","","","","","",""
"null","../img/tt/1232tt.jpg","null","mooney2","image-keyboard-response","116","549974","0.0-6.0-5.15","2851517","co38296","norming","","","","","","",""
"4057.015000000247","","","post_reveal_questions","survey-likert","117","554034","0.0-6.0-6.15","2851517","co38296","norming","","","{""aha"":2}","[0]","../img/tt/1232tt.jpg","",""
"null","<div style=""font-size:60px;""> </div>","null","fixation","html-keyboard-response","118","554241","0.0-6.0-0.16","2851517","co38296","norming","","","","","","",""
"null","../img/tt/1279tt.jpg","null","mooney1","image-keyboard-response","119","557249","0.0-6.0-1.16","2851517","co38296","norming","","","","","","",""
"8694.770000000135","","","post_mooney1_questions","survey-likert","120","565946","0.0-6.0-2.16","2851517","co38296","norming","","","{""curiosity"":5,""confidence"":1}","[0,1]","../img/tt/1279tt.jpg","",""
"1846.0500000000466","","","recognition","survey-text","121","567794","0.0-6.0-3.16","2851517","co38296","norming","","","{""guess"":""aap""}","","../img/tt/1279tt.jpg","",""
"null","../img/gs/1279gs.jpg","null","reveal","image-keyboard-response","122","569796","0.0-6.0-4.16","2851517","co38296","norming","","","","","","",""
"null","../img/tt/1279tt.jpg","null","mooney2","image-keyboard-response","123","571806","0.0-6.0-5.16","2851517","co38296","norming","","","","","","",""
"6114.455000000773","","","post_reveal_questions","survey-likert","124","577922","0.0-6.0-6.16","2851517","co38296","norming","","","{""aha"":4}","[0]","../img/tt/1279tt.jpg","",""
"null","<div style=""font-size:60px;""> </div>","null","fixation","html-keyboard-response","125","578133","0.0-6.0-0.17","2851517","co38296","norming","","","","","","",""
"null","../img/tt/020tt.jpg","null","mooney1","image-keyboard-response","126","581136","0.0-6.0-1.17","2851517","co38296","norming","","","","","","",""
"4888.8550000011455","","","post_mooney1_questions","survey-likert","127","586026","0.0-6.0-2.17","2851517","co38296","norming","","","{""curiosity"":4,""confidence"":1}","[0,1]","../img/tt/020tt.jpg","",""
"2134.3249999991385","","","recognition","survey-text","128","588162","0.0-6.0-3.17","2851517","co38296","norming","","","{""guess"":""hond""}","","../img/tt/020tt.jpg","",""
"null","../img/gs/020gs.jpg","null","reveal","image-keyboard-response","129","590164","0.0-6.0-4.17","2851517","co38296","norming","","","","","","",""
"null","../img/tt/020tt.jpg","null","mooney2","image-keyboard-response","130","592166","0.0-6.0-5.17","2851517","co38296","norming","","","","","","",""
"3906.5950000004377","","","post_reveal_questions","survey-likert","131","596074","0.0-6.0-6.17","2851517","co38296","norming","","","{""aha"":1}","[0]","../img/tt/020tt.jpg","",""
"null","<div style=""font-size:60px;""> </div>","null","fixation","html-keyboard-response","132","596276","0.0-6.0-0.18","2851517","co38296","norming","","","","","","",""
"null","../img/tt/1116tt.jpg","null","mooney1","image-keyboard-response","133","599287","0.0-6.0-1.18","2851517","co38296","norming","","","","","","",""
"4009.265000000596","","","post_mooney1_questions","survey-likert","134","603308","0.0-6.0-2.18","2851517","co38296","norming","","","{""curiosity"":5,""confidence"":2}","[0,1]","../img/tt/1116tt.jpg","",""
"2286.2249999998603","","","recognition","survey-text","135","605596","0.0-6.0-3.18","2851517","co38296","norming","","","{""guess"":""auto""}","","../img/tt/1116tt.jpg","",""
"null","../img/gs/1116gs.jpg","null","reveal","image-keyboard-response","136","607597","0.0-6.0-4.18","2851517","co38296","norming","","","","","","",""
"null","../img/tt/1116tt.jpg","null","mooney2","image-keyboard-response","137","609598","0.0-6.0-5.18","2851517","co38296","norming","","","","","","",""
"3107.359999999986","","","post_reveal_questions","survey-likert","138","612707","0.0-6.0-6.18","2851517","co38296","norming","","","{""aha"":3}","[0]","../img/tt/1116tt.jpg","",""
"null","<div style=""font-size:60px;""> </div>","null","fixation","html-keyboard-response","139","612916","0.0-6.0-0.19","2851517","co38296","norming","","","","","","",""
"null","../img/tt/1096tt.jpg","null","mooney1","image-keyboard-response","140","615919","0.0-6.0-1.19","2851517","co38296","norming","","","","","","",""
"3532.005000000936","","","post_mooney1_questions","survey-likert","141","619452","0.0-6.0-2.19","2851517","co38296","norming","","","{""curiosity"":2,""confidence"":1}","[0,1]","../img/tt/1096tt.jpg","",""
"1886.3199999995995","","","recognition","survey-text","142","621340","0.0-6.0-3.19","2851517","co38296","norming","","","{""guess"":""vogel""}","","../img/tt/1096tt.jpg","",""
"null","../img/gs/1096gs.jpg","null","reveal","image-keyboard-response","143","623346","0.0-6.0-4.19","2851517","co38296","norming","","","","","","",""
"null","../img/tt/1096tt.jpg","null","mooney2","image-keyboard-response","144","625349","0.0-6.0-5.19","2851517","co38296","norming","","","","","","",""
"2188.784999998519","","","post_reveal_questions","survey-likert","145","627540","0.0-6.0-6.19","2851517","co38296","norming","","","{""aha"":1}","[0]","../img/tt/1096tt.jpg","",""
"null","<div style=""font-size:60px;""> </div>","null","fixation","html-keyboard-response","146","627747","0.0-6.0-0.20","2851517","co38296","norming","","","","","","",""
"null","../img/tt/1101tt.jpg","null","mooney1","image-keyboard-response","147","630750","0.0-6.0-1.20","2851517","co38296","norming","","","","","","",""
"3651.8949999990873","","","post_mooney1_questions","survey-likert","148","634404","0.0-6.0-2.20","2851517","co38296","norming","","","{""curiosity"":4,""confidence"":2}","[0,1]","../img/tt/1101tt.jpg","",""
"1462.3450000018347","","","recognition","survey-text","149","635868","0.0-6.0-3.20","2851517","co38296","norming","","","{""guess"":""man""}","","../img/tt/1101tt.jpg","",""
"null","../img/gs/1101gs.jpg","null","reveal","image-keyboard-response","150","637876","0.0-6.0-4.20","2851517","co38296","norming","","","","","","",""
"null","../img/tt/1101tt.jpg","null","mooney2","image-keyboard-response","151","639886","0.0-6.0-5.20","2851517","co38296","norming","","","","","","",""
"2763.629999999539","","","post_reveal_questions","survey-likert","152","642651","0.0-6.0-6.20","2851517","co38296","norming","","","{""aha"":5}","[0]","../img/tt/1101tt.jpg","",""
"null","<div style=""font-size:60px;""> </div>","null","fixation","html-keyboard-response","153","642861","0.0-6.0-0.21","2851517","co38296","norming","","","","","","",""
"null","../img/tt/013tt.jpg","null","mooney1","image-keyboard-response","154","645872","0.0-6.0-1.21","2851517","co38296","norming","","","","","","",""
"4905.269999999204","","","post_mooney1_questions","survey-likert","155","650780","0.0-6.0-2.21","2851517","co38296","norming","","","{""curiosity"":2,""confidence"":0}","[0,1]","../img/tt/013tt.jpg","",""
"1174.0300000001444","","","recognition","survey-text","156","651955","0.0-6.0-3.21","2851517","co38296","norming","","","{""guess"":""""}","","../img/tt/013tt.jpg","",""
"null","../img/gs/013gs.jpg","null","reveal","image-keyboard-response","157","653961","0.0-6.0-4.21","2851517","co38296","norming","","","","","","",""
"null","../img/tt/013tt.jpg","null","mooney2","image-keyboard-response","158","655972","0.0-6.0-5.21","2851517","co38296","norming","","","","","","",""
"5382.509999999544","","","post_reveal_questions","survey-likert","159","661356","0.0-6.0-6.21","2851517","co38296","norming","","","{""aha"":0}","[0]","../img/tt/013tt.jpg","",""
"null","<div style=""font-size:60px;""> </div>","null","fixation","html-keyboard-response","160","661559","0.0-6.0-0.22","2851517","co38296","norming","","","","","","",""
"null","../img/tt/1107tt.jpg","null","mooney1","image-keyboard-response","161","664564","0.0-6.0-1.22","2851517","co38296","norming","","","","","","",""
"8775.279999999795","","","post_mooney1_questions","survey-likert","162","673340","0.0-6.0-2.22","2851517","co38296","norming","","","{""curiosity"":4,""confidence"":0}","[0,1]","../img/tt/1107tt.jpg","",""
"6813.949999999721","","","recognition","survey-text","163","680156","0.0-6.0-3.22","2851517","co38296","norming","","","{""guess"":""""}","","../img/tt/1107tt.jpg","",""
"null","../img/gs/1107gs.jpg","null","reveal","image-keyboard-response","164","682164","0.0-6.0-4.22","2851517","co38296","norming","","","","","","",""
"null","../img/tt/1107tt.jpg","null","mooney2","image-keyboard-response","165","684166","0.0-6.0-5.22","2851517","co38296","norming","","","","","","",""
"3491.944999999716","","","post_reveal_questions","survey-likert","166","687660","0.0-6.0-6.22","2851517","co38296","norming","","","{""aha"":3}","[0]","../img/tt/1107tt.jpg","",""
"null","<div style=""font-size:60px;""> </div>","null","fixation","html-keyboard-response","167","687870","0.0-6.0-0.23","2851517","co38296","norming","","","","","","",""
"null","../img/tt/040tt.jpg","null","mooney1","image-keyboard-response","168","690877","0.0-6.0-1.23","2851517","co38296","norming","","","","","","",""
"4189.070000000298","","","post_mooney1_questions","survey-likert","169","695068","0.0-6.0-2.23","2851517","co38296","norming","","","{""curiosity"":5,""confidence"":1}","[0,1]","../img/tt/040tt.jpg","",""
"3486.025000000256","","","recognition","survey-text","170","698556","0.0-6.0-3.23","2851517","co38296","norming","","","{""guess"":""hon""}","","../img/tt/040tt.jpg","",""
"null","../img/gs/040gs.jpg","null","reveal","image-keyboard-response","171","700564","0.0-6.0-4.23","2851517","co38296","norming","","","","","","",""
"null","../img/tt/040tt.jpg","null","mooney2","image-keyboard-response","172","702568","0.0-6.0-5.23","2851517","co38296","norming","","","","","","",""
"3651.0100000014063","","","post_reveal_questions","survey-likert","173","706220","0.0-6.0-6.23","2851517","co38296","norming","","","{""aha"":6}","[0]","../img/tt/040tt.jpg","",""
"null","<div style=""font-size:60px;""> </div>","null","fixation","html-keyboard-response","174","706423","0.0-6.0-0.24","2851517","co38296","norming","","","","","","",""
"null","../img/tt/1309tt.jpg","null","mooney1","image-keyboard-response","175","709432","0.0-6.0-1.24","2851517","co38296","norming","","","","","","",""
"4129.7100000010105","","","post_mooney1_questions","survey-likert","176","713564","0.0-6.0-2.24","2851517","co38296","norming","","","{""curiosity"":4,""confidence"":2}","[0,1]","../img/tt/1309tt.jpg","",""
"1741.8649999999907","","","recognition","survey-text","177","715308","0.0-6.0-3.24","2851517","co38296","norming","","","{""guess"":""auto""}","","../img/tt/1309tt.jpg","",""
"null","../img/gs/1309gs.jpg","null","reveal","image-keyboard-response","178","717313","0.0-6.0-4.24","2851517","co38296","norming","","","","","","",""
"null","../img/tt/1309tt.jpg","null","mooney2","image-keyboard-response","179","719314","0.0-6.0-5.24","2851517","co38296","norming","","","","","","",""
"2391.8200000007637","","","post_reveal_questions","survey-likert","180","721702","0.0-6.0-6.24","2851517","co38296","norming","","","{""aha"":4}","[0]","../img/tt/1309tt.jpg","",""
"null","<div style=""font-size:60px;""> </div>","null","fixation","html-keyboard-response","181","721906","0.0-6.0-0.25","2851517","co38296","norming","","","","","","",""
"null","../img/tt/1247tt.jpg","null","mooney1","image-keyboard-response","182","724911","0.0-6.0-1.25","2851517","co38296","norming","","","","","","",""
"7644.915000000736","","","post_mooney1_questions","survey-likert","183","732557","0.0-6.0-2.25","2851517","co38296","norming","","","{""curiosity"":3,""confidence"":1}","[0,1]","../img/tt/1247tt.jpg","",""
"2198.404999999213","","","recognition","survey-text","184","734758","0.0-6.0-3.25","2851517","co38296","norming","","","{""guess"":""zetel""}","","../img/tt/1247tt.jpg","",""
"null","../img/gs/1247gs.jpg","null","reveal","image-keyboard-response","185","736766","0.0-6.0-4.25","2851517","co38296","norming","","","","","","",""
"null","../img/tt/1247tt.jpg","null","mooney2","image-keyboard-response","186","738768","0.0-6.0-5.25","2851517","co38296","norming","","","","","","",""
"3611.460000000079","","","post_reveal_questions","survey-likert","187","742381","0.0-6.0-6.25","2851517","co38296","norming","","","{""aha"":3}","[0]","../img/tt/1247tt.jpg","",""
"null","<div style=""font-size:60px;""> </div>","null","fixation","html-keyboard-response","188","742592","0.0-6.0-0.26","2851517","co38296","norming","","","","","","",""
"null","../img/tt/559tt.jpg","null","mooney1","image-keyboard-response","189","745599","0.0-6.0-1.26","2851517","co38296","norming","","","","","","",""
"7868.765000001178","","","post_mooney1_questions","survey-likert","190","753470","0.0-6.0-2.26","2851517","co38296","norming","","","{""curiosity"":5,""confidence"":0}","[0,1]","../img/tt/559tt.jpg","",""
"934.0100000008242","","","recognition","survey-text","191","754405","0.0-6.0-3.26","2851517","co38296","norming","","","{""guess"":""""}","","../img/tt/559tt.jpg","",""
"null","../img/gs/559gs.jpg","null","reveal","image-keyboard-response","192","756411","0.0-6.0-4.26","2851517","co38296","norming","","","","","","",""
"null","../img/tt/559tt.jpg","null","mooney2","image-keyboard-response","193","758421","0.0-6.0-5.26","2851517","co38296","norming","","","","","","",""
"3094.705000001355","","","post_reveal_questions","survey-likert","194","761517","0.0-6.0-6.26","2851517","co38296","norming","","","{""aha"":6}","[0]","../img/tt/559tt.jpg","",""
"null","<div style=""font-size:60px;""> </div>","null","fixation","html-keyboard-response","195","761724","0.0-6.0-0.27","2851517","co38296","norming","","","","","","",""
"null","../img/tt/135tt.jpg","null","mooney1","image-keyboard-response","196","764734","0.0-6.0-1.27","2851517","co38296","norming","","","","","","",""
"6956.984999998938","","","post_mooney1_questions","survey-likert","197","771694","0.0-6.0-2.27","2851517","co38296","norming","","","{""curiosity"":1,""confidence"":5}","[0,1]","../img/tt/135tt.jpg","",""
"3622.1700000005076","","","recognition","survey-text","198","775317","0.0-6.0-3.27","2851517","co38296","norming","","","{""guess"":""toilet""}","","../img/tt/135tt.jpg","",""
"null","../img/gs/135gs.jpg","null","reveal","image-keyboard-response","199","777323","0.0-6.0-4.27","2851517","co38296","norming","","","","","","",""
"null","../img/tt/135tt.jpg","null","mooney2","image-keyboard-response","200","779333","0.0-6.0-5.27","2851517","co38296","norming","","","","","","",""
"3790.490000001155","","","post_reveal_questions","survey-likert","201","783126","0.0-6.0-6.27","2851517","co38296","norming","","","{""aha"":0}","[0]","../img/tt/135tt.jpg","",""
"null","<div style=""font-size:60px;""> </div>","null","fixation","html-keyboard-response","202","783336","0.0-6.0-0.28","2851517","co38296","norming","","","","","","",""
"null","../img/tt/1102tt.jpg","null","mooney1","image-keyboard-response","203","786342","0.0-6.0-1.28","2851517","co38296","norming","","","","","","",""
"7726.050000001211","","","post_mooney1_questions","survey-likert","204","794070","0.0-6.0-2.28","2851517","co38296","norming","","","{""curiosity"":6,""confidence"":0}","[0,1]","../img/tt/1102tt.jpg","",""
"605.8150000008754","","","recognition","survey-text","205","794678","0.0-6.0-3.28","2851517","co38296","norming","","","{""guess"":""""}","","../img/tt/1102tt.jpg","",""
"null","../img/gs/1102gs.jpg","null","reveal","image-keyboard-response","206","796686","0.0-6.0-4.28","2851517","co38296","norming","","","","","","",""
"null","../img/tt/1102tt.jpg","null","mooney2","image-keyboard-response","207","798697","0.0-6.0-5.28","2851517","co38296","norming","","","","","","",""
"4451.95500000054","","","post_reveal_questions","survey-likert","208","803150","0.0-6.0-6.28","2851517","co38296","norming","","","{""aha"":5}","[0]","../img/tt/1102tt.jpg","",""
"null","<div style=""font-size:60px;""> </div>","null","fixation","html-keyboard-response","209","803358","0.0-6.0-0.29","2851517","co38296","norming","","","","","","",""
"null","../img/tt/1186tt.jpg","null","mooney1","image-keyboard-response","210","806365","0.0-6.0-1.29","2851517","co38296","norming","","","","","","",""
"4422.475000001257","","","post_mooney1_questions","survey-likert","211","810790","0.0-6.0-2.29","2851517","co38296","norming","","","{""curiosity"":4,""confidence"":2}","[0,1]","../img/tt/1186tt.jpg","",""
"3214.1749999992317","","","recognition","survey-text","212","814006","0.0-6.0-3.29","2851517","co38296","norming","","","{""guess"":""basketter""}","","../img/tt/1186tt.jpg","",""
"null","../img/gs/1186gs.jpg","null","reveal","image-keyboard-response","213","816008","0.0-6.0-4.29","2851517","co38296","norming","","","","","","",""
"null","../img/tt/1186tt.jpg","null","mooney2","image-keyboard-response","214","818019","0.0-6.0-5.29","2851517","co38296","norming","","","","","","",""
"3249.60499999905","","","post_reveal_questions","survey-likert","215","821270","0.0-6.0-6.29","2851517","co38296","norming","","","{""aha"":3}","[0]","../img/tt/1186tt.jpg","",""
"null","<div style=""font-size:60px;""> </div>","null","fixation","html-keyboard-response","216","821477","0.0-6.0-0.30","2851517","co38296","norming","","","","","","",""
"null","../img/tt/1122tt.jpg","null","mooney1","image-keyboard-response","217","824482","0.0-6.0-1.30","2851517","co38296","norming","","","","","","",""
"3801.8900000007125","","","post_mooney1_questions","survey-likert","218","828286","0.0-6.0-2.30","2851517","co38296","norming","","","{""curiosity"":5,""confidence"":2}","[0,1]","../img/tt/1122tt.jpg","",""
"2357.8849999994272","","","recognition","survey-text","219","830646","0.0-6.0-3.30","2851517","co38296","norming","","","{""guess"":""boten""}","","../img/tt/1122tt.jpg","",""
"null","../img/gs/1122gs.jpg","null","reveal","image-keyboard-response","220","832656","0.0-6.0-4.30","2851517","co38296","norming","","","","","","",""
"null","../img/tt/1122tt.jpg","null","mooney2","image-keyboard-response","221","834659","0.0-6.0-5.30","2851517","co38296","norming","","","","","","",""
"2458.1749999996973","","","post_reveal_questions","survey-likert","222","837118","0.0-6.0-6.30","2851517","co38296","norming","","","{""aha"":4}","[0]","../img/tt/1122tt.jpg","",""
"null","<div style=""font-size:60px;""> </div>","null","fixation","html-keyboard-response","223","837324","0.0-6.0-0.31","2851517","co38296","norming","","","","","","",""
"null","../img/tt/055tt.jpg","null","mooney1","image-keyboard-response","224","840333","0.0-6.0-1.31","2851517","co38296","norming","","","","","","",""
"4327.465000000317","","","post_mooney1_questions","survey-likert","225","844670","0.0-6.0-2.31","2851517","co38296","norming","","","{""curiosity"":3,""confidence"":0}","[0,1]","../img/tt/055tt.jpg","",""
"741.9900000004563","","","recognition","survey-text","226","845414","0.0-6.0-3.31","2851517","co38296","norming","","","{""guess"":""""}","","../img/tt/055tt.jpg","",""
"null","../img/gs/055gs.jpg","null","reveal","image-keyboard-response","227","847423","0.0-6.0-4.31","2851517","co38296","norming","","","","","","",""
"null","../img/tt/055tt.jpg","null","mooney2","image-keyboard-response","228","849431","0.0-6.0-5.31","2851517","co38296","norming","","","","","","",""
"3229.4349999993574","","","post_reveal_questions","survey-likert","229","852662","0.0-6.0-6.31","2851517","co38296","norming","","","{""aha"":2}","[0]","../img/tt/055tt.jpg","",""
"null","<div style=""font-size:60px;""> </div>","null","fixation","html-keyboard-response","230","852869","0.0-6.0-0.32","2851517","co38296","norming","","","","","","",""
"null","../img/tt/1202tt.jpg","null","mooney1","image-keyboard-response","231","855879","0.0-6.0-1.32","2851517","co38296","norming","","","","","","",""
"4700.590000000433","","","post_mooney1_questions","survey-likert","232","860582","0.0-6.0-2.32","2851517","co38296","norming","","","{""curiosity"":2,""confidence"":1}","[0,1]","../img/tt/1202tt.jpg","",""
"2246.4900000013877","","","recognition","survey-text","233","862830","0.0-6.0-3.32","2851517","co38296","norming","","","{""guess"":""paard""}","","../img/tt/1202tt.jpg","",""
"null","../img/gs/1202gs.jpg","null","reveal","image-keyboard-response","234","864838","0.0-6.0-4.32","2851517","co38296","norming","","","","","","",""
"null","../img/tt/1202tt.jpg","null","mooney2","image-keyboard-response","235","866843","0.0-6.0-5.32","2851517","co38296","norming","","","","","","",""
"3168.9299999998184","","","post_reveal_questions","survey-likert","236","870014","0.0-6.0-6.32","2851517","co38296","norming","","","{""aha"":4}","[0]","../img/tt/1202tt.jpg","",""
"null","<div style=""font-size:60px;""> </div>","null","fixation","html-keyboard-response","237","870218","0.0-6.0-0.33","2851517","co38296","norming","","","","","","",""
"null","../img/tt/084tt.jpg","null","mooney1","image-keyboard-response","238","873220","0.0-6.0-1.33","2851517","co38296","norming","","","","","","",""
"5231.354999999865","","","post_mooney1_questions","survey-likert","239","878454","0.0-6.0-2.33","2851517","co38296","norming","","","{""curiosity"":4,""confidence"":1}","[0,1]","../img/tt/084tt.jpg","",""
"2726.389999999781","","","recognition","survey-text","240","881182","0.0-6.0-3.33","2851517","co38296","norming","","","{""guess"":""tijger""}","","../img/tt/084tt.jpg","",""
"null","../img/gs/084gs.jpg","null","reveal","image-keyboard-response","241","883189","0.0-6.0-4.33","2851517","co38296","norming","","","","","","",""
"null","../img/tt/084tt.jpg","null","mooney2","image-keyboard-response","242","885190","0.0-6.0-5.33","2851517","co38296","norming","","","","","","",""
"3710.2649999996647","","","post_reveal_questions","survey-likert","243","888902","0.0-6.0-6.33","2851517","co38296","norming","","","{""aha"":6}","[0]","../img/tt/084tt.jpg","",""
"null","<div style=""font-size:60px;""> </div>","null","fixation","html-keyboard-response","244","889104","0.0-6.0-0.34","2851517","co38296","norming","","","","","","",""
"null","../img/tt/091tt.jpg","null","mooney1","image-keyboard-response","245","892115","0.0-6.0-1.34","2851517","co38296","norming","","","","","","",""
"3209.1149999996414","","","post_mooney1_questions","survey-likert","246","895326","0.0-6.0-2.34","2851517","co38296","norming","","","{""curiosity"":4,""confidence"":1}","[0,1]","../img/tt/091tt.jpg","",""
"4717.855000000796","","","recognition","survey-text","247","900046","0.0-6.0-3.34","2851517","co38296","norming","","","{""guess"":""dolfijn""}","","../img/tt/091tt.jpg","",""
"null","../img/gs/091gs.jpg","null","reveal","image-keyboard-response","248","902056","0.0-6.0-4.34","2851517","co38296","norming","","","","","","",""
"null","../img/tt/091tt.jpg","null","mooney2","image-keyboard-response","249","904061","0.0-6.0-5.34","2851517","co38296","norming","","","","","","",""
"2064.270000000717","","","post_reveal_questions","survey-likert","250","906126","0.0-6.0-6.34","2851517","co38296","norming","","","{""aha"":4}","[0]","../img/tt/091tt.jpg","",""
"null","<div style=""font-size:60px;""> </div>","null","fixation","html-keyboard-response","251","906329","0.0-6.0-0.35","2851517","co38296","norming","","","","","","",""
"null","../img/tt/1159tt.jpg","null","mooney1","image-keyboard-response","252","909334","0.0-6.0-1.35","2851517","co38296","norming","","","","","","",""
"4143.8400000005495","","","post_mooney1_questions","survey-likert","253","913479","0.0-6.0-2.35","2851517","co38296","norming","","","{""curiosity"":4,""confidence"":3}","[0,1]","../img/tt/1159tt.jpg","",""
"2533.6550000010757","","","recognition","survey-text","254","916015","0.0-6.0-3.35","2851517","co38296","norming","","","{""guess"":""skater""}","","../img/tt/1159tt.jpg","",""
"null","../img/gs/1159gs.jpg","null","reveal","image-keyboard-response","255","918017","0.0-6.0-4.35","2851517","co38296","norming","","","","","","",""
"null","../img/tt/1159tt.jpg","null","mooney2","image-keyboard-response","256","920023","0.0-6.0-5.35","2851517","co38296","norming","","","","","","",""
"3365.339999998454","","","post_reveal_questions","survey-likert","257","923391","0.0-6.0-6.35","2851517","co38296","norming","","","{""aha"":5}","[0]","../img/tt/1159tt.jpg","",""
"null","<div style=""font-size:60px;""> </div>","null","fixation","html-keyboard-response","258","923595","0.0-6.0-0.36","2851517","co38296","norming","","","","","","",""
"null","../img/tt/307tt.jpg","null","mooney1","image-keyboard-response","259","926603","0.0-6.0-1.36","2851517","co38296","norming","","","","","","",""
"6923.080000000424","","","post_mooney1_questions","survey-likert","260","933527","0.0-6.0-2.36","2851517","co38296","norming","","","{""curiosity"":4,""confidence"":1}","[0,1]","../img/tt/307tt.jpg","",""
"1766.0449999985285","","","recognition","survey-text","261","935295","0.0-6.0-3.36","2851517","co38296","norming","","","{""guess"":""kat""}","","../img/tt/307tt.jpg","",""
"null","../img/gs/307gs.jpg","null","reveal","image-keyboard-response","262","937300","0.0-6.0-4.36","2851517","co38296","norming","","","","","","",""
"null","../img/tt/307tt.jpg","null","mooney2","image-keyboard-response","263","939303","0.0-6.0-5.36","2851517","co38296","norming","","","","","","",""
"1606.2000000001863","","","post_reveal_questions","survey-likert","264","940911","0.0-6.0-6.36","2851517","co38296","norming","","","{""aha"":1}","[0]","../img/tt/307tt.jpg","",""
"null","<div style=""font-size:60px;""> </div>","null","fixation","html-keyboard-response","265","941113","0.0-6.0-0.37","2851517","co38296","norming","","","","","","",""
"null","../img/tt/094tt.jpg","null","mooney1","image-keyboard-response","266","944120","0.0-6.0-1.37","2851517","co38296","norming","","","","","","",""
"4076.1449999990873","","","post_mooney1_questions","survey-likert","267","948199","0.0-6.0-2.37","2851517","co38296","norming","","","{""curiosity"":5,""confidence"":0}","[0,1]","../img/tt/094tt.jpg","",""
"918.2600000003586","","","recognition","survey-text","268","949119","0.0-6.0-3.37","2851517","co38296","norming","","","{""guess"":""""}","","../img/tt/094tt.jpg","",""
"null","../img/gs/094gs.jpg","null","reveal","image-keyboard-response","269","951127","0.0-6.0-4.37","2851517","co38296","norming","","","","","","",""
"null","../img/tt/094tt.jpg","null","mooney2","image-keyboard-response","270","953137","0.0-6.0-5.37","2851517","co38296","norming","","","","","","",""
"3436.0799999994924","","","post_reveal_questions","survey-likert","271","956574","0.0-6.0-6.37","2851517","co38296","norming","","","{""aha"":5}","[0]","../img/tt/094tt.jpg","",""
"null","<div style=""font-size:60px;""> </div>","null","fixation","html-keyboard-response","272","956777","0.0-6.0-0.38","2851517","co38296","norming","","","","","","",""
"null","../img/tt/590tt.jpg","null","mooney1","image-keyboard-response","273","959784","0.0-6.0-1.38","2851517","co38296","norming","","","","","","",""
"4003.7549999996554","","","post_mooney1_questions","survey-likert","274","963791","0.0-6.0-2.38","2851517","co38296","norming","","","{""curiosity"":4,""confidence"":1}","[0,1]","../img/tt/590tt.jpg","",""
"2030.3149999999441","","","recognition","survey-text","275","965821","0.0-6.0-3.38","2851517","co38296","norming","","","{""guess"":""tafel""}","","../img/tt/590tt.jpg","",""
"null","../img/gs/590gs.jpg","null","reveal","image-keyboard-response","276","967825","0.0-6.0-4.38","2851517","co38296","norming","","","","","","",""
"null","../img/tt/590tt.jpg","null","mooney2","image-keyboard-response","277","969827","0.0-6.0-5.38","2851517","co38296","norming","","","","","","",""
"2232.355000000098","","","post_reveal_questions","survey-likert","278","972061","0.0-6.0-6.38","2851517","co38296","norming","","","{""aha"":6}","[0]","../img/tt/590tt.jpg","",""
"null","<div style=""font-size:60px;""> </div>","null","fixation","html-keyboard-response","279","972262","0.0-6.0-0.39","2851517","co38296","norming","","","","","","",""
"null","../img/tt/1205tt.jpg","null","mooney1","image-keyboard-response","280","975266","0.0-6.0-1.39","2851517","co38296","norming","","","","","","",""
"5521.010000000359","","","post_mooney1_questions","survey-likert","281","980789","0.0-6.0-2.39","2851517","co38296","norming","","","{""curiosity"":4,""confidence"":0}","[0,1]","../img/tt/1205tt.jpg","",""
"1070.0649999998277","","","recognition","survey-text","282","981860","0.0-6.0-3.39","2851517","co38296","norming","","","{""guess"":""""}","","../img/tt/1205tt.jpg","",""
"null","../img/gs/1205gs.jpg","null","reveal","image-keyboard-response","283","983867","0.0-6.0-4.39","2851517","co38296","norming","","","","","","",""
"null","../img/tt/1205tt.jpg","null","mooney2","image-keyboard-response","284","985875","0.0-6.0-5.39","2851517","co38296","norming","","","","","","",""
"1839.40500000061","","","post_reveal_questions","survey-likert","285","987717","0.0-6.0-6.39","2851517","co38296","norming","","","{""aha"":6}","[0]","../img/tt/1205tt.jpg","",""
"null","<div style=""font-size:60px;""> </div>","null","fixation","html-keyboard-response","286","987922","0.0-6.0-0.40","2851517","co38296","norming","","","","","","",""
"null","../img/tt/1024tt.jpg","null","mooney1","image-keyboard-response","287","990933","0.0-6.0-1.40","2851517","co38296","norming","","","","","","",""
"5684.970000000205","","","post_mooney1_questions","survey-likert","288","996621","0.0-6.0-2.40","2851517","co38296","norming","","","{""curiosity"":4,""confidence"":2}","[0,1]","../img/tt/1024tt.jpg","",""
"7054.495000000345","","","recognition","survey-text","289","1003677","0.0-6.0-3.40","2851517","co38296","norming","","","{""guess"":""prom""}","","../img/tt/1024tt.jpg","",""
"null","../img/gs/1024gs.jpg","null","reveal","image-keyboard-response","290","1005678","0.0-6.0-4.40","2851517","co38296","norming","","","","","","",""
"null","../img/tt/1024tt.jpg","null","mooney2","image-keyboard-response","291","1007688","0.0-6.0-5.40","2851517","co38296","norming","","","","","","",""
"2298.350000000908","","","post_reveal_questions","survey-likert","292","1009989","0.0-6.0-6.40","2851517","co38296","norming","","","{""aha"":6}","[0]","../img/tt/1024tt.jpg","",""
"null","<div style=""font-size:60px;""> </div>","null","fixation","html-keyboard-response","293","1010190","0.0-6.0-0.41","2851517","co38296","norming","","","","","","",""
"null","../img/tt/416tt.jpg","null","mooney1","image-keyboard-response","294","1013194","0.0-6.0-1.41","2851517","co38296","norming","","","","","","",""
"3410.1050000007963","","","post_mooney1_questions","survey-likert","295","1016605","0.0-6.0-2.41","2851517","co38296","norming","","","{""curiosity"":4,""confidence"":0}","[0,1]","../img/tt/416tt.jpg","",""
"661.8849999995437","","","recognition","survey-text","296","1017269","0.0-6.0-3.41","2851517","co38296","norming","","","{""guess"":""""}","","../img/tt/416tt.jpg","",""
"null","../img/gs/416gs.jpg","null","reveal","image-keyboard-response","297","1019270","0.0-6.0-4.41","2851517","co38296","norming","","","","","","",""
"null","../img/tt/416tt.jpg","null","mooney2","image-keyboard-response","298","1021281","0.0-6.0-5.41","2851517","co38296","norming","","","","","","",""
"2625.6150000008056","","","post_reveal_questions","survey-likert","299","1023909","0.0-6.0-6.41","2851517","co38296","norming","","","{""aha"":5}","[0]","../img/tt/416tt.jpg","",""
"null","<div style=""font-size:60px;""> </div>","null","fixation","html-keyboard-response","300","1024110","0.0-6.0-0.42","2851517","co38296","norming","","","","","","",""
"null","../img/tt/442tt.jpg","null","mooney1","image-keyboard-response","301","1027117","0.0-6.0-1.42","2851517","co38296","norming","","","","","","",""
"11207.930000000517","","","post_mooney1_questions","survey-likert","302","1038328","0.0-6.0-2.42","2851517","co38296","norming","","","{""curiosity"":4,""confidence"":0}","[0,1]","../img/tt/442tt.jpg","",""
"1270.0399999994552","","","recognition","survey-text","303","1039599","0.0-6.0-3.42","2851517","co38296","norming","","","{""guess"":""""}","","../img/tt/442tt.jpg","",""
"null","../img/gs/442gs.jpg","null","reveal","image-keyboard-response","304","1041602","0.0-6.0-4.42","2851517","co38296","norming","","","","","","",""
"null","../img/tt/442tt.jpg","null","mooney2","image-keyboard-response","305","1043604","0.0-6.0-5.42","2851517","co38296","norming","","","","","","",""
"2799.41999999946","","","post_reveal_questions","survey-likert","306","1046408","0.0-6.0-6.42","2851517","co38296","norming","","","{""aha"":3}","[0]","../img/tt/442tt.jpg","",""
"null","<div style=""font-size:60px;""> </div>","null","fixation","html-keyboard-response","307","1046614","0.0-6.0-0.43","2851517","co38296","norming","","","","","","",""
"null","../img/tt/1290tt.jpg","null","mooney1","image-keyboard-response","308","1049623","0.0-6.0-1.43","2851517","co38296","norming","","","","","","",""
"3710.2149999991525","","","post_mooney1_questions","survey-likert","309","1053336","0.0-6.0-2.43","2851517","co38296","norming","","","{""curiosity"":4,""confidence"":0}","[0,1]","../img/tt/1290tt.jpg","",""
"541.9799999999814","","","recognition","survey-text","310","1053879","0.0-6.0-3.43","2851517","co38296","norming","","","{""guess"":""""}","","../img/tt/1290tt.jpg","",""
"null","../img/gs/1290gs.jpg","null","reveal","image-keyboard-response","311","1055888","0.0-6.0-4.43","2851517","co38296","norming","","","","","","",""
"null","../img/tt/1290tt.jpg","null","mooney2","image-keyboard-response","312","1057897","0.0-6.0-5.43","2851517","co38296","norming","","","","","","",""
"2468.9600000001956","","","post_reveal_questions","survey-likert","313","1060368","0.0-6.0-6.43","2851517","co38296","norming","","","{""aha"":1}","[0]","../img/tt/1290tt.jpg","",""
"null","<div style=""font-size:60px;""> </div>","null","fixation","html-keyboard-response","314","1060569","0.0-6.0-0.44","2851517","co38296","norming","","","","","","",""
"null","../img/tt/1239tt.jpg","null","mooney1","image-keyboard-response","315","1063575","0.0-6.0-1.44","2851517","co38296","norming","","","","","","",""
"4438.1250000006985","","","post_mooney1_questions","survey-likert","316","1068016","0.0-6.0-2.44","2851517","co38296","norming","","","{""curiosity"":3,""confidence"":4}","[0,1]","../img/tt/1239tt.jpg","",""
"2173.8350000013597","","","recognition","survey-text","317","1070192","0.0-6.0-3.44","2851517","co38296","norming","","","{""guess"":""wolf""}","","../img/tt/1239tt.jpg","",""
"null","../img/gs/1239gs.jpg","null","reveal","image-keyboard-response","318","1072193","0.0-6.0-4.44","2851517","co38296","norming","","","","","","",""
"null","../img/tt/1239tt.jpg","null","mooney2","image-keyboard-response","319","1074200","0.0-6.0-5.44","2851517","co38296","norming","","","","","","",""
"1565.1499999985099","","","post_reveal_questions","survey-likert","320","1075768","0.0-6.0-6.44","2851517","co38296","norming","","","{""aha"":2}","[0]","../img/tt/1239tt.jpg","",""
"null","<div style=""font-size:60px;""> </div>","null","fixation","html-keyboard-response","321","1075969","0.0-6.0-0.45","2851517","co38296","norming","","","","","","",""
"null","../img/tt/1270tt.jpg","null","mooney1","image-keyboard-response","322","1078978","0.0-6.0-1.45","2851517","co38296","norming","","","","","","",""
"4994.985000001267","","","post_mooney1_questions","survey-likert","323","1083976","0.0-6.0-2.45","2851517","co38296","norming","","","{""curiosity"":4,""confidence"":2}","[0,1]","../img/tt/1270tt.jpg","",""
"2101.910000001313","","","recognition","survey-text","324","1086079","0.0-6.0-3.45","2851517","co38296","norming","","","{""guess"":""kikker""}","","../img/tt/1270tt.jpg","",""
"null","../img/gs/1270gs.jpg","null","reveal","image-keyboard-response","325","1088086","0.0-6.0-4.45","2851517","co38296","norming","","","","","","",""
"null","../img/tt/1270tt.jpg","null","mooney2","image-keyboard-response","326","1090093","0.0-6.0-5.45","2851517","co38296","norming","","","","","","",""
"2176.4650000003166","","","post_reveal_questions","survey-likert","327","1092272","0.0-6.0-6.45","2851517","co38296","norming","","","{""aha"":2}","[0]","../img/tt/1270tt.jpg","",""
"null","<div style=""font-size:60px;""> </div>","null","fixation","html-keyboard-response","328","1092475","0.0-6.0-0.46","2851517","co38296","norming","","","","","","",""
"null","../img/tt/318tt.jpg","null","mooney1","image-keyboard-response","329","1095481","0.0-6.0-1.46","2851517","co38296","norming","","","","","","",""
"4532.989999999758","","","post_mooney1_questions","survey-likert","330","1100016","0.0-6.0-2.46","2851517","co38296","norming","","","{""curiosity"":3,""confidence"":3}","[0,1]","../img/tt/318tt.jpg","",""
"4638.160000000615","","","recognition","survey-text","331","1104656","0.0-6.0-3.46","2851517","co38296","norming","","","{""guess"":""gorilla""}","","../img/tt/318tt.jpg","",""
"null","../img/gs/318gs.jpg","null","reveal","image-keyboard-response","332","1106659","0.0-6.0-4.46","2851517","co38296","norming","","","","","","",""
"null","../img/tt/318tt.jpg","null","mooney2","image-keyboard-response","333","1108664","0.0-6.0-5.46","2851517","co38296","norming","","","","","","",""
"4558.50499999919","","","post_reveal_questions","survey-likert","334","1113224","0.0-6.0-6.46","2851517","co38296","norming","","","{""aha"":6}","[0]","../img/tt/318tt.jpg","",""
"null","<div style=""font-size:60px;""> </div>","null","fixation","html-keyboard-response","335","1113427","0.0-6.0-0.47","2851517","co38296","norming","","","","","","",""
"null","../img/tt/1275tt.jpg","null","mooney1","image-keyboard-response","336","1116434","0.0-6.0-1.47","2851517","co38296","norming","","","","","","",""
"5371.614999999991","","","post_mooney1_questions","survey-likert","337","1121808","0.0-6.0-2.47","2851517","co38296","norming","","","{""curiosity"":4,""confidence"":3}","[0,1]","../img/tt/1275tt.jpg","",""
"4013.5050000005867","","","recognition","survey-text","338","1125824","0.0-6.0-3.47","2851517","co38296","norming","","","{""guess"":""vlinders""}","","../img/tt/1275tt.jpg","",""
"null","../img/gs/1275gs.jpg","null","reveal","image-keyboard-response","339","1127830","0.0-6.0-4.47","2851517","co38296","norming","","","","","","",""
"null","../img/tt/1275tt.jpg","null","mooney2","image-keyboard-response","340","1129832","0.0-6.0-5.47","2851517","co38296","norming","","","","","","",""
"2989.8549999997485","","","post_reveal_questions","survey-likert","341","1132824","0.0-6.0-6.47","2851517","co38296","norming","","","{""aha"":0}","[0]","../img/tt/1275tt.jpg","",""
"null","<div style=""font-size:60px;""> </div>","null","fixation","html-keyboard-response","342","1133032","0.0-6.0-0.48","2851517","co38296","norming","","","","","","",""
"null","../img/tt/1004tt.jpg","null","mooney1","image-keyboard-response","343","1136038","0.0-6.0-1.48","2851517","co38296","norming","","","","","","",""
"11959.169999999925","","","post_mooney1_questions","survey-likert","344","1148000","0.0-6.0-2.48","2851517","co38296","norming","","","{""curiosity"":3,""confidence"":1}","[0,1]","../img/tt/1004tt.jpg","",""
"1982.0150000012945","","","recognition","survey-text","345","1149985","0.0-6.0-3.48","2851517","co38296","norming","","","{""guess"":""beer""}","","../img/tt/1004tt.jpg","",""
"null","../img/gs/1004gs.jpg","null","reveal","image-keyboard-response","346","1151985","0.0-6.0-4.48","2851517","co38296","norming","","","","","","",""
"null","../img/tt/1004tt.jpg","null","mooney2","image-keyboard-response","347","1153992","0.0-6.0-5.48","2851517","co38296","norming","","","","","","",""
"3390.8300000003073","","","post_reveal_questions","survey-likert","348","1157384","0.0-6.0-6.48","2851517","co38296","norming","","","{""aha"":5}","[0]","../img/tt/1004tt.jpg","",""
"null","<div style=""font-size:60px;""> </div>","null","fixation","html-keyboard-response","349","1157586","0.0-6.0-0.49","2851517","co38296","norming","","","","","","",""
"null","../img/tt/098tt.jpg","null","mooney1","image-keyboard-response","350","1160592","0.0-6.0-1.49","2851517","co38296","norming","","","","","","",""
"4111.0700000009965","","","post_mooney1_questions","survey-likert","351","1164704","0.0-6.0-2.49","2851517","co38296","norming","","","{""curiosity"":6,""confidence"":0}","[0,1]","../img/tt/098tt.jpg","",""
"814.1799999994691","","","recognition","survey-text","352","1165520","0.0-6.0-3.49","2851517","co38296","norming","","","{""guess"":""""}","","../img/tt/098tt.jpg","",""
"null","../img/gs/098gs.jpg","null","reveal","image-keyboard-response","353","1167524","0.0-6.0-4.49","2851517","co38296","norming","","","","","","",""
"null","../img/tt/098tt.jpg","null","mooney2","image-keyboard-response","354","1169527","0.0-6.0-5.49","2851517","co38296","norming","","","","","","",""
"1863.3200000005309","","","post_reveal_questions","survey-likert","355","1171392","0.0-6.0-6.49","2851517","co38296","norming","","","{""aha"":0}","[0]","../img/tt/098tt.jpg","",""
"null","<div style=""font-size:60px;""> </div>","null","fixation","html-keyboard-response","356","1171600","0.0-6.0-0.50","2851517","co38296","norming","","","","","","",""
"null","../img/tt/329tt.jpg","null","mooney1","image-keyboard-response","357","1174607","0.0-6.0-1.50","2851517","co38296","norming","","","","","","",""
"5040.295000000857","","","post_mooney1_questions","survey-likert","358","1179649","0.0-6.0-2.50","2851517","co38296","norming","","","{""curiosity"":4,""confidence"":2}","[0,1]","../img/tt/329tt.jpg","",""
"2957.899999999441","","","recognition","survey-text","359","1182608","0.0-6.0-3.50","2851517","co38296","norming","","","{""guess"":""insect""}","","../img/tt/329tt.jpg","",""
"null","../img/gs/329gs.jpg","null","reveal","image-keyboard-response","360","1184616","0.0-6.0-4.50","2851517","co38296","norming","","","","","","",""
"null","../img/tt/329tt.jpg","null","mooney2","image-keyboard-response","361","1186622","0.0-6.0-5.50","2851517","co38296","norming","","","","","","",""
"3225.1500000001397","","","post_reveal_questions","survey-likert","362","1189848","0.0-6.0-6.50","2851517","co38296","norming","","","{""aha"":3}","[0]","../img/tt/329tt.jpg","",""
"null","<div style=""font-size:60px;""> </div>","null","fixation","html-keyboard-response","363","1190057","0.0-6.0-0.51","2851517","co38296","norming","","","","","","",""
"null","../img/tt/1044tt.jpg","null","mooney1","image-keyboard-response","364","1193068","0.0-6.0-1.51","2851517","co38296","norming","","","","","","",""
"5153.694999999134","","","post_mooney1_questions","survey-likert","365","1198224","0.0-6.0-2.51","2851517","co38296","norming","","","{""curiosity"":3,""confidence"":1}","[0,1]","../img/tt/1044tt.jpg","",""
"3069.885000000708","","","recognition","survey-text","366","1201296","0.0-6.0-3.51","2851517","co38296","norming","","","{""guess"":""spin""}","","../img/tt/1044tt.jpg","",""
"null","../img/gs/1044gs.jpg","null","reveal","image-keyboard-response","367","1203302","0.0-6.0-4.51","2851517","co38296","norming","","","","","","",""
"null","../img/tt/1044tt.jpg","null","mooney2","image-keyboard-response","368","1205308","0.0-6.0-5.51","2851517","co38296","norming","","","","","","",""
"3050.074999999022","","","post_reveal_questions","survey-likert","369","1208360","0.0-6.0-6.51","2851517","co38296","norming","","","{""aha"":5}","[0]","../img/tt/1044tt.jpg","",""
"null","<div style=""font-size:60px;""> </div>","null","fixation","html-keyboard-response","370","1208569","0.0-6.0-0.52","2851517","co38296","norming","","","","","","",""
"null","../img/tt/056tt.jpg","null","mooney1","image-keyboard-response","371","1211573","0.0-6.0-1.52","2851517","co38296","norming","","","","","","",""
"3465.5550000006333","","","post_mooney1_questions","survey-likert","372","1215041","0.0-6.0-2.52","2851517","co38296","norming","","","{""curiosity"":3,""confidence"":3}","[0,1]","../img/tt/056tt.jpg","",""
"1822.0500000005122","","","recognition","survey-text","373","1216865","0.0-6.0-3.52","2851517","co38296","norming","","","{""guess"":""wolf""}","","../img/tt/056tt.jpg","",""
"null","../img/gs/056gs.jpg","null","reveal","image-keyboard-response","374","1218867","0.0-6.0-4.52","2851517","co38296","norming","","","","","","",""
"null","../img/tt/056tt.jpg","null","mooney2","image-keyboard-response","375","1220869","0.0-6.0-5.52","2851517","co38296","norming","","","","","","",""
"2265.509999999311","","","post_reveal_questions","survey-likert","376","1223137","0.0-6.0-6.52","2851517","co38296","norming","","","{""aha"":5}","[0]","../img/tt/056tt.jpg","",""
"null","<div style=""font-size:60px;""> </div>","null","fixation","html-keyboard-response","377","1223340","0.0-6.0-0.53","2851517","co38296","norming","","","","","","",""
"null","../img/tt/1217tt.jpg","null","mooney1","image-keyboard-response","378","1226350","0.0-6.0-1.53","2851517","co38296","norming","","","","","","",""
"5024.1150000002235","","","post_mooney1_questions","survey-likert","379","1231377","0.0-6.0-2.53","2851517","co38296","norming","","","{""curiosity"":2,""confidence"":2}","[0,1]","../img/tt/1217tt.jpg","",""
"3470.0200000004843","","","recognition","survey-text","380","1234849","0.0-6.0-3.53","2851517","co38296","norming","","","{""guess"":""olifanten""}","","../img/tt/1217tt.jpg","",""
"null","../img/gs/1217gs.jpg","null","reveal","image-keyboard-response","381","1236859","0.0-6.0-4.53","2851517","co38296","norming","","","","","","",""
"null","../img/tt/1217tt.jpg","null","mooney2","image-keyboard-response","382","1238862","0.0-6.0-5.53","2851517","co38296","norming","","","","","","",""
"2321.0749999997206","","","post_reveal_questions","survey-likert","383","1241185","0.0-6.0-6.53","2851517","co38296","norming","","","{""aha"":1}","[0]","../img/tt/1217tt.jpg","",""
"null","<div style=""font-size:60px;""> </div>","null","fixation","html-keyboard-response","384","1241389","0.0-6.0-0.54","2851517","co38296","norming","","","","","","",""
"null","../img/tt/1255tt.jpg","null","mooney1","image-keyboard-response","385","1244401","0.0-6.0-1.54","2851517","co38296","norming","","","","","","",""
"11789.745000000112","","","post_mooney1_questions","survey-likert","386","1256193","0.0-6.0-2.54","2851517","co38296","norming","","","{""curiosity"":4,""confidence"":1}","[0,1]","../img/tt/1255tt.jpg","",""
"6254.164999998407","","","recognition","survey-text","387","1262449","0.0-6.0-3.54","2851517","co38296","norming","","","{""guess"":""pingun""}","","../img/tt/1255tt.jpg","",""
"null","../img/gs/1255gs.jpg","null","reveal","image-keyboard-response","388","1264453","0.0-6.0-4.54","2851517","co38296","norming","","","","","","",""
"null","../img/tt/1255tt.jpg","null","mooney2","image-keyboard-response","389","1266462","0.0-6.0-5.54","2851517","co38296","norming","","","","","","",""
"2600.3600000003353","","","post_reveal_questions","survey-likert","390","1269065","0.0-6.0-6.54","2851517","co38296","norming","","","{""aha"":2}","[0]","../img/tt/1255tt.jpg","",""
"null","<div style=""font-size:60px;""> </div>","null","fixation","html-keyboard-response","391","1269267","0.0-6.0-0.55","2851517","co38296","norming","","","","","","",""
"null","../img/tt/1234tt.jpg","null","mooney1","image-keyboard-response","392","1272269","0.0-6.0-1.55","2851517","co38296","norming","","","","","","",""
"4730.064999999711","","","post_mooney1_questions","survey-likert","393","1277002","0.0-6.0-2.55","2851517","co38296","norming","","","{""curiosity"":4,""confidence"":1}","[0,1]","../img/tt/1234tt.jpg","",""
"2534.215000001481","","","recognition","survey-text","394","1279538","0.0-6.0-3.55","2851517","co38296","norming","","","{""guess"":""boot""}","","../img/tt/1234tt.jpg","",""
"null","../img/gs/1234gs.jpg","null","reveal","image-keyboard-response","395","1281543","0.0-6.0-4.55","2851517","co38296","norming","","","","","","",""
"null","../img/tt/1234tt.jpg","null","mooney2","image-keyboard-response","396","1283545","0.0-6.0-5.55","2851517","co38296","norming","","","","","","",""
"1710.8550000011455","","","post_reveal_questions","survey-likert","397","1285257","0.0-6.0-6.55","2851517","co38296","norming","","","{""aha"":5}","[0]","../img/tt/1234tt.jpg","",""
"null","<div style=""font-size:60px;""> </div>","null","fixation","html-keyboard-response","398","1285465","0.0-6.0-0.56","2851517","co38296","norming","","","","","","",""
"null","../img/tt/1143tt.jpg","null","mooney1","image-keyboard-response","399","1288467","0.0-6.0-1.56","2851517","co38296","norming","","","","","","",""
"2964.479999998817","","","post_mooney1_questions","survey-likert","400","1291433","0.0-6.0-2.56","2851517","co38296","norming","","","{""curiosity"":4,""confidence"":3}","[0,1]","../img/tt/1143tt.jpg","",""
"5206.190000000875","","","recognition","survey-text","401","1296641","0.0-6.0-3.56","2851517","co38296","norming","","","{""guess"":""loopband""}","","../img/tt/1143tt.jpg","",""
"null","../img/gs/1143gs.jpg","null","reveal","image-keyboard-response","402","1298644","0.0-6.0-4.56","2851517","co38296","norming","","","","","","",""
"null","../img/tt/1143tt.jpg","null","mooney2","image-keyboard-response","403","1300645","0.0-6.0-5.56","2851517","co38296","norming","","","","","","",""
"1843.7850000008475","","","post_reveal_questions","survey-likert","404","1302489","0.0-6.0-6.56","2851517","co38296","norming","","","{""aha"":4}","[0]","../img/tt/1143tt.jpg","",""
"null","<div style=""font-size:60px;""> </div>","null","fixation","html-keyboard-response","405","1302691","0.0-6.0-0.57","2851517","co38296","norming","","","","","","",""
"null","../img/tt/406tt.jpg","null","mooney1","image-keyboard-response","406","1305695","0.0-6.0-1.57","2851517","co38296","norming","","","","","","",""
"5703.679999998771","","","post_mooney1_questions","survey-likert","407","1311402","0.0-6.0-2.57","2851517","co38296","norming","","","{""curiosity"":3,""confidence"":1}","[0,1]","../img/tt/406tt.jpg","",""
"2406.055000001099","","","recognition","survey-text","408","1313809","0.0-6.0-3.57","2851517","co38296","norming","","","{""guess"":""voeten""}","","../img/tt/406tt.jpg","",""
"null","../img/gs/406gs.jpg","null","reveal","image-keyboard-response","409","1315820","0.0-6.0-4.57","2851517","co38296","norming","","","","","","",""
"null","../img/tt/406tt.jpg","null","mooney2","image-keyboard-response","410","1317822","0.0-6.0-5.57","2851517","co38296","norming","","","","","","",""
"2345.119999999879","","","post_reveal_questions","survey-likert","411","1320169","0.0-6.0-6.57","2851517","co38296","norming","","","{""aha"":0}","[0]","../img/tt/406tt.jpg","",""
"null","<div style=""font-size:60px;""> </div>","null","fixation","html-keyboard-response","412","1320375","0.0-6.0-0.58","2851517","co38296","norming","","","","","","",""
"null","../img/tt/1283tt.jpg","null","mooney1","image-keyboard-response","413","1323379","0.0-6.0-1.58","2851517","co38296","norming","","","","","","",""
"5731.7500000006985","","","post_mooney1_questions","survey-likert","414","1329114","0.0-6.0-2.58","2851517","co38296","norming","","","{""curiosity"":3,""confidence"":0}","[0,1]","../img/tt/1283tt.jpg","",""
"669.7999999998137","","","recognition","survey-text","415","1329785","0.0-6.0-3.58","2851517","co38296","norming","","","{""guess"":""""}","","../img/tt/1283tt.jpg","",""
"null","../img/gs/1283gs.jpg","null","reveal","image-keyboard-response","416","1331791","0.0-6.0-4.58","2851517","co38296","norming","","","","","","",""
"null","../img/tt/1283tt.jpg","null","mooney2","image-keyboard-response","417","1333793","0.0-6.0-5.58","2851517","co38296","norming","","","","","","",""
"1398.080000000773","","","post_reveal_questions","survey-likert","418","1335193","0.0-6.0-6.58","2851517","co38296","norming","","","{""aha"":6}","[0]","../img/tt/1283tt.jpg","",""
"null","<div style=""font-size:60px;""> </div>","null","fixation","html-keyboard-response","419","1335397","0.0-6.0-0.59","2851517","co38296","norming","","","","","","",""
"null","../img/tt/468tt.jpg","null","mooney1","image-keyboard-response","420","1338407","0.0-6.0-1.59","2851517","co38296","norming","","","","","","",""
"10080.245000001043","","","post_mooney1_questions","survey-likert","421","1348490","0.0-6.0-2.59","2851517","co38296","norming","","","{""curiosity"":3,""confidence"":1}","[0,1]","../img/tt/468tt.jpg","",""
"1798.1899999994785","","","recognition","survey-text","422","1350290","0.0-6.0-3.59","2851517","co38296","norming","","","{""guess"":""hoed""}","","../img/tt/468tt.jpg","",""
"null","../img/gs/468gs.jpg","null","reveal","image-keyboard-response","423","1352294","0.0-6.0-4.59","2851517","co38296","norming","","","","","","",""
"null","../img/tt/468tt.jpg","null","mooney2","image-keyboard-response","424","1354306","0.0-6.0-5.59","2851517","co38296","norming","","","","","","",""
"2925.139999999432","","","post_reveal_questions","survey-likert","425","1357234","0.0-6.0-6.59","2851517","co38296","norming","","","{""aha"":3}","[0]","../img/tt/468tt.jpg","",""
"null","<div style=""font-size:60px;""> </div>","null","fixation","html-keyboard-response","426","1357435","0.0-6.0-0.60","2851517","co38296","norming","","","","","","",""
"null","../img/tt/270tt.jpg","null","mooney1","image-keyboard-response","427","1360442","0.0-6.0-1.60","2851517","co38296","norming","","","","","","",""
"3677.0950000009034","","","post_mooney1_questions","survey-likert","428","1364122","0.0-6.0-2.60","2851517","co38296","norming","","","{""curiosity"":5,""confidence"":0}","[0,1]","../img/tt/270tt.jpg","",""
"613.9899999997579","","","recognition","survey-text","429","1364737","0.0-6.0-3.60","2851517","co38296","norming","","","{""guess"":""""}","","../img/tt/270tt.jpg","",""
"null","../img/gs/270gs.jpg","null","reveal","image-keyboard-response","430","1366741","0.0-6.0-4.60","2851517","co38296","norming","","","","","","",""
"null","../img/tt/270tt.jpg","null","mooney2","image-keyboard-response","431","1368743","0.0-6.0-5.60","2851517","co38296","norming","","","","","","",""
"3272.2400000002235","","","post_reveal_questions","survey-likert","432","1372018","0.0-6.0-6.60","2851517","co38296","norming","","","{""aha"":4}","[0]","../img/tt/270tt.jpg","",""
"null","<div style=""font-size:60px;""> </div>","null","fixation","html-keyboard-response","433","1372224","0.0-6.0-0.61","2851517","co38296","norming","","","","","","",""
"null","../img/tt/1125tt.jpg","null","mooney1","image-keyboard-response","434","1375232","0.0-6.0-1.61","2851517","co38296","norming","","","","","","",""
"5287.239999999758","","","post_mooney1_questions","survey-likert","435","1380522","0.0-6.0-2.61","2851517","co38296","norming","","","{""curiosity"":4,""confidence"":1}","[0,1]","../img/tt/1125tt.jpg","",""
"2517.915000000503","","","recognition","survey-text","436","1383041","0.0-6.0-3.61","2851517","co38296","norming","","","{""guess"":""viool""}","","../img/tt/1125tt.jpg","",""
"null","../img/gs/1125gs.jpg","null","reveal","image-keyboard-response","437","1385047","0.0-6.0-4.61","2851517","co38296","norming","","","","","","",""
"null","../img/tt/1125tt.jpg","null","mooney2","image-keyboard-response","438","1387054","0.0-6.0-5.61","2851517","co38296","norming","","","","","","",""
"1625.734999999404","","","post_reveal_questions","survey-likert","439","1388682","0.0-6.0-6.61","2851517","co38296","norming","","","{""aha"":6}","[0]","../img/tt/1125tt.jpg","",""
"null","<div style=""font-size:60px;""> </div>","null","fixation","html-keyboard-response","440","1388883","0.0-6.0-0.62","2851517","co38296","norming","","","","","","",""
"null","../img/tt/524tt.jpg","null","mooney1","image-keyboard-response","441","1391892","0.0-6.0-1.62","2851517","co38296","norming","","","","","","",""
"3491.135000000242","","","post_mooney1_questions","survey-likert","442","1395383","0.0-6.0-2.62","2851517","co38296","norming","","","{""curiosity"":3,""confidence"":2}","[0,1]","../img/tt/524tt.jpg","",""
"2021.840000001248","","","recognition","survey-text","443","1397406","0.0-6.0-3.62","2851517","co38296","norming","","","{""guess"":""paard""}","","../img/tt/524tt.jpg","",""
"null","../img/gs/524gs.jpg","null","reveal","image-keyboard-response","444","1399413","0.0-6.0-4.62","2851517","co38296","norming","","","","","","",""
"null","../img/tt/524tt.jpg","null","mooney2","image-keyboard-response","445","1401421","0.0-6.0-5.62","2851517","co38296","norming","","","","","","",""
"2319.384999998845","","","post_reveal_questions","survey-likert","446","1403742","0.0-6.0-6.62","2851517","co38296","norming","","","{""aha"":2}","[0]","../img/tt/524tt.jpg","",""
"null","<div style=""font-size:60px;""> </div>","null","fixation","html-keyboard-response","447","1403952","0.0-6.0-0.63","2851517","co38296","norming","","","","","","",""
"null","../img/tt/306tt.jpg","null","mooney1","image-keyboard-response","448","1406963","0.0-6.0-1.63","2851517","co38296","norming","","","","","","",""
"5817.209999999264","","","post_mooney1_questions","survey-likert","449","1412783","0.0-6.0-2.63","2851517","co38296","norming","","","{""curiosity"":5,""confidence"":0}","[0,1]","../img/tt/306tt.jpg","",""
"629.6899999999441","","","recognition","survey-text","450","1413414","0.0-6.0-3.63","2851517","co38296","norming","","","{""guess"":""""}","","../img/tt/306tt.jpg","",""
"null","../img/gs/306gs.jpg","null","reveal","image-keyboard-response","451","1415422","0.0-6.0-4.63","2851517","co38296","norming","","","","","","",""
"null","../img/tt/306tt.jpg","null","mooney2","image-keyboard-response","452","1417424","0.0-6.0-5.63","2851517","co38296","norming","","","","","","",""
"1772.9250000012107","","","post_reveal_questions","survey-likert","453","1419198","0.0-6.0-6.63","2851517","co38296","norming","","","{""aha"":4}","[0]","../img/tt/306tt.jpg","",""
"null","<div style=""font-size:60px;""> </div>","null","fixation","html-keyboard-response","454","1419409","0.0-6.0-0.64","2851517","co38296","norming","","","","","","",""
"null","../img/tt/096tt.jpg","null","mooney1","image-keyboard-response","455","1422412","0.0-6.0-1.64","2851517","co38296","norming","","","","","","",""
"5007.540000000503","","","post_mooney1_questions","survey-likert","456","1427423","0.0-6.0-2.64","2851517","co38296","norming","","","{""curiosity"":2,""confidence"":6}","[0,1]","../img/tt/096tt.jpg","",""
"2030.0599999991246","","","recognition","survey-text","457","1429454","0.0-6.0-3.64","2851517","co38296","norming","","","{""guess"":""piano""}","","../img/tt/096tt.jpg","",""
"null","../img/gs/096gs.jpg","null","reveal","image-keyboard-response","458","1431459","0.0-6.0-4.64","2851517","co38296","norming","","","","","","",""
"null","../img/tt/096tt.jpg","null","mooney2","image-keyboard-response","459","1433468","0.0-6.0-5.64","2851517","co38296","norming","","","","","","",""
"1951.904999999795","","","post_reveal_questions","survey-likert","460","1435422","0.0-6.0-6.64","2851517","co38296","norming","","","{""aha"":3}","[0]","../img/tt/096tt.jpg","",""
"null","<div style=""font-size:60px;""> </div>","null","fixation","html-keyboard-response","461","1435632","0.0-6.0-0.65","2851517","co38296","norming","","","","","","",""
"null","../img/tt/1211tt.jpg","null","mooney1","image-keyboard-response","462","1438640","0.0-6.0-1.65","2851517","co38296","norming","","","","","","",""
"5365.9900000002235","","","post_mooney1_questions","survey-likert","463","1444007","0.0-6.0-2.65","2851517","co38296","norming","","","{""curiosity"":4,""confidence"":3}","[0,1]","../img/tt/1211tt.jpg","",""
"7077.854999999516","","","recognition","survey-text","464","1451086","0.0-6.0-3.65","2851517","co38296","norming","","","{""guess"":""tennisveld""}","","../img/tt/1211tt.jpg","",""
"null","../img/gs/1211gs.jpg","null","reveal","image-keyboard-response","465","1453096","0.0-6.0-4.65","2851517","co38296","norming","","","","","","",""
"null","../img/tt/1211tt.jpg","null","mooney2","image-keyboard-response","466","1455106","0.0-6.0-5.65","2851517","co38296","norming","","","","","","",""
"2909.5299999990966","","","post_reveal_questions","survey-likert","467","1458018","0.0-6.0-6.65","2851517","co38296","norming","","","{""aha"":4}","[0]","../img/tt/1211tt.jpg","",""
"null","<div style=""font-size:60px;""> </div>","null","fixation","html-keyboard-response","468","1458227","0.0-6.0-0.66","2851517","co38296","norming","","","","","","",""
"null","../img/tt/315tt.jpg","null","mooney1","image-keyboard-response","469","1461230","0.0-6.0-1.66","2851517","co38296","norming","","","","","","",""
"5633.445000001229","","","post_mooney1_questions","survey-likert","470","1466866","0.0-6.0-2.66","2851517","co38296","norming","","","{""curiosity"":4,""confidence"":1}","[0,1]","../img/tt/315tt.jpg","",""
"2925.9999999995343","","","recognition","survey-text","471","1469794","0.0-6.0-3.66","2851517","co38296","norming","","","{""guess"":""vogel""}","","../img/tt/315tt.jpg","",""
"null","../img/gs/315gs.jpg","null","reveal","image-keyboard-response","472","1471801","0.0-6.0-4.66","2851517","co38296","norming","","","","","","",""
"null","../img/tt/315tt.jpg","null","mooney2","image-keyboard-response","473","1473803","0.0-6.0-5.66","2851517","co38296","norming","","","","","","",""
"1501.2449999994133","","","post_reveal_questions","survey-likert","474","1475306","0.0-6.0-6.66","2851517","co38296","norming","","","{""aha"":5}","[0]","../img/tt/315tt.jpg","",""
"null","<div style=""font-size:60px;""> </div>","null","fixation","html-keyboard-response","475","1475509","0.0-6.0-0.67","2851517","co38296","norming","","","","","","",""
"null","../img/tt/380tt.jpg","null","mooney1","image-keyboard-response","476","1478517","0.0-6.0-1.67","2851517","co38296","norming","","","","","","",""
"4329.815000000875","","","post_mooney1_questions","survey-likert","477","1482850","0.0-6.0-2.67","2851517","co38296","norming","","","{""curiosity"":2,""confidence"":0}","[0,1]","../img/tt/380tt.jpg","",""
"950.2599999997765","","","recognition","survey-text","478","1483802","0.0-6.0-3.67","2851517","co38296","norming","","","{""guess"":""""}","","../img/tt/380tt.jpg","",""
"null","../img/gs/380gs.jpg","null","reveal","image-keyboard-response","479","1485804","0.0-6.0-4.67","2851517","co38296","norming","","","","","","",""
"null","../img/tt/380tt.jpg","null","mooney2","image-keyboard-response","480","1487818","0.0-6.0-5.67","2851517","co38296","norming","","","","","","",""
"2413.9300000006333","","","post_reveal_questions","survey-likert","481","1490234","0.0-6.0-6.67","2851517","co38296","norming","","","{""aha"":6}","[0]","../img/tt/380tt.jpg","",""
"null","<div style=""font-size:60px;""> </div>","null","fixation","html-keyboard-response","482","1490437","0.0-6.0-0.68","2851517","co38296","norming","","","","","","",""
"null","../img/tt/1236tt.jpg","null","mooney1","image-keyboard-response","483","1493445","0.0-6.0-1.68","2851517","co38296","norming","","","","","","",""
"5514.315000000177","","","post_mooney1_questions","survey-likert","484","1498962","0.0-6.0-2.68","2851517","co38296","norming","","","{""curiosity"":5,""confidence"":0}","[0,1]","../img/tt/1236tt.jpg","",""
"4277.770000000484","","","recognition","survey-text","485","1503242","0.0-6.0-3.68","2851517","co38296","norming","","","{""guess"":""""}","","../img/tt/1236tt.jpg","",""
"null","../img/gs/1236gs.jpg","null","reveal","image-keyboard-response","486","1505244","0.0-6.0-4.68","2851517","co38296","norming","","","","","","",""
"null","../img/tt/1236tt.jpg","null","mooney2","image-keyboard-response","487","1507246","0.0-6.0-5.68","2851517","co38296","norming","","","","","","",""
"3297.5000000006985","","","post_reveal_questions","survey-likert","488","1510546","0.0-6.0-6.68","2851517","co38296","norming","","","{""aha"":5}","[0]","../img/tt/1236tt.jpg","",""
"null","<div style=""font-size:60px;""> </div>","null","fixation","html-keyboard-response","489","1510755","0.0-6.0-0.69","2851517","co38296","norming","","","","","","",""
"null","../img/tt/1196tt.jpg","null","mooney1","image-keyboard-response","490","1513763","0.0-6.0-1.69","2851517","co38296","norming","","","","","","",""
"6268.514999999665","","","post_mooney1_questions","survey-likert","491","1520025","0.0-6.0-2.69","2851517","co38296","norming","","","{""curiosity"":3,""confidence"":2}","[0,1]","../img/tt/1196tt.jpg","",""
"3598.065000000177","","","recognition","survey-text","492","1523625","0.0-6.0-3.69","2851517","co38296","norming","","","{""guess"":""voetballer""}","","../img/tt/1196tt.jpg","",""
"null","../img/gs/1196gs.jpg","null","reveal","image-keyboard-response","493","1525636","0.0-6.0-4.69","2851517","co38296","norming","","","","","","",""
"null","../img/tt/1196tt.jpg","null","mooney2","image-keyboard-response","494","1527645","0.0-6.0-5.69","2851517","co38296","norming","","","","","","",""
"2585.8249999999534","","","post_reveal_questions","survey-likert","495","1530233","0.0-6.0-6.69","2851517","co38296","norming","","","{""aha"":5}","[0]","../img/tt/1196tt.jpg","",""
"null","<div style=""font-size:60px;""> </div>","null","fixation","html-keyboard-response","496","1530440","0.0-6.0-0.70","2851517","co38296","norming","","","","","","",""
"null","../img/tt/1173tt.jpg","null","mooney1","image-keyboard-response","497","1533451","0.0-6.0-1.70","2851517","co38296","norming","","","","","","",""
"4611.870000000577","","","post_mooney1_questions","survey-likert","498","1538065","0.0-6.0-2.70","2851517","co38296","norming","","","{""curiosity"":4,""confidence"":3}","[0,1]","../img/tt/1173tt.jpg","",""
"3254.184999999823","","","recognition","survey-text","499","1541321","0.0-6.0-3.70","2851517","co38296","norming","","","{""guess"":""hockey""}","","../img/tt/1173tt.jpg","",""
"null","../img/gs/1173gs.jpg","null","reveal","image-keyboard-response","500","1543326","0.0-6.0-4.70","2851517","co38296","norming","","","","","","",""
"null","../img/tt/1173tt.jpg","null","mooney2","image-keyboard-response","501","1545328","0.0-6.0-5.70","2851517","co38296","norming","","","","","","",""
"2271.3350000013597","","","post_reveal_questions","survey-likert","502","1547601","0.0-6.0-6.70","2851517","co38296","norming","","","{""aha"":4}","[0]","../img/tt/1173tt.jpg","",""
"null","<div style=""font-size:60px;""> </div>","null","fixation","html-keyboard-response","503","1547802","0.0-6.0-0.71","2851517","co38296","norming","","","","","","",""
"null","../img/tt/300tt.jpg","null","mooney1","image-keyboard-response","504","1550806","0.0-6.0-1.71","2851517","co38296","norming","","","","","","",""
"5833.370000000112","","","post_mooney1_questions","survey-likert","505","1556642","0.0-6.0-2.71","2851517","co38296","norming","","","{""curiosity"":3,""confidence"":2}","[0,1]","../img/tt/300tt.jpg","",""
"3957.7399999999907","","","recognition","survey-text","506","1560601","0.0-6.0-3.71","2851517","co38296","norming","","","{""guess"":""computer""}","","../img/tt/300tt.jpg","",""
"null","../img/gs/300gs.jpg","null","reveal","image-keyboard-response","507","1562611","0.0-6.0-4.71","2851517","co38296","norming","","","","","","",""
"null","../img/tt/300tt.jpg","null","mooney2","image-keyboard-response","508","1564616","0.0-6.0-5.71","2851517","co38296","norming","","","","","","",""
"10376.404999999097","","","post_reveal_questions","survey-likert","509","1574993","0.0-6.0-6.71","2851517","co38296","norming","","","{""aha"":5}","[0]","../img/tt/300tt.jpg","",""
"null","<div style=""font-size:60px;""> </div>","null","fixation","html-keyboard-response","510","1575200","0.0-6.0-0.72","2851517","co38296","norming","","","","","","",""
"null","../img/tt/008tt.jpg","null","mooney1","image-keyboard-response","511","1578220","0.0-6.0-1.72","2851517","co38296","norming","","","","","","",""
"5397.389999999898","","","post_mooney1_questions","survey-likert","512","1583620","0.0-6.0-2.72","2851517","co38296","norming","","","{""curiosity"":2,""confidence"":3}","[0,1]","../img/tt/008tt.jpg","",""
"2686.0699999998324","","","recognition","survey-text","513","1586308","0.0-6.0-3.72","2851517","co38296","norming","","","{""guess"":""geweer""}","","../img/tt/008tt.jpg","",""
"null","../img/gs/008gs.jpg","null","reveal","image-keyboard-response","514","1588313","0.0-6.0-4.72","2851517","co38296","norming","","","","","","",""
"null","../img/tt/008tt.jpg","null","mooney2","image-keyboard-response","515","1590322","0.0-6.0-5.72","2851517","co38296","norming","","","","","","",""
"2311.884999999078","","","post_reveal_questions","survey-likert","516","1592636","0.0-6.0-6.72","2851517","co38296","norming","","","{""aha"":1}","[0]","../img/tt/008tt.jpg","",""
"null","<div style=""font-size:60px;""> </div>","null","fixation","html-keyboard-response","517","1592842","0.0-6.0-0.73","2851517","co38296","norming","","","","","","",""
"null","../img/tt/1006tt.jpg","null","mooney1","image-keyboard-response","518","1595845","0.0-6.0-1.73","2851517","co38296","norming","","","","","","",""
"3764.5699999993667","","","post_mooney1_questions","survey-likert","519","1599612","0.0-6.0-2.73","2851517","co38296","norming","","","{""curiosity"":3,""confidence"":2}","[0,1]","../img/tt/1006tt.jpg","",""
"2038.094999999972","","","recognition","survey-text","520","1601652","0.0-6.0-3.73","2851517","co38296","norming","","","{""guess"":""bos""}","","../img/tt/1006tt.jpg","",""
"null","../img/gs/1006gs.jpg","null","reveal","image-keyboard-response","521","1603662","0.0-6.0-4.73","2851517","co38296","norming","","","","","","",""
"null","../img/tt/1006tt.jpg","null","mooney2","image-keyboard-response","522","1605664","0.0-6.0-5.73","2851517","co38296","norming","","","","","","",""
"2937.135000000242","","","post_reveal_questions","survey-likert","523","1608604","0.0-6.0-6.73","2851517","co38296","norming","","","{""aha"":6}","[0]","../img/tt/1006tt.jpg","",""
"null","<div style=""font-size:60px;""> </div>","null","fixation","html-keyboard-response","524","1608814","0.0-6.0-0.74","2851517","co38296","norming","","","","","","",""
"null","../img/tt/515tt.jpg","null","mooney1","image-keyboard-response","525","1611823","0.0-6.0-1.74","2851517","co38296","norming","","","","","","",""
"4186.085000001127","","","post_mooney1_questions","survey-likert","526","1616012","0.0-6.0-2.74","2851517","co38296","norming","","","{""curiosity"":3,""confidence"":3}","[0,1]","../img/tt/515tt.jpg","",""
"1526.0150000010617","","","recognition","survey-text","527","1617540","0.0-6.0-3.74","2851517","co38296","norming","","","{""guess"":""eend""}","","../img/tt/515tt.jpg","",""
"null","../img/gs/515gs.jpg","null","reveal","image-keyboard-response","528","1619545","0.0-6.0-4.74","2851517","co38296","norming","","","","","","",""
"null","../img/tt/515tt.jpg","null","mooney2","image-keyboard-response","529","1621546","0.0-6.0-5.74","2851517","co38296","norming","","","","","","",""
"3199.6899999994785","","","post_reveal_questions","survey-likert","530","1624748","0.0-6.0-6.74","2851517","co38296","norming","","","{""aha"":6}","[0]","../img/tt/515tt.jpg","",""
"null","<div style=""font-size:60px;""> </div>","null","fixation","html-keyboard-response","531","1624950","0.0-6.0-0.75","2851517","co38296","norming","","","","","","",""
"null","../img/tt/044tt.jpg","null","mooney1","image-keyboard-response","532","1627962","0.0-6.0-1.75","2851517","co38296","norming","","","","","","",""
"4312.690000000643","","","post_mooney1_questions","survey-likert","533","1632276","0.0-6.0-2.75","2851517","co38296","norming","","","{""curiosity"":5,""confidence"":2}","[0,1]","../img/tt/044tt.jpg","",""
"2366.045000000624","","","recognition","survey-text","534","1634644","0.0-6.0-3.75","2851517","co38296","norming","","","{""guess"":""computer""}","","../img/tt/044tt.jpg","",""
"null","../img/gs/044gs.jpg","null","reveal","image-keyboard-response","535","1636649","0.0-6.0-4.75","2851517","co38296","norming","","","","","","",""
"null","../img/tt/044tt.jpg","null","mooney2","image-keyboard-response","536","1638653","0.0-6.0-5.75","2851517","co38296","norming","","","","","","",""
"2639.8950000002515","","","post_reveal_questions","survey-likert","537","1641294","0.0-6.0-6.75","2851517","co38296","norming","","","{""aha"":2}","[0]","../img/tt/044tt.jpg","",""
"null","<div style=""font-size:60px;""> </div>","null","fixation","html-keyboard-response","538","1641501","0.0-6.0-0.76","2851517","co38296","norming","","","","","","",""
"null","../img/tt/1199tt.jpg","null","mooney1","image-keyboard-response","539","1644508","0.0-6.0-1.76","2851517","co38296","norming","","","","","","",""
"6190.51500000013","","","post_mooney1_questions","survey-likert","540","1650702","0.0-6.0-2.76","2851517","co38296","norming","","","{""curiosity"":3,""confidence"":2}","[0,1]","../img/tt/1199tt.jpg","",""
"2550.0950000006706","","","recognition","survey-text","541","1653254","0.0-6.0-3.76","2851517","co38296","norming","","","{""guess"":""badminton""}","","../img/tt/1199tt.jpg","",""
"null","../img/gs/1199gs.jpg","null","reveal","image-keyboard-response","542","1655263","0.0-6.0-4.76","2851517","co38296","norming","","","","","","",""
"null","../img/tt/1199tt.jpg","null","mooney2","image-keyboard-response","543","1657272","0.0-6.0-5.76","2851517","co38296","norming","","","","","","",""
"2252.0000000004657","","","post_reveal_questions","survey-likert","544","1659526","0.0-6.0-6.76","2851517","co38296","norming","","","{""aha"":5}","[0]","../img/tt/1199tt.jpg","",""
"null","<div style=""font-size:60px;""> </div>","null","fixation","html-keyboard-response","545","1659736","0.0-6.0-0.77","2851517","co38296","norming","","","","","","",""
"null","../img/tt/357tt.jpg","null","mooney1","image-keyboard-response","546","1662740","0.0-6.0-1.77","2851517","co38296","norming","","","","","","",""
"3008.384999999078","","","post_mooney1_questions","survey-likert","547","1665750","0.0-6.0-2.77","2851517","co38296","norming","","","{""curiosity"":4,""confidence"":2}","[0,1]","../img/tt/357tt.jpg","",""
"2462.1549999993294","","","recognition","survey-text","548","1668214","0.0-6.0-3.77","2851517","co38296","norming","","","{""guess"":""kat""}","","../img/tt/357tt.jpg","",""
"null","../img/gs/357gs.jpg","null","reveal","image-keyboard-response","549","1670216","0.0-6.0-4.77","2851517","co38296","norming","","","","","","",""
"null","../img/tt/357tt.jpg","null","mooney2","image-keyboard-response","550","1672218","0.0-6.0-5.77","2851517","co38296","norming","","","","","","",""
"2002.4650000014808","","","post_reveal_questions","survey-likert","551","1674222","0.0-6.0-6.77","2851517","co38296","norming","","","{""aha"":1}","[0]","../img/tt/357tt.jpg","",""
"null","<div style=""font-size:60px;""> </div>","null","fixation","html-keyboard-response","552","1674433","0.0-6.0-0.78","2851517","co38296","norming","","","","","","",""
