"rt","stimulus","key_press","test_part","trial_type","trial_index","time_elapsed","internal_node_id","totalTime","subject","experiment_name","button_pressed","success","responses","question_order","currentStim","old","correct"
"8391.390000000683","Welcome to the experiment. This is an online experiment so please don't close the tab/window until we say goodbye.  Press any key to begin.","32","instructions","html-keyboard-response","0","8402","0.0-0.0","2962023","co38605","norming","","","","","","",""
"67728.71500000019","<div style='word-wrap: break-word; width: 900px'><h3>Please consider this information carefully before deciding whether to participate in this research</h3><ul style='text-align: left; font-size: .8em;'><li><b>Purpose of the research</b>: To examine how people process images.</li><li><b>What you will do in this research</b>:  Stimuli (images) will be presented on the computer and you will be asked different questions about them.</li><li><b>Time required</b>: Participation will take between 45 and 60 minutes to complete.</li><li><b>Risks</b>:  There are no anticipated risks associated with participating in this study. The effects of participating should be comparable to those you would experience from viewing a computer monitor for 30 minutes and using a mouse or keyboard.</li><li><b>Benefits</b>:  This study provides no benefits to you individually except for the credit. The study provides important information about the nature of perception and learning.</li><li><b>Confidentiality</b>:  Your participation in this study will remain confidential. No personally identifiable information will be associated with your data. Your de-identified data may be shared with other researchers and used in future projects.</li><li><b>Participation and withdrawal</b>:  Your participation in this study is completely voluntary and you may refuse to participate or you may choose to withdraw at any time without penalty.</li><li><b>How to contact the researchers</b>: If you have questions or concerns about your participation or payment, or want to request a summary of research findings, please contact Sander Van de Cruys (KU Leuven), at sander.vandecruys@kuleuven.be.</li></ul><p>The nature and purpose of this research have been sufficiently explained and I agree to participate in this study.  I understand that I am free to withdraw at any time without incurring any penalty.</p><p>Please consent by clicking the button below to continue. Otherwise, please exit the study at this time.</p></div>","","instructions","html-button-response","1","76132","0.0-1.0","2962023","co38605","norming","0","","","","","",""
"","","","instructions","fullscreen","2","83428","0.0-2.0","2962023","co38605","norming","","true","","","","",""
"56716.879999999044","","","sona","survey-html-form","3","140142","0.0-3.0","2962023","co38605","norming","","","[{""name"":""sonaid"",""value"":""38605""},{""name"":""debrief"",""value"":""no""},{""name"":""datajoin"",""value"":""yes""}]","","","",""
"87134.65499999982","<div style='word-wrap: break-word; width: 900px'><h3>Instructions</h3><p>This experiment will have 3 parts. In the first part you will see a series of distorted images like the one below on the left. As you can see in the righthand image, the distorted images are derived from actual photographs. In what follows, you will <strong>briefly</strong> be presented with <strong>only</strong> the distorted image.</p> <div style='float: left; margin-right: 20px;'><img src='../img/018tt.jpg' height='250' width='250'></img></div><div style='float: right; margin-left: 20px;'><img src='../img/018gs.jpg' height='250' width='250'></img></div><p>Subsequently you will be asked a few questions about the image: One question on how <strong>curious</strong> you are about the solution and one on how <strong>confident</strong> you are that you know the solution.</p>Next, we ask you to make a guess on what is in the image. Note that it is OK to name just the <strong>basic level category</strong>. For example when you see a parrot in the image, 'parrot' will obviously be a correct answer but also correct is 'bird'. However, 'animal' will <strong>not</strong> be counted as a correct response. For the example above, 'rose' would be correct or 'flower', but not 'plant'. When soccer players are depicted, 'soccer', 'football', 'soccer players' will be correct, but not 'humans', 'outdoors', or 'sports'. You do not need to describe the image in full, just name the main object in it <strong>in one or two words</strong>. All images depict objects from one of the following broad level categories: animals, inanimate objects, plants, sports, vehicles, and food. Recognizing means knowing <strong>more</strong> than these broad labels for a given image. But we always encourage you to <strong>make a guess</strong> if you can. Note that you are allowed to use <strong>Dutch and English</strong> in your answers, whatever comes easiest for you.</p><p>Press any key to continue.</p></div>","32","instructions","html-keyboard-response","4","227280","0.0-4.0","2962023","co38605","norming","","","","","","",""
"12672.050000001036","<div style='word-wrap: break-word; width: 900px'><h3>Instructions</h3> <p>Next, the solution image will be revealed to you and you'll be asked to indicate how strong your <strong>aha-experience</strong> was after seeing the solution. This describes the positive feeling of the 'click' you sometimes experience, when the pieces of the 'puzzle' fall together and you suddenly have 'insight' in the image.</p><img src='aha.jpg' height='188' width='250'></img><p>Note that there are no right or wrong answers. We are interested in what <strong>you</strong> see in the image and how <strong>you</strong> feel about it.</p><p>Press any key to start the experiment.</p></div>","32","instructions","html-keyboard-response","5","239953","0.0-5.0","2962023","co38605","norming","","","","","","",""
"null","<div style=""font-size:60px;""> </div>","null","fixation","html-keyboard-response","6","240159","0.0-6.0-0.0","2962023","co38605","norming","","","","","","",""
"null","../img/tt/1107tt.jpg","null","mooney1","image-keyboard-response","7","243162","0.0-6.0-1.0","2962023","co38605","norming","","","","","","",""
"10306.539999999572","","","post_mooney1_questions","survey-likert","8","253473","0.0-6.0-2.0","2962023","co38605","norming","","","{""curiosity"":4,""confidence"":4}","[0,1]","../img/tt/1107tt.jpg","",""
"5733.54499999914","","","recognition","survey-text","9","259208","0.0-6.0-3.0","2962023","co38605","norming","","","{""guess"":""vogel""}","","../img/tt/1107tt.jpg","",""
"null","../img/gs/1107gs.jpg","null","reveal","image-keyboard-response","10","261211","0.0-6.0-4.0","2962023","co38605","norming","","","","","","",""
"null","../img/tt/1107tt.jpg","null","mooney2","image-keyboard-response","11","263222","0.0-6.0-5.0","2962023","co38605","norming","","","","","","",""
"5127.899999999499","","","post_reveal_questions","survey-likert","12","268352","0.0-6.0-6.0","2962023","co38605","norming","","","{""aha"":5}","[0]","../img/tt/1107tt.jpg","",""
"null","<div style=""font-size:60px;""> </div>","null","fixation","html-keyboard-response","13","268562","0.0-6.0-0.1","2962023","co38605","norming","","","","","","",""
"null","../img/tt/580tt.jpg","null","mooney1","image-keyboard-response","14","271564","0.0-6.0-1.1","2962023","co38605","norming","","","","","","",""
"5938.6300000005285","","","post_mooney1_questions","survey-likert","15","277505","0.0-6.0-2.1","2962023","co38605","norming","","","{""curiosity"":3,""confidence"":1}","[0,1]","../img/tt/580tt.jpg","",""
"3558.0300000001444","","","recognition","survey-text","16","281064","0.0-6.0-3.1","2962023","co38605","norming","","","{""guess"":""koala""}","","../img/tt/580tt.jpg","",""
"null","../img/gs/580gs.jpg","null","reveal","image-keyboard-response","17","283070","0.0-6.0-4.1","2962023","co38605","norming","","","","","","",""
"null","../img/tt/580tt.jpg","null","mooney2","image-keyboard-response","18","285073","0.0-6.0-5.1","2962023","co38605","norming","","","","","","",""
"1685.075000001234","","","post_reveal_questions","survey-likert","19","286760","0.0-6.0-6.1","2962023","co38605","norming","","","{""aha"":4}","[0]","../img/tt/580tt.jpg","",""
"null","<div style=""font-size:60px;""> </div>","null","fixation","html-keyboard-response","20","286962","0.0-6.0-0.2","2962023","co38605","norming","","","","","","",""
"null","../img/tt/442tt.jpg","null","mooney1","image-keyboard-response","21","289974","0.0-6.0-1.2","2962023","co38605","norming","","","","","","",""
"9479.955000000657","","","post_mooney1_questions","survey-likert","22","299457","0.0-6.0-2.2","2962023","co38605","norming","","","{""curiosity"":6,""confidence"":2}","[0,1]","../img/tt/442tt.jpg","",""
"4854.134999999544","","","recognition","survey-text","23","304313","0.0-6.0-3.2","2962023","co38605","norming","","","{""guess"":""bananen""}","","../img/tt/442tt.jpg","",""
"null","../img/gs/442gs.jpg","null","reveal","image-keyboard-response","24","306319","0.0-6.0-4.2","2962023","co38605","norming","","","","","","",""
"null","../img/tt/442tt.jpg","null","mooney2","image-keyboard-response","25","308330","0.0-6.0-5.2","2962023","co38605","norming","","","","","","",""
"3140.625","","","post_reveal_questions","survey-likert","26","311473","0.0-6.0-6.2","2962023","co38605","norming","","","{""aha"":6}","[0]","../img/tt/442tt.jpg","",""
"null","<div style=""font-size:60px;""> </div>","null","fixation","html-keyboard-response","27","311684","0.0-6.0-0.3","2962023","co38605","norming","","","","","","",""
"null","../img/tt/1199tt.jpg","null","mooney1","image-keyboard-response","28","314692","0.0-6.0-1.3","2962023","co38605","norming","","","","","","",""
"6732.149999999849","","","post_mooney1_questions","survey-likert","29","321425","0.0-6.0-2.3","2962023","co38605","norming","","","{""curiosity"":1,""confidence"":6}","[0,1]","../img/tt/1199tt.jpg","",""
"5454.115000000456","","","recognition","survey-text","30","326881","0.0-6.0-3.3","2962023","co38605","norming","","","{""guess"":""mens""}","","../img/tt/1199tt.jpg","",""
"null","../img/gs/1199gs.jpg","null","reveal","image-keyboard-response","31","328885","0.0-6.0-4.3","2962023","co38605","norming","","","","","","",""
"null","../img/tt/1199tt.jpg","null","mooney2","image-keyboard-response","32","330893","0.0-6.0-5.3","2962023","co38605","norming","","","","","","",""
"3330.140000000072","","","post_reveal_questions","survey-likert","33","334225","0.0-6.0-6.3","2962023","co38605","norming","","","{""aha"":4}","[0]","../img/tt/1199tt.jpg","",""
"null","<div style=""font-size:60px;""> </div>","null","fixation","html-keyboard-response","34","334428","0.0-6.0-0.4","2962023","co38605","norming","","","","","","",""
"null","../img/tt/1044tt.jpg","null","mooney1","image-keyboard-response","35","337439","0.0-6.0-1.4","2962023","co38605","norming","","","","","","",""
"6438.765000000771","","","post_mooney1_questions","survey-likert","36","343881","0.0-6.0-2.4","2962023","co38605","norming","","","{""curiosity"":5,""confidence"":0}","[0,1]","../img/tt/1044tt.jpg","",""
"2861.5399999998626","","","recognition","survey-text","37","346745","0.0-6.0-3.4","2962023","co38605","norming","","","{""guess"":""""}","","../img/tt/1044tt.jpg","",""
"null","../img/gs/1044gs.jpg","null","reveal","image-keyboard-response","38","348751","0.0-6.0-4.4","2962023","co38605","norming","","","","","","",""
"null","../img/tt/1044tt.jpg","null","mooney2","image-keyboard-response","39","350758","0.0-6.0-5.4","2962023","co38605","norming","","","","","","",""
"1875.7999999998137","","","post_reveal_questions","survey-likert","40","352634","0.0-6.0-6.4","2962023","co38605","norming","","","{""aha"":6}","[0]","../img/tt/1044tt.jpg","",""
"null","<div style=""font-size:60px;""> </div>","null","fixation","html-keyboard-response","41","352843","0.0-6.0-0.5","2962023","co38605","norming","","","","","","",""
"null","../img/tt/456tt.jpg","null","mooney1","image-keyboard-response","42","355855","0.0-6.0-1.5","2962023","co38605","norming","","","","","","",""
"6026.0650000000605","","","post_mooney1_questions","survey-likert","43","361882","0.0-6.0-2.5","2962023","co38605","norming","","","{""curiosity"":3,""confidence"":3}","[0,1]","../img/tt/456tt.jpg","",""
"3966.120000000985","","","recognition","survey-text","44","365850","0.0-6.0-3.5","2962023","co38605","norming","","","{""guess"":""schoen""}","","../img/tt/456tt.jpg","",""
"null","../img/gs/456gs.jpg","null","reveal","image-keyboard-response","45","367853","0.0-6.0-4.5","2962023","co38605","norming","","","","","","",""
"null","../img/tt/456tt.jpg","null","mooney2","image-keyboard-response","46","369859","0.0-6.0-5.5","2962023","co38605","norming","","","","","","",""
"2332.68500000122","","","post_reveal_questions","survey-likert","47","372194","0.0-6.0-6.5","2962023","co38605","norming","","","{""aha"":5}","[0]","../img/tt/456tt.jpg","",""
"null","<div style=""font-size:60px;""> </div>","null","fixation","html-keyboard-response","48","372398","0.0-6.0-0.6","2962023","co38605","norming","","","","","","",""
"null","../img/tt/1040tt.jpg","null","mooney1","image-keyboard-response","49","375406","0.0-6.0-1.6","2962023","co38605","norming","","","","","","",""
"5273.344999999623","","","post_mooney1_questions","survey-likert","50","380682","0.0-6.0-2.6","2962023","co38605","norming","","","{""curiosity"":2,""confidence"":6}","[0,1]","../img/tt/1040tt.jpg","",""
"4726.369999998482","","","recognition","survey-text","51","385410","0.0-6.0-3.6","2962023","co38605","norming","","","{""guess"":""krokodil""}","","../img/tt/1040tt.jpg","",""
"null","../img/gs/1040gs.jpg","null","reveal","image-keyboard-response","52","387412","0.0-6.0-4.6","2962023","co38605","norming","","","","","","",""
"null","../img/tt/1040tt.jpg","null","mooney2","image-keyboard-response","53","389423","0.0-6.0-5.6","2962023","co38605","norming","","","","","","",""
"2480.615000000398","","","post_reveal_questions","survey-likert","54","391906","0.0-6.0-6.6","2962023","co38605","norming","","","{""aha"":6}","[0]","../img/tt/1040tt.jpg","",""
"null","<div style=""font-size:60px;""> </div>","null","fixation","html-keyboard-response","55","392117","0.0-6.0-0.7","2962023","co38605","norming","","","","","","",""
"null","../img/tt/468tt.jpg","null","mooney1","image-keyboard-response","56","395128","0.0-6.0-1.7","2962023","co38605","norming","","","","","","",""
"4991.529999999329","","","post_mooney1_questions","survey-likert","57","400122","0.0-6.0-2.7","2962023","co38605","norming","","","{""curiosity"":0,""confidence"":6}","[0,1]","../img/tt/468tt.jpg","",""
"3997.849999999744","","","recognition","survey-text","58","404122","0.0-6.0-3.7","2962023","co38605","norming","","","{""guess"":""viool""}","","../img/tt/468tt.jpg","",""
"null","../img/gs/468gs.jpg","null","reveal","image-keyboard-response","59","406124","0.0-6.0-4.7","2962023","co38605","norming","","","","","","",""
"null","../img/tt/468tt.jpg","null","mooney2","image-keyboard-response","60","408134","0.0-6.0-5.7","2962023","co38605","norming","","","","","","",""
"2491.5099999998347","","","post_reveal_questions","survey-likert","61","410626","0.0-6.0-6.7","2962023","co38605","norming","","","{""aha"":0}","[0]","../img/tt/468tt.jpg","",""
"null","<div style=""font-size:60px;""> </div>","null","fixation","html-keyboard-response","62","410838","0.0-6.0-0.8","2962023","co38605","norming","","","","","","",""
"null","../img/tt/1250tt.jpg","null","mooney1","image-keyboard-response","63","413842","0.0-6.0-1.8","2962023","co38605","norming","","","","","","",""
"5798.8100000002305","","","post_mooney1_questions","survey-likert","64","419643","0.0-6.0-2.8","2962023","co38605","norming","","","{""curiosity"":6,""confidence"":1}","[0,1]","../img/tt/1250tt.jpg","",""
"3741.640000000247","","","recognition","survey-text","65","423386","0.0-6.0-3.8","2962023","co38605","norming","","","{""guess"":""dier""}","","../img/tt/1250tt.jpg","",""
"null","../img/gs/1250gs.jpg","null","reveal","image-keyboard-response","66","425389","0.0-6.0-4.8","2962023","co38605","norming","","","","","","",""
"null","../img/tt/1250tt.jpg","null","mooney2","image-keyboard-response","67","427399","0.0-6.0-5.8","2962023","co38605","norming","","","","","","",""
"2361.5150000004796","","","post_reveal_questions","survey-likert","68","429763","0.0-6.0-6.8","2962023","co38605","norming","","","{""aha"":1}","[0]","../img/tt/1250tt.jpg","",""
"null","<div style=""font-size:60px;""> </div>","null","fixation","html-keyboard-response","69","429964","0.0-6.0-0.9","2962023","co38605","norming","","","","","","",""
"null","../img/tt/1148tt.jpg","null","mooney1","image-keyboard-response","70","432970","0.0-6.0-1.9","2962023","co38605","norming","","","","","","",""
"4200.08500000037","","","post_mooney1_questions","survey-likert","71","437171","0.0-6.0-2.9","2962023","co38605","norming","","","{""curiosity"":6,""confidence"":1}","[0,1]","../img/tt/1148tt.jpg","",""
"3853.8100000005215","","","recognition","survey-text","72","441027","0.0-6.0-3.9","2962023","co38605","norming","","","{""guess"":""vlinder""}","","../img/tt/1148tt.jpg","",""
"null","../img/gs/1148gs.jpg","null","reveal","image-keyboard-response","73","443028","0.0-6.0-4.9","2962023","co38605","norming","","","","","","",""
"null","../img/tt/1148tt.jpg","null","mooney2","image-keyboard-response","74","445030","0.0-6.0-5.9","2962023","co38605","norming","","","","","","",""
"2594.4999999992433","","","post_reveal_questions","survey-likert","75","447627","0.0-6.0-6.9","2962023","co38605","norming","","","{""aha"":6}","[0]","../img/tt/1148tt.jpg","",""
"null","<div style=""font-size:60px;""> </div>","null","fixation","html-keyboard-response","76","447831","0.0-6.0-0.10","2962023","co38605","norming","","","","","","",""
"null","../img/tt/380tt.jpg","null","mooney1","image-keyboard-response","77","450842","0.0-6.0-1.10","2962023","co38605","norming","","","","","","",""
"4102.509999998787","","","post_mooney1_questions","survey-likert","78","454947","0.0-6.0-2.10","2962023","co38605","norming","","","{""curiosity"":6,""confidence"":3}","[0,1]","../img/tt/380tt.jpg","",""
"3053.1649999993388","","","recognition","survey-text","79","458003","0.0-6.0-3.10","2962023","co38605","norming","","","{""guess"":""kat""}","","../img/tt/380tt.jpg","",""
"null","../img/gs/380gs.jpg","null","reveal","image-keyboard-response","80","460009","0.0-6.0-4.10","2962023","co38605","norming","","","","","","",""
"null","../img/tt/380tt.jpg","null","mooney2","image-keyboard-response","81","462010","0.0-6.0-5.10","2962023","co38605","norming","","","","","","",""
"1686.6350000000093","","","post_reveal_questions","survey-likert","82","463699","0.0-6.0-6.10","2962023","co38605","norming","","","{""aha"":6}","[0]","../img/tt/380tt.jpg","",""
"null","<div style=""font-size:60px;""> </div>","null","fixation","html-keyboard-response","83","463900","0.0-6.0-0.11","2962023","co38605","norming","","","","","","",""
"null","../img/tt/096tt.jpg","null","mooney1","image-keyboard-response","84","466903","0.0-6.0-1.11","2962023","co38605","norming","","","","","","",""
"3865.4950000000536","","","post_mooney1_questions","survey-likert","85","470771","0.0-6.0-2.11","2962023","co38605","norming","","","{""curiosity"":0,""confidence"":6}","[0,1]","../img/tt/096tt.jpg","",""
"4854.154999999038","","","recognition","survey-text","86","475620","0.0-6.0-3.11","2962023","co38605","norming","","","{""guess"":""piano""}","","../img/tt/096tt.jpg","",""
"null","../img/gs/096gs.jpg","null","reveal","image-keyboard-response","87","477622","0.0-6.0-4.11","2962023","co38605","norming","","","","","","",""
"null","../img/tt/096tt.jpg","null","mooney2","image-keyboard-response","88","479629","0.0-6.0-5.11","2962023","co38605","norming","","","","","","",""
"2684.8049999989453","","","post_reveal_questions","survey-likert","89","482316","0.0-6.0-6.11","2962023","co38605","norming","","","{""aha"":0}","[0]","../img/tt/096tt.jpg","",""
"null","<div style=""font-size:60px;""> </div>","null","fixation","html-keyboard-response","90","482521","0.0-6.0-0.12","2962023","co38605","norming","","","","","","",""
"null","../img/tt/085tt.jpg","null","mooney1","image-keyboard-response","91","485528","0.0-6.0-1.12","2962023","co38605","norming","","","","","","",""
"5025.735000001034","","","post_mooney1_questions","survey-likert","92","490556","0.0-6.0-2.12","2962023","co38605","norming","","","{""curiosity"":2,""confidence"":6}","[0,1]","../img/tt/085tt.jpg","",""
"4182.02999999997","","","recognition","survey-text","93","494740","0.0-6.0-3.12","2962023","co38605","norming","","","{""guess"":""vrouw""}","","../img/tt/085tt.jpg","",""
"null","../img/gs/085gs.jpg","null","reveal","image-keyboard-response","94","496741","0.0-6.0-4.12","2962023","co38605","norming","","","","","","",""
"null","../img/tt/085tt.jpg","null","mooney2","image-keyboard-response","95","498750","0.0-6.0-5.12","2962023","co38605","norming","","","","","","",""
"1932.624999999418","","","post_reveal_questions","survey-likert","96","500684","0.0-6.0-6.12","2962023","co38605","norming","","","{""aha"":6}","[0]","../img/tt/085tt.jpg","",""
"null","<div style=""font-size:60px;""> </div>","null","fixation","html-keyboard-response","97","500888","0.0-6.0-0.13","2962023","co38605","norming","","","","","","",""
"null","../img/tt/406tt.jpg","null","mooney1","image-keyboard-response","98","503899","0.0-6.0-1.13","2962023","co38605","norming","","","","","","",""
"4839.019999999437","","","post_mooney1_questions","survey-likert","99","508740","0.0-6.0-2.13","2962023","co38605","norming","","","{""curiosity"":6,""confidence"":0}","[0,1]","../img/tt/406tt.jpg","",""
"726.090000000142","","","recognition","survey-text","100","509468","0.0-6.0-3.13","2962023","co38605","norming","","","{""guess"":""""}","","../img/tt/406tt.jpg","",""
"null","../img/gs/406gs.jpg","null","reveal","image-keyboard-response","101","511473","0.0-6.0-4.13","2962023","co38605","norming","","","","","","",""
"null","../img/tt/406tt.jpg","null","mooney2","image-keyboard-response","102","513475","0.0-6.0-5.13","2962023","co38605","norming","","","","","","",""
"3174.7200000009034","","","post_reveal_questions","survey-likert","103","516652","0.0-6.0-6.13","2962023","co38605","norming","","","{""aha"":6}","[0]","../img/tt/406tt.jpg","",""
"null","<div style=""font-size:60px;""> </div>","null","fixation","html-keyboard-response","104","516862","0.0-6.0-0.14","2962023","co38605","norming","","","","","","",""
"null","../img/tt/1211tt.jpg","null","mooney1","image-keyboard-response","105","519870","0.0-6.0-1.14","2962023","co38605","norming","","","","","","",""
"5882.985000000219","","","post_mooney1_questions","survey-likert","106","525756","0.0-6.0-2.14","2962023","co38605","norming","","","{""curiosity"":5,""confidence"":1}","[0,1]","../img/tt/1211tt.jpg","",""
"4838.259999998612","","","recognition","survey-text","107","530596","0.0-6.0-3.14","2962023","co38605","norming","","","{""guess"":""waterval""}","","../img/tt/1211tt.jpg","",""
"null","../img/gs/1211gs.jpg","null","reveal","image-keyboard-response","108","532610","0.0-6.0-4.14","2962023","co38605","norming","","","","","","",""
"null","../img/tt/1211tt.jpg","null","mooney2","image-keyboard-response","109","534616","0.0-6.0-5.14","2962023","co38605","norming","","","","","","",""
"1681.6349999989616","","","post_reveal_questions","survey-likert","110","536300","0.0-6.0-6.14","2962023","co38605","norming","","","{""aha"":6}","[0]","../img/tt/1211tt.jpg","",""
"null","<div style=""font-size:60px;""> </div>","null","fixation","html-keyboard-response","111","536503","0.0-6.0-0.15","2962023","co38605","norming","","","","","","",""
"null","../img/tt/1063tt.jpg","null","mooney1","image-keyboard-response","112","539511","0.0-6.0-1.15","2962023","co38605","norming","","","","","","",""
"4826.114999999874","","","post_mooney1_questions","survey-likert","113","544340","0.0-6.0-2.15","2962023","co38605","norming","","","{""curiosity"":3,""confidence"":3}","[0,1]","../img/tt/1063tt.jpg","",""
"2926.2049999997253","","","recognition","survey-text","114","547268","0.0-6.0-3.15","2962023","co38605","norming","","","{""guess"":""paard""}","","../img/tt/1063tt.jpg","",""
"null","../img/gs/1063gs.jpg","null","reveal","image-keyboard-response","115","549269","0.0-6.0-4.15","2962023","co38605","norming","","","","","","",""
"null","../img/tt/1063tt.jpg","null","mooney2","image-keyboard-response","116","551271","0.0-6.0-5.15","2962023","co38605","norming","","","","","","",""
"2282.4599999985658","","","post_reveal_questions","survey-likert","117","553556","0.0-6.0-6.15","2962023","co38605","norming","","","{""aha"":0}","[0]","../img/tt/1063tt.jpg","",""
"null","<div style=""font-size:60px;""> </div>","null","fixation","html-keyboard-response","118","553760","0.0-6.0-0.16","2962023","co38605","norming","","","","","","",""
"null","../img/tt/435tt.jpg","null","mooney1","image-keyboard-response","119","556770","0.0-6.0-1.16","2962023","co38605","norming","","","","","","",""
"5225.444999998203","","","post_mooney1_questions","survey-likert","120","561996","0.0-6.0-2.16","2962023","co38605","norming","","","{""curiosity"":3,""confidence"":4}","[0,1]","../img/tt/435tt.jpg","",""
"11038.200000000768","","","recognition","survey-text","121","573036","0.0-6.0-3.16","2962023","co38605","norming","","","{""guess"":""schrijfveer""}","","../img/tt/435tt.jpg","",""
"null","../img/gs/435gs.jpg","null","reveal","image-keyboard-response","122","575045","0.0-6.0-4.16","2962023","co38605","norming","","","","","","",""
"null","../img/tt/435tt.jpg","null","mooney2","image-keyboard-response","123","577051","0.0-6.0-5.16","2962023","co38605","norming","","","","","","",""
"2926.525000000722","","","post_reveal_questions","survey-likert","124","579980","0.0-6.0-6.16","2962023","co38605","norming","","","{""aha"":5}","[0]","../img/tt/435tt.jpg","",""
"null","<div style=""font-size:60px;""> </div>","null","fixation","html-keyboard-response","125","580187","0.0-6.0-0.17","2962023","co38605","norming","","","","","","",""
"null","../img/tt/1072tt.jpg","null","mooney1","image-keyboard-response","126","583193","0.0-6.0-1.17","2962023","co38605","norming","","","","","","",""
"4576.370000000577","","","post_mooney1_questions","survey-likert","127","587772","0.0-6.0-2.17","2962023","co38605","norming","","","{""curiosity"":2,""confidence"":5}","[0,1]","../img/tt/1072tt.jpg","",""
"2822.3150000012247","","","recognition","survey-text","128","590596","0.0-6.0-3.17","2962023","co38605","norming","","","{""guess"":""panda""}","","../img/tt/1072tt.jpg","",""
"null","../img/gs/1072gs.jpg","null","reveal","image-keyboard-response","129","592602","0.0-6.0-4.17","2962023","co38605","norming","","","","","","",""
"null","../img/tt/1072tt.jpg","null","mooney2","image-keyboard-response","130","594613","0.0-6.0-5.17","2962023","co38605","norming","","","","","","",""
"9613.320000000414","","","post_reveal_questions","survey-likert","131","604228","0.0-6.0-6.17","2962023","co38605","norming","","","{""aha"":4}","[0]","../img/tt/1072tt.jpg","",""
"null","<div style=""font-size:60px;""> </div>","null","fixation","html-keyboard-response","132","604434","0.0-6.0-0.18","2962023","co38605","norming","","","","","","",""
"null","../img/tt/1307tt.jpg","null","mooney1","image-keyboard-response","133","607438","0.0-6.0-1.18","2962023","co38605","norming","","","","","","",""
"4867.710000000428","","","post_mooney1_questions","survey-likert","134","612308","0.0-6.0-2.18","2962023","co38605","norming","","","{""curiosity"":5,""confidence"":2}","[0,1]","../img/tt/1307tt.jpg","",""
"4926.069999999483","","","recognition","survey-text","135","617236","0.0-6.0-3.18","2962023","co38605","norming","","","{""guess"":""vlinder""}","","../img/tt/1307tt.jpg","",""
"null","../img/gs/1307gs.jpg","null","reveal","image-keyboard-response","136","619237","0.0-6.0-4.18","2962023","co38605","norming","","","","","","",""
"null","../img/tt/1307tt.jpg","null","mooney2","image-keyboard-response","137","621240","0.0-6.0-5.18","2962023","co38605","norming","","","","","","",""
"3107.5799999998417","","","post_reveal_questions","survey-likert","138","624348","0.0-6.0-6.18","2962023","co38605","norming","","","{""aha"":6}","[0]","../img/tt/1307tt.jpg","",""
"null","<div style=""font-size:60px;""> </div>","null","fixation","html-keyboard-response","139","624552","0.0-6.0-0.19","2962023","co38605","norming","","","","","","",""
"null","../img/tt/036tt.jpg","null","mooney1","image-keyboard-response","140","627559","0.0-6.0-1.19","2962023","co38605","norming","","","","","","",""
"4970.6600000008475","","","post_mooney1_questions","survey-likert","141","632532","0.0-6.0-2.19","2962023","co38605","norming","","","{""curiosity"":5,""confidence"":5}","[0,1]","../img/tt/036tt.jpg","",""
"5286.0399999989895","","","recognition","survey-text","142","637820","0.0-6.0-3.19","2962023","co38605","norming","","","{""guess"":""spinnenweb""}","","../img/tt/036tt.jpg","",""
"null","../img/gs/036gs.jpg","null","reveal","image-keyboard-response","143","639822","0.0-6.0-4.19","2962023","co38605","norming","","","","","","",""
"null","../img/tt/036tt.jpg","null","mooney2","image-keyboard-response","144","641824","0.0-6.0-5.19","2962023","co38605","norming","","","","","","",""
"2081.909999998985","","","post_reveal_questions","survey-likert","145","643908","0.0-6.0-6.19","2962023","co38605","norming","","","{""aha"":5}","[0]","../img/tt/036tt.jpg","",""
"null","<div style=""font-size:60px;""> </div>","null","fixation","html-keyboard-response","146","644114","0.0-6.0-0.20","2962023","co38605","norming","","","","","","",""
"null","../img/tt/1066tt.jpg","null","mooney1","image-keyboard-response","147","647125","0.0-6.0-1.20","2962023","co38605","norming","","","","","","",""
"4516.775000000023","","","post_mooney1_questions","survey-likert","148","651644","0.0-6.0-2.20","2962023","co38605","norming","","","{""curiosity"":0,""confidence"":6}","[0,1]","../img/tt/1066tt.jpg","",""
"2542.195000000065","","","recognition","survey-text","149","654187","0.0-6.0-3.20","2962023","co38605","norming","","","{""guess"":""bus""}","","../img/tt/1066tt.jpg","",""
"null","../img/gs/1066gs.jpg","null","reveal","image-keyboard-response","150","656194","0.0-6.0-4.20","2962023","co38605","norming","","","","","","",""
"null","../img/tt/1066tt.jpg","null","mooney2","image-keyboard-response","151","658194","0.0-6.0-5.20","2962023","co38605","norming","","","","","","",""
"3135.8450000006706","","","post_reveal_questions","survey-likert","152","661331","0.0-6.0-6.20","2962023","co38605","norming","","","{""aha"":0}","[0]","../img/tt/1066tt.jpg","",""
"null","<div style=""font-size:60px;""> </div>","null","fixation","html-keyboard-response","153","661535","0.0-6.0-0.21","2962023","co38605","norming","","","","","","",""
"null","../img/tt/1043tt.jpg","null","mooney1","image-keyboard-response","154","664542","0.0-6.0-1.21","2962023","co38605","norming","","","","","","",""
"4691.025000000023","","","post_mooney1_questions","survey-likert","155","669235","0.0-6.0-2.21","2962023","co38605","norming","","","{""curiosity"":6,""confidence"":0}","[0,1]","../img/tt/1043tt.jpg","",""
"910.4000000007218","","","recognition","survey-text","156","670147","0.0-6.0-3.21","2962023","co38605","norming","","","{""guess"":""""}","","../img/tt/1043tt.jpg","",""
"null","../img/gs/1043gs.jpg","null","reveal","image-keyboard-response","157","672156","0.0-6.0-4.21","2962023","co38605","norming","","","","","","",""
"null","../img/tt/1043tt.jpg","null","mooney2","image-keyboard-response","158","674168","0.0-6.0-5.21","2962023","co38605","norming","","","","","","",""
"1744.7699999993201","","","post_reveal_questions","survey-likert","159","675915","0.0-6.0-6.21","2962023","co38605","norming","","","{""aha"":6}","[0]","../img/tt/1043tt.jpg","",""
"null","<div style=""font-size:60px;""> </div>","null","fixation","html-keyboard-response","160","676116","0.0-6.0-0.22","2962023","co38605","norming","","","","","","",""
"null","../img/tt/306tt.jpg","null","mooney1","image-keyboard-response","161","679124","0.0-6.0-1.22","2962023","co38605","norming","","","","","","",""
"5260.350000000442","","","post_mooney1_questions","survey-likert","162","684387","0.0-6.0-2.22","2962023","co38605","norming","","","{""curiosity"":6,""confidence"":1}","[0,1]","../img/tt/306tt.jpg","",""
"8133.95499999926","","","recognition","survey-text","163","692523","0.0-6.0-3.22","2962023","co38605","norming","","","{""guess"":""prijskaartje""}","","../img/tt/306tt.jpg","",""
"null","../img/gs/306gs.jpg","null","reveal","image-keyboard-response","164","694524","0.0-6.0-4.22","2962023","co38605","norming","","","","","","",""
"null","../img/tt/306tt.jpg","null","mooney2","image-keyboard-response","165","696528","0.0-6.0-5.22","2962023","co38605","norming","","","","","","",""
"2769.920000000624","","","post_reveal_questions","survey-likert","166","699299","0.0-6.0-6.22","2962023","co38605","norming","","","{""aha"":6}","[0]","../img/tt/306tt.jpg","",""
"null","<div style=""font-size:60px;""> </div>","null","fixation","html-keyboard-response","167","699504","0.0-6.0-0.23","2962023","co38605","norming","","","","","","",""
"null","../img/tt/105tt.jpg","null","mooney1","image-keyboard-response","168","702513","0.0-6.0-1.23","2962023","co38605","norming","","","","","","",""
"5142.640000000014","","","post_mooney1_questions","survey-likert","169","707659","0.0-6.0-2.23","2962023","co38605","norming","","","{""curiosity"":4,""confidence"":4}","[0,1]","../img/tt/105tt.jpg","",""
"4077.6900000000605","","","recognition","survey-text","170","711739","0.0-6.0-3.23","2962023","co38605","norming","","","{""guess"":""ketting""}","","../img/tt/105tt.jpg","",""
"null","../img/gs/105gs.jpg","null","reveal","image-keyboard-response","171","713752","0.0-6.0-4.23","2962023","co38605","norming","","","","","","",""
"null","../img/tt/105tt.jpg","null","mooney2","image-keyboard-response","172","715762","0.0-6.0-5.23","2962023","co38605","norming","","","","","","",""
"3095.5599999997066","","","post_reveal_questions","survey-likert","173","718862","0.0-6.0-6.23","2962023","co38605","norming","","","{""aha"":3}","[0]","../img/tt/105tt.jpg","",""
"null","<div style=""font-size:60px;""> </div>","null","fixation","html-keyboard-response","174","719069","0.0-6.0-0.24","2962023","co38605","norming","","","","","","",""
"null","../img/tt/064tt.jpg","null","mooney1","image-keyboard-response","175","722079","0.0-6.0-1.24","2962023","co38605","norming","","","","","","",""
"6515.685000000289","","","post_mooney1_questions","survey-likert","176","728598","0.0-6.0-2.24","2962023","co38605","norming","","","{""curiosity"":6,""confidence"":0}","[0,1]","../img/tt/064tt.jpg","",""
"926.1000000005588","","","recognition","survey-text","177","729525","0.0-6.0-3.24","2962023","co38605","norming","","","{""guess"":""""}","","../img/tt/064tt.jpg","",""
"null","../img/gs/064gs.jpg","null","reveal","image-keyboard-response","178","731532","0.0-6.0-4.24","2962023","co38605","norming","","","","","","",""
"null","../img/tt/064tt.jpg","null","mooney2","image-keyboard-response","179","733534","0.0-6.0-5.24","2962023","co38605","norming","","","","","","",""
"1942.1700000002747","","","post_reveal_questions","survey-likert","180","735478","0.0-6.0-6.24","2962023","co38605","norming","","","{""aha"":6}","[0]","../img/tt/064tt.jpg","",""
"null","<div style=""font-size:60px;""> </div>","null","fixation","html-keyboard-response","181","735684","0.0-6.0-0.25","2962023","co38605","norming","","","","","","",""
"null","../img/tt/1027tt.jpg","null","mooney1","image-keyboard-response","182","738691","0.0-6.0-1.25","2962023","co38605","norming","","","","","","",""
"4977.895000000019","","","post_mooney1_questions","survey-likert","183","743670","0.0-6.0-2.25","2962023","co38605","norming","","","{""curiosity"":3,""confidence"":4}","[0,1]","../img/tt/1027tt.jpg","",""
"2606.2099999999627","","","recognition","survey-text","184","746278","0.0-6.0-3.25","2962023","co38605","norming","","","{""guess"":""dier""}","","../img/tt/1027tt.jpg","",""
"null","../img/gs/1027gs.jpg","null","reveal","image-keyboard-response","185","748279","0.0-6.0-4.25","2962023","co38605","norming","","","","","","",""
"null","../img/tt/1027tt.jpg","null","mooney2","image-keyboard-response","186","750281","0.0-6.0-5.25","2962023","co38605","norming","","","","","","",""
"2457.5899999999674","","","post_reveal_questions","survey-likert","187","752741","0.0-6.0-6.25","2962023","co38605","norming","","","{""aha"":5}","[0]","../img/tt/1027tt.jpg","",""
"null","<div style=""font-size:60px;""> </div>","null","fixation","html-keyboard-response","188","752950","0.0-6.0-0.26","2962023","co38605","norming","","","","","","",""
"null","../img/tt/194tt.jpg","null","mooney1","image-keyboard-response","189","755960","0.0-6.0-1.26","2962023","co38605","norming","","","","","","",""
"3986.369999998715","","","post_mooney1_questions","survey-likert","190","759950","0.0-6.0-2.26","2962023","co38605","norming","","","{""curiosity"":0,""confidence"":6}","[0,1]","../img/tt/194tt.jpg","",""
"3798.0299999999115","","","recognition","survey-text","191","763749","0.0-6.0-3.26","2962023","co38605","norming","","","{""guess"":""harp""}","","../img/tt/194tt.jpg","",""
"null","../img/gs/194gs.jpg","null","reveal","image-keyboard-response","192","765754","0.0-6.0-4.26","2962023","co38605","norming","","","","","","",""
"null","../img/tt/194tt.jpg","null","mooney2","image-keyboard-response","193","767761","0.0-6.0-5.26","2962023","co38605","norming","","","","","","",""
"3283.8700000011595","","","post_reveal_questions","survey-likert","194","771046","0.0-6.0-6.26","2962023","co38605","norming","","","{""aha"":0}","[0]","../img/tt/194tt.jpg","",""
"null","<div style=""font-size:60px;""> </div>","null","fixation","html-keyboard-response","195","771249","0.0-6.0-0.27","2962023","co38605","norming","","","","","","",""
"null","../img/tt/1232tt.jpg","null","mooney1","image-keyboard-response","196","774254","0.0-6.0-1.27","2962023","co38605","norming","","","","","","",""
"4933.1199999997625","","","post_mooney1_questions","survey-likert","197","779190","0.0-6.0-2.27","2962023","co38605","norming","","","{""curiosity"":0,""confidence"":6}","[0,1]","../img/tt/1232tt.jpg","",""
"4646.04499999946","","","recognition","survey-text","198","783838","0.0-6.0-3.27","2962023","co38605","norming","","","{""guess"":""schildpad""}","","../img/tt/1232tt.jpg","",""
"null","../img/gs/1232gs.jpg","null","reveal","image-keyboard-response","199","785839","0.0-6.0-4.27","2962023","co38605","norming","","","","","","",""
"null","../img/tt/1232tt.jpg","null","mooney2","image-keyboard-response","200","787848","0.0-6.0-5.27","2962023","co38605","norming","","","","","","",""
"2563.449999999604","","","post_reveal_questions","survey-likert","201","790414","0.0-6.0-6.27","2962023","co38605","norming","","","{""aha"":6}","[0]","../img/tt/1232tt.jpg","",""
"null","<div style=""font-size:60px;""> </div>","null","fixation","html-keyboard-response","202","790616","0.0-6.0-0.28","2962023","co38605","norming","","","","","","",""
"null","../img/tt/1254tt.jpg","null","mooney1","image-keyboard-response","203","793621","0.0-6.0-1.28","2962023","co38605","norming","","","","","","",""
"5702.025000000489","","","post_mooney1_questions","survey-likert","204","799326","0.0-6.0-2.28","2962023","co38605","norming","","","{""curiosity"":6,""confidence"":2}","[0,1]","../img/tt/1254tt.jpg","",""
"2357.985000000568","","","recognition","survey-text","205","801686","0.0-6.0-3.28","2962023","co38605","norming","","","{""guess"":""mens""}","","../img/tt/1254tt.jpg","",""
"null","../img/gs/1254gs.jpg","null","reveal","image-keyboard-response","206","803687","0.0-6.0-4.28","2962023","co38605","norming","","","","","","",""
"null","../img/tt/1254tt.jpg","null","mooney2","image-keyboard-response","207","805688","0.0-6.0-5.28","2962023","co38605","norming","","","","","","",""
"4163.234999999986","","","post_reveal_questions","survey-likert","208","809854","0.0-6.0-6.28","2962023","co38605","norming","","","{""aha"":5}","[0]","../img/tt/1254tt.jpg","",""
"null","<div style=""font-size:60px;""> </div>","null","fixation","html-keyboard-response","209","810056","0.0-6.0-0.29","2962023","co38605","norming","","","","","","",""
"null","../img/tt/481tt.jpg","null","mooney1","image-keyboard-response","210","813068","0.0-6.0-1.29","2962023","co38605","norming","","","","","","",""
"4567.039999999921","","","post_mooney1_questions","survey-likert","211","817638","0.0-6.0-2.29","2962023","co38605","norming","","","{""curiosity"":5,""confidence"":3}","[0,1]","../img/tt/481tt.jpg","",""
"4693.965000000317","","","recognition","survey-text","212","822334","0.0-6.0-3.29","2962023","co38605","norming","","","{""guess"":""dier""}","","../img/tt/481tt.jpg","",""
"null","../img/gs/481gs.jpg","null","reveal","image-keyboard-response","213","824342","0.0-6.0-4.29","2962023","co38605","norming","","","","","","",""
"null","../img/tt/481tt.jpg","null","mooney2","image-keyboard-response","214","826353","0.0-6.0-5.29","2962023","co38605","norming","","","","","","",""
"2498.4400000012247","","","post_reveal_questions","survey-likert","215","828854","0.0-6.0-6.29","2962023","co38605","norming","","","{""aha"":2}","[0]","../img/tt/481tt.jpg","",""
"null","<div style=""font-size:60px;""> </div>","null","fixation","html-keyboard-response","216","829062","0.0-6.0-0.30","2962023","co38605","norming","","","","","","",""
"null","../img/tt/008tt.jpg","null","mooney1","image-keyboard-response","217","832069","0.0-6.0-1.30","2962023","co38605","norming","","","","","","",""
"4288.19499999925","","","post_mooney1_questions","survey-likert","218","836354","0.0-6.0-2.30","2962023","co38605","norming","","","{""curiosity"":5,""confidence"":2}","[0,1]","../img/tt/008tt.jpg","",""
"3165.9550000004238","","","recognition","survey-text","219","839521","0.0-6.0-3.30","2962023","co38605","norming","","","{""guess"":""geweer""}","","../img/tt/008tt.jpg","",""
"null","../img/gs/008gs.jpg","null","reveal","image-keyboard-response","220","841529","0.0-6.0-4.30","2962023","co38605","norming","","","","","","",""
"null","../img/tt/008tt.jpg","null","mooney2","image-keyboard-response","221","843533","0.0-6.0-5.30","2962023","co38605","norming","","","","","","",""
"5425.855000001378","","","post_reveal_questions","survey-likert","222","848961","0.0-6.0-6.30","2962023","co38605","norming","","","{""aha"":2}","[0]","../img/tt/008tt.jpg","",""
"null","<div style=""font-size:60px;""> </div>","null","fixation","html-keyboard-response","223","849168","0.0-6.0-0.31","2962023","co38605","norming","","","","","","",""
"null","../img/tt/052tt.jpg","null","mooney1","image-keyboard-response","224","852169","0.0-6.0-1.31","2962023","co38605","norming","","","","","","",""
"5519.3149999994785","","","post_mooney1_questions","survey-likert","225","857690","0.0-6.0-2.31","2962023","co38605","norming","","","{""curiosity"":4,""confidence"":4}","[0,1]","../img/tt/052tt.jpg","",""
"5389.54999999993","","","recognition","survey-text","226","863081","0.0-6.0-3.31","2962023","co38605","norming","","","{""guess"":""tamboerijn""}","","../img/tt/052tt.jpg","",""
"null","../img/gs/052gs.jpg","null","reveal","image-keyboard-response","227","865084","0.0-6.0-4.31","2962023","co38605","norming","","","","","","",""
"null","../img/tt/052tt.jpg","null","mooney2","image-keyboard-response","228","867087","0.0-6.0-5.31","2962023","co38605","norming","","","","","","",""
"2024.094999998808","","","post_reveal_questions","survey-likert","229","869113","0.0-6.0-6.31","2962023","co38605","norming","","","{""aha"":4}","[0]","../img/tt/052tt.jpg","",""
"null","<div style=""font-size:60px;""> </div>","null","fixation","html-keyboard-response","230","869321","0.0-6.0-0.32","2962023","co38605","norming","","","","","","",""
"null","../img/tt/1161tt.jpg","null","mooney1","image-keyboard-response","231","872330","0.0-6.0-1.32","2962023","co38605","norming","","","","","","",""
"4102.159999998636","","","post_mooney1_questions","survey-likert","232","876433","0.0-6.0-2.32","2962023","co38605","norming","","","{""curiosity"":4,""confidence"":2}","[0,1]","../img/tt/1161tt.jpg","",""
"2598.379999999539","","","recognition","survey-text","233","879033","0.0-6.0-3.32","2962023","co38605","norming","","","{""guess"":""mens""}","","../img/tt/1161tt.jpg","",""
"null","../img/gs/1161gs.jpg","null","reveal","image-keyboard-response","234","881036","0.0-6.0-4.32","2962023","co38605","norming","","","","","","",""
"null","../img/tt/1161tt.jpg","null","mooney2","image-keyboard-response","235","883038","0.0-6.0-5.32","2962023","co38605","norming","","","","","","",""
"4337.159999999101","","","post_reveal_questions","survey-likert","236","887377","0.0-6.0-6.32","2962023","co38605","norming","","","{""aha"":4}","[0]","../img/tt/1161tt.jpg","",""
"null","<div style=""font-size:60px;""> </div>","null","fixation","html-keyboard-response","237","887584","0.0-6.0-0.33","2962023","co38605","norming","","","","","","",""
"null","../img/tt/1189tt.jpg","null","mooney1","image-keyboard-response","238","890595","0.0-6.0-1.33","2962023","co38605","norming","","","","","","",""
"4420.229999999632","","","post_mooney1_questions","survey-likert","239","895021","0.0-6.0-2.33","2962023","co38605","norming","","","{""curiosity"":6,""confidence"":0}","[0,1]","../img/tt/1189tt.jpg","",""
"798.0050000005867","","","recognition","survey-text","240","895820","0.0-6.0-3.33","2962023","co38605","norming","","","{""guess"":""""}","","../img/tt/1189tt.jpg","",""
"null","../img/gs/1189gs.jpg","null","reveal","image-keyboard-response","241","897822","0.0-6.0-4.33","2962023","co38605","norming","","","","","","",""
"null","../img/tt/1189tt.jpg","null","mooney2","image-keyboard-response","242","899825","0.0-6.0-5.33","2962023","co38605","norming","","","","","","",""
"4048.4799999995157","","","post_reveal_questions","survey-likert","243","903876","0.0-6.0-6.33","2962023","co38605","norming","","","{""aha"":6}","[0]","../img/tt/1189tt.jpg","",""
"null","<div style=""font-size:60px;""> </div>","null","fixation","html-keyboard-response","244","904081","0.0-6.0-0.34","2962023","co38605","norming","","","","","","",""
"null","../img/tt/599tt.jpg","null","mooney1","image-keyboard-response","245","907082","0.0-6.0-1.34","2962023","co38605","norming","","","","","","",""
"5833.180000001448","","","post_mooney1_questions","survey-likert","246","912916","0.0-6.0-2.34","2962023","co38605","norming","","","{""curiosity"":1,""confidence"":6}","[0,1]","../img/tt/599tt.jpg","",""
"2933.6449999992037","","","recognition","survey-text","247","915852","0.0-6.0-3.34","2962023","co38605","norming","","","{""guess"":""uil""}","","../img/tt/599tt.jpg","",""
"null","../img/gs/599gs.jpg","null","reveal","image-keyboard-response","248","917858","0.0-6.0-4.34","2962023","co38605","norming","","","","","","",""
"null","../img/tt/599tt.jpg","null","mooney2","image-keyboard-response","249","919867","0.0-6.0-5.34","2962023","co38605","norming","","","","","","",""
"1919.9150000003865","","","post_reveal_questions","survey-likert","250","921788","0.0-6.0-6.34","2962023","co38605","norming","","","{""aha"":0}","[0]","../img/tt/599tt.jpg","",""
"null","<div style=""font-size:60px;""> </div>","null","fixation","html-keyboard-response","251","921990","0.0-6.0-0.35","2962023","co38605","norming","","","","","","",""
"null","../img/tt/1362tt.jpg","null","mooney1","image-keyboard-response","252","924995","0.0-6.0-1.35","2962023","co38605","norming","","","","","","",""
"4552.475000000442","","","post_mooney1_questions","survey-likert","253","929548","0.0-6.0-2.35","2962023","co38605","norming","","","{""curiosity"":0,""confidence"":6}","[0,1]","../img/tt/1362tt.jpg","",""
"2902.3800000014016","","","recognition","survey-text","254","932452","0.0-6.0-3.35","2962023","co38605","norming","","","{""guess"":""keuken""}","","../img/tt/1362tt.jpg","",""
"null","../img/gs/1362gs.jpg","null","reveal","image-keyboard-response","255","934461","0.0-6.0-4.35","2962023","co38605","norming","","","","","","",""
"null","../img/tt/1362tt.jpg","null","mooney2","image-keyboard-response","256","936470","0.0-6.0-5.35","2962023","co38605","norming","","","","","","",""
"4611.565000000992","","","post_reveal_questions","survey-likert","257","941084","0.0-6.0-6.35","2962023","co38605","norming","","","{""aha"":0}","[0]","../img/tt/1362tt.jpg","",""
"null","<div style=""font-size:60px;""> </div>","null","fixation","html-keyboard-response","258","941291","0.0-6.0-0.36","2962023","co38605","norming","","","","","","",""
"null","../img/tt/1190tt.jpg","null","mooney1","image-keyboard-response","259","944296","0.0-6.0-1.36","2962023","co38605","norming","","","","","","",""
"5561.569999999832","","","post_mooney1_questions","survey-likert","260","949861","0.0-6.0-2.36","2962023","co38605","norming","","","{""curiosity"":5,""confidence"":1}","[0,1]","../img/tt/1190tt.jpg","",""
"2550.1050000003306","","","recognition","survey-text","261","952412","0.0-6.0-3.36","2962023","co38605","norming","","","{""guess"":""dier""}","","../img/tt/1190tt.jpg","",""
"null","../img/gs/1190gs.jpg","null","reveal","image-keyboard-response","262","954413","0.0-6.0-4.36","2962023","co38605","norming","","","","","","",""
"null","../img/tt/1190tt.jpg","null","mooney2","image-keyboard-response","263","956422","0.0-6.0-5.36","2962023","co38605","norming","","","","","","",""
"3710.4050000016578","","","post_reveal_questions","survey-likert","264","960135","0.0-6.0-6.36","2962023","co38605","norming","","","{""aha"":5}","[0]","../img/tt/1190tt.jpg","",""
"null","<div style=""font-size:60px;""> </div>","null","fixation","html-keyboard-response","265","960336","0.0-6.0-0.37","2962023","co38605","norming","","","","","","",""
"null","../img/tt/418tt.jpg","null","mooney1","image-keyboard-response","266","963344","0.0-6.0-1.37","2962023","co38605","norming","","","","","","",""
"4347.454999999143","","","post_mooney1_questions","survey-likert","267","967694","0.0-6.0-2.37","2962023","co38605","norming","","","{""curiosity"":2,""confidence"":6}","[0,1]","../img/tt/418tt.jpg","",""
"3126.144999998389","","","recognition","survey-text","268","970822","0.0-6.0-3.37","2962023","co38605","norming","","","{""guess"":""tomaat""}","","../img/tt/418tt.jpg","",""
"null","../img/gs/418gs.jpg","null","reveal","image-keyboard-response","269","972824","0.0-6.0-4.37","2962023","co38605","norming","","","","","","",""
"null","../img/tt/418tt.jpg","null","mooney2","image-keyboard-response","270","974826","0.0-6.0-5.37","2962023","co38605","norming","","","","","","",""
"2963.1950000001816","","","post_reveal_questions","survey-likert","271","977791","0.0-6.0-6.37","2962023","co38605","norming","","","{""aha"":0}","[0]","../img/tt/418tt.jpg","",""
"null","<div style=""font-size:60px;""> </div>","null","fixation","html-keyboard-response","272","977993","0.0-6.0-0.38","2962023","co38605","norming","","","","","","",""
"null","../img/tt/222tt.jpg","null","mooney1","image-keyboard-response","273","980998","0.0-6.0-1.38","2962023","co38605","norming","","","","","","",""
"4933.83499999973","","","post_mooney1_questions","survey-likert","274","985935","0.0-6.0-2.38","2962023","co38605","norming","","","{""curiosity"":6,""confidence"":1}","[0,1]","../img/tt/222tt.jpg","",""
"9166.105000000214","","","recognition","survey-text","275","995103","0.0-6.0-3.38","2962023","co38605","norming","","","{""guess"":""oude muziekspeler""}","","../img/tt/222tt.jpg","",""
"null","../img/gs/222gs.jpg","null","reveal","image-keyboard-response","276","997109","0.0-6.0-4.38","2962023","co38605","norming","","","","","","",""
"null","../img/tt/222tt.jpg","null","mooney2","image-keyboard-response","277","999120","0.0-6.0-5.38","2962023","co38605","norming","","","","","","",""
"2619.7000000011176","","","post_reveal_questions","survey-likert","278","1001743","0.0-6.0-6.38","2962023","co38605","norming","","","{""aha"":6}","[0]","../img/tt/222tt.jpg","",""
"null","<div style=""font-size:60px;""> </div>","null","fixation","html-keyboard-response","279","1001950","0.0-6.0-0.39","2962023","co38605","norming","","","","","","",""
"null","../img/tt/357tt.jpg","null","mooney1","image-keyboard-response","280","1004956","0.0-6.0-1.39","2962023","co38605","norming","","","","","","",""
"3759.97000000102","","","post_mooney1_questions","survey-likert","281","1008718","0.0-6.0-2.39","2962023","co38605","norming","","","{""curiosity"":4,""confidence"":3}","[0,1]","../img/tt/357tt.jpg","",""
"3422.3349999992643","","","recognition","survey-text","282","1012143","0.0-6.0-3.39","2962023","co38605","norming","","","{""guess"":""egel""}","","../img/tt/357tt.jpg","",""
"null","../img/gs/357gs.jpg","null","reveal","image-keyboard-response","283","1014149","0.0-6.0-4.39","2962023","co38605","norming","","","","","","",""
"null","../img/tt/357tt.jpg","null","mooney2","image-keyboard-response","284","1016160","0.0-6.0-5.39","2962023","co38605","norming","","","","","","",""
"5068.094999998808","","","post_reveal_questions","survey-likert","285","1021230","0.0-6.0-6.39","2962023","co38605","norming","","","{""aha"":1}","[0]","../img/tt/357tt.jpg","",""
"null","<div style=""font-size:60px;""> </div>","null","fixation","html-keyboard-response","286","1021433","0.0-6.0-0.40","2962023","co38605","norming","","","","","","",""
"null","../img/tt/1279tt.jpg","null","mooney1","image-keyboard-response","287","1024437","0.0-6.0-1.40","2962023","co38605","norming","","","","","","",""
"4588.789999999804","","","post_mooney1_questions","survey-likert","288","1029030","0.0-6.0-2.40","2962023","co38605","norming","","","{""curiosity"":6,""confidence"":0}","[0,1]","../img/tt/1279tt.jpg","",""
"789.919999999227","","","recognition","survey-text","289","1029821","0.0-6.0-3.40","2962023","co38605","norming","","","{""guess"":""""}","","../img/tt/1279tt.jpg","",""
"null","../img/gs/1279gs.jpg","null","reveal","image-keyboard-response","290","1031824","0.0-6.0-4.40","2962023","co38605","norming","","","","","","",""
"null","../img/tt/1279tt.jpg","null","mooney2","image-keyboard-response","291","1033831","0.0-6.0-5.40","2962023","co38605","norming","","","","","","",""
"3339.5799999998417","","","post_reveal_questions","survey-likert","292","1037174","0.0-6.0-6.40","2962023","co38605","norming","","","{""aha"":6}","[0]","../img/tt/1279tt.jpg","",""
"null","<div style=""font-size:60px;""> </div>","null","fixation","html-keyboard-response","293","1037381","0.0-6.0-0.41","2962023","co38605","norming","","","","","","",""
"null","../img/tt/477tt.jpg","null","mooney1","image-keyboard-response","294","1040385","0.0-6.0-1.41","2962023","co38605","norming","","","","","","",""
"5497.610000000335","","","post_mooney1_questions","survey-likert","295","1045886","0.0-6.0-2.41","2962023","co38605","norming","","","{""curiosity"":3,""confidence"":3}","[0,1]","../img/tt/477tt.jpg","",""
"3453.955000000773","","","recognition","survey-text","296","1049341","0.0-6.0-3.41","2962023","co38605","norming","","","{""guess"":""dier""}","","../img/tt/477tt.jpg","",""
"null","../img/gs/477gs.jpg","null","reveal","image-keyboard-response","297","1051343","0.0-6.0-4.41","2962023","co38605","norming","","","","","","",""
"null","../img/tt/477tt.jpg","null","mooney2","image-keyboard-response","298","1053346","0.0-6.0-5.41","2962023","co38605","norming","","","","","","",""
"2401.2050000003073","","","post_reveal_questions","survey-likert","299","1055750","0.0-6.0-6.41","2962023","co38605","norming","","","{""aha"":4}","[0]","../img/tt/477tt.jpg","",""
"null","<div style=""font-size:60px;""> </div>","null","fixation","html-keyboard-response","300","1055959","0.0-6.0-0.42","2962023","co38605","norming","","","","","","",""
"null","../img/tt/053tt.jpg","null","mooney1","image-keyboard-response","301","1058969","0.0-6.0-1.42","2962023","co38605","norming","","","","","","",""
"5088.540000000503","","","post_mooney1_questions","survey-likert","302","1064062","0.0-6.0-2.42","2962023","co38605","norming","","","{""curiosity"":6,""confidence"":1}","[0,1]","../img/tt/053tt.jpg","",""
"3309.8249999985565","","","recognition","survey-text","303","1067373","0.0-6.0-3.42","2962023","co38605","norming","","","{""guess"":""regen""}","","../img/tt/053tt.jpg","",""
"null","../img/gs/053gs.jpg","null","reveal","image-keyboard-response","304","1069374","0.0-6.0-4.42","2962023","co38605","norming","","","","","","",""
"null","../img/tt/053tt.jpg","null","mooney2","image-keyboard-response","305","1071382","0.0-6.0-5.42","2962023","co38605","norming","","","","","","",""
"2569.475000000093","","","post_reveal_questions","survey-likert","306","1073958","0.0-6.0-6.42","2962023","co38605","norming","","","{""aha"":6}","[0]","../img/tt/053tt.jpg","",""
"null","<div style=""font-size:60px;""> </div>","null","fixation","html-keyboard-response","307","1074166","0.0-6.0-0.43","2962023","co38605","norming","","","","","","",""
"null","../img/tt/1118tt.jpg","null","mooney1","image-keyboard-response","308","1077173","0.0-6.0-1.43","2962023","co38605","norming","","","","","","",""
"3693.989999999758","","","post_mooney1_questions","survey-likert","309","1080872","0.0-6.0-2.43","2962023","co38605","norming","","","{""curiosity"":4,""confidence"":2}","[0,1]","../img/tt/1118tt.jpg","",""
"9597.729999999516","","","recognition","survey-text","310","1090471","0.0-6.0-3.43","2962023","co38605","norming","","","{""guess"":""bootje varen""}","","../img/tt/1118tt.jpg","",""
"null","../img/gs/1118gs.jpg","null","reveal","image-keyboard-response","311","1092478","0.0-6.0-4.43","2962023","co38605","norming","","","","","","",""
"null","../img/tt/1118tt.jpg","null","mooney2","image-keyboard-response","312","1094483","0.0-6.0-5.43","2962023","co38605","norming","","","","","","",""
"1801.7500000006985","","","post_reveal_questions","survey-likert","313","1096287","0.0-6.0-6.43","2962023","co38605","norming","","","{""aha"":6}","[0]","../img/tt/1118tt.jpg","",""
"null","<div style=""font-size:60px;""> </div>","null","fixation","html-keyboard-response","314","1096495","0.0-6.0-0.44","2962023","co38605","norming","","","","","","",""
"null","../img/tt/1255tt.jpg","null","mooney1","image-keyboard-response","315","1099507","0.0-6.0-1.44","2962023","co38605","norming","","","","","","",""
"4385.209999998333","","","post_mooney1_questions","survey-likert","316","1103895","0.0-6.0-2.44","2962023","co38605","norming","","","{""curiosity"":6,""confidence"":0}","[0,1]","../img/tt/1255tt.jpg","",""
"798.2350000001024","","","recognition","survey-text","317","1104695","0.0-6.0-3.44","2962023","co38605","norming","","","{""guess"":""""}","","../img/tt/1255tt.jpg","",""
"null","../img/gs/1255gs.jpg","null","reveal","image-keyboard-response","318","1106697","0.0-6.0-4.44","2962023","co38605","norming","","","","","","",""
"null","../img/tt/1255tt.jpg","null","mooney2","image-keyboard-response","319","1108699","0.0-6.0-5.44","2962023","co38605","norming","","","","","","",""
"2233.4250000002794","","","post_reveal_questions","survey-likert","320","1110935","0.0-6.0-6.44","2962023","co38605","norming","","","{""aha"":6}","[0]","../img/tt/1255tt.jpg","",""
"null","<div style=""font-size:60px;""> </div>","null","fixation","html-keyboard-response","321","1111136","0.0-6.0-0.45","2962023","co38605","norming","","","","","","",""
"null","../img/tt/1261tt.jpg","null","mooney1","image-keyboard-response","322","1114137","0.0-6.0-1.45","2962023","co38605","norming","","","","","","",""
"4730.765000000363","","","post_mooney1_questions","survey-likert","323","1118871","0.0-6.0-2.45","2962023","co38605","norming","","","{""curiosity"":4,""confidence"":5}","[0,1]","../img/tt/1261tt.jpg","",""
"2445.850000000093","","","recognition","survey-text","324","1121319","0.0-6.0-3.45","2962023","co38605","norming","","","{""guess"":""dier""}","","../img/tt/1261tt.jpg","",""
"null","../img/gs/1261gs.jpg","null","reveal","image-keyboard-response","325","1123320","0.0-6.0-4.45","2962023","co38605","norming","","","","","","",""
"null","../img/tt/1261tt.jpg","null","mooney2","image-keyboard-response","326","1125324","0.0-6.0-5.45","2962023","co38605","norming","","","","","","",""
"1704.8849999993108","","","post_reveal_questions","survey-likert","327","1127031","0.0-6.0-6.45","2962023","co38605","norming","","","{""aha"":3}","[0]","../img/tt/1261tt.jpg","",""
"null","<div style=""font-size:60px;""> </div>","null","fixation","html-keyboard-response","328","1127240","0.0-6.0-0.46","2962023","co38605","norming","","","","","","",""
"null","../img/tt/1278tt.jpg","null","mooney1","image-keyboard-response","329","1130249","0.0-6.0-1.46","2962023","co38605","norming","","","","","","",""
"5131.320000000298","","","post_mooney1_questions","survey-likert","330","1135383","0.0-6.0-2.46","2962023","co38605","norming","","","{""curiosity"":2,""confidence"":5}","[0,1]","../img/tt/1278tt.jpg","",""
"4390.139999999432","","","recognition","survey-text","331","1139775","0.0-6.0-3.46","2962023","co38605","norming","","","{""guess"":""boerin""}","","../img/tt/1278tt.jpg","",""
"null","../img/gs/1278gs.jpg","null","reveal","image-keyboard-response","332","1141780","0.0-6.0-4.46","2962023","co38605","norming","","","","","","",""
"null","../img/tt/1278tt.jpg","null","mooney2","image-keyboard-response","333","1143789","0.0-6.0-5.46","2962023","co38605","norming","","","","","","",""
"1903.2299999999814","","","post_reveal_questions","survey-likert","334","1145694","0.0-6.0-6.46","2962023","co38605","norming","","","{""aha"":6}","[0]","../img/tt/1278tt.jpg","",""
"null","<div style=""font-size:60px;""> </div>","null","fixation","html-keyboard-response","335","1145901","0.0-6.0-0.47","2962023","co38605","norming","","","","","","",""
"null","../img/tt/124tt.jpg","null","mooney1","image-keyboard-response","336","1148912","0.0-6.0-1.47","2962023","co38605","norming","","","","","","",""
"4629.83499999973","","","post_mooney1_questions","survey-likert","337","1153543","0.0-6.0-2.47","2962023","co38605","norming","","","{""curiosity"":1,""confidence"":6}","[0,1]","../img/tt/124tt.jpg","",""
"3029.6300000008196","","","recognition","survey-text","338","1156575","0.0-6.0-3.47","2962023","co38605","norming","","","{""guess"":""aap""}","","../img/tt/124tt.jpg","",""
"null","../img/gs/124gs.jpg","null","reveal","image-keyboard-response","339","1158576","0.0-6.0-4.47","2962023","co38605","norming","","","","","","",""
"null","../img/tt/124tt.jpg","null","mooney2","image-keyboard-response","340","1160580","0.0-6.0-5.47","2962023","co38605","norming","","","","","","",""
"1801.3649999992922","","","post_reveal_questions","survey-likert","341","1162383","0.0-6.0-6.47","2962023","co38605","norming","","","{""aha"":0}","[0]","../img/tt/124tt.jpg","",""
"null","<div style=""font-size:60px;""> </div>","null","fixation","html-keyboard-response","342","1162586","0.0-6.0-0.48","2962023","co38605","norming","","","","","","",""
"null","../img/tt/1004tt.jpg","null","mooney1","image-keyboard-response","343","1165593","0.0-6.0-1.48","2962023","co38605","norming","","","","","","",""
"3740.4199999999255","","","post_mooney1_questions","survey-likert","344","1169335","0.0-6.0-2.48","2962023","co38605","norming","","","{""curiosity"":2,""confidence"":4}","[0,1]","../img/tt/1004tt.jpg","",""
"2350.3000000000466","","","recognition","survey-text","345","1171687","0.0-6.0-3.48","2962023","co38605","norming","","","{""guess"":""dier""}","","../img/tt/1004tt.jpg","",""
"null","../img/gs/1004gs.jpg","null","reveal","image-keyboard-response","346","1173696","0.0-6.0-4.48","2962023","co38605","norming","","","","","","",""
"null","../img/tt/1004tt.jpg","null","mooney2","image-keyboard-response","347","1175699","0.0-6.0-5.48","2962023","co38605","norming","","","","","","",""
"3560.9150000000373","","","post_reveal_questions","survey-likert","348","1179263","0.0-6.0-6.48","2962023","co38605","norming","","","{""aha"":0}","[0]","../img/tt/1004tt.jpg","",""
"null","<div style=""font-size:60px;""> </div>","null","fixation","html-keyboard-response","349","1179465","0.0-6.0-0.49","2962023","co38605","norming","","","","","","",""
"null","../img/tt/522tt.jpg","null","mooney1","image-keyboard-response","350","1182473","0.0-6.0-1.49","2962023","co38605","norming","","","","","","",""
"4034.344999999972","","","post_mooney1_questions","survey-likert","351","1186512","0.0-6.0-2.49","2962023","co38605","norming","","","{""curiosity"":0,""confidence"":6}","[0,1]","../img/tt/522tt.jpg","",""
"3301.2799999995623","","","recognition","survey-text","352","1189815","0.0-6.0-3.49","2962023","co38605","norming","","","{""guess"":""kat""}","","../img/tt/522tt.jpg","",""
"null","../img/gs/522gs.jpg","null","reveal","image-keyboard-response","353","1191816","0.0-6.0-4.49","2962023","co38605","norming","","","","","","",""
"null","../img/tt/522tt.jpg","null","mooney2","image-keyboard-response","354","1193826","0.0-6.0-5.49","2962023","co38605","norming","","","","","","",""
"2274.235000000801","","","post_reveal_questions","survey-likert","355","1196103","0.0-6.0-6.49","2962023","co38605","norming","","","{""aha"":0}","[0]","../img/tt/522tt.jpg","",""
"null","<div style=""font-size:60px;""> </div>","null","fixation","html-keyboard-response","356","1196310","0.0-6.0-0.50","2962023","co38605","norming","","","","","","",""
"null","../img/tt/055tt.jpg","null","mooney1","image-keyboard-response","357","1199320","0.0-6.0-1.50","2962023","co38605","norming","","","","","","",""
"3299.7199999990407","","","post_mooney1_questions","survey-likert","358","1202621","0.0-6.0-2.50","2962023","co38605","norming","","","{""curiosity"":0,""confidence"":6}","[0,1]","../img/tt/055tt.jpg","",""
"5886.135000000708","","","recognition","survey-text","359","1208508","0.0-6.0-3.50","2962023","co38605","norming","","","{""guess"":""zadel paard""}","","../img/tt/055tt.jpg","",""
"null","../img/gs/055gs.jpg","null","reveal","image-keyboard-response","360","1210516","0.0-6.0-4.50","2962023","co38605","norming","","","","","","",""
"null","../img/tt/055tt.jpg","null","mooney2","image-keyboard-response","361","1212518","0.0-6.0-5.50","2962023","co38605","norming","","","","","","",""
"3348.115000000689","","","post_reveal_questions","survey-likert","362","1215868","0.0-6.0-6.50","2962023","co38605","norming","","","{""aha"":0}","[0]","../img/tt/055tt.jpg","",""
"null","<div style=""font-size:60px;""> </div>","null","fixation","html-keyboard-response","363","1216072","0.0-6.0-0.51","2962023","co38605","norming","","","","","","",""
"null","../img/tt/020tt.jpg","null","mooney1","image-keyboard-response","364","1219076","0.0-6.0-1.51","2962023","co38605","norming","","","","","","",""
"4805.845000000671","","","post_mooney1_questions","survey-likert","365","1223885","0.0-6.0-2.51","2962023","co38605","norming","","","{""curiosity"":5,""confidence"":1}","[0,1]","../img/tt/020tt.jpg","",""
"2686.1150000004563","","","recognition","survey-text","366","1226573","0.0-6.0-3.51","2962023","co38605","norming","","","{""guess"":""mens""}","","../img/tt/020tt.jpg","",""
"null","../img/gs/020gs.jpg","null","reveal","image-keyboard-response","367","1228577","0.0-6.0-4.51","2962023","co38605","norming","","","","","","",""
"null","../img/tt/020tt.jpg","null","mooney2","image-keyboard-response","368","1230579","0.0-6.0-5.51","2962023","co38605","norming","","","","","","",""
"2902.6900000006426","","","post_reveal_questions","survey-likert","369","1233485","0.0-6.0-6.51","2962023","co38605","norming","","","{""aha"":4}","[0]","../img/tt/020tt.jpg","",""
"null","<div style=""font-size:60px;""> </div>","null","fixation","html-keyboard-response","370","1233689","0.0-6.0-0.52","2962023","co38605","norming","","","","","","",""
"null","../img/tt/567tt.jpg","null","mooney1","image-keyboard-response","371","1236691","0.0-6.0-1.52","2962023","co38605","norming","","","","","","",""
"4886.4300000004005","","","post_mooney1_questions","survey-likert","372","1241581","0.0-6.0-2.52","2962023","co38605","norming","","","{""curiosity"":0,""confidence"":6}","[0,1]","../img/tt/567tt.jpg","",""
"4606.1599999994505","","","recognition","survey-text","373","1246189","0.0-6.0-3.52","2962023","co38605","norming","","","{""guess"":""broodrooster""}","","../img/tt/567tt.jpg","",""
"null","../img/gs/567gs.jpg","null","reveal","image-keyboard-response","374","1248193","0.0-6.0-4.52","2962023","co38605","norming","","","","","","",""
"null","../img/tt/567tt.jpg","null","mooney2","image-keyboard-response","375","1250202","0.0-6.0-5.52","2962023","co38605","norming","","","","","","",""
"2504.1750000000466","","","post_reveal_questions","survey-likert","376","1252709","0.0-6.0-6.52","2962023","co38605","norming","","","{""aha"":0}","[0]","../img/tt/567tt.jpg","",""
"null","<div style=""font-size:60px;""> </div>","null","fixation","html-keyboard-response","377","1252915","0.0-6.0-0.53","2962023","co38605","norming","","","","","","",""
"null","../img/tt/416tt.jpg","null","mooney1","image-keyboard-response","378","1255917","0.0-6.0-1.53","2962023","co38605","norming","","","","","","",""
"4396.35500000068","","","post_mooney1_questions","survey-likert","379","1260317","0.0-6.0-2.53","2962023","co38605","norming","","","{""curiosity"":1,""confidence"":6}","[0,1]","../img/tt/416tt.jpg","",""
"2462.0250000006054","","","recognition","survey-text","380","1262785","0.0-6.0-3.53","2962023","co38605","norming","","","{""guess"":""koe""}","","../img/tt/416tt.jpg","",""
"null","../img/gs/416gs.jpg","null","reveal","image-keyboard-response","381","1264788","0.0-6.0-4.53","2962023","co38605","norming","","","","","","",""
"null","../img/tt/416tt.jpg","null","mooney2","image-keyboard-response","382","1266790","0.0-6.0-5.53","2962023","co38605","norming","","","","","","",""
"2514.5849999990314","","","post_reveal_questions","survey-likert","383","1269305","0.0-6.0-6.53","2962023","co38605","norming","","","{""aha"":6}","[0]","../img/tt/416tt.jpg","",""
"null","<div style=""font-size:60px;""> </div>","null","fixation","html-keyboard-response","384","1269516","0.0-6.0-0.54","2962023","co38605","norming","","","","","","",""
"null","../img/tt/040tt.jpg","null","mooney1","image-keyboard-response","385","1272519","0.0-6.0-1.54","2962023","co38605","norming","","","","","","",""
"4791.0449999999255","","","post_mooney1_questions","survey-likert","386","1277313","0.0-6.0-2.54","2962023","co38605","norming","","","{""curiosity"":3,""confidence"":6}","[0,1]","../img/tt/040tt.jpg","",""
"3982.454999999376","","","recognition","survey-text","387","1281298","0.0-6.0-3.54","2962023","co38605","norming","","","{""guess"":""dier""}","","../img/tt/040tt.jpg","",""
"null","../img/gs/040gs.jpg","null","reveal","image-keyboard-response","388","1283299","0.0-6.0-4.54","2962023","co38605","norming","","","","","","",""
"null","../img/tt/040tt.jpg","null","mooney2","image-keyboard-response","389","1285306","0.0-6.0-5.54","2962023","co38605","norming","","","","","","",""
"2748.480000000214","","","post_reveal_questions","survey-likert","390","1288058","0.0-6.0-6.54","2962023","co38605","norming","","","{""aha"":2}","[0]","../img/tt/040tt.jpg","",""
"null","<div style=""font-size:60px;""> </div>","null","fixation","html-keyboard-response","391","1288259","0.0-6.0-0.55","2962023","co38605","norming","","","","","","",""
"null","../img/tt/163tt.jpg","null","mooney1","image-keyboard-response","392","1291264","0.0-6.0-1.55","2962023","co38605","norming","","","","","","",""
"4917.699999999953","","","post_mooney1_questions","survey-likert","393","1296185","0.0-6.0-2.55","2962023","co38605","norming","","","{""curiosity"":1,""confidence"":6}","[0,1]","../img/tt/163tt.jpg","",""
"4174.405000001658","","","recognition","survey-text","394","1300362","0.0-6.0-3.55","2962023","co38605","norming","","","{""guess"":""dier""}","","../img/tt/163tt.jpg","",""
"null","../img/gs/163gs.jpg","null","reveal","image-keyboard-response","395","1302363","0.0-6.0-4.55","2962023","co38605","norming","","","","","","",""
"null","../img/tt/163tt.jpg","null","mooney2","image-keyboard-response","396","1304367","0.0-6.0-5.55","2962023","co38605","norming","","","","","","",""
"2209.5599999993574","","","post_reveal_questions","survey-likert","397","1306578","0.0-6.0-6.55","2962023","co38605","norming","","","{""aha"":0}","[0]","../img/tt/163tt.jpg","",""
"null","<div style=""font-size:60px;""> </div>","null","fixation","html-keyboard-response","398","1306779","0.0-6.0-0.56","2962023","co38605","norming","","","","","","",""
"null","../img/tt/189tt.jpg","null","mooney1","image-keyboard-response","399","1309789","0.0-6.0-1.56","2962023","co38605","norming","","","","","","",""
"4675.380000000587","","","post_mooney1_questions","survey-likert","400","1314466","0.0-6.0-2.56","2962023","co38605","norming","","","{""curiosity"":5,""confidence"":2}","[0,1]","../img/tt/189tt.jpg","",""
"5502.075000000419","","","recognition","survey-text","401","1319969","0.0-6.0-3.56","2962023","co38605","norming","","","{""guess"":""hangmat""}","","../img/tt/189tt.jpg","",""
"null","../img/gs/189gs.jpg","null","reveal","image-keyboard-response","402","1321972","0.0-6.0-4.56","2962023","co38605","norming","","","","","","",""
"null","../img/tt/189tt.jpg","null","mooney2","image-keyboard-response","403","1323977","0.0-6.0-5.56","2962023","co38605","norming","","","","","","",""
"3862.3250000001863","","","post_reveal_questions","survey-likert","404","1327843","0.0-6.0-6.56","2962023","co38605","norming","","","{""aha"":0}","[0]","../img/tt/189tt.jpg","",""
"null","<div style=""font-size:60px;""> </div>","null","fixation","html-keyboard-response","405","1328047","0.0-6.0-0.57","2962023","co38605","norming","","","","","","",""
"null","../img/tt/126tt.jpg","null","mooney1","image-keyboard-response","406","1331056","0.0-6.0-1.57","2962023","co38605","norming","","","","","","",""
"5943.409999999916","","","post_mooney1_questions","survey-likert","407","1337003","0.0-6.0-2.57","2962023","co38605","norming","","","{""curiosity"":0,""confidence"":6}","[0,1]","../img/tt/126tt.jpg","",""
"10350.029999999562","","","recognition","survey-text","408","1347354","0.0-6.0-3.57","2962023","co38605","norming","","","{""guess"":""koe""}","","../img/tt/126tt.jpg","",""
"null","../img/gs/126gs.jpg","null","reveal","image-keyboard-response","409","1349363","0.0-6.0-4.57","2962023","co38605","norming","","","","","","",""
"null","../img/tt/126tt.jpg","null","mooney2","image-keyboard-response","410","1351365","0.0-6.0-5.57","2962023","co38605","norming","","","","","","",""
"2715.239999999525","","","post_reveal_questions","survey-likert","411","1354083","0.0-6.0-6.57","2962023","co38605","norming","","","{""aha"":0}","[0]","../img/tt/126tt.jpg","",""
"null","<div style=""font-size:60px;""> </div>","null","fixation","html-keyboard-response","412","1354288","0.0-6.0-0.58","2962023","co38605","norming","","","","","","",""
"null","../img/tt/549tt.jpg","null","mooney1","image-keyboard-response","413","1357296","0.0-6.0-1.58","2962023","co38605","norming","","","","","","",""
"6111.0200000002515","","","post_mooney1_questions","survey-likert","414","1363411","0.0-6.0-2.58","2962023","co38605","norming","","","{""curiosity"":6,""confidence"":1}","[0,1]","../img/tt/549tt.jpg","",""
"2933.9299999992363","","","recognition","survey-text","415","1366346","0.0-6.0-3.58","2962023","co38605","norming","","","{""guess"":""taart""}","","../img/tt/549tt.jpg","",""
"null","../img/gs/549gs.jpg","null","reveal","image-keyboard-response","416","1368349","0.0-6.0-4.58","2962023","co38605","norming","","","","","","",""
"null","../img/tt/549tt.jpg","null","mooney2","image-keyboard-response","417","1370357","0.0-6.0-5.58","2962023","co38605","norming","","","","","","",""
"2219.2799999993294","","","post_reveal_questions","survey-likert","418","1372578","0.0-6.0-6.58","2962023","co38605","norming","","","{""aha"":6}","[0]","../img/tt/549tt.jpg","",""
"null","<div style=""font-size:60px;""> </div>","null","fixation","html-keyboard-response","419","1372781","0.0-6.0-0.59","2962023","co38605","norming","","","","","","",""
"null","../img/tt/1251tt.jpg","null","mooney1","image-keyboard-response","420","1375792","0.0-6.0-1.59","2962023","co38605","norming","","","","","","",""
"7295.089999999618","","","post_mooney1_questions","survey-likert","421","1383091","0.0-6.0-2.59","2962023","co38605","norming","","","{""curiosity"":1,""confidence"":6}","[0,1]","../img/tt/1251tt.jpg","",""
"3181.829999999376","","","recognition","survey-text","422","1386274","0.0-6.0-3.59","2962023","co38605","norming","","","{""guess"":""dier""}","","../img/tt/1251tt.jpg","",""
"null","../img/gs/1251gs.jpg","null","reveal","image-keyboard-response","423","1388275","0.0-6.0-4.59","2962023","co38605","norming","","","","","","",""
"null","../img/tt/1251tt.jpg","null","mooney2","image-keyboard-response","424","1390278","0.0-6.0-5.59","2962023","co38605","norming","","","","","","",""
"1657.4650000003166","","","post_reveal_questions","survey-likert","425","1391938","0.0-6.0-6.59","2962023","co38605","norming","","","{""aha"":1}","[0]","../img/tt/1251tt.jpg","",""
"null","<div style=""font-size:60px;""> </div>","null","fixation","html-keyboard-response","426","1392148","0.0-6.0-0.60","2962023","co38605","norming","","","","","","",""
"null","../img/tt/552tt.jpg","null","mooney1","image-keyboard-response","427","1395157","0.0-6.0-1.60","2962023","co38605","norming","","","","","","",""
"6265.040000000037","","","post_mooney1_questions","survey-likert","428","1401426","0.0-6.0-2.60","2962023","co38605","norming","","","{""curiosity"":6,""confidence"":0}","[0,1]","../img/tt/552tt.jpg","",""
"3885.9950000005774","","","recognition","survey-text","429","1405314","0.0-6.0-3.60","2962023","co38605","norming","","","{""guess"":""wc""}","","../img/tt/552tt.jpg","",""
"null","../img/gs/552gs.jpg","null","reveal","image-keyboard-response","430","1407324","0.0-6.0-4.60","2962023","co38605","norming","","","","","","",""
"null","../img/tt/552tt.jpg","null","mooney2","image-keyboard-response","431","1409327","0.0-6.0-5.60","2962023","co38605","norming","","","","","","",""
"3136.524999999907","","","post_reveal_questions","survey-likert","432","1412466","0.0-6.0-6.60","2962023","co38605","norming","","","{""aha"":6}","[0]","../img/tt/552tt.jpg","",""
"null","<div style=""font-size:60px;""> </div>","null","fixation","html-keyboard-response","433","1412668","0.0-6.0-0.61","2962023","co38605","norming","","","","","","",""
"null","../img/tt/184tt.jpg","null","mooney1","image-keyboard-response","434","1415669","0.0-6.0-1.61","2962023","co38605","norming","","","","","","",""
"4915.254999999888","","","post_mooney1_questions","survey-likert","435","1420586","0.0-6.0-2.61","2962023","co38605","norming","","","{""curiosity"":5,""confidence"":3}","[0,1]","../img/tt/184tt.jpg","",""
"2925.9149999998044","","","recognition","survey-text","436","1423514","0.0-6.0-3.61","2962023","co38605","norming","","","{""guess"":""dier""}","","../img/tt/184tt.jpg","",""
"null","../img/gs/184gs.jpg","null","reveal","image-keyboard-response","437","1425517","0.0-6.0-4.61","2962023","co38605","norming","","","","","","",""
"null","../img/tt/184tt.jpg","null","mooney2","image-keyboard-response","438","1427522","0.0-6.0-5.61","2962023","co38605","norming","","","","","","",""
"2157.300000000978","","","post_reveal_questions","survey-likert","439","1429682","0.0-6.0-6.61","2962023","co38605","norming","","","{""aha"":6}","[0]","../img/tt/184tt.jpg","",""
"null","<div style=""font-size:60px;""> </div>","null","fixation","html-keyboard-response","440","1429889","0.0-6.0-0.62","2962023","co38605","norming","","","","","","",""
"null","../img/tt/1061tt.jpg","null","mooney1","image-keyboard-response","441","1432901","0.0-6.0-1.62","2962023","co38605","norming","","","","","","",""
"7321.695000000531","","","post_mooney1_questions","survey-likert","442","1440226","0.0-6.0-2.62","2962023","co38605","norming","","","{""curiosity"":5,""confidence"":3}","[0,1]","../img/tt/1061tt.jpg","",""
"3734.0399999993388","","","recognition","survey-text","443","1443962","0.0-6.0-3.62","2962023","co38605","norming","","","{""guess"":""kajak""}","","../img/tt/1061tt.jpg","",""
"null","../img/gs/1061gs.jpg","null","reveal","image-keyboard-response","444","1445974","0.0-6.0-4.62","2962023","co38605","norming","","","","","","",""
"null","../img/tt/1061tt.jpg","null","mooney2","image-keyboard-response","445","1447985","0.0-6.0-5.62","2962023","co38605","norming","","","","","","",""
"3072.6849999991246","","","post_reveal_questions","survey-likert","446","1451061","0.0-6.0-6.62","2962023","co38605","norming","","","{""aha"":6}","[0]","../img/tt/1061tt.jpg","",""
"null","<div style=""font-size:60px;""> </div>","null","fixation","html-keyboard-response","447","1451265","0.0-6.0-0.63","2962023","co38605","norming","","","","","","",""
"null","../img/tt/010tt.jpg","null","mooney1","image-keyboard-response","448","1454268","0.0-6.0-1.63","2962023","co38605","norming","","","","","","",""
"6853.399999999907","","","post_mooney1_questions","survey-likert","449","1461125","0.0-6.0-2.63","2962023","co38605","norming","","","{""curiosity"":4,""confidence"":4}","[0,1]","../img/tt/010tt.jpg","",""
"3149.650000001304","","","recognition","survey-text","450","1464277","0.0-6.0-3.63","2962023","co38605","norming","","","{""guess"":""beker""}","","../img/tt/010tt.jpg","",""
"null","../img/gs/010gs.jpg","null","reveal","image-keyboard-response","451","1466279","0.0-6.0-4.63","2962023","co38605","norming","","","","","","",""
"null","../img/tt/010tt.jpg","null","mooney2","image-keyboard-response","452","1468281","0.0-6.0-5.63","2962023","co38605","norming","","","","","","",""
"2255.605000000214","","","post_reveal_questions","survey-likert","453","1470541","0.0-6.0-6.63","2962023","co38605","norming","","","{""aha"":6}","[0]","../img/tt/010tt.jpg","",""
"null","<div style=""font-size:60px;""> </div>","null","fixation","html-keyboard-response","454","1470742","0.0-6.0-0.64","2962023","co38605","norming","","","","","","",""
"null","../img/tt/135tt.jpg","null","mooney1","image-keyboard-response","455","1473744","0.0-6.0-1.64","2962023","co38605","norming","","","","","","",""
"5281.219999999041","","","post_mooney1_questions","survey-likert","456","1479029","0.0-6.0-2.64","2962023","co38605","norming","","","{""curiosity"":0,""confidence"":6}","[0,1]","../img/tt/135tt.jpg","",""
"3342.0650000008754","","","recognition","survey-text","457","1482373","0.0-6.0-3.64","2962023","co38605","norming","","","{""guess"":""wc""}","","../img/tt/135tt.jpg","",""
"null","../img/gs/135gs.jpg","null","reveal","image-keyboard-response","458","1484376","0.0-6.0-4.64","2962023","co38605","norming","","","","","","",""
"null","../img/tt/135tt.jpg","null","mooney2","image-keyboard-response","459","1486380","0.0-6.0-5.64","2962023","co38605","norming","","","","","","",""
"3383.845000000205","","","post_reveal_questions","survey-likert","460","1489765","0.0-6.0-6.64","2962023","co38605","norming","","","{""aha"":0}","[0]","../img/tt/135tt.jpg","",""
"null","<div style=""font-size:60px;""> </div>","null","fixation","html-keyboard-response","461","1489967","0.0-6.0-0.65","2962023","co38605","norming","","","","","","",""
"null","../img/tt/094tt.jpg","null","mooney1","image-keyboard-response","462","1492975","0.0-6.0-1.65","2962023","co38605","norming","","","","","","",""
"4762.510000000475","","","post_mooney1_questions","survey-likert","463","1497741","0.0-6.0-2.65","2962023","co38605","norming","","","{""curiosity"":1,""confidence"":6}","[0,1]","../img/tt/094tt.jpg","",""
"3990.045000000391","","","recognition","survey-text","464","1501733","0.0-6.0-3.65","2962023","co38605","norming","","","{""guess"":""dier""}","","../img/tt/094tt.jpg","",""
"null","../img/gs/094gs.jpg","null","reveal","image-keyboard-response","465","1503740","0.0-6.0-4.65","2962023","co38605","norming","","","","","","",""
"null","../img/tt/094tt.jpg","null","mooney2","image-keyboard-response","466","1505742","0.0-6.0-5.65","2962023","co38605","norming","","","","","","",""
"2579.760000000708","","","post_reveal_questions","survey-likert","467","1508324","0.0-6.0-6.65","2962023","co38605","norming","","","{""aha"":1}","[0]","../img/tt/094tt.jpg","",""
"null","<div style=""font-size:60px;""> </div>","null","fixation","html-keyboard-response","468","1508526","0.0-6.0-0.66","2962023","co38605","norming","","","","","","",""
"null","../img/tt/1228tt.jpg","null","mooney1","image-keyboard-response","469","1511537","0.0-6.0-1.66","2962023","co38605","norming","","","","","","",""
"5343.880000000354","","","post_mooney1_questions","survey-likert","470","1516884","0.0-6.0-2.66","2962023","co38605","norming","","","{""curiosity"":3,""confidence"":6}","[0,1]","../img/tt/1228tt.jpg","",""
"2957.8500000007916","","","recognition","survey-text","471","1519844","0.0-6.0-3.66","2962023","co38605","norming","","","{""guess"":""dier""}","","../img/tt/1228tt.jpg","",""
"null","../img/gs/1228gs.jpg","null","reveal","image-keyboard-response","472","1521853","0.0-6.0-4.66","2962023","co38605","norming","","","","","","",""
"null","../img/tt/1228tt.jpg","null","mooney2","image-keyboard-response","473","1523858","0.0-6.0-5.66","2962023","co38605","norming","","","","","","",""
"1639.3549999992829","","","post_reveal_questions","survey-likert","474","1525500","0.0-6.0-6.66","2962023","co38605","norming","","","{""aha"":5}","[0]","../img/tt/1228tt.jpg","",""
"null","<div style=""font-size:60px;""> </div>","null","fixation","html-keyboard-response","475","1525709","0.0-6.0-0.67","2962023","co38605","norming","","","","","","",""
"null","../img/tt/1102tt.jpg","null","mooney1","image-keyboard-response","476","1528717","0.0-6.0-1.67","2962023","co38605","norming","","","","","","",""
"4682.989999999292","","","post_mooney1_questions","survey-likert","477","1533404","0.0-6.0-2.67","2962023","co38605","norming","","","{""curiosity"":6,""confidence"":2}","[0,1]","../img/tt/1102tt.jpg","",""
"11253.41000000108","","","recognition","survey-text","478","1544659","0.0-6.0-3.67","2962023","co38605","norming","","","{""guess"":""tenten""}","","../img/tt/1102tt.jpg","",""
"null","../img/gs/1102gs.jpg","null","reveal","image-keyboard-response","479","1546662","0.0-6.0-4.67","2962023","co38605","norming","","","","","","",""
"null","../img/tt/1102tt.jpg","null","mooney2","image-keyboard-response","480","1548665","0.0-6.0-5.67","2962023","co38605","norming","","","","","","",""
"2320.7050000000745","","","post_reveal_questions","survey-likert","481","1550988","0.0-6.0-6.67","2962023","co38605","norming","","","{""aha"":6}","[0]","../img/tt/1102tt.jpg","",""
"null","<div style=""font-size:60px;""> </div>","null","fixation","html-keyboard-response","482","1551190","0.0-6.0-0.68","2962023","co38605","norming","","","","","","",""
"null","../img/tt/1283tt.jpg","null","mooney1","image-keyboard-response","483","1554195","0.0-6.0-1.68","2962023","co38605","norming","","","","","","",""
"9301.730000001146","","","post_mooney1_questions","survey-likert","484","1563500","0.0-6.0-2.68","2962023","co38605","norming","","","{""curiosity"":3,""confidence"":3}","[0,1]","../img/tt/1283tt.jpg","",""
"3725.9850000010338","","","recognition","survey-text","485","1567230","0.0-6.0-3.68","2962023","co38605","norming","","","{""guess"":""dier""}","","../img/tt/1283tt.jpg","",""
"null","../img/gs/1283gs.jpg","null","reveal","image-keyboard-response","486","1569239","0.0-6.0-4.68","2962023","co38605","norming","","","","","","",""
"null","../img/tt/1283tt.jpg","null","mooney2","image-keyboard-response","487","1571250","0.0-6.0-5.68","2962023","co38605","norming","","","","","","",""
"1825.8850000000093","","","post_reveal_questions","survey-likert","488","1573078","0.0-6.0-6.68","2962023","co38605","norming","","","{""aha"":3}","[0]","../img/tt/1283tt.jpg","",""
"null","<div style=""font-size:60px;""> </div>","null","fixation","html-keyboard-response","489","1573289","0.0-6.0-0.69","2962023","co38605","norming","","","","","","",""
"null","../img/tt/1353tt.jpg","null","mooney1","image-keyboard-response","490","1576292","0.0-6.0-1.69","2962023","co38605","norming","","","","","","",""
"4622.3100000005215","","","post_mooney1_questions","survey-likert","491","1580918","0.0-6.0-2.69","2962023","co38605","norming","","","{""curiosity"":2,""confidence"":6}","[0,1]","../img/tt/1353tt.jpg","",""
"5086.05999999959","","","recognition","survey-text","492","1586006","0.0-6.0-3.69","2962023","co38605","norming","","","{""guess"":""ring""}","","../img/tt/1353tt.jpg","",""
"null","../img/gs/1353gs.jpg","null","reveal","image-keyboard-response","493","1588009","0.0-6.0-4.69","2962023","co38605","norming","","","","","","",""
"null","../img/tt/1353tt.jpg","null","mooney2","image-keyboard-response","494","1590018","0.0-6.0-5.69","2962023","co38605","norming","","","","","","",""
"2513.530000000028","","","post_reveal_questions","survey-likert","495","1592535","0.0-6.0-6.69","2962023","co38605","norming","","","{""aha"":6}","[0]","../img/tt/1353tt.jpg","",""
"null","<div style=""font-size:60px;""> </div>","null","fixation","html-keyboard-response","496","1592741","0.0-6.0-0.70","2962023","co38605","norming","","","","","","",""
"null","../img/tt/1048tt.jpg","null","mooney1","image-keyboard-response","497","1595746","0.0-6.0-1.70","2962023","co38605","norming","","","","","","",""
"4520.909999999218","","","post_mooney1_questions","survey-likert","498","1600270","0.0-6.0-2.70","2962023","co38605","norming","","","{""curiosity"":2,""confidence"":4}","[0,1]","../img/tt/1048tt.jpg","",""
"2318.7349999989383","","","recognition","survey-text","499","1602591","0.0-6.0-3.70","2962023","co38605","norming","","","{""guess"":""dier""}","","../img/tt/1048tt.jpg","",""
"null","../img/gs/1048gs.jpg","null","reveal","image-keyboard-response","500","1604592","0.0-6.0-4.70","2962023","co38605","norming","","","","","","",""
"null","../img/tt/1048tt.jpg","null","mooney2","image-keyboard-response","501","1606598","0.0-6.0-5.70","2962023","co38605","norming","","","","","","",""
"1861.5000000006985","","","post_reveal_questions","survey-likert","502","1608462","0.0-6.0-6.70","2962023","co38605","norming","","","{""aha"":6}","[0]","../img/tt/1048tt.jpg","",""
"null","<div style=""font-size:60px;""> </div>","null","fixation","html-keyboard-response","503","1608674","0.0-6.0-0.71","2962023","co38605","norming","","","","","","",""
"null","../img/tt/1128tt.jpg","null","mooney1","image-keyboard-response","504","1611681","0.0-6.0-1.71","2962023","co38605","norming","","","","","","",""
"3890.094999998808","","","post_mooney1_questions","survey-likert","505","1615575","0.0-6.0-2.71","2962023","co38605","norming","","","{""curiosity"":6,""confidence"":0}","[0,1]","../img/tt/1128tt.jpg","",""
"829.8299999989104","","","recognition","survey-text","506","1616406","0.0-6.0-3.71","2962023","co38605","norming","","","{""guess"":""""}","","../img/tt/1128tt.jpg","",""
"null","../img/gs/1128gs.jpg","null","reveal","image-keyboard-response","507","1618408","0.0-6.0-4.71","2962023","co38605","norming","","","","","","",""
"null","../img/tt/1128tt.jpg","null","mooney2","image-keyboard-response","508","1620411","0.0-6.0-5.71","2962023","co38605","norming","","","","","","",""
"2024.2899999995716","","","post_reveal_questions","survey-likert","509","1622438","0.0-6.0-6.71","2962023","co38605","norming","","","{""aha"":6}","[0]","../img/tt/1128tt.jpg","",""
"null","<div style=""font-size:60px;""> </div>","null","fixation","html-keyboard-response","510","1622642","0.0-6.0-0.72","2962023","co38605","norming","","","","","","",""
"null","../img/tt/1130tt.jpg","null","mooney1","image-keyboard-response","511","1625652","0.0-6.0-1.72","2962023","co38605","norming","","","","","","",""
"5077.365000000922","","","post_mooney1_questions","survey-likert","512","1630734","0.0-6.0-2.72","2962023","co38605","norming","","","{""curiosity"":0,""confidence"":6}","[0,1]","../img/tt/1130tt.jpg","",""
"3438.2299999997485","","","recognition","survey-text","513","1634174","0.0-6.0-3.72","2962023","co38605","norming","","","{""guess"":""fietsen""}","","../img/tt/1130tt.jpg","",""
"null","../img/gs/1130gs.jpg","null","reveal","image-keyboard-response","514","1636177","0.0-6.0-4.72","2962023","co38605","norming","","","","","","",""
"null","../img/tt/1130tt.jpg","null","mooney2","image-keyboard-response","515","1638182","0.0-6.0-5.72","2962023","co38605","norming","","","","","","",""
"3453.4199999999255","","","post_reveal_questions","survey-likert","516","1641638","0.0-6.0-6.72","2962023","co38605","norming","","","{""aha"":0}","[0]","../img/tt/1130tt.jpg","",""
"null","<div style=""font-size:60px;""> </div>","null","fixation","html-keyboard-response","517","1641840","0.0-6.0-0.73","2962023","co38605","norming","","","","","","",""
"null","../img/tt/584tt.jpg","null","mooney1","image-keyboard-response","518","1644842","0.0-6.0-1.73","2962023","co38605","norming","","","","","","",""
"4163.539999999572","","","post_mooney1_questions","survey-likert","519","1649007","0.0-6.0-2.73","2962023","co38605","norming","","","{""curiosity"":1,""confidence"":6}","[0,1]","../img/tt/584tt.jpg","",""
"3925.9349999993574","","","recognition","survey-text","520","1652934","0.0-6.0-3.73","2962023","co38605","norming","","","{""guess"":""bloem""}","","../img/tt/584tt.jpg","",""
"null","../img/gs/584gs.jpg","null","reveal","image-keyboard-response","521","1654936","0.0-6.0-4.73","2962023","co38605","norming","","","","","","",""
"null","../img/tt/584tt.jpg","null","mooney2","image-keyboard-response","522","1656947","0.0-6.0-5.73","2962023","co38605","norming","","","","","","",""
"2698.6300000008196","","","post_reveal_questions","survey-likert","523","1659647","0.0-6.0-6.73","2962023","co38605","norming","","","{""aha"":6}","[0]","../img/tt/584tt.jpg","",""
"null","<div style=""font-size:60px;""> </div>","null","fixation","html-keyboard-response","524","1659853","0.0-6.0-0.74","2962023","co38605","norming","","","","","","",""
"null","../img/tt/1154tt.jpg","null","mooney1","image-keyboard-response","525","1662858","0.0-6.0-1.74","2962023","co38605","norming","","","","","","",""
"6003.600000000093","","","post_mooney1_questions","survey-likert","526","1668862","0.0-6.0-2.74","2962023","co38605","norming","","","{""curiosity"":5,""confidence"":2}","[0,1]","../img/tt/1154tt.jpg","",""
"4606.180000000633","","","recognition","survey-text","527","1673470","0.0-6.0-3.74","2962023","co38605","norming","","","{""guess"":""boom""}","","../img/tt/1154tt.jpg","",""
"null","../img/gs/1154gs.jpg","null","reveal","image-keyboard-response","528","1675472","0.0-6.0-4.74","2962023","co38605","norming","","","","","","",""
"null","../img/tt/1154tt.jpg","null","mooney2","image-keyboard-response","529","1677474","0.0-6.0-5.74","2962023","co38605","norming","","","","","","",""
"4225.419999998761","","","post_reveal_questions","survey-likert","530","1681703","0.0-6.0-6.74","2962023","co38605","norming","","","{""aha"":5}","[0]","../img/tt/1154tt.jpg","",""
"null","<div style=""font-size:60px;""> </div>","null","fixation","html-keyboard-response","531","1681907","0.0-6.0-0.75","2962023","co38605","norming","","","","","","",""
"null","../img/tt/1046tt.jpg","null","mooney1","image-keyboard-response","532","1684915","0.0-6.0-1.75","2962023","co38605","norming","","","","","","",""
"4319.720000001369","","","post_mooney1_questions","survey-likert","533","1689239","0.0-6.0-2.75","2962023","co38605","norming","","","{""curiosity"":3,""confidence"":4}","[0,1]","../img/tt/1046tt.jpg","",""
"2869.9299999987707","","","recognition","survey-text","534","1692111","0.0-6.0-3.75","2962023","co38605","norming","","","{""guess"":""eten""}","","../img/tt/1046tt.jpg","",""
"null","../img/gs/1046gs.jpg","null","reveal","image-keyboard-response","535","1694121","0.0-6.0-4.75","2962023","co38605","norming","","","","","","",""
"null","../img/tt/1046tt.jpg","null","mooney2","image-keyboard-response","536","1696128","0.0-6.0-5.75","2962023","co38605","norming","","","","","","",""
"2742.06500000041","","","post_reveal_questions","survey-likert","537","1698871","0.0-6.0-6.75","2962023","co38605","norming","","","{""aha"":3}","[0]","../img/tt/1046tt.jpg","",""
"null","<div style=""font-size:60px;""> </div>","null","fixation","html-keyboard-response","538","1699073","0.0-6.0-0.76","2962023","co38605","norming","","","","","","",""
"null","../img/tt/032tt.jpg","null","mooney1","image-keyboard-response","539","1702080","0.0-6.0-1.76","2962023","co38605","norming","","","","","","",""
"3747.079999999143","","","post_mooney1_questions","survey-likert","540","1705831","0.0-6.0-2.76","2962023","co38605","norming","","","{""curiosity"":3,""confidence"":5}","[0,1]","../img/tt/032tt.jpg","",""
"2982.304999999469","","","recognition","survey-text","541","1708815","0.0-6.0-3.76","2962023","co38605","norming","","","{""guess"":""dier""}","","../img/tt/032tt.jpg","",""
"null","../img/gs/032gs.jpg","null","reveal","image-keyboard-response","542","1710818","0.0-6.0-4.76","2962023","co38605","norming","","","","","","",""
"null","../img/tt/032tt.jpg","null","mooney2","image-keyboard-response","543","1712820","0.0-6.0-5.76","2962023","co38605","norming","","","","","","",""
"3738.325000000419","","","post_reveal_questions","survey-likert","544","1716559","0.0-6.0-6.76","2962023","co38605","norming","","","{""aha"":6}","[0]","../img/tt/032tt.jpg","",""
"null","<div style=""font-size:60px;""> </div>","null","fixation","html-keyboard-response","545","1716763","0.0-6.0-0.77","2962023","co38605","norming","","","","","","",""
"null","../img/tt/1101tt.jpg","null","mooney1","image-keyboard-response","546","1719766","0.0-6.0-1.77","2962023","co38605","norming","","","","","","",""
"4757.784999999916","","","post_mooney1_questions","survey-likert","547","1724527","0.0-6.0-2.77","2962023","co38605","norming","","","{""curiosity"":1,""confidence"":6}","[0,1]","../img/tt/1101tt.jpg","",""
"4910.230000001378","","","recognition","survey-text","548","1729439","0.0-6.0-3.77","2962023","co38605","norming","","","{""guess"":""mens""}","","../img/tt/1101tt.jpg","",""
"null","../img/gs/1101gs.jpg","null","reveal","image-keyboard-response","549","1731442","0.0-6.0-4.77","2962023","co38605","norming","","","","","","",""
"null","../img/tt/1101tt.jpg","null","mooney2","image-keyboard-response","550","1733453","0.0-6.0-5.77","2962023","co38605","norming","","","","","","",""
"3415.365000000922","","","post_reveal_questions","survey-likert","551","1736871","0.0-6.0-6.77","2962023","co38605","norming","","","{""aha"":5}","[0]","../img/tt/1101tt.jpg","",""
"null","<div style=""font-size:60px;""> </div>","null","fixation","html-keyboard-response","552","1737073","0.0-6.0-0.78","2962023","co38605","norming","","","","","","",""
