"rt","stimulus","key_press","test_part","trial_type","trial_index","time_elapsed","internal_node_id","totalTime","subject","experiment_name","button_pressed","success","responses","question_order","currentStim","old","correct"
"14014.994999999544","Welcome to the experiment. This is an online experiment so please don't close the tab/window until we say goodbye.  Press any key to begin.","13","instructions","html-keyboard-response","0","14028","0.0-0.0","2976946","co38698","norming","","","","","","",""
"16735.05000000023","<div style='word-wrap: break-word; width: 900px'><h3>Please consider this information carefully before deciding whether to participate in this research</h3><ul style='text-align: left; font-size: .8em;'><li><b>Purpose of the research</b>: To examine how people process images.</li><li><b>What you will do in this research</b>:  Stimuli (images) will be presented on the computer and you will be asked different questions about them.</li><li><b>Time required</b>: Participation will take between 45 and 60 minutes to complete.</li><li><b>Risks</b>:  There are no anticipated risks associated with participating in this study. The effects of participating should be comparable to those you would experience from viewing a computer monitor for 30 minutes and using a mouse or keyboard.</li><li><b>Benefits</b>:  This study provides no benefits to you individually except for the credit. The study provides important information about the nature of perception and learning.</li><li><b>Confidentiality</b>:  Your participation in this study will remain confidential. No personally identifiable information will be associated with your data. Your de-identified data may be shared with other researchers and used in future projects.</li><li><b>Participation and withdrawal</b>:  Your participation in this study is completely voluntary and you may refuse to participate or you may choose to withdraw at any time without penalty.</li><li><b>How to contact the researchers</b>: If you have questions or concerns about your participation or payment, or want to request a summary of research findings, please contact Sander Van de Cruys (KU Leuven), at sander.vandecruys@kuleuven.be.</li></ul><p>The nature and purpose of this research have been sufficiently explained and I agree to participate in this study.  I understand that I am free to withdraw at any time without incurring any penalty.</p><p>Please consent by clicking the button below to continue. Otherwise, please exit the study at this time.</p></div>","","instructions","html-button-response","1","30764","0.0-1.0","2976946","co38698","norming","0","","","","","",""
"","","","instructions","fullscreen","2","65271","0.0-2.0","2976946","co38698","norming","","true","","","","",""
"37155.89999999973","","","sona","survey-html-form","3","102433","0.0-3.0","2976946","co38698","norming","","","[{""name"":""sonaid"",""value"":""38698""},{""name"":""debrief"",""value"":""yes""},{""name"":""datajoin"",""value"":""yes""}]","","","",""
"57355.41499999998","<div style='word-wrap: break-word; width: 900px'><h3>Instructions</h3><p>This experiment will have 3 parts. In the first part you will see a series of distorted images like the one below on the left. As you can see in the righthand image, the distorted images are derived from actual photographs. In what follows, you will <strong>briefly</strong> be presented with <strong>only</strong> the distorted image.</p> <div style='float: left; margin-right: 20px;'><img src='../img/018tt.jpg' height='250' width='250'></img></div><div style='float: right; margin-left: 20px;'><img src='../img/018gs.jpg' height='250' width='250'></img></div><p>Subsequently you will be asked a few questions about the image: One question on how <strong>curious</strong> you are about the solution and one on how <strong>confident</strong> you are that you know the solution.</p>Next, we ask you to make a guess on what is in the image. Note that it is OK to name just the <strong>basic level category</strong>. For example when you see a parrot in the image, 'parrot' will obviously be a correct answer but also correct is 'bird'. However, 'animal' will <strong>not</strong> be counted as a correct response. For the example above, 'rose' would be correct or 'flower', but not 'plant'. When soccer players are depicted, 'soccer', 'football', 'soccer players' will be correct, but not 'humans', 'outdoors', or 'sports'. You do not need to describe the image in full, just name the main object in it <strong>in one or two words</strong>. All images depict objects from one of the following broad level categories: animals, inanimate objects, plants, sports, vehicles, and food. Recognizing means knowing <strong>more</strong> than these broad labels for a given image. But we always encourage you to <strong>make a guess</strong> if you can. Note that you are allowed to use <strong>Dutch and English</strong> in your answers, whatever comes easiest for you.</p><p>Press any key to continue.</p></div>","13","instructions","html-keyboard-response","4","159791","0.0-4.0","2976946","co38698","norming","","","","","","",""
"53215.11499999996","<div style='word-wrap: break-word; width: 900px'><h3>Instructions</h3> <p>Next, the solution image will be revealed to you and you'll be asked to indicate how strong your <strong>aha-experience</strong> was after seeing the solution. This describes the positive feeling of the 'click' you sometimes experience, when the pieces of the 'puzzle' fall together and you suddenly have 'insight' in the image.</p><img src='aha.jpg' height='188' width='250'></img><p>Note that there are no right or wrong answers. We are interested in what <strong>you</strong> see in the image and how <strong>you</strong> feel about it.</p><p>Press any key to start the experiment.</p></div>","13","instructions","html-keyboard-response","5","213007","0.0-5.0","2976946","co38698","norming","","","","","","",""
"null","<div style=""font-size:60px;""> </div>","null","fixation","html-keyboard-response","6","213216","0.0-6.0-0.0","2976946","co38698","norming","","","","","","",""
"null","../img/tt/1205tt.jpg","null","mooney1","image-keyboard-response","7","216228","0.0-6.0-1.0","2976946","co38698","norming","","","","","","",""
"14415.214999999997","","","post_mooney1_questions","survey-likert","8","230641","0.0-6.0-2.0","2976946","co38698","norming","","","{""curiosity"":5,""confidence"":1}","[0,1]","../img/tt/1205tt.jpg","",""
"24933.76999999961","","","recognition","survey-text","9","255577","0.0-6.0-3.0","2976946","co38698","norming","","","{""guess"":""Weide""}","","../img/tt/1205tt.jpg","",""
"null","../img/gs/1205gs.jpg","null","reveal","image-keyboard-response","10","257580","0.0-6.0-4.0","2976946","co38698","norming","","","","","","",""
"null","../img/tt/1205tt.jpg","null","mooney2","image-keyboard-response","11","259582","0.0-6.0-5.0","2976946","co38698","norming","","","","","","",""
"4624.329999999667","","","post_reveal_questions","survey-likert","12","264208","0.0-6.0-6.0","2976946","co38698","norming","","","{""aha"":5}","[0]","../img/tt/1205tt.jpg","",""
"null","<div style=""font-size:60px;""> </div>","null","fixation","html-keyboard-response","13","264416","0.0-6.0-0.1","2976946","co38698","norming","","","","","","",""
"null","../img/tt/118tt.jpg","null","mooney1","image-keyboard-response","14","267424","0.0-6.0-1.1","2976946","co38698","norming","","","","","","",""
"28470.809999999823","","","post_mooney1_questions","survey-likert","15","295904","0.0-6.0-2.1","2976946","co38698","norming","","","{""curiosity"":5,""confidence"":0}","[0,1]","../img/tt/118tt.jpg","",""
"10990.17999999976","","","recognition","survey-text","16","306896","0.0-6.0-3.1","2976946","co38698","norming","","","{""guess"":""Bos""}","","../img/tt/118tt.jpg","",""
"null","../img/gs/118gs.jpg","null","reveal","image-keyboard-response","17","308897","0.0-6.0-4.1","2976946","co38698","norming","","","","","","",""
"null","../img/tt/118tt.jpg","null","mooney2","image-keyboard-response","18","310903","0.0-6.0-5.1","2976946","co38698","norming","","","","","","",""
"3350.174999999581","","","post_reveal_questions","survey-likert","19","314256","0.0-6.0-6.1","2976946","co38698","norming","","","{""aha"":4}","[0]","../img/tt/118tt.jpg","",""
"null","<div style=""font-size:60px;""> </div>","null","fixation","html-keyboard-response","20","314461","0.0-6.0-0.2","2976946","co38698","norming","","","","","","",""
"null","../img/tt/1069tt.jpg","null","mooney1","image-keyboard-response","21","317472","0.0-6.0-1.2","2976946","co38698","norming","","","","","","",""
"8980.98500000016","","","post_mooney1_questions","survey-likert","22","326455","0.0-6.0-2.2","2976946","co38698","norming","","","{""curiosity"":2,""confidence"":4}","[0,1]","../img/tt/1069tt.jpg","",""
"4406.25","","","recognition","survey-text","23","330864","0.0-6.0-3.2","2976946","co38698","norming","","","{""guess"":""geiten""}","","../img/tt/1069tt.jpg","",""
"null","../img/gs/1069gs.jpg","null","reveal","image-keyboard-response","24","332872","0.0-6.0-4.2","2976946","co38698","norming","","","","","","",""
"null","../img/tt/1069tt.jpg","null","mooney2","image-keyboard-response","25","334878","0.0-6.0-5.2","2976946","co38698","norming","","","","","","",""
"4600.145000000368","","","post_reveal_questions","survey-likert","26","339479","0.0-6.0-6.2","2976946","co38698","norming","","","{""aha"":2}","[0]","../img/tt/1069tt.jpg","",""
"null","<div style=""font-size:60px;""> </div>","null","fixation","html-keyboard-response","27","339681","0.0-6.0-0.3","2976946","co38698","norming","","","","","","",""
"null","../img/tt/603tt.jpg","null","mooney1","image-keyboard-response","28","342684","0.0-6.0-1.3","2976946","co38698","norming","","","","","","",""
"5610.850000000035","","","post_mooney1_questions","survey-likert","29","348296","0.0-6.0-2.3","2976946","co38698","norming","","","{""curiosity"":4,""confidence"":2}","[0,1]","../img/tt/603tt.jpg","",""
"3573.894999999553","","","recognition","survey-text","30","351871","0.0-6.0-3.3","2976946","co38698","norming","","","{""guess"":""uil""}","","../img/tt/603tt.jpg","",""
"null","../img/gs/603gs.jpg","null","reveal","image-keyboard-response","31","353880","0.0-6.0-4.3","2976946","co38698","norming","","","","","","",""
"null","../img/tt/603tt.jpg","null","mooney2","image-keyboard-response","32","355887","0.0-6.0-5.3","2976946","co38698","norming","","","","","","",""
"2160.2249999996275","","","post_reveal_questions","survey-likert","33","358049","0.0-6.0-6.3","2976946","co38698","norming","","","{""aha"":2}","[0]","../img/tt/603tt.jpg","",""
"null","<div style=""font-size:60px;""> </div>","null","fixation","html-keyboard-response","34","358254","0.0-6.0-0.4","2976946","co38698","norming","","","","","","",""
"null","../img/tt/296tt.jpg","null","mooney1","image-keyboard-response","35","361265","0.0-6.0-1.4","2976946","co38698","norming","","","","","","",""
"5061.380000000063","","","post_mooney1_questions","survey-likert","36","366329","0.0-6.0-2.4","2976946","co38698","norming","","","{""curiosity"":2,""confidence"":3}","[0,1]","../img/tt/296tt.jpg","",""
"2389.615000000049","","","recognition","survey-text","37","368721","0.0-6.0-3.4","2976946","co38698","norming","","","{""guess"":""zetel""}","","../img/tt/296tt.jpg","",""
"null","../img/gs/296gs.jpg","null","reveal","image-keyboard-response","38","370724","0.0-6.0-4.4","2976946","co38698","norming","","","","","","",""
"null","../img/tt/296tt.jpg","null","mooney2","image-keyboard-response","39","372726","0.0-6.0-5.4","2976946","co38698","norming","","","","","","",""
"3409.649999999616","","","post_reveal_questions","survey-likert","40","376137","0.0-6.0-6.4","2976946","co38698","norming","","","{""aha"":3}","[0]","../img/tt/296tt.jpg","",""
"null","<div style=""font-size:60px;""> </div>","null","fixation","html-keyboard-response","41","376338","0.0-6.0-0.5","2976946","co38698","norming","","","","","","",""
"null","../img/tt/108tt.jpg","null","mooney1","image-keyboard-response","42","379340","0.0-6.0-1.5","2976946","co38698","norming","","","","","","",""
"13561.705000000075","","","post_mooney1_questions","survey-likert","43","392905","0.0-6.0-2.5","2976946","co38698","norming","","","{""curiosity"":4,""confidence"":2}","[0,1]","../img/tt/108tt.jpg","",""
"12694.285000000498","","","recognition","survey-text","44","405600","0.0-6.0-3.5","2976946","co38698","norming","","","{""guess"":""Kamer""}","","../img/tt/108tt.jpg","",""
"null","../img/gs/108gs.jpg","null","reveal","image-keyboard-response","45","407609","0.0-6.0-4.5","2976946","co38698","norming","","","","","","",""
"null","../img/tt/108tt.jpg","null","mooney2","image-keyboard-response","46","409610","0.0-6.0-5.5","2976946","co38698","norming","","","","","","",""
"3133.6049999999814","","","post_reveal_questions","survey-likert","47","412744","0.0-6.0-6.5","2976946","co38698","norming","","","{""aha"":5}","[0]","../img/tt/108tt.jpg","",""
"null","<div style=""font-size:60px;""> </div>","null","fixation","html-keyboard-response","48","412949","0.0-6.0-0.6","2976946","co38698","norming","","","","","","",""
"null","../img/tt/1033tt.jpg","null","mooney1","image-keyboard-response","49","415952","0.0-6.0-1.6","2976946","co38698","norming","","","","","","",""
"6720.535000000382","","","post_mooney1_questions","survey-likert","50","422673","0.0-6.0-2.6","2976946","co38698","norming","","","{""curiosity"":5,""confidence"":2}","[0,1]","../img/tt/1033tt.jpg","",""
"5437.920000000275","","","recognition","survey-text","51","428113","0.0-6.0-3.6","2976946","co38698","norming","","","{""guess"":""speer""}","","../img/tt/1033tt.jpg","",""
"null","../img/gs/1033gs.jpg","null","reveal","image-keyboard-response","52","430115","0.0-6.0-4.6","2976946","co38698","norming","","","","","","",""
"null","../img/tt/1033tt.jpg","null","mooney2","image-keyboard-response","53","432116","0.0-6.0-5.6","2976946","co38698","norming","","","","","","",""
"2988.094999999681","","","post_reveal_questions","survey-likert","54","435105","0.0-6.0-6.6","2976946","co38698","norming","","","{""aha"":4}","[0]","../img/tt/1033tt.jpg","",""
"null","<div style=""font-size:60px;""> </div>","null","fixation","html-keyboard-response","55","435311","0.0-6.0-0.7","2976946","co38698","norming","","","","","","",""
"null","../img/tt/1270tt.jpg","null","mooney1","image-keyboard-response","56","438314","0.0-6.0-1.7","2976946","co38698","norming","","","","","","",""
"9254.605000000098","","","post_mooney1_questions","survey-likert","57","447569","0.0-6.0-2.7","2976946","co38698","norming","","","{""curiosity"":4,""confidence"":1}","[0,1]","../img/tt/1270tt.jpg","",""
"17293.564999999944","","","recognition","survey-text","58","464865","0.0-6.0-3.7","2976946","co38698","norming","","","{""guess"":""Tafel""}","","../img/tt/1270tt.jpg","",""
"null","../img/gs/1270gs.jpg","null","reveal","image-keyboard-response","59","466867","0.0-6.0-4.7","2976946","co38698","norming","","","","","","",""
"null","../img/tt/1270tt.jpg","null","mooney2","image-keyboard-response","60","468874","0.0-6.0-5.7","2976946","co38698","norming","","","","","","",""
"3085.915000000561","","","post_reveal_questions","survey-likert","61","471961","0.0-6.0-6.7","2976946","co38698","norming","","","{""aha"":5}","[0]","../img/tt/1270tt.jpg","",""
"null","<div style=""font-size:60px;""> </div>","null","fixation","html-keyboard-response","62","472163","0.0-6.0-0.8","2976946","co38698","norming","","","","","","",""
"null","../img/tt/112tt.jpg","null","mooney1","image-keyboard-response","63","475164","0.0-6.0-1.8","2976946","co38698","norming","","","","","","",""
"8427.645000000659","","","post_mooney1_questions","survey-likert","64","483590","0.0-6.0-2.8","2976946","co38698","norming","","","{""curiosity"":3,""confidence"":2}","[0,1]","../img/tt/112tt.jpg","",""
"3750.130000000354","","","recognition","survey-text","65","487342","0.0-6.0-3.8","2976946","co38698","norming","","","{""guess"":""Gereedschap""}","","../img/tt/112tt.jpg","",""
"null","../img/gs/112gs.jpg","null","reveal","image-keyboard-response","66","489350","0.0-6.0-4.8","2976946","co38698","norming","","","","","","",""
"null","../img/tt/112tt.jpg","null","mooney2","image-keyboard-response","67","491353","0.0-6.0-5.8","2976946","co38698","norming","","","","","","",""
"4428.330000000657","","","post_reveal_questions","survey-likert","68","495782","0.0-6.0-6.8","2976946","co38698","norming","","","{""aha"":4}","[0]","../img/tt/112tt.jpg","",""
"null","<div style=""font-size:60px;""> </div>","null","fixation","html-keyboard-response","69","495985","0.0-6.0-0.9","2976946","co38698","norming","","","","","","",""
"null","../img/tt/1186tt.jpg","null","mooney1","image-keyboard-response","70","498987","0.0-6.0-1.9","2976946","co38698","norming","","","","","","",""
"5370.329999999725","","","post_mooney1_questions","survey-likert","71","504358","0.0-6.0-2.9","2976946","co38698","norming","","","{""curiosity"":3,""confidence"":4}","[0,1]","../img/tt/1186tt.jpg","",""
"2902.215000000084","","","recognition","survey-text","72","507262","0.0-6.0-3.9","2976946","co38698","norming","","","{""guess"":""soldaat""}","","../img/tt/1186tt.jpg","",""
"null","../img/gs/1186gs.jpg","null","reveal","image-keyboard-response","73","509270","0.0-6.0-4.9","2976946","co38698","norming","","","","","","",""
"null","../img/tt/1186tt.jpg","null","mooney2","image-keyboard-response","74","511274","0.0-6.0-5.9","2976946","co38698","norming","","","","","","",""
"2978.9449999998324","","","post_reveal_questions","survey-likert","75","514254","0.0-6.0-6.9","2976946","co38698","norming","","","{""aha"":2}","[0]","../img/tt/1186tt.jpg","",""
"null","<div style=""font-size:60px;""> </div>","null","fixation","html-keyboard-response","76","514461","0.0-6.0-0.10","2976946","co38698","norming","","","","","","",""
"null","../img/tt/1126tt.jpg","null","mooney1","image-keyboard-response","77","517463","0.0-6.0-1.10","2976946","co38698","norming","","","","","","",""
"4086.9500000007683","","","post_mooney1_questions","survey-likert","78","521551","0.0-6.0-2.10","2976946","co38698","norming","","","{""curiosity"":3,""confidence"":2}","[0,1]","../img/tt/1126tt.jpg","",""
"2126.2150000002584","","","recognition","survey-text","79","523679","0.0-6.0-3.10","2976946","co38698","norming","","","{""guess"":""kikker""}","","../img/tt/1126tt.jpg","",""
"null","../img/gs/1126gs.jpg","null","reveal","image-keyboard-response","80","525687","0.0-6.0-4.10","2976946","co38698","norming","","","","","","",""
"null","../img/tt/1126tt.jpg","null","mooney2","image-keyboard-response","81","527688","0.0-6.0-5.10","2976946","co38698","norming","","","","","","",""
"3509.24000000034","","","post_reveal_questions","survey-likert","82","531198","0.0-6.0-6.10","2976946","co38698","norming","","","{""aha"":4}","[0]","../img/tt/1126tt.jpg","",""
"null","<div style=""font-size:60px;""> </div>","null","fixation","html-keyboard-response","83","531400","0.0-6.0-0.11","2976946","co38698","norming","","","","","","",""
"null","../img/tt/1173tt.jpg","null","mooney1","image-keyboard-response","84","534401","0.0-6.0-1.11","2976946","co38698","norming","","","","","","",""
"3852.324999999837","","","post_mooney1_questions","survey-likert","85","538254","0.0-6.0-2.11","2976946","co38698","norming","","","{""curiosity"":3,""confidence"":3}","[0,1]","../img/tt/1173tt.jpg","",""
"4654.145000000368","","","recognition","survey-text","86","542910","0.0-6.0-3.11","2976946","co38698","norming","","","{""guess"":""Voetballer""}","","../img/tt/1173tt.jpg","",""
"null","../img/gs/1173gs.jpg","null","reveal","image-keyboard-response","87","544911","0.0-6.0-4.11","2976946","co38698","norming","","","","","","",""
"null","../img/tt/1173tt.jpg","null","mooney2","image-keyboard-response","88","546917","0.0-6.0-5.11","2976946","co38698","norming","","","","","","",""
"3056.3149999997113","","","post_reveal_questions","survey-likert","89","549974","0.0-6.0-6.11","2976946","co38698","norming","","","{""aha"":2}","[0]","../img/tt/1173tt.jpg","",""
"null","<div style=""font-size:60px;""> </div>","null","fixation","html-keyboard-response","90","550178","0.0-6.0-0.12","2976946","co38698","norming","","","","","","",""
"null","../img/tt/1123tt.jpg","null","mooney1","image-keyboard-response","91","553185","0.0-6.0-1.12","2976946","co38698","norming","","","","","","",""
"5716.159999999916","","","post_mooney1_questions","survey-likert","92","558902","0.0-6.0-2.12","2976946","co38698","norming","","","{""curiosity"":4,""confidence"":4}","[0,1]","../img/tt/1123tt.jpg","",""
"3398.190000000759","","","recognition","survey-text","93","562302","0.0-6.0-3.12","2976946","co38698","norming","","","{""guess"":""basketballer""}","","../img/tt/1123tt.jpg","",""
"null","../img/gs/1123gs.jpg","null","reveal","image-keyboard-response","94","564312","0.0-6.0-4.12","2976946","co38698","norming","","","","","","",""
"null","../img/tt/1123tt.jpg","null","mooney2","image-keyboard-response","95","566322","0.0-6.0-5.12","2976946","co38698","norming","","","","","","",""
"2915.5300000001444","","","post_reveal_questions","survey-likert","96","569238","0.0-6.0-6.12","2976946","co38698","norming","","","{""aha"":2}","[0]","../img/tt/1123tt.jpg","",""
"null","<div style=""font-size:60px;""> </div>","null","fixation","html-keyboard-response","97","569447","0.0-6.0-0.13","2976946","co38698","norming","","","","","","",""
"null","../img/tt/140tt.jpg","null","mooney1","image-keyboard-response","98","572450","0.0-6.0-1.13","2976946","co38698","norming","","","","","","",""
"4931.199999999953","","","post_mooney1_questions","survey-likert","99","577382","0.0-6.0-2.13","2976946","co38698","norming","","","{""curiosity"":2,""confidence"":4}","[0,1]","../img/tt/140tt.jpg","",""
"2774.1700000005076","","","recognition","survey-text","100","580158","0.0-6.0-3.13","2976946","co38698","norming","","","{""guess"":""Vorken""}","","../img/tt/140tt.jpg","",""
"null","../img/gs/140gs.jpg","null","reveal","image-keyboard-response","101","582167","0.0-6.0-4.13","2976946","co38698","norming","","","","","","",""
"null","../img/tt/140tt.jpg","null","mooney2","image-keyboard-response","102","584176","0.0-6.0-5.13","2976946","co38698","norming","","","","","","",""
"2749.574999999837","","","post_reveal_questions","survey-likert","103","586926","0.0-6.0-6.13","2976946","co38698","norming","","","{""aha"":1}","[0]","../img/tt/140tt.jpg","",""
"null","<div style=""font-size:60px;""> </div>","null","fixation","html-keyboard-response","104","587131","0.0-6.0-0.14","2976946","co38698","norming","","","","","","",""
"null","../img/tt/1255tt.jpg","null","mooney1","image-keyboard-response","105","590139","0.0-6.0-1.14","2976946","co38698","norming","","","","","","",""
"6098.294999999809","","","post_mooney1_questions","survey-likert","106","596239","0.0-6.0-2.14","2976946","co38698","norming","","","{""curiosity"":2,""confidence"":4}","[0,1]","../img/tt/1255tt.jpg","",""
"2589.7800000002608","","","recognition","survey-text","107","598830","0.0-6.0-3.14","2976946","co38698","norming","","","{""guess"":""kip""}","","../img/tt/1255tt.jpg","",""
"null","../img/gs/1255gs.jpg","null","reveal","image-keyboard-response","108","600832","0.0-6.0-4.14","2976946","co38698","norming","","","","","","",""
"null","../img/tt/1255tt.jpg","null","mooney2","image-keyboard-response","109","602838","0.0-6.0-5.14","2976946","co38698","norming","","","","","","",""
"3129.6999999994878","","","post_reveal_questions","survey-likert","110","605969","0.0-6.0-6.14","2976946","co38698","norming","","","{""aha"":2}","[0]","../img/tt/1255tt.jpg","",""
"null","<div style=""font-size:60px;""> </div>","null","fixation","html-keyboard-response","111","606179","0.0-6.0-0.15","2976946","co38698","norming","","","","","","",""
"null","../img/tt/1363tt.jpg","null","mooney1","image-keyboard-response","112","609185","0.0-6.0-1.15","2976946","co38698","norming","","","","","","",""
"5991.5099999997765","","","post_mooney1_questions","survey-likert","113","615177","0.0-6.0-2.15","2976946","co38698","norming","","","{""curiosity"":2,""confidence"":2}","[0,1]","../img/tt/1363tt.jpg","",""
"6358.034999999218","","","recognition","survey-text","114","621537","0.0-6.0-3.15","2976946","co38698","norming","","","{""guess"":""sauspotje""}","","../img/tt/1363tt.jpg","",""
"null","../img/gs/1363gs.jpg","null","reveal","image-keyboard-response","115","623543","0.0-6.0-4.15","2976946","co38698","norming","","","","","","",""
"null","../img/tt/1363tt.jpg","null","mooney2","image-keyboard-response","116","625552","0.0-6.0-5.15","2976946","co38698","norming","","","","","","",""
"1695.9599999999627","","","post_reveal_questions","survey-likert","117","627249","0.0-6.0-6.15","2976946","co38698","norming","","","{""aha"":1}","[0]","../img/tt/1363tt.jpg","",""
"null","<div style=""font-size:60px;""> </div>","null","fixation","html-keyboard-response","118","627455","0.0-6.0-0.16","2976946","co38698","norming","","","","","","",""
"null","../img/tt/515tt.jpg","null","mooney1","image-keyboard-response","119","630462","0.0-6.0-1.16","2976946","co38698","norming","","","","","","",""
"5874.399999999674","","","post_mooney1_questions","survey-likert","120","636338","0.0-6.0-2.16","2976946","co38698","norming","","","{""curiosity"":2,""confidence"":4}","[0,1]","../img/tt/515tt.jpg","",""
"2606.3800000002375","","","recognition","survey-text","121","638946","0.0-6.0-3.16","2976946","co38698","norming","","","{""guess"":""vogel""}","","../img/tt/515tt.jpg","",""
"null","../img/gs/515gs.jpg","null","reveal","image-keyboard-response","122","640952","0.0-6.0-4.16","2976946","co38698","norming","","","","","","",""
"null","../img/tt/515tt.jpg","null","mooney2","image-keyboard-response","123","642960","0.0-6.0-5.16","2976946","co38698","norming","","","","","","",""
"10320.3400000002","","","post_reveal_questions","survey-likert","124","653281","0.0-6.0-6.16","2976946","co38698","norming","","","{""aha"":1}","[0]","../img/tt/515tt.jpg","",""
"null","<div style=""font-size:60px;""> </div>","null","fixation","html-keyboard-response","125","653492","0.0-6.0-0.17","2976946","co38698","norming","","","","","","",""
"null","../img/tt/549tt.jpg","null","mooney1","image-keyboard-response","126","656499","0.0-6.0-1.17","2976946","co38698","norming","","","","","","",""
"7629.820000000182","","","post_mooney1_questions","survey-likert","127","664126","0.0-6.0-2.17","2976946","co38698","norming","","","{""curiosity"":5,""confidence"":1}","[0,1]","../img/tt/549tt.jpg","",""
"12109.084999999963","","","recognition","survey-text","128","676237","0.0-6.0-3.17","2976946","co38698","norming","","","{""guess"":""Krekel""}","","../img/tt/549tt.jpg","",""
"null","../img/gs/549gs.jpg","null","reveal","image-keyboard-response","129","678239","0.0-6.0-4.17","2976946","co38698","norming","","","","","","",""
"null","../img/tt/549tt.jpg","null","mooney2","image-keyboard-response","130","680244","0.0-6.0-5.17","2976946","co38698","norming","","","","","","",""
"4688.259999999893","","","post_reveal_questions","survey-likert","131","684933","0.0-6.0-6.17","2976946","co38698","norming","","","{""aha"":4}","[0]","../img/tt/549tt.jpg","",""
"null","<div style=""font-size:60px;""> </div>","null","fixation","html-keyboard-response","132","685140","0.0-6.0-0.18","2976946","co38698","norming","","","","","","",""
"null","../img/tt/1290tt.jpg","null","mooney1","image-keyboard-response","133","688151","0.0-6.0-1.18","2976946","co38698","norming","","","","","","",""
"11893.595000000438","","","post_mooney1_questions","survey-likert","134","700046","0.0-6.0-2.18","2976946","co38698","norming","","","{""curiosity"":5,""confidence"":3}","[0,1]","../img/tt/1290tt.jpg","",""
"2813.57500000007","","","recognition","survey-text","135","702861","0.0-6.0-3.18","2976946","co38698","norming","","","{""guess"":""granaat""}","","../img/tt/1290tt.jpg","",""
"null","../img/gs/1290gs.jpg","null","reveal","image-keyboard-response","136","704865","0.0-6.0-4.18","2976946","co38698","norming","","","","","","",""
"null","../img/tt/1290tt.jpg","null","mooney2","image-keyboard-response","137","706866","0.0-6.0-5.18","2976946","co38698","norming","","","","","","",""
"2714.0500000005122","","","post_reveal_questions","survey-likert","138","709581","0.0-6.0-6.18","2976946","co38698","norming","","","{""aha"":5}","[0]","../img/tt/1290tt.jpg","",""
"null","<div style=""font-size:60px;""> </div>","null","fixation","html-keyboard-response","139","709787","0.0-6.0-0.19","2976946","co38698","norming","","","","","","",""
"null","../img/tt/080tt.jpg","null","mooney1","image-keyboard-response","140","712797","0.0-6.0-1.19","2976946","co38698","norming","","","","","","",""
"4751.460000000312","","","post_mooney1_questions","survey-likert","141","717549","0.0-6.0-2.19","2976946","co38698","norming","","","{""curiosity"":2,""confidence"":4}","[0,1]","../img/tt/080tt.jpg","",""
"4958.119999999297","","","recognition","survey-text","142","722509","0.0-6.0-3.19","2976946","co38698","norming","","","{""guess"":""paddenstoel""}","","../img/tt/080tt.jpg","",""
"null","../img/gs/080gs.jpg","null","reveal","image-keyboard-response","143","724524","0.0-6.0-4.19","2976946","co38698","norming","","","","","","",""
"null","../img/tt/080tt.jpg","null","mooney2","image-keyboard-response","144","726533","0.0-6.0-5.19","2976946","co38698","norming","","","","","","",""
"4299.469999999972","","","post_reveal_questions","survey-likert","145","730834","0.0-6.0-6.19","2976946","co38698","norming","","","{""aha"":1}","[0]","../img/tt/080tt.jpg","",""
"null","<div style=""font-size:60px;""> </div>","null","fixation","html-keyboard-response","146","731039","0.0-6.0-0.20","2976946","co38698","norming","","","","","","",""
"null","../img/tt/053tt.jpg","null","mooney1","image-keyboard-response","147","734047","0.0-6.0-1.20","2976946","co38698","norming","","","","","","",""
"8505.650000000023","","","post_mooney1_questions","survey-likert","148","742554","0.0-6.0-2.20","2976946","co38698","norming","","","{""curiosity"":2,""confidence"":1}","[0,1]","../img/tt/053tt.jpg","",""
"4870.1599999994505","","","recognition","survey-text","149","747426","0.0-6.0-3.20","2976946","co38698","norming","","","{""guess"":""Gras""}","","../img/tt/053tt.jpg","",""
"null","../img/gs/053gs.jpg","null","reveal","image-keyboard-response","150","749428","0.0-6.0-4.20","2976946","co38698","norming","","","","","","",""
"null","../img/tt/053tt.jpg","null","mooney2","image-keyboard-response","151","751433","0.0-6.0-5.20","2976946","co38698","norming","","","","","","",""
"3703.224999999278","","","post_reveal_questions","survey-likert","152","755138","0.0-6.0-6.20","2976946","co38698","norming","","","{""aha"":4}","[0]","../img/tt/053tt.jpg","",""
"null","<div style=""font-size:60px;""> </div>","null","fixation","html-keyboard-response","153","755339","0.0-6.0-0.21","2976946","co38698","norming","","","","","","",""
"null","../img/tt/1279tt.jpg","null","mooney1","image-keyboard-response","154","758347","0.0-6.0-1.21","2976946","co38698","norming","","","","","","",""
"5189.0349999994505","","","post_mooney1_questions","survey-likert","155","763538","0.0-6.0-2.21","2976946","co38698","norming","","","{""curiosity"":3,""confidence"":1}","[0,1]","../img/tt/1279tt.jpg","",""
"1886.1400000004796","","","recognition","survey-text","156","765426","0.0-6.0-3.21","2976946","co38698","norming","","","{""guess"":""bomen""}","","../img/tt/1279tt.jpg","",""
"null","../img/gs/1279gs.jpg","null","reveal","image-keyboard-response","157","767432","0.0-6.0-4.21","2976946","co38698","norming","","","","","","",""
"null","../img/tt/1279tt.jpg","null","mooney2","image-keyboard-response","158","769442","0.0-6.0-5.21","2976946","co38698","norming","","","","","","",""
"2790.4600000001956","","","post_reveal_questions","survey-likert","159","772234","0.0-6.0-6.21","2976946","co38698","norming","","","{""aha"":4}","[0]","../img/tt/1279tt.jpg","",""
"null","<div style=""font-size:60px;""> </div>","null","fixation","html-keyboard-response","160","772440","0.0-6.0-0.22","2976946","co38698","norming","","","","","","",""
"null","../img/tt/1283tt.jpg","null","mooney1","image-keyboard-response","161","775443","0.0-6.0-1.22","2976946","co38698","norming","","","","","","",""
"8285.985000000452","","","post_mooney1_questions","survey-likert","162","783730","0.0-6.0-2.22","2976946","co38698","norming","","","{""curiosity"":4,""confidence"":4}","[0,1]","../img/tt/1283tt.jpg","",""
"7374.044999999576","","","recognition","survey-text","163","791097","0.0-6.0-3.22","2976946","co38698","norming","","","{""guess"":""Vos""}","","../img/tt/1283tt.jpg","",""
"null","../img/gs/1283gs.jpg","null","reveal","image-keyboard-response","164","793105","0.0-6.0-4.22","2976946","co38698","norming","","","","","","",""
"null","../img/tt/1283tt.jpg","null","mooney2","image-keyboard-response","165","795106","0.0-6.0-5.22","2976946","co38698","norming","","","","","","",""
"2173.5650000000605","","","post_reveal_questions","survey-likert","166","797281","0.0-6.0-6.22","2976946","co38698","norming","","","{""aha"":3}","[0]","../img/tt/1283tt.jpg","",""
"null","<div style=""font-size:60px;""> </div>","null","fixation","html-keyboard-response","167","797485","0.0-6.0-0.23","2976946","co38698","norming","","","","","","",""
"null","../img/tt/078tt.jpg","null","mooney1","image-keyboard-response","168","800487","0.0-6.0-1.23","2976946","co38698","norming","","","","","","",""
"4064.5450000001583","","","post_mooney1_questions","survey-likert","169","804553","0.0-6.0-2.23","2976946","co38698","norming","","","{""curiosity"":3,""confidence"":4}","[0,1]","../img/tt/078tt.jpg","",""
"2014.0449999999255","","","recognition","survey-text","170","806569","0.0-6.0-3.23","2976946","co38698","norming","","","{""guess"":""druiven""}","","../img/tt/078tt.jpg","",""
"null","../img/gs/078gs.jpg","null","reveal","image-keyboard-response","171","808576","0.0-6.0-4.23","2976946","co38698","norming","","","","","","",""
"null","../img/tt/078tt.jpg","null","mooney2","image-keyboard-response","172","810584","0.0-6.0-5.23","2976946","co38698","norming","","","","","","",""
"2584.0250000001397","","","post_reveal_questions","survey-likert","173","813169","0.0-6.0-6.23","2976946","co38698","norming","","","{""aha"":1}","[0]","../img/tt/078tt.jpg","",""
"null","<div style=""font-size:60px;""> </div>","null","fixation","html-keyboard-response","174","813376","0.0-6.0-0.24","2976946","co38698","norming","","","","","","",""
"null","../img/tt/1012tt.jpg","null","mooney1","image-keyboard-response","175","816376","0.0-6.0-1.24","2976946","co38698","norming","","","","","","",""
"8311.294999999576","","","post_mooney1_questions","survey-likert","176","824689","0.0-6.0-2.24","2976946","co38698","norming","","","{""curiosity"":5,""confidence"":3}","[0,1]","../img/tt/1012tt.jpg","",""
"4629.899999999907","","","recognition","survey-text","177","829321","0.0-6.0-3.24","2976946","co38698","norming","","","{""guess"":""gezicht hond""}","","../img/tt/1012tt.jpg","",""
"null","../img/gs/1012gs.jpg","null","reveal","image-keyboard-response","178","831328","0.0-6.0-4.24","2976946","co38698","norming","","","","","","",""
"null","../img/tt/1012tt.jpg","null","mooney2","image-keyboard-response","179","833339","0.0-6.0-5.24","2976946","co38698","norming","","","","","","",""
"2957.249999999418","","","post_reveal_questions","survey-likert","180","836297","0.0-6.0-6.24","2976946","co38698","norming","","","{""aha"":4}","[0]","../img/tt/1012tt.jpg","",""
"null","<div style=""font-size:60px;""> </div>","null","fixation","html-keyboard-response","181","836499","0.0-6.0-0.25","2976946","co38698","norming","","","","","","",""
"null","../img/tt/031tt.jpg","null","mooney1","image-keyboard-response","182","839508","0.0-6.0-1.25","2976946","co38698","norming","","","","","","",""
"5283.440000000177","","","post_mooney1_questions","survey-likert","183","844803","0.0-6.0-2.25","2976946","co38698","norming","","","{""curiosity"":3,""confidence"":4}","[0,1]","../img/tt/031tt.jpg","",""
"2158.1750000005122","","","recognition","survey-text","184","846963","0.0-6.0-3.25","2976946","co38698","norming","","","{""guess"":""beer""}","","../img/tt/031tt.jpg","",""
"null","../img/gs/031gs.jpg","null","reveal","image-keyboard-response","185","848965","0.0-6.0-4.25","2976946","co38698","norming","","","","","","",""
"null","../img/tt/031tt.jpg","null","mooney2","image-keyboard-response","186","850967","0.0-6.0-5.25","2976946","co38698","norming","","","","","","",""
"6537.515000000014","","","post_reveal_questions","survey-likert","187","857506","0.0-6.0-6.25","2976946","co38698","norming","","","{""aha"":1}","[0]","../img/tt/031tt.jpg","",""
"null","<div style=""font-size:60px;""> </div>","null","fixation","html-keyboard-response","188","857711","0.0-6.0-0.26","2976946","co38698","norming","","","","","","",""
"null","../img/tt/1247tt.jpg","null","mooney1","image-keyboard-response","189","860721","0.0-6.0-1.26","2976946","co38698","norming","","","","","","",""
"5000.044999999693","","","post_mooney1_questions","survey-likert","190","865723","0.0-6.0-2.26","2976946","co38698","norming","","","{""curiosity"":5,""confidence"":1}","[0,1]","../img/tt/1247tt.jpg","",""
"12774.159999999916","","","recognition","survey-text","191","878499","0.0-6.0-3.26","2976946","co38698","norming","","","{""guess"":""herten""}","","../img/tt/1247tt.jpg","",""
"null","../img/gs/1247gs.jpg","null","reveal","image-keyboard-response","192","880505","0.0-6.0-4.26","2976946","co38698","norming","","","","","","",""
"null","../img/tt/1247tt.jpg","null","mooney2","image-keyboard-response","193","882509","0.0-6.0-5.26","2976946","co38698","norming","","","","","","",""
"3147.59499999939","","","post_reveal_questions","survey-likert","194","885658","0.0-6.0-6.26","2976946","co38698","norming","","","{""aha"":6}","[0]","../img/tt/1247tt.jpg","",""
"null","<div style=""font-size:60px;""> </div>","null","fixation","html-keyboard-response","195","885862","0.0-6.0-0.27","2976946","co38698","norming","","","","","","",""
"null","../img/tt/300tt.jpg","null","mooney1","image-keyboard-response","196","888871","0.0-6.0-1.27","2976946","co38698","norming","","","","","","",""
"8226.329999999492","","","post_mooney1_questions","survey-likert","197","897098","0.0-6.0-2.27","2976946","co38698","norming","","","{""curiosity"":5,""confidence"":1}","[0,1]","../img/tt/300tt.jpg","",""
"3349.975000000093","","","recognition","survey-text","198","900450","0.0-6.0-3.27","2976946","co38698","norming","","","{""guess"":""danseres""}","","../img/tt/300tt.jpg","",""
"null","../img/gs/300gs.jpg","null","reveal","image-keyboard-response","199","902457","0.0-6.0-4.27","2976946","co38698","norming","","","","","","",""
"null","../img/tt/300tt.jpg","null","mooney2","image-keyboard-response","200","904461","0.0-6.0-5.27","2976946","co38698","norming","","","","","","",""
"3644.3699999999953","","","post_reveal_questions","survey-likert","201","908102","0.0-6.0-6.27","2976946","co38698","norming","","","{""aha"":3}","[0]","../img/tt/300tt.jpg","",""
"null","<div style=""font-size:60px;""> </div>","null","fixation","html-keyboard-response","202","908306","0.0-6.0-0.28","2976946","co38698","norming","","","","","","",""
"null","../img/tt/1261tt.jpg","null","mooney1","image-keyboard-response","203","911307","0.0-6.0-1.28","2976946","co38698","norming","","","","","","",""
"5928.915000000503","","","post_mooney1_questions","survey-likert","204","917238","0.0-6.0-2.28","2976946","co38698","norming","","","{""curiosity"":4,""confidence"":2}","[0,1]","../img/tt/1261tt.jpg","",""
"4325.900000000722","","","recognition","survey-text","205","921566","0.0-6.0-3.28","2976946","co38698","norming","","","{""guess"":""hondjes""}","","../img/tt/1261tt.jpg","",""
"null","../img/gs/1261gs.jpg","null","reveal","image-keyboard-response","206","923569","0.0-6.0-4.28","2976946","co38698","norming","","","","","","",""
"null","../img/tt/1261tt.jpg","null","mooney2","image-keyboard-response","207","925573","0.0-6.0-5.28","2976946","co38698","norming","","","","","","",""
"2847.2099999998463","","","post_reveal_questions","survey-likert","208","928422","0.0-6.0-6.28","2976946","co38698","norming","","","{""aha"":2}","[0]","../img/tt/1261tt.jpg","",""
"null","<div style=""font-size:60px;""> </div>","null","fixation","html-keyboard-response","209","928626","0.0-6.0-0.29","2976946","co38698","norming","","","","","","",""
"null","../img/tt/1128tt.jpg","null","mooney1","image-keyboard-response","210","931628","0.0-6.0-1.29","2976946","co38698","norming","","","","","","",""
"5167.620000000112","","","post_mooney1_questions","survey-likert","211","936798","0.0-6.0-2.29","2976946","co38698","norming","","","{""curiosity"":5,""confidence"":3}","[0,1]","../img/tt/1128tt.jpg","",""
"1854.0499999999302","","","recognition","survey-text","212","938654","0.0-6.0-3.29","2976946","co38698","norming","","","{""guess"":""aap""}","","../img/tt/1128tt.jpg","",""
"null","../img/gs/1128gs.jpg","null","reveal","image-keyboard-response","213","940660","0.0-6.0-4.29","2976946","co38698","norming","","","","","","",""
"null","../img/tt/1128tt.jpg","null","mooney2","image-keyboard-response","214","942662","0.0-6.0-5.29","2976946","co38698","norming","","","","","","",""
"3215.4600000004284","","","post_reveal_questions","survey-likert","215","945878","0.0-6.0-6.29","2976946","co38698","norming","","","{""aha"":2}","[0]","../img/tt/1128tt.jpg","",""
"null","<div style=""font-size:60px;""> </div>","null","fixation","html-keyboard-response","216","946087","0.0-6.0-0.30","2976946","co38698","norming","","","","","","",""
"null","../img/tt/1224tt.jpg","null","mooney1","image-keyboard-response","217","949095","0.0-6.0-1.30","2976946","co38698","norming","","","","","","",""
"9004.974999999744","","","post_mooney1_questions","survey-likert","218","958102","0.0-6.0-2.30","2976946","co38698","norming","","","{""curiosity"":5,""confidence"":4}","[0,1]","../img/tt/1224tt.jpg","",""
"6101.875000000349","","","recognition","survey-text","219","964206","0.0-6.0-3.30","2976946","co38698","norming","","","{""guess"":""roepende vrouw""}","","../img/tt/1224tt.jpg","",""
"null","../img/gs/1224gs.jpg","null","reveal","image-keyboard-response","220","966217","0.0-6.0-4.30","2976946","co38698","norming","","","","","","",""
"null","../img/tt/1224tt.jpg","null","mooney2","image-keyboard-response","221","968226","0.0-6.0-5.30","2976946","co38698","norming","","","","","","",""
"3168.8150000000605","","","post_reveal_questions","survey-likert","222","971397","0.0-6.0-6.30","2976946","co38698","norming","","","{""aha"":4}","[0]","../img/tt/1224tt.jpg","",""
"null","<div style=""font-size:60px;""> </div>","null","fixation","html-keyboard-response","223","971607","0.0-6.0-0.31","2976946","co38698","norming","","","","","","",""
"null","../img/tt/1087tt.jpg","null","mooney1","image-keyboard-response","224","974619","0.0-6.0-1.31","2976946","co38698","norming","","","","","","",""
"5984.075000000303","","","post_mooney1_questions","survey-likert","225","980605","0.0-6.0-2.31","2976946","co38698","norming","","","{""curiosity"":2,""confidence"":4}","[0,1]","../img/tt/1087tt.jpg","",""
"2838.029999999795","","","recognition","survey-text","226","983445","0.0-6.0-3.31","2976946","co38698","norming","","","{""guess"":""schapen""}","","../img/tt/1087tt.jpg","",""
"null","../img/gs/1087gs.jpg","null","reveal","image-keyboard-response","227","985452","0.0-6.0-4.31","2976946","co38698","norming","","","","","","",""
"null","../img/tt/1087tt.jpg","null","mooney2","image-keyboard-response","228","987454","0.0-6.0-5.31","2976946","co38698","norming","","","","","","",""
"4460.710000000196","","","post_reveal_questions","survey-likert","229","991917","0.0-6.0-6.31","2976946","co38698","norming","","","{""aha"":1}","[0]","../img/tt/1087tt.jpg","",""
"null","<div style=""font-size:60px;""> </div>","null","fixation","html-keyboard-response","230","992118","0.0-6.0-0.32","2976946","co38698","norming","","","","","","",""
"null","../img/tt/1307tt.jpg","null","mooney1","image-keyboard-response","231","995127","0.0-6.0-1.32","2976946","co38698","norming","","","","","","",""
"4115.75","","","post_mooney1_questions","survey-likert","232","999245","0.0-6.0-2.32","2976946","co38698","norming","","","{""curiosity"":3,""confidence"":2}","[0,1]","../img/tt/1307tt.jpg","",""
"1733.9549999996088","","","recognition","survey-text","233","1000981","0.0-6.0-3.32","2976946","co38698","norming","","","{""guess"":""wiel""}","","../img/tt/1307tt.jpg","",""
"null","../img/gs/1307gs.jpg","null","reveal","image-keyboard-response","234","1002982","0.0-6.0-4.32","2976946","co38698","norming","","","","","","",""
"null","../img/tt/1307tt.jpg","null","mooney2","image-keyboard-response","235","1004991","0.0-6.0-5.32","2976946","co38698","norming","","","","","","",""
"8643.495000000228","","","post_reveal_questions","survey-likert","236","1013637","0.0-6.0-6.32","2976946","co38698","norming","","","{""aha"":2}","[0]","../img/tt/1307tt.jpg","",""
"null","<div style=""font-size:60px;""> </div>","null","fixation","html-keyboard-response","237","1013838","0.0-6.0-0.33","2976946","co38698","norming","","","","","","",""
"null","../img/tt/111tt.jpg","null","mooney1","image-keyboard-response","238","1016849","0.0-6.0-1.33","2976946","co38698","norming","","","","","","",""
"4227.130000000121","","","post_mooney1_questions","survey-likert","239","1021077","0.0-6.0-2.33","2976946","co38698","norming","","","{""curiosity"":2,""confidence"":5}","[0,1]","../img/tt/111tt.jpg","",""
"3277.8500000004424","","","recognition","survey-text","240","1024357","0.0-6.0-3.33","2976946","co38698","norming","","","{""guess"":""douchekop""}","","../img/tt/111tt.jpg","",""
"null","../img/gs/111gs.jpg","null","reveal","image-keyboard-response","241","1026366","0.0-6.0-4.33","2976946","co38698","norming","","","","","","",""
"null","../img/tt/111tt.jpg","null","mooney2","image-keyboard-response","242","1028377","0.0-6.0-5.33","2976946","co38698","norming","","","","","","",""
"4090.680000000284","","","post_reveal_questions","survey-likert","243","1032470","0.0-6.0-6.33","2976946","co38698","norming","","","{""aha"":0}","[0]","../img/tt/111tt.jpg","",""
"null","<div style=""font-size:60px;""> </div>","null","fixation","html-keyboard-response","244","1032675","0.0-6.0-0.34","2976946","co38698","norming","","","","","","",""
"null","../img/tt/1053tt.jpg","null","mooney1","image-keyboard-response","245","1035679","0.0-6.0-1.34","2976946","co38698","norming","","","","","","",""
"5028.194999999832","","","post_mooney1_questions","survey-likert","246","1040710","0.0-6.0-2.34","2976946","co38698","norming","","","{""curiosity"":4,""confidence"":3}","[0,1]","../img/tt/1053tt.jpg","",""
"2318.110000000219","","","recognition","survey-text","247","1043030","0.0-6.0-3.34","2976946","co38698","norming","","","{""guess"":""koeien""}","","../img/tt/1053tt.jpg","",""
"null","../img/gs/1053gs.jpg","null","reveal","image-keyboard-response","248","1045033","0.0-6.0-4.34","2976946","co38698","norming","","","","","","",""
"null","../img/tt/1053tt.jpg","null","mooney2","image-keyboard-response","249","1047042","0.0-6.0-5.34","2976946","co38698","norming","","","","","","",""
"3130.189999999944","","","post_reveal_questions","survey-likert","250","1050174","0.0-6.0-6.34","2976946","co38698","norming","","","{""aha"":1}","[0]","../img/tt/1053tt.jpg","",""
"null","<div style=""font-size:60px;""> </div>","null","fixation","html-keyboard-response","251","1050375","0.0-6.0-0.35","2976946","co38698","norming","","","","","","",""
"null","../img/tt/1171tt.jpg","null","mooney1","image-keyboard-response","252","1053387","0.0-6.0-1.35","2976946","co38698","norming","","","","","","",""
"6496.5449999999255","","","post_mooney1_questions","survey-likert","253","1059886","0.0-6.0-2.35","2976946","co38698","norming","","","{""curiosity"":5,""confidence"":1}","[0,1]","../img/tt/1171tt.jpg","",""
"3542.0299999995623","","","recognition","survey-text","254","1063430","0.0-6.0-3.35","2976946","co38698","norming","","","{""guess"":""wolf""}","","../img/tt/1171tt.jpg","",""
"null","../img/gs/1171gs.jpg","null","reveal","image-keyboard-response","255","1065432","0.0-6.0-4.35","2976946","co38698","norming","","","","","","",""
"null","../img/tt/1171tt.jpg","null","mooney2","image-keyboard-response","256","1067438","0.0-6.0-5.35","2976946","co38698","norming","","","","","","",""
"4181.610000000568","","","post_reveal_questions","survey-likert","257","1071622","0.0-6.0-6.35","2976946","co38698","norming","","","{""aha"":3}","[0]","../img/tt/1171tt.jpg","",""
"null","<div style=""font-size:60px;""> </div>","null","fixation","html-keyboard-response","258","1071832","0.0-6.0-0.36","2976946","co38698","norming","","","","","","",""
"null","../img/tt/1272tt.jpg","null","mooney1","image-keyboard-response","259","1074841","0.0-6.0-1.36","2976946","co38698","norming","","","","","","",""
"5572.250000000233","","","post_mooney1_questions","survey-likert","260","1080414","0.0-6.0-2.36","2976946","co38698","norming","","","{""curiosity"":4,""confidence"":2}","[0,1]","../img/tt/1272tt.jpg","",""
"1990.114999999525","","","recognition","survey-text","261","1082406","0.0-6.0-3.36","2976946","co38698","norming","","","{""guess"":""bos""}","","../img/tt/1272tt.jpg","",""
"null","../img/gs/1272gs.jpg","null","reveal","image-keyboard-response","262","1084416","0.0-6.0-4.36","2976946","co38698","norming","","","","","","",""
"null","../img/tt/1272tt.jpg","null","mooney2","image-keyboard-response","263","1086425","0.0-6.0-5.36","2976946","co38698","norming","","","","","","",""
"2922.7700000000186","","","post_reveal_questions","survey-likert","264","1089351","0.0-6.0-6.36","2976946","co38698","norming","","","{""aha"":4}","[0]","../img/tt/1272tt.jpg","",""
"null","<div style=""font-size:60px;""> </div>","null","fixation","html-keyboard-response","265","1089555","0.0-6.0-0.37","2976946","co38698","norming","","","","","","",""
"null","../img/tt/1116tt.jpg","null","mooney1","image-keyboard-response","266","1092562","0.0-6.0-1.37","2976946","co38698","norming","","","","","","",""
"4170.285000000149","","","post_mooney1_questions","survey-likert","267","1096735","0.0-6.0-2.37","2976946","co38698","norming","","","{""curiosity"":4,""confidence"":3}","[0,1]","../img/tt/1116tt.jpg","",""
"2405.8399999993853","","","recognition","survey-text","268","1099143","0.0-6.0-3.37","2976946","co38698","norming","","","{""guess"":""bootjes""}","","../img/tt/1116tt.jpg","",""
"null","../img/gs/1116gs.jpg","null","reveal","image-keyboard-response","269","1101152","0.0-6.0-4.37","2976946","co38698","norming","","","","","","",""
"null","../img/tt/1116tt.jpg","null","mooney2","image-keyboard-response","270","1103156","0.0-6.0-5.37","2976946","co38698","norming","","","","","","",""
"2911.0600000002887","","","post_reveal_questions","survey-likert","271","1106071","0.0-6.0-6.37","2976946","co38698","norming","","","{""aha"":3}","[0]","../img/tt/1116tt.jpg","",""
"null","<div style=""font-size:60px;""> </div>","null","fixation","html-keyboard-response","272","1106280","0.0-6.0-0.38","2976946","co38698","norming","","","","","","",""
"null","../img/tt/1181tt.jpg","null","mooney1","image-keyboard-response","273","1109285","0.0-6.0-1.38","2976946","co38698","norming","","","","","","",""
"7519.914999999804","","","post_mooney1_questions","survey-likert","274","1116807","0.0-6.0-2.38","2976946","co38698","norming","","","{""curiosity"":4,""confidence"":4}","[0,1]","../img/tt/1181tt.jpg","",""
"7693.909999999916","","","recognition","survey-text","275","1124503","0.0-6.0-3.38","2976946","co38698","norming","","","{""guess"":""meerdere sporters""}","","../img/tt/1181tt.jpg","",""
"null","../img/gs/1181gs.jpg","null","reveal","image-keyboard-response","276","1126508","0.0-6.0-4.38","2976946","co38698","norming","","","","","","",""
"null","../img/tt/1181tt.jpg","null","mooney2","image-keyboard-response","277","1128517","0.0-6.0-5.38","2976946","co38698","norming","","","","","","",""
"2927.3499999998603","","","post_reveal_questions","survey-likert","278","1131447","0.0-6.0-6.38","2976946","co38698","norming","","","{""aha"":2}","[0]","../img/tt/1181tt.jpg","",""
"null","<div style=""font-size:60px;""> </div>","null","fixation","html-keyboard-response","279","1131650","0.0-6.0-0.39","2976946","co38698","norming","","","","","","",""
"null","../img/tt/1004tt.jpg","null","mooney1","image-keyboard-response","280","1134656","0.0-6.0-1.39","2976946","co38698","norming","","","","","","",""
"3932.660000000382","","","post_mooney1_questions","survey-likert","281","1138591","0.0-6.0-2.39","2976946","co38698","norming","","","{""curiosity"":4,""confidence"":1}","[0,1]","../img/tt/1004tt.jpg","",""
"2950.18499999959","","","recognition","survey-text","282","1141543","0.0-6.0-3.39","2976946","co38698","norming","","","{""guess"":""bizon""}","","../img/tt/1004tt.jpg","",""
"null","../img/gs/1004gs.jpg","null","reveal","image-keyboard-response","283","1143552","0.0-6.0-4.39","2976946","co38698","norming","","","","","","",""
"null","../img/tt/1004tt.jpg","null","mooney2","image-keyboard-response","284","1145555","0.0-6.0-5.39","2976946","co38698","norming","","","","","","",""
"4857.7599999997765","","","post_reveal_questions","survey-likert","285","1150409","0.0-6.0-6.39","2976946","co38698","norming","","","{""aha"":2}","[0]","../img/tt/1004tt.jpg","",""
"null","<div style=""font-size:60px;""> </div>","null","fixation","html-keyboard-response","286","1150619","0.0-6.0-0.40","2976946","co38698","norming","","","","","","",""
"null","../img/tt/307tt.jpg","null","mooney1","image-keyboard-response","287","1153623","0.0-6.0-1.40","2976946","co38698","norming","","","","","","",""
"5302.995000000112","","","post_mooney1_questions","survey-likert","288","1158929","0.0-6.0-2.40","2976946","co38698","norming","","","{""curiosity"":3,""confidence"":1}","[0,1]","../img/tt/307tt.jpg","",""
"3150.1749999998137","","","recognition","survey-text","289","1162081","0.0-6.0-3.40","2976946","co38698","norming","","","{""guess"":""gezicht""}","","../img/tt/307tt.jpg","",""
"null","../img/gs/307gs.jpg","null","reveal","image-keyboard-response","290","1164089","0.0-6.0-4.40","2976946","co38698","norming","","","","","","",""
"null","../img/tt/307tt.jpg","null","mooney2","image-keyboard-response","291","1166091","0.0-6.0-5.40","2976946","co38698","norming","","","","","","",""
"3340.735000000568","","","post_reveal_questions","survey-likert","292","1169433","0.0-6.0-6.40","2976946","co38698","norming","","","{""aha"":4}","[0]","../img/tt/307tt.jpg","",""
"null","<div style=""font-size:60px;""> </div>","null","fixation","html-keyboard-response","293","1169634","0.0-6.0-0.41","2976946","co38698","norming","","","","","","",""
"null","../img/tt/1156tt.jpg","null","mooney1","image-keyboard-response","294","1172639","0.0-6.0-1.41","2976946","co38698","norming","","","","","","",""
"4839.2400000002235","","","post_mooney1_questions","survey-likert","295","1177481","0.0-6.0-2.41","2976946","co38698","norming","","","{""curiosity"":2,""confidence"":4}","[0,1]","../img/tt/1156tt.jpg","",""
"4149.975000000326","","","recognition","survey-text","296","1181633","0.0-6.0-3.41","2976946","co38698","norming","","","{""guess"":""liggende vrouw""}","","../img/tt/1156tt.jpg","",""
"null","../img/gs/1156gs.jpg","null","reveal","image-keyboard-response","297","1183642","0.0-6.0-4.41","2976946","co38698","norming","","","","","","",""
"null","../img/tt/1156tt.jpg","null","mooney2","image-keyboard-response","298","1185647","0.0-6.0-5.41","2976946","co38698","norming","","","","","","",""
"1287.440000000177","","","post_reveal_questions","survey-likert","299","1186937","0.0-6.0-6.41","2976946","co38698","norming","","","{""aha"":1}","[0]","../img/tt/1156tt.jpg","",""
"null","<div style=""font-size:60px;""> </div>","null","fixation","html-keyboard-response","300","1187144","0.0-6.0-0.42","2976946","co38698","norming","","","","","","",""
"null","../img/tt/1046tt.jpg","null","mooney1","image-keyboard-response","301","1190153","0.0-6.0-1.42","2976946","co38698","norming","","","","","","",""
"6213.2400000002235","","","post_mooney1_questions","survey-likert","302","1196369","0.0-6.0-2.42","2976946","co38698","norming","","","{""curiosity"":4,""confidence"":4}","[0,1]","../img/tt/1046tt.jpg","",""
"3917.9600000006612","","","recognition","survey-text","303","1200289","0.0-6.0-3.42","2976946","co38698","norming","","","{""guess"":""bord pizza""}","","../img/tt/1046tt.jpg","",""
"null","../img/gs/1046gs.jpg","null","reveal","image-keyboard-response","304","1202298","0.0-6.0-4.42","2976946","co38698","norming","","","","","","",""
"null","../img/tt/1046tt.jpg","null","mooney2","image-keyboard-response","305","1204300","0.0-6.0-5.42","2976946","co38698","norming","","","","","","",""
"2752.6450000004843","","","post_reveal_questions","survey-likert","306","1207057","0.0-6.0-6.42","2976946","co38698","norming","","","{""aha"":1}","[0]","../img/tt/1046tt.jpg","",""
"null","<div style=""font-size:60px;""> </div>","null","fixation","html-keyboard-response","307","1207263","0.0-6.0-0.43","2976946","co38698","norming","","","","","","",""
"null","../img/tt/094tt.jpg","null","mooney1","image-keyboard-response","308","1210274","0.0-6.0-1.43","2976946","co38698","norming","","","","","","",""
"5347.66500000027","","","post_mooney1_questions","survey-likert","309","1215625","0.0-6.0-2.43","2976946","co38698","norming","","","{""curiosity"":2,""confidence"":5}","[0,1]","../img/tt/094tt.jpg","",""
"3550.109999999171","","","recognition","survey-text","310","1219176","0.0-6.0-3.43","2976946","co38698","norming","","","{""guess"":""wolf""}","","../img/tt/094tt.jpg","",""
"null","../img/gs/094gs.jpg","null","reveal","image-keyboard-response","311","1221184","0.0-6.0-4.43","2976946","co38698","norming","","","","","","",""
"null","../img/tt/094tt.jpg","null","mooney2","image-keyboard-response","312","1223196","0.0-6.0-5.43","2976946","co38698","norming","","","","","","",""
"2657.05999999959","","","post_reveal_questions","survey-likert","313","1225856","0.0-6.0-6.43","2976946","co38698","norming","","","{""aha"":0}","[0]","../img/tt/094tt.jpg","",""
"null","<div style=""font-size:60px;""> </div>","null","fixation","html-keyboard-response","314","1226066","0.0-6.0-0.44","2976946","co38698","norming","","","","","","",""
"null","../img/tt/008tt.jpg","null","mooney1","image-keyboard-response","315","1229075","0.0-6.0-1.44","2976946","co38698","norming","","","","","","",""
"7618.4000000003725","","","post_mooney1_questions","survey-likert","316","1236697","0.0-6.0-2.44","2976946","co38698","norming","","","{""curiosity"":4,""confidence"":1}","[0,1]","../img/tt/008tt.jpg","",""
"3006.0849999999627","","","recognition","survey-text","317","1239704","0.0-6.0-3.44","2976946","co38698","norming","","","{""guess"":""tractor""}","","../img/tt/008tt.jpg","",""
"null","../img/gs/008gs.jpg","null","reveal","image-keyboard-response","318","1241709","0.0-6.0-4.44","2976946","co38698","norming","","","","","","",""
"null","../img/tt/008tt.jpg","null","mooney2","image-keyboard-response","319","1243719","0.0-6.0-5.44","2976946","co38698","norming","","","","","","",""
"2607.2249999996275","","","post_reveal_questions","survey-likert","320","1246328","0.0-6.0-6.44","2976946","co38698","norming","","","{""aha"":4}","[0]","../img/tt/008tt.jpg","",""
"null","<div style=""font-size:60px;""> </div>","null","fixation","html-keyboard-response","321","1246538","0.0-6.0-0.45","2976946","co38698","norming","","","","","","",""
"null","../img/tt/1078tt.jpg","null","mooney1","image-keyboard-response","322","1249547","0.0-6.0-1.45","2976946","co38698","norming","","","","","","",""
"4106.1049999997485","","","post_mooney1_questions","survey-likert","323","1253656","0.0-6.0-2.45","2976946","co38698","norming","","","{""curiosity"":3,""confidence"":3}","[0,1]","../img/tt/1078tt.jpg","",""
"3278.2100000001956","","","recognition","survey-text","324","1256936","0.0-6.0-3.45","2976946","co38698","norming","","","{""guess"":""zittende man""}","","../img/tt/1078tt.jpg","",""
"null","../img/gs/1078gs.jpg","null","reveal","image-keyboard-response","325","1258937","0.0-6.0-4.45","2976946","co38698","norming","","","","","","",""
"null","../img/tt/1078tt.jpg","null","mooney2","image-keyboard-response","326","1260945","0.0-6.0-5.45","2976946","co38698","norming","","","","","","",""
"7204.925000000047","","","post_reveal_questions","survey-likert","327","1268152","0.0-6.0-6.45","2976946","co38698","norming","","","{""aha"":2}","[0]","../img/tt/1078tt.jpg","",""
"null","<div style=""font-size:60px;""> </div>","null","fixation","html-keyboard-response","328","1268353","0.0-6.0-0.46","2976946","co38698","norming","","","","","","",""
"null","../img/tt/438tt.jpg","null","mooney1","image-keyboard-response","329","1271366","0.0-6.0-1.46","2976946","co38698","norming","","","","","","",""
"4031.6299999994226","","","post_mooney1_questions","survey-likert","330","1275401","0.0-6.0-2.46","2976946","co38698","norming","","","{""curiosity"":5,""confidence"":2}","[0,1]","../img/tt/438tt.jpg","",""
"2382.294999999227","","","recognition","survey-text","331","1277785","0.0-6.0-3.46","2976946","co38698","norming","","","{""guess"":""schelp""}","","../img/tt/438tt.jpg","",""
"null","../img/gs/438gs.jpg","null","reveal","image-keyboard-response","332","1279790","0.0-6.0-4.46","2976946","co38698","norming","","","","","","",""
"null","../img/tt/438tt.jpg","null","mooney2","image-keyboard-response","333","1281797","0.0-6.0-5.46","2976946","co38698","norming","","","","","","",""
"5912.890000000596","","","post_reveal_questions","survey-likert","334","1287713","0.0-6.0-6.46","2976946","co38698","norming","","","{""aha"":3}","[0]","../img/tt/438tt.jpg","",""
"null","<div style=""font-size:60px;""> </div>","null","fixation","html-keyboard-response","335","1287919","0.0-6.0-0.47","2976946","co38698","norming","","","","","","",""
"null","../img/tt/019tt.jpg","null","mooney1","image-keyboard-response","336","1290928","0.0-6.0-1.47","2976946","co38698","norming","","","","","","",""
"7214.700000000419","","","post_mooney1_questions","survey-likert","337","1298145","0.0-6.0-2.47","2976946","co38698","norming","","","{""curiosity"":4,""confidence"":4}","[0,1]","../img/tt/019tt.jpg","",""
"3429.55999999959","","","recognition","survey-text","338","1301577","0.0-6.0-3.47","2976946","co38698","norming","","","{""guess"":""vulpen""}","","../img/tt/019tt.jpg","",""
"null","../img/gs/019gs.jpg","null","reveal","image-keyboard-response","339","1303585","0.0-6.0-4.47","2976946","co38698","norming","","","","","","",""
"null","../img/tt/019tt.jpg","null","mooney2","image-keyboard-response","340","1305587","0.0-6.0-5.47","2976946","co38698","norming","","","","","","",""
"2443.4600000004284","","","post_reveal_questions","survey-likert","341","1308033","0.0-6.0-6.47","2976946","co38698","norming","","","{""aha"":3}","[0]","../img/tt/019tt.jpg","",""
"null","<div style=""font-size:60px;""> </div>","null","fixation","html-keyboard-response","342","1308235","0.0-6.0-0.48","2976946","co38698","norming","","","","","","",""
"null","../img/tt/1175tt.jpg","null","mooney1","image-keyboard-response","343","1311244","0.0-6.0-1.48","2976946","co38698","norming","","","","","","",""
"5329.654999999562","","","post_mooney1_questions","survey-likert","344","1316577","0.0-6.0-2.48","2976946","co38698","norming","","","{""curiosity"":3,""confidence"":3}","[0,1]","../img/tt/1175tt.jpg","",""
"4822.159999999683","","","recognition","survey-text","345","1321401","0.0-6.0-3.48","2976946","co38698","norming","","","{""guess"":""massa mensen""}","","../img/tt/1175tt.jpg","",""
"null","../img/gs/1175gs.jpg","null","reveal","image-keyboard-response","346","1323405","0.0-6.0-4.48","2976946","co38698","norming","","","","","","",""
"null","../img/tt/1175tt.jpg","null","mooney2","image-keyboard-response","347","1325415","0.0-6.0-5.48","2976946","co38698","norming","","","","","","",""
"2503.0200000002515","","","post_reveal_questions","survey-likert","348","1327921","0.0-6.0-6.48","2976946","co38698","norming","","","{""aha"":3}","[0]","../img/tt/1175tt.jpg","",""
"null","<div style=""font-size:60px;""> </div>","null","fixation","html-keyboard-response","349","1328128","0.0-6.0-0.49","2976946","co38698","norming","","","","","","",""
"null","../img/tt/063tt.jpg","null","mooney1","image-keyboard-response","350","1331131","0.0-6.0-1.49","2976946","co38698","norming","","","","","","",""
"3833.1350000009406","","","post_mooney1_questions","survey-likert","351","1334965","0.0-6.0-2.49","2976946","co38698","norming","","","{""curiosity"":3,""confidence"":3}","[0,1]","../img/tt/063tt.jpg","",""
"2718.280000000028","","","recognition","survey-text","352","1337685","0.0-6.0-3.49","2976946","co38698","norming","","","{""guess"":""harmonica""}","","../img/tt/063tt.jpg","",""
"null","../img/gs/063gs.jpg","null","reveal","image-keyboard-response","353","1339692","0.0-6.0-4.49","2976946","co38698","norming","","","","","","",""
"null","../img/tt/063tt.jpg","null","mooney2","image-keyboard-response","354","1341697","0.0-6.0-5.49","2976946","co38698","norming","","","","","","",""
"5041.149999999907","","","post_reveal_questions","survey-likert","355","1346741","0.0-6.0-6.49","2976946","co38698","norming","","","{""aha"":2}","[0]","../img/tt/063tt.jpg","",""
"null","<div style=""font-size:60px;""> </div>","null","fixation","html-keyboard-response","356","1346951","0.0-6.0-0.50","2976946","co38698","norming","","","","","","",""
"null","../img/tt/534tt.jpg","null","mooney1","image-keyboard-response","357","1349955","0.0-6.0-1.50","2976946","co38698","norming","","","","","","",""
"3638.935000000056","","","post_mooney1_questions","survey-likert","358","1353597","0.0-6.0-2.50","2976946","co38698","norming","","","{""curiosity"":4,""confidence"":4}","[0,1]","../img/tt/534tt.jpg","",""
"3925.755000000354","","","recognition","survey-text","359","1357524","0.0-6.0-3.50","2976946","co38698","norming","","","{""guess"":""cactussen""}","","../img/tt/534tt.jpg","",""
"null","../img/gs/534gs.jpg","null","reveal","image-keyboard-response","360","1359526","0.0-6.0-4.50","2976946","co38698","norming","","","","","","",""
"null","../img/tt/534tt.jpg","null","mooney2","image-keyboard-response","361","1361532","0.0-6.0-5.50","2976946","co38698","norming","","","","","","",""
"3189.8349999999627","","","post_reveal_questions","survey-likert","362","1364724","0.0-6.0-6.50","2976946","co38698","norming","","","{""aha"":1}","[0]","../img/tt/534tt.jpg","",""
"null","<div style=""font-size:60px;""> </div>","null","fixation","html-keyboard-response","363","1364935","0.0-6.0-0.51","2976946","co38698","norming","","","","","","",""
"null","../img/tt/1191tt.jpg","null","mooney1","image-keyboard-response","364","1367945","0.0-6.0-1.51","2976946","co38698","norming","","","","","","",""
"5328.54499999946","","","post_mooney1_questions","survey-likert","365","1373276","0.0-6.0-2.51","2976946","co38698","norming","","","{""curiosity"":4,""confidence"":3}","[0,1]","../img/tt/1191tt.jpg","",""
"2453.8000000002794","","","recognition","survey-text","366","1375732","0.0-6.0-3.51","2976946","co38698","norming","","","{""guess"":""kamelen""}","","../img/tt/1191tt.jpg","",""
"null","../img/gs/1191gs.jpg","null","reveal","image-keyboard-response","367","1377737","0.0-6.0-4.51","2976946","co38698","norming","","","","","","",""
"null","../img/tt/1191tt.jpg","null","mooney2","image-keyboard-response","368","1379740","0.0-6.0-5.51","2976946","co38698","norming","","","","","","",""
"2645.695000000065","","","post_reveal_questions","survey-likert","369","1382388","0.0-6.0-6.51","2976946","co38698","norming","","","{""aha"":3}","[0]","../img/tt/1191tt.jpg","",""
"null","<div style=""font-size:60px;""> </div>","null","fixation","html-keyboard-response","370","1382592","0.0-6.0-0.52","2976946","co38698","norming","","","","","","",""
"null","../img/tt/1143tt.jpg","null","mooney1","image-keyboard-response","371","1385595","0.0-6.0-1.52","2976946","co38698","norming","","","","","","",""
"4878.260000000475","","","post_mooney1_questions","survey-likert","372","1390477","0.0-6.0-2.52","2976946","co38698","norming","","","{""curiosity"":4,""confidence"":2}","[0,1]","../img/tt/1143tt.jpg","",""
"1766.1500000003725","","","recognition","survey-text","373","1392244","0.0-6.0-3.52","2976946","co38698","norming","","","{""guess"":""klas""}","","../img/tt/1143tt.jpg","",""
"null","../img/gs/1143gs.jpg","null","reveal","image-keyboard-response","374","1394257","0.0-6.0-4.52","2976946","co38698","norming","","","","","","",""
"null","../img/tt/1143tt.jpg","null","mooney2","image-keyboard-response","375","1396267","0.0-6.0-5.52","2976946","co38698","norming","","","","","","",""
"2075.510000000475","","","post_reveal_questions","survey-likert","376","1398345","0.0-6.0-6.52","2976946","co38698","norming","","","{""aha"":3}","[0]","../img/tt/1143tt.jpg","",""
"null","<div style=""font-size:60px;""> </div>","null","fixation","html-keyboard-response","377","1398555","0.0-6.0-0.53","2976946","co38698","norming","","","","","","",""
"null","../img/tt/1055tt.jpg","null","mooney1","image-keyboard-response","378","1401561","0.0-6.0-1.53","2976946","co38698","norming","","","","","","",""
"4844.949999999721","","","post_mooney1_questions","survey-likert","379","1406410","0.0-6.0-2.53","2976946","co38698","norming","","","{""curiosity"":5,""confidence"":2}","[0,1]","../img/tt/1055tt.jpg","",""
"5006.129999999888","","","recognition","survey-text","380","1411417","0.0-6.0-3.53","2976946","co38698","norming","","","{""guess"":""tunnel""}","","../img/tt/1055tt.jpg","",""
"null","../img/gs/1055gs.jpg","null","reveal","image-keyboard-response","381","1413424","0.0-6.0-4.53","2976946","co38698","norming","","","","","","",""
"null","../img/tt/1055tt.jpg","null","mooney2","image-keyboard-response","382","1415426","0.0-6.0-5.53","2976946","co38698","norming","","","","","","",""
"4813.2949999999255","","","post_reveal_questions","survey-likert","383","1420241","0.0-6.0-6.53","2976946","co38698","norming","","","{""aha"":4}","[0]","../img/tt/1055tt.jpg","",""
"null","<div style=""font-size:60px;""> </div>","null","fixation","html-keyboard-response","384","1420444","0.0-6.0-0.54","2976946","co38698","norming","","","","","","",""
"null","../img/tt/1228tt.jpg","null","mooney1","image-keyboard-response","385","1423449","0.0-6.0-1.54","2976946","co38698","norming","","","","","","",""
"7692.235000000335","","","post_mooney1_questions","survey-likert","386","1431146","0.0-6.0-2.54","2976946","co38698","norming","","","{""curiosity"":5,""confidence"":2}","[0,1]","../img/tt/1228tt.jpg","",""
"2717.945000000298","","","recognition","survey-text","387","1433865","0.0-6.0-3.54","2976946","co38698","norming","","","{""guess"":""vallende mens""}","","../img/tt/1228tt.jpg","",""
"null","../img/gs/1228gs.jpg","null","reveal","image-keyboard-response","388","1435873","0.0-6.0-4.54","2976946","co38698","norming","","","","","","",""
"null","../img/tt/1228tt.jpg","null","mooney2","image-keyboard-response","389","1437876","0.0-6.0-5.54","2976946","co38698","norming","","","","","","",""
"1867.5149999998976","","","post_reveal_questions","survey-likert","390","1439745","0.0-6.0-6.54","2976946","co38698","norming","","","{""aha"":4}","[0]","../img/tt/1228tt.jpg","",""
"null","<div style=""font-size:60px;""> </div>","null","fixation","html-keyboard-response","391","1439955","0.0-6.0-0.55","2976946","co38698","norming","","","","","","",""
"null","../img/tt/082tt.jpg","null","mooney1","image-keyboard-response","392","1442959","0.0-6.0-1.55","2976946","co38698","norming","","","","","","",""
"3823.109999999171","","","post_mooney1_questions","survey-likert","393","1446785","0.0-6.0-2.55","2976946","co38698","norming","","","{""curiosity"":3,""confidence"":4}","[0,1]","../img/tt/082tt.jpg","",""
"3142.2899999998044","","","recognition","survey-text","394","1449929","0.0-6.0-3.55","2976946","co38698","norming","","","{""guess"":""paardenstal""}","","../img/tt/082tt.jpg","",""
"null","../img/gs/082gs.jpg","null","reveal","image-keyboard-response","395","1451931","0.0-6.0-4.55","2976946","co38698","norming","","","","","","",""
"null","../img/tt/082tt.jpg","null","mooney2","image-keyboard-response","396","1453932","0.0-6.0-5.55","2976946","co38698","norming","","","","","","",""
"1754.8350000006612","","","post_reveal_questions","survey-likert","397","1455683","0.0-6.0-6.55","2976946","co38698","norming","","","{""aha"":4}","[0]","../img/tt/082tt.jpg","",""
"null","<div style=""font-size:60px;""> </div>","null","fixation","html-keyboard-response","398","1455890","0.0-6.0-0.56","2976946","co38698","norming","","","","","","",""
"null","../img/tt/1268tt.jpg","null","mooney1","image-keyboard-response","399","1458901","0.0-6.0-1.56","2976946","co38698","norming","","","","","","",""
"3044.66500000027","","","post_mooney1_questions","survey-likert","400","1461947","0.0-6.0-2.56","2976946","co38698","norming","","","{""curiosity"":4,""confidence"":2}","[0,1]","../img/tt/1268tt.jpg","",""
"2070.280000000028","","","recognition","survey-text","401","1464019","0.0-6.0-3.56","2976946","co38698","norming","","","{""guess"":""hond""}","","../img/tt/1268tt.jpg","",""
"null","../img/gs/1268gs.jpg","null","reveal","image-keyboard-response","402","1466029","0.0-6.0-4.56","2976946","co38698","norming","","","","","","",""
"null","../img/tt/1268tt.jpg","null","mooney2","image-keyboard-response","403","1468032","0.0-6.0-5.56","2976946","co38698","norming","","","","","","",""
"1847.9250000000466","","","post_reveal_questions","survey-likert","404","1469883","0.0-6.0-6.56","2976946","co38698","norming","","","{""aha"":4}","[0]","../img/tt/1268tt.jpg","",""
"null","<div style=""font-size:60px;""> </div>","null","fixation","html-keyboard-response","405","1470085","0.0-6.0-0.57","2976946","co38698","norming","","","","","","",""
"null","../img/tt/1309tt.jpg","null","mooney1","image-keyboard-response","406","1473092","0.0-6.0-1.57","2976946","co38698","norming","","","","","","",""
"3843.7050000000745","","","post_mooney1_questions","survey-likert","407","1476939","0.0-6.0-2.57","2976946","co38698","norming","","","{""curiosity"":5,""confidence"":1}","[0,1]","../img/tt/1309tt.jpg","",""
"7622.164999999804","","","recognition","survey-text","408","1484563","0.0-6.0-3.57","2976946","co38698","norming","","","{""guess"":""grote auto""}","","../img/tt/1309tt.jpg","",""
"null","../img/gs/1309gs.jpg","null","reveal","image-keyboard-response","409","1486565","0.0-6.0-4.57","2976946","co38698","norming","","","","","","",""
"null","../img/tt/1309tt.jpg","null","mooney2","image-keyboard-response","410","1488567","0.0-6.0-5.57","2976946","co38698","norming","","","","","","",""
"1912.8100000007544","","","post_reveal_questions","survey-likert","411","1490483","0.0-6.0-6.57","2976946","co38698","norming","","","{""aha"":1}","[0]","../img/tt/1309tt.jpg","",""
"null","<div style=""font-size:60px;""> </div>","null","fixation","html-keyboard-response","412","1490688","0.0-6.0-0.58","2976946","co38698","norming","","","","","","",""
"null","../img/tt/468tt.jpg","null","mooney1","image-keyboard-response","413","1493691","0.0-6.0-1.58","2976946","co38698","norming","","","","","","",""
"5622.695000000065","","","post_mooney1_questions","survey-likert","414","1499315","0.0-6.0-2.58","2976946","co38698","norming","","","{""curiosity"":5,""confidence"":1}","[0,1]","../img/tt/468tt.jpg","",""
"9102.095000000205","","","recognition","survey-text","415","1508419","0.0-6.0-3.58","2976946","co38698","norming","","","{""guess"":""platenspeler""}","","../img/tt/468tt.jpg","",""
"null","../img/gs/468gs.jpg","null","reveal","image-keyboard-response","416","1510421","0.0-6.0-4.58","2976946","co38698","norming","","","","","","",""
"null","../img/tt/468tt.jpg","null","mooney2","image-keyboard-response","417","1512429","0.0-6.0-5.58","2976946","co38698","norming","","","","","","",""
"2163.0399999993388","","","post_reveal_questions","survey-likert","418","1514595","0.0-6.0-6.58","2976946","co38698","norming","","","{""aha"":4}","[0]","../img/tt/468tt.jpg","",""
"null","<div style=""font-size:60px;""> </div>","null","fixation","html-keyboard-response","419","1514800","0.0-6.0-0.59","2976946","co38698","norming","","","","","","",""
"null","../img/tt/319tt.jpg","null","mooney1","image-keyboard-response","420","1517817","0.0-6.0-1.59","2976946","co38698","norming","","","","","","",""
"6309.80999999959","","","post_mooney1_questions","survey-likert","421","1524130","0.0-6.0-2.59","2976946","co38698","norming","","","{""curiosity"":4,""confidence"":2}","[0,1]","../img/tt/319tt.jpg","",""
"3014.024999999441","","","recognition","survey-text","422","1527146","0.0-6.0-3.59","2976946","co38698","norming","","","{""guess"":""herten""}","","../img/tt/319tt.jpg","",""
"null","../img/gs/319gs.jpg","null","reveal","image-keyboard-response","423","1529156","0.0-6.0-4.59","2976946","co38698","norming","","","","","","",""
"null","../img/tt/319tt.jpg","null","mooney2","image-keyboard-response","424","1531159","0.0-6.0-5.59","2976946","co38698","norming","","","","","","",""
"1816.7350000003353","","","post_reveal_questions","survey-likert","425","1532978","0.0-6.0-6.59","2976946","co38698","norming","","","{""aha"":4}","[0]","../img/tt/319tt.jpg","",""
"null","<div style=""font-size:60px;""> </div>","null","fixation","html-keyboard-response","426","1533185","0.0-6.0-0.60","2976946","co38698","norming","","","","","","",""
"null","../img/tt/1200tt.jpg","null","mooney1","image-keyboard-response","427","1536194","0.0-6.0-1.60","2976946","co38698","norming","","","","","","",""
"5398.55999999959","","","post_mooney1_questions","survey-likert","428","1541594","0.0-6.0-2.60","2976946","co38698","norming","","","{""curiosity"":2,""confidence"":4}","[0,1]","../img/tt/1200tt.jpg","",""
"4478.054999999469","","","recognition","survey-text","429","1546074","0.0-6.0-3.60","2976946","co38698","norming","","","{""guess"":""roeiende mensen""}","","../img/tt/1200tt.jpg","",""
"null","../img/gs/1200gs.jpg","null","reveal","image-keyboard-response","430","1548081","0.0-6.0-4.60","2976946","co38698","norming","","","","","","",""
"null","../img/tt/1200tt.jpg","null","mooney2","image-keyboard-response","431","1550092","0.0-6.0-5.60","2976946","co38698","norming","","","","","","",""
"2827.8650000002235","","","post_reveal_questions","survey-likert","432","1552922","0.0-6.0-6.60","2976946","co38698","norming","","","{""aha"":1}","[0]","../img/tt/1200tt.jpg","",""
"null","<div style=""font-size:60px;""> </div>","null","fixation","html-keyboard-response","433","1553129","0.0-6.0-0.61","2976946","co38698","norming","","","","","","",""
"null","../img/tt/1190tt.jpg","null","mooney1","image-keyboard-response","434","1556137","0.0-6.0-1.61","2976946","co38698","norming","","","","","","",""
"4094.390000000363","","","post_mooney1_questions","survey-likert","435","1560234","0.0-6.0-2.61","2976946","co38698","norming","","","{""curiosity"":5,""confidence"":1}","[0,1]","../img/tt/1190tt.jpg","",""
"5741.905000000726","","","recognition","survey-text","436","1565978","0.0-6.0-3.61","2976946","co38698","norming","","","{""guess"":""vallende mens""}","","../img/tt/1190tt.jpg","",""
"null","../img/gs/1190gs.jpg","null","reveal","image-keyboard-response","437","1567984","0.0-6.0-4.61","2976946","co38698","norming","","","","","","",""
"null","../img/tt/1190tt.jpg","null","mooney2","image-keyboard-response","438","1569993","0.0-6.0-5.61","2976946","co38698","norming","","","","","","",""
"2734.3700000001118","","","post_reveal_questions","survey-likert","439","1572730","0.0-6.0-6.61","2976946","co38698","norming","","","{""aha"":4}","[0]","../img/tt/1190tt.jpg","",""
"null","<div style=""font-size:60px;""> </div>","null","fixation","html-keyboard-response","440","1572931","0.0-6.0-0.62","2976946","co38698","norming","","","","","","",""
"null","../img/tt/329tt.jpg","null","mooney1","image-keyboard-response","441","1575937","0.0-6.0-1.62","2976946","co38698","norming","","","","","","",""
"6997.135000000475","","","post_mooney1_questions","survey-likert","442","1582937","0.0-6.0-2.62","2976946","co38698","norming","","","{""curiosity"":5,""confidence"":2}","[0,1]","../img/tt/329tt.jpg","",""
"1613.7949999994598","","","recognition","survey-text","443","1584553","0.0-6.0-3.62","2976946","co38698","norming","","","{""guess"":""tang""}","","../img/tt/329tt.jpg","",""
"null","../img/gs/329gs.jpg","null","reveal","image-keyboard-response","444","1586561","0.0-6.0-4.62","2976946","co38698","norming","","","","","","",""
"null","../img/tt/329tt.jpg","null","mooney2","image-keyboard-response","445","1588563","0.0-6.0-5.62","2976946","co38698","norming","","","","","","",""
"3123.144999999553","","","post_reveal_questions","survey-likert","446","1591689","0.0-6.0-6.62","2976946","co38698","norming","","","{""aha"":5}","[0]","../img/tt/329tt.jpg","",""
"null","<div style=""font-size:60px;""> </div>","null","fixation","html-keyboard-response","447","1591892","0.0-6.0-0.63","2976946","co38698","norming","","","","","","",""
"null","../img/tt/1254tt.jpg","null","mooney1","image-keyboard-response","448","1594896","0.0-6.0-1.63","2976946","co38698","norming","","","","","","",""
"4128.225000000326","","","post_mooney1_questions","survey-likert","449","1599025","0.0-6.0-2.63","2976946","co38698","norming","","","{""curiosity"":4,""confidence"":2}","[0,1]","../img/tt/1254tt.jpg","",""
"2486","","","recognition","survey-text","450","1601513","0.0-6.0-3.63","2976946","co38698","norming","","","{""guess"":""konijn""}","","../img/tt/1254tt.jpg","",""
"null","../img/gs/1254gs.jpg","null","reveal","image-keyboard-response","451","1603514","0.0-6.0-4.63","2976946","co38698","norming","","","","","","",""
"null","../img/tt/1254tt.jpg","null","mooney2","image-keyboard-response","452","1605521","0.0-6.0-5.63","2976946","co38698","norming","","","","","","",""
"2253.125000000233","","","post_reveal_questions","survey-likert","453","1607777","0.0-6.0-6.63","2976946","co38698","norming","","","{""aha"":1}","[0]","../img/tt/1254tt.jpg","",""
"null","<div style=""font-size:60px;""> </div>","null","fixation","html-keyboard-response","454","1607981","0.0-6.0-0.64","2976946","co38698","norming","","","","","","",""
"null","../img/tt/1235tt.jpg","null","mooney1","image-keyboard-response","455","1610989","0.0-6.0-1.64","2976946","co38698","norming","","","","","","",""
"4840.89499999932","","","post_mooney1_questions","survey-likert","456","1615833","0.0-6.0-2.64","2976946","co38698","norming","","","{""curiosity"":4,""confidence"":2}","[0,1]","../img/tt/1235tt.jpg","",""
"2142.33000000054","","","recognition","survey-text","457","1617977","0.0-6.0-3.64","2976946","co38698","norming","","","{""guess"":""paarden""}","","../img/tt/1235tt.jpg","",""
"null","../img/gs/1235gs.jpg","null","reveal","image-keyboard-response","458","1619981","0.0-6.0-4.64","2976946","co38698","norming","","","","","","",""
"null","../img/tt/1235tt.jpg","null","mooney2","image-keyboard-response","459","1621983","0.0-6.0-5.64","2976946","co38698","norming","","","","","","",""
"2239.20999999973","","","post_reveal_questions","survey-likert","460","1624225","0.0-6.0-6.64","2976946","co38698","norming","","","{""aha"":3}","[0]","../img/tt/1235tt.jpg","",""
"null","<div style=""font-size:60px;""> </div>","null","fixation","html-keyboard-response","461","1624430","0.0-6.0-0.65","2976946","co38698","norming","","","","","","",""
"null","../img/tt/1159tt.jpg","null","mooney1","image-keyboard-response","462","1627440","0.0-6.0-1.65","2976946","co38698","norming","","","","","","",""
"6206.184999999823","","","post_mooney1_questions","survey-likert","463","1633649","0.0-6.0-2.65","2976946","co38698","norming","","","{""curiosity"":4,""confidence"":3}","[0,1]","../img/tt/1159tt.jpg","",""
"3462.0450000001583","","","recognition","survey-text","464","1637113","0.0-6.0-3.65","2976946","co38698","norming","","","{""guess"":""uitzicht""}","","../img/tt/1159tt.jpg","",""
"null","../img/gs/1159gs.jpg","null","reveal","image-keyboard-response","465","1639121","0.0-6.0-4.65","2976946","co38698","norming","","","","","","",""
"null","../img/tt/1159tt.jpg","null","mooney2","image-keyboard-response","466","1641125","0.0-6.0-5.65","2976946","co38698","norming","","","","","","",""
"2547.3000000000466","","","post_reveal_questions","survey-likert","467","1643674","0.0-6.0-6.65","2976946","co38698","norming","","","{""aha"":4}","[0]","../img/tt/1159tt.jpg","",""
"null","<div style=""font-size:60px;""> </div>","null","fixation","html-keyboard-response","468","1643885","0.0-6.0-0.66","2976946","co38698","norming","","","","","","",""
"null","../img/tt/1241tt.jpg","null","mooney1","image-keyboard-response","469","1646892","0.0-6.0-1.66","2976946","co38698","norming","","","","","","",""
"4061.5850000004284","","","post_mooney1_questions","survey-likert","470","1650955","0.0-6.0-2.66","2976946","co38698","norming","","","{""curiosity"":2,""confidence"":4}","[0,1]","../img/tt/1241tt.jpg","",""
"1501.79000000027","","","recognition","survey-text","471","1652458","0.0-6.0-3.66","2976946","co38698","norming","","","{""guess"":""kat""}","","../img/tt/1241tt.jpg","",""
"null","../img/gs/1241gs.jpg","null","reveal","image-keyboard-response","472","1654460","0.0-6.0-4.66","2976946","co38698","norming","","","","","","",""
"null","../img/tt/1241tt.jpg","null","mooney2","image-keyboard-response","473","1656464","0.0-6.0-5.66","2976946","co38698","norming","","","","","","",""
"1799.719999999972","","","post_reveal_questions","survey-likert","474","1658266","0.0-6.0-6.66","2976946","co38698","norming","","","{""aha"":3}","[0]","../img/tt/1241tt.jpg","",""
"null","<div style=""font-size:60px;""> </div>","null","fixation","html-keyboard-response","475","1658473","0.0-6.0-0.67","2976946","co38698","norming","","","","","","",""
"null","../img/tt/1234tt.jpg","null","mooney1","image-keyboard-response","476","1661483","0.0-6.0-1.67","2976946","co38698","norming","","","","","","",""
"7876.704999999842","","","post_mooney1_questions","survey-likert","477","1669362","0.0-6.0-2.67","2976946","co38698","norming","","","{""curiosity"":5,""confidence"":1}","[0,1]","../img/tt/1234tt.jpg","",""
"2149.9499999999534","","","recognition","survey-text","478","1671514","0.0-6.0-3.67","2976946","co38698","norming","","","{""guess"":""bootje""}","","../img/tt/1234tt.jpg","",""
"null","../img/gs/1234gs.jpg","null","reveal","image-keyboard-response","479","1673516","0.0-6.0-4.67","2976946","co38698","norming","","","","","","",""
"null","../img/tt/1234tt.jpg","null","mooney2","image-keyboard-response","480","1675528","0.0-6.0-5.67","2976946","co38698","norming","","","","","","",""
"2799.6300000005867","","","post_reveal_questions","survey-likert","481","1678330","0.0-6.0-6.67","2976946","co38698","norming","","","{""aha"":4}","[0]","../img/tt/1234tt.jpg","",""
"null","<div style=""font-size:60px;""> </div>","null","fixation","html-keyboard-response","482","1678534","0.0-6.0-0.68","2976946","co38698","norming","","","","","","",""
"null","../img/tt/091tt.jpg","null","mooney1","image-keyboard-response","483","1681541","0.0-6.0-1.68","2976946","co38698","norming","","","","","","",""
"3706.285000000149","","","post_mooney1_questions","survey-likert","484","1685251","0.0-6.0-2.68","2976946","co38698","norming","","","{""curiosity"":4,""confidence"":2}","[0,1]","../img/tt/091tt.jpg","",""
"3013.984999999637","","","recognition","survey-text","485","1688266","0.0-6.0-3.68","2976946","co38698","norming","","","{""guess"":""krokodil""}","","../img/tt/091tt.jpg","",""
"null","../img/gs/091gs.jpg","null","reveal","image-keyboard-response","486","1690270","0.0-6.0-4.68","2976946","co38698","norming","","","","","","",""
"null","../img/tt/091tt.jpg","null","mooney2","image-keyboard-response","487","1692280","0.0-6.0-5.68","2976946","co38698","norming","","","","","","",""
"2527.654999999795","","","post_reveal_questions","survey-likert","488","1694810","0.0-6.0-6.68","2976946","co38698","norming","","","{""aha"":4}","[0]","../img/tt/091tt.jpg","",""
"null","<div style=""font-size:60px;""> </div>","null","fixation","html-keyboard-response","489","1695020","0.0-6.0-0.69","2976946","co38698","norming","","","","","","",""
"null","../img/tt/1096tt.jpg","null","mooney1","image-keyboard-response","490","1698031","0.0-6.0-1.69","2976946","co38698","norming","","","","","","",""
"5392.305000000168","","","post_mooney1_questions","survey-likert","491","1703426","0.0-6.0-2.69","2976946","co38698","norming","","","{""curiosity"":4,""confidence"":1}","[0,1]","../img/tt/1096tt.jpg","",""
"3126.035000000149","","","recognition","survey-text","492","1706554","0.0-6.0-3.69","2976946","co38698","norming","","","{""guess"":""vogel""}","","../img/tt/1096tt.jpg","",""
"null","../img/gs/1096gs.jpg","null","reveal","image-keyboard-response","493","1708562","0.0-6.0-4.69","2976946","co38698","norming","","","","","","",""
"null","../img/tt/1096tt.jpg","null","mooney2","image-keyboard-response","494","1710572","0.0-6.0-5.69","2976946","co38698","norming","","","","","","",""
"2219.185000000056","","","post_reveal_questions","survey-likert","495","1712794","0.0-6.0-6.69","2976946","co38698","norming","","","{""aha"":5}","[0]","../img/tt/1096tt.jpg","",""
"null","<div style=""font-size:60px;""> </div>","null","fixation","html-keyboard-response","496","1712998","0.0-6.0-0.70","2976946","co38698","norming","","","","","","",""
"null","../img/tt/1236tt.jpg","null","mooney1","image-keyboard-response","497","1716002","0.0-6.0-1.70","2976946","co38698","norming","","","","","","",""
"12412.659999999916","","","post_mooney1_questions","survey-likert","498","1728418","0.0-6.0-2.70","2976946","co38698","norming","","","{""curiosity"":5,""confidence"":0}","[0,1]","../img/tt/1236tt.jpg","",""
"4006.144999999553","","","recognition","survey-text","499","1732426","0.0-6.0-3.70","2976946","co38698","norming","","","{""guess"":""bos""}","","../img/tt/1236tt.jpg","",""
"null","../img/gs/1236gs.jpg","null","reveal","image-keyboard-response","500","1734434","0.0-6.0-4.70","2976946","co38698","norming","","","","","","",""
"null","../img/tt/1236tt.jpg","null","mooney2","image-keyboard-response","501","1736438","0.0-6.0-5.70","2976946","co38698","norming","","","","","","",""
"5048.989999999292","","","post_reveal_questions","survey-likert","502","1741490","0.0-6.0-6.70","2976946","co38698","norming","","","{""aha"":5}","[0]","../img/tt/1236tt.jpg","",""
"null","<div style=""font-size:60px;""> </div>","null","fixation","html-keyboard-response","503","1741692","0.0-6.0-0.71","2976946","co38698","norming","","","","","","",""
"null","../img/tt/189tt.jpg","null","mooney1","image-keyboard-response","504","1744696","0.0-6.0-1.71","2976946","co38698","norming","","","","","","",""
"5478.589999999618","","","post_mooney1_questions","survey-likert","505","1750178","0.0-6.0-2.71","2976946","co38698","norming","","","{""curiosity"":5,""confidence"":3}","[0,1]","../img/tt/189tt.jpg","",""
"5077.870000000112","","","recognition","survey-text","506","1755258","0.0-6.0-3.71","2976946","co38698","norming","","","{""guess"":""surfplank""}","","../img/tt/189tt.jpg","",""
"null","../img/gs/189gs.jpg","null","reveal","image-keyboard-response","507","1757263","0.0-6.0-4.71","2976946","co38698","norming","","","","","","",""
"null","../img/tt/189tt.jpg","null","mooney2","image-keyboard-response","508","1759273","0.0-6.0-5.71","2976946","co38698","norming","","","","","","",""
"2078.260000000242","","","post_reveal_questions","survey-likert","509","1761354","0.0-6.0-6.71","2976946","co38698","norming","","","{""aha"":4}","[0]","../img/tt/189tt.jpg","",""
"null","<div style=""font-size:60px;""> </div>","null","fixation","html-keyboard-response","510","1761563","0.0-6.0-0.72","2976946","co38698","norming","","","","","","",""
"null","../img/tt/105tt.jpg","null","mooney1","image-keyboard-response","511","1764574","0.0-6.0-1.72","2976946","co38698","norming","","","","","","",""
"5768.47499999986","","","post_mooney1_questions","survey-likert","512","1770346","0.0-6.0-2.72","2976946","co38698","norming","","","{""curiosity"":5,""confidence"":1}","[0,1]","../img/tt/105tt.jpg","",""
"14590.014999999665","","","recognition","survey-text","513","1784938","0.0-6.0-3.72","2976946","co38698","norming","","","{""guess"":""massa geld""}","","../img/tt/105tt.jpg","",""
"null","../img/gs/105gs.jpg","null","reveal","image-keyboard-response","514","1786944","0.0-6.0-4.72","2976946","co38698","norming","","","","","","",""
"null","../img/tt/105tt.jpg","null","mooney2","image-keyboard-response","515","1788945","0.0-6.0-5.72","2976946","co38698","norming","","","","","","",""
"3854.8350000001956","","","post_reveal_questions","survey-likert","516","1792801","0.0-6.0-6.72","2976946","co38698","norming","","","{""aha"":4}","[0]","../img/tt/105tt.jpg","",""
"null","<div style=""font-size:60px;""> </div>","null","fixation","html-keyboard-response","517","1793004","0.0-6.0-0.73","2976946","co38698","norming","","","","","","",""
"null","../img/tt/163tt.jpg","null","mooney1","image-keyboard-response","518","1796014","0.0-6.0-1.73","2976946","co38698","norming","","","","","","",""
"4976.669999998994","","","post_mooney1_questions","survey-likert","519","1800994","0.0-6.0-2.73","2976946","co38698","norming","","","{""curiosity"":3,""confidence"":3}","[0,1]","../img/tt/163tt.jpg","",""
"1958.0150000001304","","","recognition","survey-text","520","1802954","0.0-6.0-3.73","2976946","co38698","norming","","","{""guess"":""bloem""}","","../img/tt/163tt.jpg","",""
"null","../img/gs/163gs.jpg","null","reveal","image-keyboard-response","521","1804956","0.0-6.0-4.73","2976946","co38698","norming","","","","","","",""
"null","../img/tt/163tt.jpg","null","mooney2","image-keyboard-response","522","1806967","0.0-6.0-5.73","2976946","co38698","norming","","","","","","",""
"2480.5350000006147","","","post_reveal_questions","survey-likert","523","1809450","0.0-6.0-6.73","2976946","co38698","norming","","","{""aha"":3}","[0]","../img/tt/163tt.jpg","",""
"null","<div style=""font-size:60px;""> </div>","null","fixation","html-keyboard-response","524","1809652","0.0-6.0-0.74","2976946","co38698","norming","","","","","","",""
"null","../img/tt/1043tt.jpg","null","mooney1","image-keyboard-response","525","1812654","0.0-6.0-1.74","2976946","co38698","norming","","","","","","",""
"2952.7750000006054","","","post_mooney1_questions","survey-likert","526","1815610","0.0-6.0-2.74","2976946","co38698","norming","","","{""curiosity"":5,""confidence"":0}","[0,1]","../img/tt/1043tt.jpg","",""
"1945.2549999996554","","","recognition","survey-text","527","1817562","0.0-6.0-3.74","2976946","co38698","norming","","","{""guess"":""banaan""}","","../img/tt/1043tt.jpg","",""
"null","../img/gs/1043gs.jpg","null","reveal","image-keyboard-response","528","1819563","0.0-6.0-4.74","2976946","co38698","norming","","","","","","",""
"null","../img/tt/1043tt.jpg","null","mooney2","image-keyboard-response","529","1821570","0.0-6.0-5.74","2976946","co38698","norming","","","","","","",""
"1751.7150000003166","","","post_reveal_questions","survey-likert","530","1823322","0.0-6.0-6.74","2976946","co38698","norming","","","{""aha"":3}","[0]","../img/tt/1043tt.jpg","",""
"null","<div style=""font-size:60px;""> </div>","null","fixation","html-keyboard-response","531","1823531","0.0-6.0-0.75","2976946","co38698","norming","","","","","","",""
"null","../img/tt/306tt.jpg","null","mooney1","image-keyboard-response","532","1826541","0.0-6.0-1.75","2976946","co38698","norming","","","","","","",""
"5835.30999999959","","","post_mooney1_questions","survey-likert","533","1832379","0.0-6.0-2.75","2976946","co38698","norming","","","{""curiosity"":3,""confidence"":0}","[0,1]","../img/tt/306tt.jpg","",""
"3613.6150000002235","","","recognition","survey-text","534","1835995","0.0-6.0-3.75","2976946","co38698","norming","","","{""guess"":""boterham""}","","../img/tt/306tt.jpg","",""
"null","../img/gs/306gs.jpg","null","reveal","image-keyboard-response","535","1838001","0.0-6.0-4.75","2976946","co38698","norming","","","","","","",""
"null","../img/tt/306tt.jpg","null","mooney2","image-keyboard-response","536","1840003","0.0-6.0-5.75","2976946","co38698","norming","","","","","","",""
"5308.3050000004005","","","post_reveal_questions","survey-likert","537","1845315","0.0-6.0-6.75","2976946","co38698","norming","","","{""aha"":2}","[0]","../img/tt/306tt.jpg","",""
"null","<div style=""font-size:60px;""> </div>","null","fixation","html-keyboard-response","538","1845520","0.0-6.0-0.76","2976946","co38698","norming","","","","","","",""
"null","../img/tt/085tt.jpg","null","mooney1","image-keyboard-response","539","1848530","0.0-6.0-1.76","2976946","co38698","norming","","","","","","",""
"5788.840000000317","","","post_mooney1_questions","survey-likert","540","1854323","0.0-6.0-2.76","2976946","co38698","norming","","","{""curiosity"":4,""confidence"":3}","[0,1]","../img/tt/085tt.jpg","",""
"2357.984999999637","","","recognition","survey-text","541","1856683","0.0-6.0-3.76","2976946","co38698","norming","","","{""guess"":""sprinkaan""}","","../img/tt/085tt.jpg","",""
"null","../img/gs/085gs.jpg","null","reveal","image-keyboard-response","542","1858684","0.0-6.0-4.76","2976946","co38698","norming","","","","","","",""
"null","../img/tt/085tt.jpg","null","mooney2","image-keyboard-response","543","1860687","0.0-6.0-5.76","2976946","co38698","norming","","","","","","",""
"2241.260000000708","","","post_reveal_questions","survey-likert","544","1862931","0.0-6.0-6.76","2976946","co38698","norming","","","{""aha"":1}","[0]","../img/tt/085tt.jpg","",""
"null","<div style=""font-size:60px;""> </div>","null","fixation","html-keyboard-response","545","1863132","0.0-6.0-0.77","2976946","co38698","norming","","","","","","",""
"null","../img/tt/123tt.jpg","null","mooney1","image-keyboard-response","546","1866138","0.0-6.0-1.77","2976946","co38698","norming","","","","","","",""
"3590.769999999786","","","post_mooney1_questions","survey-likert","547","1869731","0.0-6.0-2.77","2976946","co38698","norming","","","{""curiosity"":3,""confidence"":2}","[0,1]","../img/tt/123tt.jpg","",""
"2533.994999999879","","","recognition","survey-text","548","1872266","0.0-6.0-3.77","2976946","co38698","norming","","","{""guess"":""schooltas""}","","../img/tt/123tt.jpg","",""
"null","../img/gs/123gs.jpg","null","reveal","image-keyboard-response","549","1874272","0.0-6.0-4.77","2976946","co38698","norming","","","","","","",""
"null","../img/tt/123tt.jpg","null","mooney2","image-keyboard-response","550","1876277","0.0-6.0-5.77","2976946","co38698","norming","","","","","","",""
