"rt","stimulus","key_press","test_part","trial_type","trial_index","time_elapsed","internal_node_id","totalTime","subject","experiment_name","button_pressed","success","responses","question_order","currentStim","old","correct"
"3910.9450000105426","Welcome to the experiment. This is an online experiment so please don't close the tab/window until we say goodbye.  Press any key to begin.","32","instructions","html-keyboard-response","0","3917","0.0-0.0","14264600","co38542","norming","","","","","","",""
"3032.119999988936","<div style='word-wrap: break-word; width: 900px'><h3>Please consider this information carefully before deciding whether to participate in this research</h3><ul style='text-align: left; font-size: .8em;'><li><b>Purpose of the research</b>: To examine how people process images.</li><li><b>What you will do in this research</b>:  Stimuli (images) will be presented on the computer and you will be asked different questions about them.</li><li><b>Time required</b>: Participation will take between 45 and 60 minutes to complete.</li><li><b>Risks</b>:  There are no anticipated risks associated with participating in this study. The effects of participating should be comparable to those you would experience from viewing a computer monitor for 30 minutes and using a mouse or keyboard.</li><li><b>Benefits</b>:  This study provides no benefits to you individually except for the credit. The study provides important information about the nature of perception and learning.</li><li><b>Confidentiality</b>:  Your participation in this study will remain confidential. No personally identifiable information will be associated with your data. Your de-identified data may be shared with other researchers and used in future projects.</li><li><b>Participation and withdrawal</b>:  Your participation in this study is completely voluntary and you may refuse to participate or you may choose to withdraw at any time without penalty.</li><li><b>How to contact the researchers</b>: If you have questions or concerns about your participation or payment, or want to request a summary of research findings, please contact Sander Van de Cruys (KU Leuven), at sander.vandecruys@kuleuven.be.</li></ul><p>The nature and purpose of this research have been sufficiently explained and I agree to participate in this study.  I understand that I am free to withdraw at any time without incurring any penalty.</p><p>Please consent by clicking the button below to continue. Otherwise, please exit the study at this time.</p></div>","","instructions","html-button-response","1","6954","0.0-1.0","14264600","co38542","norming","0","","","","","",""
"","","","instructions","fullscreen","2","9461","0.0-2.0","14264600","co38542","norming","","true","","","","",""
"80295.65500002354","","","sona","survey-html-form","3","89765","0.0-3.0","14264600","co38542","norming","","","[{""name"":""sonaid"",""value"":""38542""},{""name"":""debrief"",""value"":""no""},{""name"":""datajoin"",""value"":""yes""}]","","","",""
"2766.8899999698624","<div style='word-wrap: break-word; width: 900px'><h3>Instructions</h3><p>This experiment will have 3 parts. In the first part you will see a series of distorted images like the one below on the left. As you can see in the righthand image, the distorted images are derived from actual photographs. In what follows, you will <strong>briefly</strong> be presented with <strong>only</strong> the distorted image.</p> <div style='float: left; margin-right: 20px;'><img src='../img/018tt.jpg' height='250' width='250'></img></div><div style='float: right; margin-left: 20px;'><img src='../img/018gs.jpg' height='250' width='250'></img></div><p>Subsequently you will be asked a few questions about the image: One question on how <strong>curious</strong> you are about the solution and one on how <strong>confident</strong> you are that you know the solution.</p>Next, we ask you to make a guess on what is in the image. Note that it is OK to name just the <strong>basic level category</strong>. For example when you see a parrot in the image, 'parrot' will obviously be a correct answer but also correct is 'bird'. However, 'animal' will <strong>not</strong> be counted as a correct response. For the example above, 'rose' would be correct or 'flower', but not 'plant'. When soccer players are depicted, 'soccer', 'football', 'soccer players' will be correct, but not 'humans', 'outdoors', or 'sports'. You do not need to describe the image in full, just name the main object in it <strong>in one or two words</strong>. All images depict objects from one of the following broad level categories: animals, inanimate objects, plants, sports, vehicles, and food. Recognizing means knowing <strong>more</strong> than these broad labels for a given image. But we always encourage you to <strong>make a guess</strong> if you can. Note that you are allowed to use <strong>Dutch and English</strong> in your answers, whatever comes easiest for you.</p><p>Press any key to continue.</p></div>","32","instructions","html-keyboard-response","4","92537","0.0-4.0","14264600","co38542","norming","","","","","","",""
"2093.449999927543","<div style='word-wrap: break-word; width: 900px'><h3>Instructions</h3> <p>Next, the solution image will be revealed to you and you'll be asked to indicate how strong your <strong>aha-experience</strong> was after seeing the solution. This describes the positive feeling of the 'click' you sometimes experience, when the pieces of the 'puzzle' fall together and you suddenly have 'insight' in the image.</p><img src='aha.jpg' height='188' width='250'></img><p>Note that there are no right or wrong answers. We are interested in what <strong>you</strong> see in the image and how <strong>you</strong> feel about it.</p><p>Press any key to start the experiment.</p></div>","32","instructions","html-keyboard-response","5","94633","0.0-5.0","14264600","co38542","norming","","","","","","",""
"null","<div style=""font-size:60px;""> </div>","null","fixation","html-keyboard-response","6","94836","0.0-6.0-0.0","14264600","co38542","norming","","","","","","",""
"null","../img/tt/108tt.jpg","null","mooney1","image-keyboard-response","7","97842","0.0-6.0-1.0","14264600","co38542","norming","","","","","","",""
"7833.474999992177","","","post_mooney1_questions","survey-likert","8","105681","0.0-6.0-2.0","14264600","co38542","norming","","","{""curiosity"":4,""confidence"":0}","[0,1]","../img/tt/108tt.jpg","",""
"7379.779999959283","","","recognition","survey-text","9","113071","0.0-6.0-3.0","14264600","co38542","norming","","","{""guess"":""Two faces""}","","../img/tt/108tt.jpg","",""
"null","../img/gs/108gs.jpg","null","reveal","image-keyboard-response","10","115074","0.0-6.0-4.0","14264600","co38542","norming","","","","","","",""
"null","../img/tt/108tt.jpg","null","mooney2","image-keyboard-response","11","117076","0.0-6.0-5.0","14264600","co38542","norming","","","","","","",""
"3818.36499995552","","","post_reveal_questions","survey-likert","12","120898","0.0-6.0-6.0","14264600","co38542","norming","","","{""aha"":3}","[0]","../img/tt/108tt.jpg","",""
"null","<div style=""font-size:60px;""> </div>","null","fixation","html-keyboard-response","13","121105","0.0-6.0-0.1","14264600","co38542","norming","","","","","","",""
"null","../img/tt/380tt.jpg","null","mooney1","image-keyboard-response","14","124107","0.0-6.0-1.1","14264600","co38542","norming","","","","","","",""
"8151.240000035614","","","post_mooney1_questions","survey-likert","15","132263","0.0-6.0-2.1","14264600","co38542","norming","","","{""curiosity"":4,""confidence"":0}","[0,1]","../img/tt/380tt.jpg","",""
"7041.704999981448","","","recognition","survey-text","16","139312","0.0-6.0-3.1","14264600","co38542","norming","","","{""guess"":""an animal""}","","../img/tt/380tt.jpg","",""
"null","../img/gs/380gs.jpg","null","reveal","image-keyboard-response","17","141315","0.0-6.0-4.1","14264600","co38542","norming","","","","","","",""
"null","../img/tt/380tt.jpg","null","mooney2","image-keyboard-response","18","143317","0.0-6.0-5.1","14264600","co38542","norming","","","","","","",""
"3931.63500004448","","","post_reveal_questions","survey-likert","19","147252","0.0-6.0-6.1","14264600","co38542","norming","","","{""aha"":4}","[0]","../img/tt/380tt.jpg","",""
"null","<div style=""font-size:60px;""> </div>","null","fixation","html-keyboard-response","20","147456","0.0-6.0-0.2","14264600","co38542","norming","","","","","","",""
"null","../img/tt/319tt.jpg","null","mooney1","image-keyboard-response","21","150460","0.0-6.0-1.2","14264600","co38542","norming","","","","","","",""
"6853.059999994002","","","post_mooney1_questions","survey-likert","22","157317","0.0-6.0-2.2","14264600","co38542","norming","","","{""curiosity"":3,""confidence"":4}","[0,1]","../img/tt/319tt.jpg","",""
"4253.749999916181","","","recognition","survey-text","23","161578","0.0-6.0-3.2","14264600","co38542","norming","","","{""guess"":""cows""}","","../img/tt/319tt.jpg","",""
"null","../img/gs/319gs.jpg","null","reveal","image-keyboard-response","24","163581","0.0-6.0-4.2","14264600","co38542","norming","","","","","","",""
"null","../img/tt/319tt.jpg","null","mooney2","image-keyboard-response","25","165586","0.0-6.0-5.2","14264600","co38542","norming","","","","","","",""
"4281.710000010207","","","post_reveal_questions","survey-likert","26","169870","0.0-6.0-6.2","14264600","co38542","norming","","","{""aha"":2}","[0]","../img/tt/319tt.jpg","",""
"null","<div style=""font-size:60px;""> </div>","null","fixation","html-keyboard-response","27","170075","0.0-6.0-0.3","14264600","co38542","norming","","","","","","",""
"null","../img/tt/1126tt.jpg","null","mooney1","image-keyboard-response","28","173079","0.0-6.0-1.3","14264600","co38542","norming","","","","","","",""
"6741.79500003811","","","post_mooney1_questions","survey-likert","29","179825","0.0-6.0-2.3","14264600","co38542","norming","","","{""curiosity"":4,""confidence"":5}","[0,1]","../img/tt/1126tt.jpg","",""
"5539.314999943599","","","recognition","survey-text","30","185371","0.0-6.0-3.3","14264600","co38542","norming","","","{""guess"":""climbing man""}","","../img/tt/1126tt.jpg","",""
"null","../img/gs/1126gs.jpg","null","reveal","image-keyboard-response","31","187375","0.0-6.0-4.3","14264600","co38542","norming","","","","","","",""
"null","../img/tt/1126tt.jpg","null","mooney2","image-keyboard-response","32","189378","0.0-6.0-5.3","14264600","co38542","norming","","","","","","",""
"4320.555000100285","","","post_reveal_questions","survey-likert","33","193702","0.0-6.0-6.3","14264600","co38542","norming","","","{""aha"":2}","[0]","../img/tt/1126tt.jpg","",""
"null","<div style=""font-size:60px;""> </div>","null","fixation","html-keyboard-response","34","193906","0.0-6.0-0.4","14264600","co38542","norming","","","","","","",""
"null","../img/tt/1078tt.jpg","null","mooney1","image-keyboard-response","35","196910","0.0-6.0-1.4","14264600","co38542","norming","","","","","","",""
"5055.345000000671","","","post_mooney1_questions","survey-likert","36","201969","0.0-6.0-2.4","14264600","co38542","norming","","","{""curiosity"":4,""confidence"":2}","[0,1]","../img/tt/1078tt.jpg","",""
"2512.760000070557","","","recognition","survey-text","37","204491","0.0-6.0-3.4","14264600","co38542","norming","","","{""guess"":""a bar""}","","../img/tt/1078tt.jpg","",""
"null","../img/gs/1078gs.jpg","null","reveal","image-keyboard-response","38","206493","0.0-6.0-4.4","14264600","co38542","norming","","","","","","",""
"null","../img/tt/1078tt.jpg","null","mooney2","image-keyboard-response","39","208495","0.0-6.0-5.4","14264600","co38542","norming","","","","","","",""
"2793.240000028163","","","post_reveal_questions","survey-likert","40","211291","0.0-6.0-6.4","14264600","co38542","norming","","","{""aha"":4}","[0]","../img/tt/1078tt.jpg","",""
"null","<div style=""font-size:60px;""> </div>","null","fixation","html-keyboard-response","41","211496","0.0-6.0-0.5","14264600","co38542","norming","","","","","","",""
"null","../img/tt/1272tt.jpg","null","mooney1","image-keyboard-response","42","214499","0.0-6.0-1.5","14264600","co38542","norming","","","","","","",""
"4654.590000049211","","","post_mooney1_questions","survey-likert","43","219157","0.0-6.0-2.5","14264600","co38542","norming","","","{""curiosity"":5,""confidence"":0}","[0,1]","../img/tt/1272tt.jpg","",""
"4783.279999974184","","","recognition","survey-text","44","223949","0.0-6.0-3.5","14264600","co38542","norming","","","{""guess"":""snowboarder""}","","../img/tt/1272tt.jpg","",""
"null","../img/gs/1272gs.jpg","null","reveal","image-keyboard-response","45","225952","0.0-6.0-4.5","14264600","co38542","norming","","","","","","",""
"null","../img/tt/1272tt.jpg","null","mooney2","image-keyboard-response","46","227955","0.0-6.0-5.5","14264600","co38542","norming","","","","","","",""
"2489.6200000075623","","","post_reveal_questions","survey-likert","47","230448","0.0-6.0-6.5","14264600","co38542","norming","","","{""aha"":5}","[0]","../img/tt/1272tt.jpg","",""
"null","<div style=""font-size:60px;""> </div>","null","fixation","html-keyboard-response","48","230652","0.0-6.0-0.6","14264600","co38542","norming","","","","","","",""
"null","../img/tt/405tt.jpg","null","mooney1","image-keyboard-response","49","233657","0.0-6.0-1.6","14264600","co38542","norming","","","","","","",""
"3793.199999956414","","","post_mooney1_questions","survey-likert","50","237454","0.0-6.0-2.6","14264600","co38542","norming","","","{""curiosity"":4,""confidence"":1}","[0,1]","../img/tt/405tt.jpg","",""
"2425.6449999520555","","","recognition","survey-text","51","239888","0.0-6.0-3.6","14264600","co38542","norming","","","{""guess"":""koala""}","","../img/tt/405tt.jpg","",""
"null","../img/gs/405gs.jpg","null","reveal","image-keyboard-response","52","241891","0.0-6.0-4.6","14264600","co38542","norming","","","","","","",""
"null","../img/tt/405tt.jpg","null","mooney2","image-keyboard-response","53","243894","0.0-6.0-5.6","14264600","co38542","norming","","","","","","",""
"2616.230000043288","","","post_reveal_questions","survey-likert","54","246513","0.0-6.0-6.6","14264600","co38542","norming","","","{""aha"":2}","[0]","../img/tt/405tt.jpg","",""
"null","<div style=""font-size:60px;""> </div>","null","fixation","html-keyboard-response","55","246717","0.0-6.0-0.7","14264600","co38542","norming","","","","","","",""
"null","../img/tt/1107tt.jpg","null","mooney1","image-keyboard-response","56","249722","0.0-6.0-1.7","14264600","co38542","norming","","","","","","",""
"4343.980000005104","","","post_mooney1_questions","survey-likert","57","254070","0.0-6.0-2.7","14264600","co38542","norming","","","{""curiosity"":3,""confidence"":2}","[0,1]","../img/tt/1107tt.jpg","",""
"1775.3450000891462","","","recognition","survey-text","58","255853","0.0-6.0-3.7","14264600","co38542","norming","","","{""guess"":""person""}","","../img/tt/1107tt.jpg","",""
"null","../img/gs/1107gs.jpg","null","reveal","image-keyboard-response","59","257855","0.0-6.0-4.7","14264600","co38542","norming","","","","","","",""
"null","../img/tt/1107tt.jpg","null","mooney2","image-keyboard-response","60","259858","0.0-6.0-5.7","14264600","co38542","norming","","","","","","",""
"2687.665000092238","","","post_reveal_questions","survey-likert","61","262549","0.0-6.0-6.7","14264600","co38542","norming","","","{""aha"":5}","[0]","../img/tt/1107tt.jpg","",""
"null","<div style=""font-size:60px;""> </div>","null","fixation","html-keyboard-response","62","262752","0.0-6.0-0.8","14264600","co38542","norming","","","","","","",""
"null","../img/tt/567tt.jpg","null","mooney1","image-keyboard-response","63","265756","0.0-6.0-1.8","14264600","co38542","norming","","","","","","",""
"3522.6150000235066","","","post_mooney1_questions","survey-likert","64","269284","0.0-6.0-2.8","14264600","co38542","norming","","","{""curiosity"":1,""confidence"":2}","[0,1]","../img/tt/567tt.jpg","",""
"7106.099999975413","","","recognition","survey-text","65","276397","0.0-6.0-3.8","14264600","co38542","norming","","","{""guess"":""mirror""}","","../img/tt/567tt.jpg","",""
"null","../img/gs/567gs.jpg","null","reveal","image-keyboard-response","66","278400","0.0-6.0-4.8","14264600","co38542","norming","","","","","","",""
"null","../img/tt/567tt.jpg","null","mooney2","image-keyboard-response","67","280404","0.0-6.0-5.8","14264600","co38542","norming","","","","","","",""
"3205.1650000503287","","","post_reveal_questions","survey-likert","68","283613","0.0-6.0-6.8","14264600","co38542","norming","","","{""aha"":4}","[0]","../img/tt/567tt.jpg","",""
"null","<div style=""font-size:60px;""> </div>","null","fixation","html-keyboard-response","69","283824","0.0-6.0-0.9","14264600","co38542","norming","","","","","","",""
"null","../img/tt/1217tt.jpg","null","mooney1","image-keyboard-response","70","286828","0.0-6.0-1.9","14264600","co38542","norming","","","","","","",""
"3671.2000000989065","","","post_mooney1_questions","survey-likert","71","290503","0.0-6.0-2.9","14264600","co38542","norming","","","{""curiosity"":5,""confidence"":0}","[0,1]","../img/tt/1217tt.jpg","",""
"715.6350000295788","","","recognition","survey-text","72","291226","0.0-6.0-3.9","14264600","co38542","norming","","","{""guess"":""""}","","../img/tt/1217tt.jpg","",""
"null","../img/gs/1217gs.jpg","null","reveal","image-keyboard-response","73","293228","0.0-6.0-4.9","14264600","co38542","norming","","","","","","",""
"null","../img/tt/1217tt.jpg","null","mooney2","image-keyboard-response","74","295230","0.0-6.0-5.9","14264600","co38542","norming","","","","","","",""
"3301.355000003241","","","post_reveal_questions","survey-likert","75","298535","0.0-6.0-6.9","14264600","co38542","norming","","","{""aha"":5}","[0]","../img/tt/1217tt.jpg","",""
"null","<div style=""font-size:60px;""> </div>","null","fixation","html-keyboard-response","76","298738","0.0-6.0-0.10","14264600","co38542","norming","","","","","","",""
"null","../img/tt/1122tt.jpg","null","mooney1","image-keyboard-response","77","301742","0.0-6.0-1.10","14264600","co38542","norming","","","","","","",""
"5068.310000002384","","","post_mooney1_questions","survey-likert","78","306814","0.0-6.0-2.10","14264600","co38542","norming","","","{""curiosity"":4,""confidence"":3}","[0,1]","../img/tt/1122tt.jpg","",""
"3645.2600000193343","","","recognition","survey-text","79","310466","0.0-6.0-3.10","14264600","co38542","norming","","","{""guess"":""boats""}","","../img/tt/1122tt.jpg","",""
"null","../img/gs/1122gs.jpg","null","reveal","image-keyboard-response","80","312472","0.0-6.0-4.10","14264600","co38542","norming","","","","","","",""
"null","../img/tt/1122tt.jpg","null","mooney2","image-keyboard-response","81","314476","0.0-6.0-5.10","14264600","co38542","norming","","","","","","",""
"2421.239999937825","","","post_reveal_questions","survey-likert","82","316901","0.0-6.0-6.10","14264600","co38542","norming","","","{""aha"":3}","[0]","../img/tt/1122tt.jpg","",""
"null","<div style=""font-size:60px;""> </div>","null","fixation","html-keyboard-response","83","317103","0.0-6.0-0.11","14264600","co38542","norming","","","","","","",""
"null","../img/tt/031tt.jpg","null","mooney1","image-keyboard-response","84","320107","0.0-6.0-1.11","14264600","co38542","norming","","","","","","",""
"3326.839999994263","","","post_mooney1_questions","survey-likert","85","323438","0.0-6.0-2.11","14264600","co38542","norming","","","{""curiosity"":4,""confidence"":0}","[0,1]","../img/tt/031tt.jpg","",""
"767.8799999412149","","","recognition","survey-text","86","324213","0.0-6.0-3.11","14264600","co38542","norming","","","{""guess"":""""}","","../img/tt/031tt.jpg","",""
"null","../img/gs/031gs.jpg","null","reveal","image-keyboard-response","87","326217","0.0-6.0-4.11","14264600","co38542","norming","","","","","","",""
"null","../img/tt/031tt.jpg","null","mooney2","image-keyboard-response","88","328219","0.0-6.0-5.11","14264600","co38542","norming","","","","","","",""
"2795.1849999371916","","","post_reveal_questions","survey-likert","89","331017","0.0-6.0-6.11","14264600","co38542","norming","","","{""aha"":1}","[0]","../img/tt/031tt.jpg","",""
"null","<div style=""font-size:60px;""> </div>","null","fixation","html-keyboard-response","90","331221","0.0-6.0-0.12","14264600","co38542","norming","","","","","","",""
"null","../img/tt/013tt.jpg","null","mooney1","image-keyboard-response","91","334224","0.0-6.0-1.12","14264600","co38542","norming","","","","","","",""
"5499.369999975897","","","post_mooney1_questions","survey-likert","92","339728","0.0-6.0-2.12","14264600","co38542","norming","","","{""curiosity"":4,""confidence"":0}","[0,1]","../img/tt/013tt.jpg","",""
"2607.5300000375137","","","recognition","survey-text","93","342342","0.0-6.0-3.12","14264600","co38542","norming","","","{""guess"":""animal""}","","../img/tt/013tt.jpg","",""
"null","../img/gs/013gs.jpg","null","reveal","image-keyboard-response","94","344344","0.0-6.0-4.12","14264600","co38542","norming","","","","","","",""
"null","../img/tt/013tt.jpg","null","mooney2","image-keyboard-response","95","346347","0.0-6.0-5.12","14264600","co38542","norming","","","","","","",""
"4849.410000024363","","","post_reveal_questions","survey-likert","96","351199","0.0-6.0-6.12","14264600","co38542","norming","","","{""aha"":4}","[0]","../img/tt/013tt.jpg","",""
"null","<div style=""font-size:60px;""> </div>","null","fixation","html-keyboard-response","97","351402","0.0-6.0-0.13","14264600","co38542","norming","","","","","","",""
"null","../img/tt/580tt.jpg","null","mooney1","image-keyboard-response","98","354406","0.0-6.0-1.13","14264600","co38542","norming","","","","","","",""
"3644.800000009127","","","post_mooney1_questions","survey-likert","99","358055","0.0-6.0-2.13","14264600","co38542","norming","","","{""curiosity"":5,""confidence"":0}","[0,1]","../img/tt/580tt.jpg","",""
"3617.5250000087544","","","recognition","survey-text","100","361679","0.0-6.0-3.13","14264600","co38542","norming","","","{""guess"":""face""}","","../img/tt/580tt.jpg","",""
"null","../img/gs/580gs.jpg","null","reveal","image-keyboard-response","101","363681","0.0-6.0-4.13","14264600","co38542","norming","","","","","","",""
"null","../img/tt/580tt.jpg","null","mooney2","image-keyboard-response","102","365684","0.0-6.0-5.13","14264600","co38542","norming","","","","","","",""
"2045.2300000470132","","","post_reveal_questions","survey-likert","103","367734","0.0-6.0-6.13","14264600","co38542","norming","","","{""aha"":4}","[0]","../img/tt/580tt.jpg","",""
"null","<div style=""font-size:60px;""> </div>","null","fixation","html-keyboard-response","104","367939","0.0-6.0-0.14","14264600","co38542","norming","","","","","","",""
"null","../img/tt/1123tt.jpg","null","mooney1","image-keyboard-response","105","370943","0.0-6.0-1.14","14264600","co38542","norming","","","","","","",""
"6788.025000016205","","","post_mooney1_questions","survey-likert","106","377735","0.0-6.0-2.14","14264600","co38542","norming","","","{""curiosity"":3,""confidence"":2}","[0,1]","../img/tt/1123tt.jpg","",""
"4791.4050000254065","","","recognition","survey-text","107","382533","0.0-6.0-3.14","14264600","co38542","norming","","","{""guess"":""ball, man""}","","../img/tt/1123tt.jpg","",""
"null","../img/gs/1123gs.jpg","null","reveal","image-keyboard-response","108","384537","0.0-6.0-4.14","14264600","co38542","norming","","","","","","",""
"null","../img/tt/1123tt.jpg","null","mooney2","image-keyboard-response","109","386539","0.0-6.0-5.14","14264600","co38542","norming","","","","","","",""
"2538.5049999458715","","","post_reveal_questions","survey-likert","110","389081","0.0-6.0-6.14","14264600","co38542","norming","","","{""aha"":2}","[0]","../img/tt/1123tt.jpg","",""
"null","<div style=""font-size:60px;""> </div>","null","fixation","html-keyboard-response","111","389284","0.0-6.0-0.15","14264600","co38542","norming","","","","","","",""
"null","../img/tt/1362tt.jpg","null","mooney1","image-keyboard-response","112","392289","0.0-6.0-1.15","14264600","co38542","norming","","","","","","",""
"5885.909999953583","","","post_mooney1_questions","survey-likert","113","398179","0.0-6.0-2.15","14264600","co38542","norming","","","{""curiosity"":4,""confidence"":1}","[0,1]","../img/tt/1362tt.jpg","",""
"6868.21499990765","","","recognition","survey-text","114","405054","0.0-6.0-3.15","14264600","co38542","norming","","","{""guess"":""cookstuff""}","","../img/tt/1362tt.jpg","",""
"null","../img/gs/1362gs.jpg","null","reveal","image-keyboard-response","115","407056","0.0-6.0-4.15","14264600","co38542","norming","","","","","","",""
"null","../img/tt/1362tt.jpg","null","mooney2","image-keyboard-response","116","409060","0.0-6.0-5.15","14264600","co38542","norming","","","","","","",""
"2758.2199999596924","","","post_reveal_questions","survey-likert","117","411821","0.0-6.0-6.15","14264600","co38542","norming","","","{""aha"":3}","[0]","../img/tt/1362tt.jpg","",""
"null","<div style=""font-size:60px;""> </div>","null","fixation","html-keyboard-response","118","412024","0.0-6.0-0.16","14264600","co38542","norming","","","","","","",""
"null","../img/tt/1173tt.jpg","null","mooney1","image-keyboard-response","119","415028","0.0-6.0-1.16","14264600","co38542","norming","","","","","","",""
"3931.535000097938","","","post_mooney1_questions","survey-likert","120","418964","0.0-6.0-2.16","14264600","co38542","norming","","","{""curiosity"":4,""confidence"":2}","[0,1]","../img/tt/1173tt.jpg","",""
"1600.2400000579655","","","recognition","survey-text","121","420571","0.0-6.0-3.16","14264600","co38542","norming","","","{""guess"":""kids""}","","../img/tt/1173tt.jpg","",""
"null","../img/gs/1173gs.jpg","null","reveal","image-keyboard-response","122","422573","0.0-6.0-4.16","14264600","co38542","norming","","","","","","",""
"null","../img/tt/1173tt.jpg","null","mooney2","image-keyboard-response","123","424575","0.0-6.0-5.16","14264600","co38542","norming","","","","","","",""
"4362.504999968223","","","post_reveal_questions","survey-likert","124","428940","0.0-6.0-6.16","14264600","co38542","norming","","","{""aha"":3}","[0]","../img/tt/1173tt.jpg","",""
"null","<div style=""font-size:60px;""> </div>","null","fixation","html-keyboard-response","125","429143","0.0-6.0-0.17","14264600","co38542","norming","","","","","","",""
"null","../img/tt/053tt.jpg","null","mooney1","image-keyboard-response","126","432147","0.0-6.0-1.17","14264600","co38542","norming","","","","","","",""
"6084.484999999404","","","post_mooney1_questions","survey-likert","127","438235","0.0-6.0-2.17","14264600","co38542","norming","","","{""curiosity"":4,""confidence"":1}","[0,1]","../img/tt/053tt.jpg","",""
"3420.2949999598786","","","recognition","survey-text","128","441665","0.0-6.0-3.17","14264600","co38542","norming","","","{""guess"":""waterfall""}","","../img/tt/053tt.jpg","",""
"null","../img/gs/053gs.jpg","null","reveal","image-keyboard-response","129","443667","0.0-6.0-4.17","14264600","co38542","norming","","","","","","",""
"null","../img/tt/053tt.jpg","null","mooney2","image-keyboard-response","130","445670","0.0-6.0-5.17","14264600","co38542","norming","","","","","","",""
"2359.524999978021","","","post_reveal_questions","survey-likert","131","448032","0.0-6.0-6.17","14264600","co38542","norming","","","{""aha"":4}","[0]","../img/tt/053tt.jpg","",""
"null","<div style=""font-size:60px;""> </div>","null","fixation","html-keyboard-response","132","448234","0.0-6.0-0.18","14264600","co38542","norming","","","","","","",""
"null","../img/tt/1188tt.jpg","null","mooney1","image-keyboard-response","133","451237","0.0-6.0-1.18","14264600","co38542","norming","","","","","","",""
"3104.3249999638647","","","post_mooney1_questions","survey-likert","134","454345","0.0-6.0-2.18","14264600","co38542","norming","","","{""curiosity"":3,""confidence"":0}","[0,1]","../img/tt/1188tt.jpg","",""
"718.860000022687","","","recognition","survey-text","135","455071","0.0-6.0-3.18","14264600","co38542","norming","","","{""guess"":""""}","","../img/tt/1188tt.jpg","",""
"null","../img/gs/1188gs.jpg","null","reveal","image-keyboard-response","136","457075","0.0-6.0-4.18","14264600","co38542","norming","","","","","","",""
"null","../img/tt/1188tt.jpg","null","mooney2","image-keyboard-response","137","459078","0.0-6.0-5.18","14264600","co38542","norming","","","","","","",""
"1738.27000008896","","","post_reveal_questions","survey-likert","138","460819","0.0-6.0-6.18","14264600","co38542","norming","","","{""aha"":2}","[0]","../img/tt/1188tt.jpg","",""
"null","<div style=""font-size:60px;""> </div>","null","fixation","html-keyboard-response","139","461023","0.0-6.0-0.19","14264600","co38542","norming","","","","","","",""
"null","../img/tt/353tt.jpg","null","mooney1","image-keyboard-response","140","464027","0.0-6.0-1.19","14264600","co38542","norming","","","","","","",""
"3904.1250000009313","","","post_mooney1_questions","survey-likert","141","467936","0.0-6.0-2.19","14264600","co38542","norming","","","{""curiosity"":4,""confidence"":2}","[0,1]","../img/tt/353tt.jpg","",""
"2414.199999999255","","","recognition","survey-text","142","470357","0.0-6.0-3.19","14264600","co38542","norming","","","{""guess"":""pinguin""}","","../img/tt/353tt.jpg","",""
"null","../img/gs/353gs.jpg","null","reveal","image-keyboard-response","143","472360","0.0-6.0-4.19","14264600","co38542","norming","","","","","","",""
"null","../img/tt/353tt.jpg","null","mooney2","image-keyboard-response","144","474362","0.0-6.0-5.19","14264600","co38542","norming","","","","","","",""
"2903.9499999489635","","","post_reveal_questions","survey-likert","145","477271","0.0-6.0-6.19","14264600","co38542","norming","","","{""aha"":2}","[0]","../img/tt/353tt.jpg","",""
"null","<div style=""font-size:60px;""> </div>","null","fixation","html-keyboard-response","146","477473","0.0-6.0-0.20","14264600","co38542","norming","","","","","","",""
"null","../img/tt/1161tt.jpg","null","mooney1","image-keyboard-response","147","480477","0.0-6.0-1.20","14264600","co38542","norming","","","","","","",""
"4064.200000022538","","","post_mooney1_questions","survey-likert","148","484546","0.0-6.0-2.20","14264600","co38542","norming","","","{""curiosity"":2,""confidence"":3}","[0,1]","../img/tt/1161tt.jpg","",""
"3179.2949999216944","","","recognition","survey-text","149","487731","0.0-6.0-3.20","14264600","co38542","norming","","","{""guess"":""climber""}","","../img/tt/1161tt.jpg","",""
"null","../img/gs/1161gs.jpg","null","reveal","image-keyboard-response","150","489733","0.0-6.0-4.20","14264600","co38542","norming","","","","","","",""
"null","../img/tt/1161tt.jpg","null","mooney2","image-keyboard-response","151","491736","0.0-6.0-5.20","14264600","co38542","norming","","","","","","",""
"2256.8949999986216","","","post_reveal_questions","survey-likert","152","493996","0.0-6.0-6.20","14264600","co38542","norming","","","{""aha"":2}","[0]","../img/tt/1161tt.jpg","",""
"null","<div style=""font-size:60px;""> </div>","null","fixation","html-keyboard-response","153","494198","0.0-6.0-0.21","14264600","co38542","norming","","","","","","",""
"null","../img/tt/1040tt.jpg","null","mooney1","image-keyboard-response","154","497203","0.0-6.0-1.21","14264600","co38542","norming","","","","","","",""
"3784.899999969639","","","post_mooney1_questions","survey-likert","155","500991","0.0-6.0-2.21","14264600","co38542","norming","","","{""curiosity"":3,""confidence"":2}","[0,1]","../img/tt/1040tt.jpg","",""
"3505.1600000588223","","","recognition","survey-text","156","504501","0.0-6.0-3.21","14264600","co38542","norming","","","{""guess"":""skier""}","","../img/tt/1040tt.jpg","",""
"null","../img/gs/1040gs.jpg","null","reveal","image-keyboard-response","157","506504","0.0-6.0-4.21","14264600","co38542","norming","","","","","","",""
"null","../img/tt/1040tt.jpg","null","mooney2","image-keyboard-response","158","508507","0.0-6.0-5.21","14264600","co38542","norming","","","","","","",""
"2287.6049999613315","","","post_reveal_questions","survey-likert","159","510798","0.0-6.0-6.21","14264600","co38542","norming","","","{""aha"":2}","[0]","../img/tt/1040tt.jpg","",""
"null","<div style=""font-size:60px;""> </div>","null","fixation","html-keyboard-response","160","511001","0.0-6.0-0.22","14264600","co38542","norming","","","","","","",""
"null","../img/tt/517tt.jpg","null","mooney1","image-keyboard-response","161","514004","0.0-6.0-1.22","14264600","co38542","norming","","","","","","",""
"4460.304999956861","","","post_mooney1_questions","survey-likert","162","518468","0.0-6.0-2.22","14264600","co38542","norming","","","{""curiosity"":2,""confidence"":1}","[0,1]","../img/tt/517tt.jpg","",""
"3463.480000034906","","","recognition","survey-text","163","521938","0.0-6.0-3.22","14264600","co38542","norming","","","{""guess"":""animal""}","","../img/tt/517tt.jpg","",""
"null","../img/gs/517gs.jpg","null","reveal","image-keyboard-response","164","523942","0.0-6.0-4.22","14264600","co38542","norming","","","","","","",""
"null","../img/tt/517tt.jpg","null","mooney2","image-keyboard-response","165","525946","0.0-6.0-5.22","14264600","co38542","norming","","","","","","",""
"2913.4649999905378","","","post_reveal_questions","survey-likert","166","528861","0.0-6.0-6.22","14264600","co38542","norming","","","{""aha"":4}","[0]","../img/tt/517tt.jpg","",""
"null","<div style=""font-size:60px;""> </div>","null","fixation","html-keyboard-response","167","529064","0.0-6.0-0.23","14264600","co38542","norming","","","","","","",""
"null","../img/tt/1224tt.jpg","null","mooney1","image-keyboard-response","168","532068","0.0-6.0-1.23","14264600","co38542","norming","","","","","","",""
"6273.240000009537","","","post_mooney1_questions","survey-likert","169","538346","0.0-6.0-2.23","14264600","co38542","norming","","","{""curiosity"":2,""confidence"":0}","[0,1]","../img/tt/1224tt.jpg","",""
"897.3550000227988","","","recognition","survey-text","170","539250","0.0-6.0-3.23","14264600","co38542","norming","","","{""guess"":""""}","","../img/tt/1224tt.jpg","",""
"null","../img/gs/1224gs.jpg","null","reveal","image-keyboard-response","171","541255","0.0-6.0-4.23","14264600","co38542","norming","","","","","","",""
"null","../img/tt/1224tt.jpg","null","mooney2","image-keyboard-response","172","543257","0.0-6.0-5.23","14264600","co38542","norming","","","","","","",""
"2088.125000009313","","","post_reveal_questions","survey-likert","173","545349","0.0-6.0-6.23","14264600","co38542","norming","","","{""aha"":1}","[0]","../img/tt/1224tt.jpg","",""
"null","<div style=""font-size:60px;""> </div>","null","fixation","html-keyboard-response","174","545552","0.0-6.0-0.24","14264600","co38542","norming","","","","","","",""
"null","../img/tt/123tt.jpg","null","mooney1","image-keyboard-response","175","548557","0.0-6.0-1.24","14264600","co38542","norming","","","","","","",""
"3308.199999970384","","","post_mooney1_questions","survey-likert","176","551870","0.0-6.0-2.24","14264600","co38542","norming","","","{""curiosity"":1,""confidence"":0}","[0,1]","../img/tt/123tt.jpg","",""
"702.129999990575","","","recognition","survey-text","177","552580","0.0-6.0-3.24","14264600","co38542","norming","","","{""guess"":""""}","","../img/tt/123tt.jpg","",""
"null","../img/gs/123gs.jpg","null","reveal","image-keyboard-response","178","554584","0.0-6.0-4.24","14264600","co38542","norming","","","","","","",""
"null","../img/tt/123tt.jpg","null","mooney2","image-keyboard-response","179","556587","0.0-6.0-5.24","14264600","co38542","norming","","","","","","",""
"1940.2850000187755","","","post_reveal_questions","survey-likert","180","558532","0.0-6.0-6.24","14264600","co38542","norming","","","{""aha"":1}","[0]","../img/tt/123tt.jpg","",""
"null","<div style=""font-size:60px;""> </div>","null","fixation","html-keyboard-response","181","558735","0.0-6.0-0.25","14264600","co38542","norming","","","","","","",""
"null","../img/tt/1091tt.jpg","null","mooney1","image-keyboard-response","182","561739","0.0-6.0-1.25","14264600","co38542","norming","","","","","","",""
"5827.4149999488145","","","post_mooney1_questions","survey-likert","183","567571","0.0-6.0-2.25","14264600","co38542","norming","","","{""curiosity"":3,""confidence"":6}","[0,1]","../img/tt/1091tt.jpg","",""
"1729.9650000641122","","","recognition","survey-text","184","569310","0.0-6.0-3.25","14264600","co38542","norming","","","{""guess"":""horse""}","","../img/tt/1091tt.jpg","",""
"null","../img/gs/1091gs.jpg","null","reveal","image-keyboard-response","185","571313","0.0-6.0-4.25","14264600","co38542","norming","","","","","","",""
"null","../img/tt/1091tt.jpg","null","mooney2","image-keyboard-response","186","573317","0.0-6.0-5.25","14264600","co38542","norming","","","","","","",""
"5631.210000021383","","","post_reveal_questions","survey-likert","187","578951","0.0-6.0-6.25","14264600","co38542","norming","","","{""aha"":0}","[0]","../img/tt/1091tt.jpg","",""
"null","<div style=""font-size:60px;""> </div>","null","fixation","html-keyboard-response","188","579156","0.0-6.0-0.26","14264600","co38542","norming","","","","","","",""
"null","../img/tt/1290tt.jpg","null","mooney1","image-keyboard-response","189","582160","0.0-6.0-1.26","14264600","co38542","norming","","","","","","",""
"4269.570000004023","","","post_mooney1_questions","survey-likert","190","586434","0.0-6.0-2.26","14264600","co38542","norming","","","{""curiosity"":3,""confidence"":3}","[0,1]","../img/tt/1290tt.jpg","",""
"1855.7499999878928","","","recognition","survey-text","191","588296","0.0-6.0-3.26","14264600","co38542","norming","","","{""guess"":""skilift""}","","../img/tt/1290tt.jpg","",""
"null","../img/gs/1290gs.jpg","null","reveal","image-keyboard-response","192","590299","0.0-6.0-4.26","14264600","co38542","norming","","","","","","",""
"null","../img/tt/1290tt.jpg","null","mooney2","image-keyboard-response","193","592302","0.0-6.0-5.26","14264600","co38542","norming","","","","","","",""
"4323.100000037812","","","post_reveal_questions","survey-likert","194","596630","0.0-6.0-6.26","14264600","co38542","norming","","","{""aha"":0}","[0]","../img/tt/1290tt.jpg","",""
"null","<div style=""font-size:60px;""> </div>","null","fixation","html-keyboard-response","195","596834","0.0-6.0-0.27","14264600","co38542","norming","","","","","","",""
"null","../img/tt/1004tt.jpg","null","mooney1","image-keyboard-response","196","599839","0.0-6.0-1.27","14264600","co38542","norming","","","","","","",""
"5066.584999905899","","","post_mooney1_questions","survey-likert","197","604910","0.0-6.0-2.27","14264600","co38542","norming","","","{""curiosity"":3,""confidence"":0}","[0,1]","../img/tt/1004tt.jpg","",""
"331.8600000347942","","","recognition","survey-text","198","605249","0.0-6.0-3.27","14264600","co38542","norming","","","{""guess"":""""}","","../img/tt/1004tt.jpg","",""
"null","../img/gs/1004gs.jpg","null","reveal","image-keyboard-response","199","607355","0.0-6.0-4.27","14264600","co38542","norming","","","","","","",""
"null","../img/tt/1004tt.jpg","null","mooney2","image-keyboard-response","200","609358","0.0-6.0-5.27","14264600","co38542","norming","","","","","","",""
"5476.000000024214","","","post_reveal_questions","survey-likert","201","614836","0.0-6.0-6.27","14264600","co38542","norming","","","{""aha"":4}","[0]","../img/tt/1004tt.jpg","",""
"null","<div style=""font-size:60px;""> </div>","null","fixation","html-keyboard-response","202","615039","0.0-6.0-0.28","14264600","co38542","norming","","","","","","",""
"null","../img/tt/1276tt.jpg","null","mooney1","image-keyboard-response","203","618044","0.0-6.0-1.28","14264600","co38542","norming","","","","","","",""
"2888.4499999694526","","","post_mooney1_questions","survey-likert","204","620936","0.0-6.0-2.28","14264600","co38542","norming","","","{""curiosity"":0,""confidence"":0}","[0,1]","../img/tt/1276tt.jpg","",""
"846.5249999426305","","","recognition","survey-text","205","621791","0.0-6.0-3.28","14264600","co38542","norming","","","{""guess"":""""}","","../img/tt/1276tt.jpg","",""
"null","../img/gs/1276gs.jpg","null","reveal","image-keyboard-response","206","624355","0.0-6.0-4.28","14264600","co38542","norming","","","","","","",""
"null","../img/tt/1276tt.jpg","null","mooney2","image-keyboard-response","207","626357","0.0-6.0-5.28","14264600","co38542","norming","","","","","","",""
"2487.8549999557436","","","post_reveal_questions","survey-likert","208","628847","0.0-6.0-6.28","14264600","co38542","norming","","","{""aha"":2}","[0]","../img/tt/1276tt.jpg","",""
"null","<div style=""font-size:60px;""> </div>","null","fixation","html-keyboard-response","209","629050","0.0-6.0-0.29","14264600","co38542","norming","","","","","","",""
"null","../img/tt/1307tt.jpg","null","mooney1","image-keyboard-response","210","632053","0.0-6.0-1.29","14264600","co38542","norming","","","","","","",""
"3997.6000000024214","","","post_mooney1_questions","survey-likert","211","636055","0.0-6.0-2.29","14264600","co38542","norming","","","{""curiosity"":6,""confidence"":1}","[0,1]","../img/tt/1307tt.jpg","",""
"1163.5650000534952","","","recognition","survey-text","212","637227","0.0-6.0-3.29","14264600","co38542","norming","","","{""guess"":""""}","","../img/tt/1307tt.jpg","",""
"null","../img/gs/1307gs.jpg","null","reveal","image-keyboard-response","213","639357","0.0-6.0-4.29","14264600","co38542","norming","","","","","","",""
"null","../img/tt/1307tt.jpg","null","mooney2","image-keyboard-response","214","642356","0.0-6.0-5.29","14264600","co38542","norming","","","","","","",""
"6078.584999893792","","","post_reveal_questions","survey-likert","215","648436","0.0-6.0-6.29","14264600","co38542","norming","","","{""aha"":2}","[0]","../img/tt/1307tt.jpg","",""
"null","<div style=""font-size:60px;""> </div>","null","fixation","html-keyboard-response","216","648638","0.0-6.0-0.30","14264600","co38542","norming","","","","","","",""
"null","../img/tt/052tt.jpg","null","mooney1","image-keyboard-response","217","651643","0.0-6.0-1.30","14264600","co38542","norming","","","","","","",""
"7010.879999957979","","","post_mooney1_questions","survey-likert","218","658658","0.0-6.0-2.30","14264600","co38542","norming","","","{""curiosity"":1,""confidence"":0}","[0,1]","../img/tt/052tt.jpg","",""
"979.3300000019372","","","recognition","survey-text","219","659645","0.0-6.0-3.30","14264600","co38542","norming","","","{""guess"":""""}","","../img/tt/052tt.jpg","",""
"null","../img/gs/052gs.jpg","null","reveal","image-keyboard-response","220","662356","0.0-6.0-4.30","14264600","co38542","norming","","","","","","",""
"null","../img/tt/052tt.jpg","null","mooney2","image-keyboard-response","221","665356","0.0-6.0-5.30","14264600","co38542","norming","","","","","","",""
"12563.184999977238","","","post_reveal_questions","survey-likert","222","677921","0.0-6.0-6.30","14264600","co38542","norming","","","{""aha"":2}","[0]","../img/tt/052tt.jpg","",""
"null","<div style=""font-size:60px;""> </div>","null","fixation","html-keyboard-response","223","678124","0.0-6.0-0.31","14264600","co38542","norming","","","","","","",""
"null","../img/tt/008tt.jpg","null","mooney1","image-keyboard-response","224","681129","0.0-6.0-1.31","14264600","co38542","norming","","","","","","",""
"4876.520000048913","","","post_mooney1_questions","survey-likert","225","686010","0.0-6.0-2.31","14264600","co38542","norming","","","{""curiosity"":4,""confidence"":1}","[0,1]","../img/tt/008tt.jpg","",""
"1535.1700000464916","","","recognition","survey-text","226","687551","0.0-6.0-3.31","14264600","co38542","norming","","","{""guess"":""gyn""}","","../img/tt/008tt.jpg","",""
"null","../img/gs/008gs.jpg","null","reveal","image-keyboard-response","227","690356","0.0-6.0-4.31","14264600","co38542","norming","","","","","","",""
"null","../img/tt/008tt.jpg","null","mooney2","image-keyboard-response","228","692359","0.0-6.0-5.31","14264600","co38542","norming","","","","","","",""
"2358.059999998659","","","post_reveal_questions","survey-likert","229","694722","0.0-6.0-6.31","14264600","co38542","norming","","","{""aha"":3}","[0]","../img/tt/008tt.jpg","",""
"null","<div style=""font-size:60px;""> </div>","null","fixation","html-keyboard-response","230","694925","0.0-6.0-0.32","14264600","co38542","norming","","","","","","",""
"null","../img/tt/1363tt.jpg","null","mooney1","image-keyboard-response","231","697929","0.0-6.0-1.32","14264600","co38542","norming","","","","","","",""
"18527.750000008382","","","post_mooney1_questions","survey-likert","232","716462","0.0-6.0-2.32","14264600","co38542","norming","","","{""curiosity"":1,""confidence"":0}","[0,1]","../img/tt/1363tt.jpg","",""
"780.0199999473989","","","recognition","survey-text","233","717247","0.0-6.0-3.32","14264600","co38542","norming","","","{""guess"":""""}","","../img/tt/1363tt.jpg","",""
"null","../img/gs/1363gs.jpg","null","reveal","image-keyboard-response","234","719356","0.0-6.0-4.32","14264600","co38542","norming","","","","","","",""
"null","../img/tt/1363tt.jpg","null","mooney2","image-keyboard-response","235","722356","0.0-6.0-5.32","14264600","co38542","norming","","","","","","",""
"4222.09500009194","","","post_reveal_questions","survey-likert","236","726580","0.0-6.0-6.32","14264600","co38542","norming","","","{""aha"":2}","[0]","../img/tt/1363tt.jpg","",""
"null","<div style=""font-size:60px;""> </div>","null","fixation","html-keyboard-response","237","726785","0.0-6.0-0.33","14264600","co38542","norming","","","","","","",""
"null","../img/tt/1069tt.jpg","null","mooney1","image-keyboard-response","238","729788","0.0-6.0-1.33","14264600","co38542","norming","","","","","","",""
"72095.29500000644","","","post_mooney1_questions","survey-likert","239","801887","0.0-6.0-2.33","14264600","co38542","norming","","","{""curiosity"":1,""confidence"":1}","[0,1]","../img/tt/1069tt.jpg","",""
"1189.1649999888614","","","recognition","survey-text","240","803086","0.0-6.0-3.33","14264600","co38542","norming","","","{""guess"":""""}","","../img/tt/1069tt.jpg","",""
"null","../img/gs/1069gs.jpg","null","reveal","image-keyboard-response","241","805090","0.0-6.0-4.33","14264600","co38542","norming","","","","","","",""
"null","../img/tt/1069tt.jpg","null","mooney2","image-keyboard-response","242","807093","0.0-6.0-5.33","14264600","co38542","norming","","","","","","",""
"2906.8399999523535","","","post_reveal_questions","survey-likert","243","810004","0.0-6.0-6.33","14264600","co38542","norming","","","{""aha"":3}","[0]","../img/tt/1069tt.jpg","",""
"null","<div style=""font-size:60px;""> </div>","null","fixation","html-keyboard-response","244","810207","0.0-6.0-0.34","14264600","co38542","norming","","","","","","",""
"null","../img/tt/1084tt.jpg","null","mooney1","image-keyboard-response","245","813212","0.0-6.0-1.34","14264600","co38542","norming","","","","","","",""
"4986.79999995511","","","post_mooney1_questions","survey-likert","246","818202","0.0-6.0-2.34","14264600","co38542","norming","","","{""curiosity"":3,""confidence"":3}","[0,1]","../img/tt/1084tt.jpg","",""
"1780.3299999795854","","","recognition","survey-text","247","819988","0.0-6.0-3.34","14264600","co38542","norming","","","{""guess"":""pie""}","","../img/tt/1084tt.jpg","",""
"null","../img/gs/1084gs.jpg","null","reveal","image-keyboard-response","248","821991","0.0-6.0-4.34","14264600","co38542","norming","","","","","","",""
"null","../img/tt/1084tt.jpg","null","mooney2","image-keyboard-response","249","823994","0.0-6.0-5.34","14264600","co38542","norming","","","","","","",""
"2434.4200000632554","","","post_reveal_questions","survey-likert","250","826431","0.0-6.0-6.34","14264600","co38542","norming","","","{""aha"":2}","[0]","../img/tt/1084tt.jpg","",""
"null","<div style=""font-size:60px;""> </div>","null","fixation","html-keyboard-response","251","826635","0.0-6.0-0.35","14264600","co38542","norming","","","","","","",""
"null","../img/tt/306tt.jpg","null","mooney1","image-keyboard-response","252","829639","0.0-6.0-1.35","14264600","co38542","norming","","","","","","",""
"4062.279999954626","","","post_mooney1_questions","survey-likert","253","833705","0.0-6.0-2.35","14264600","co38542","norming","","","{""curiosity"":4,""confidence"":0}","[0,1]","../img/tt/306tt.jpg","",""
"692.5350000383332","","","recognition","survey-text","254","834405","0.0-6.0-3.35","14264600","co38542","norming","","","{""guess"":""""}","","../img/tt/306tt.jpg","",""
"null","../img/gs/306gs.jpg","null","reveal","image-keyboard-response","255","836410","0.0-6.0-4.35","14264600","co38542","norming","","","","","","",""
"null","../img/tt/306tt.jpg","null","mooney2","image-keyboard-response","256","838413","0.0-6.0-5.35","14264600","co38542","norming","","","","","","",""
"2320.384999969974","","","post_reveal_questions","survey-likert","257","840737","0.0-6.0-6.35","14264600","co38542","norming","","","{""aha"":6}","[0]","../img/tt/306tt.jpg","",""
"null","<div style=""font-size:60px;""> </div>","null","fixation","html-keyboard-response","258","840940","0.0-6.0-0.36","14264600","co38542","norming","","","","","","",""
"null","../img/tt/094tt.jpg","null","mooney1","image-keyboard-response","259","843944","0.0-6.0-1.36","14264600","co38542","norming","","","","","","",""
"4807.945000007749","","","post_mooney1_questions","survey-likert","260","848756","0.0-6.0-2.36","14264600","co38542","norming","","","{""curiosity"":4,""confidence"":1}","[0,1]","../img/tt/094tt.jpg","",""
"1156.4100000541657","","","recognition","survey-text","261","849921","0.0-6.0-3.36","14264600","co38542","norming","","","{""guess"":""owl""}","","../img/tt/094tt.jpg","",""
"null","../img/gs/094gs.jpg","null","reveal","image-keyboard-response","262","851924","0.0-6.0-4.36","14264600","co38542","norming","","","","","","",""
"null","../img/tt/094tt.jpg","null","mooney2","image-keyboard-response","263","853928","0.0-6.0-5.36","14264600","co38542","norming","","","","","","",""
"2113.2249999791384","","","post_reveal_questions","survey-likert","264","856044","0.0-6.0-6.36","14264600","co38542","norming","","","{""aha"":4}","[0]","../img/tt/094tt.jpg","",""
"null","<div style=""font-size:60px;""> </div>","null","fixation","html-keyboard-response","265","856247","0.0-6.0-0.37","14264600","co38542","norming","","","","","","",""
"null","../img/tt/1189tt.jpg","null","mooney1","image-keyboard-response","266","859250","0.0-6.0-1.37","14264600","co38542","norming","","","","","","",""
"3926.56499997247","","","post_mooney1_questions","survey-likert","267","863181","0.0-6.0-2.37","14264600","co38542","norming","","","{""curiosity"":0,""confidence"":0}","[0,1]","../img/tt/1189tt.jpg","",""
"721.2999999755993","","","recognition","survey-text","268","863909","0.0-6.0-3.37","14264600","co38542","norming","","","{""guess"":""""}","","../img/tt/1189tt.jpg","",""
"null","../img/gs/1189gs.jpg","null","reveal","image-keyboard-response","269","866355","0.0-6.0-4.37","14264600","co38542","norming","","","","","","",""
"null","../img/tt/1189tt.jpg","null","mooney2","image-keyboard-response","270","869355","0.0-6.0-5.37","14264600","co38542","norming","","","","","","",""
"6617.790000047535","","","post_reveal_questions","survey-likert","271","875975","0.0-6.0-6.37","14264600","co38542","norming","","","{""aha"":2}","[0]","../img/tt/1189tt.jpg","",""
"null","<div style=""font-size:60px;""> </div>","null","fixation","html-keyboard-response","272","876178","0.0-6.0-0.38","14264600","co38542","norming","","","","","","",""
"null","../img/tt/1261tt.jpg","null","mooney1","image-keyboard-response","273","879181","0.0-6.0-1.38","14264600","co38542","norming","","","","","","",""
"3260.439999983646","","","post_mooney1_questions","survey-likert","274","882446","0.0-6.0-2.38","14264600","co38542","norming","","","{""curiosity"":2,""confidence"":2}","[0,1]","../img/tt/1261tt.jpg","",""
"1483.4150000242516","","","recognition","survey-text","275","883936","0.0-6.0-3.38","14264600","co38542","norming","","","{""guess"":""""}","","../img/tt/1261tt.jpg","",""
"null","../img/gs/1261gs.jpg","null","reveal","image-keyboard-response","276","886355","0.0-6.0-4.38","14264600","co38542","norming","","","","","","",""
"null","../img/tt/1261tt.jpg","null","mooney2","image-keyboard-response","277","889356","0.0-6.0-5.38","14264600","co38542","norming","","","","","","",""
"10330.364999943413","","","post_reveal_questions","survey-likert","278","899690","0.0-6.0-6.38","14264600","co38542","norming","","","{""aha"":4}","[0]","../img/tt/1261tt.jpg","",""
"null","<div style=""font-size:60px;""> </div>","null","fixation","html-keyboard-response","279","899893","0.0-6.0-0.39","14264600","co38542","norming","","","","","","",""
"null","../img/tt/084tt.jpg","null","mooney1","image-keyboard-response","280","902898","0.0-6.0-1.39","14264600","co38542","norming","","","","","","",""
"3927.93000000529","","","post_mooney1_questions","survey-likert","281","906830","0.0-6.0-2.39","14264600","co38542","norming","","","{""curiosity"":4,""confidence"":1}","[0,1]","../img/tt/084tt.jpg","",""
"2457.53999997396","","","recognition","survey-text","282","909294","0.0-6.0-3.39","14264600","co38542","norming","","","{""guess"":""bird""}","","../img/tt/084tt.jpg","",""
"null","../img/gs/084gs.jpg","null","reveal","image-keyboard-response","283","911355","0.0-6.0-4.39","14264600","co38542","norming","","","","","","",""
"null","../img/tt/084tt.jpg","null","mooney2","image-keyboard-response","284","914356","0.0-6.0-5.39","14264600","co38542","norming","","","","","","",""
"3945.1099999714643","","","post_reveal_questions","survey-likert","285","918303","0.0-6.0-6.39","14264600","co38542","norming","","","{""aha"":3}","[0]","../img/tt/084tt.jpg","",""
"null","<div style=""font-size:60px;""> </div>","null","fixation","html-keyboard-response","286","918507","0.0-6.0-0.40","14264600","co38542","norming","","","","","","",""
"null","../img/tt/1151tt.jpg","null","mooney1","image-keyboard-response","287","921512","0.0-6.0-1.40","14264600","co38542","norming","","","","","","",""
"2883.7999999523163","","","post_mooney1_questions","survey-likert","288","924401","0.0-6.0-2.40","14264600","co38542","norming","","","{""curiosity"":1,""confidence"":2}","[0,1]","../img/tt/1151tt.jpg","",""
"869.4350000005215","","","recognition","survey-text","289","925278","0.0-6.0-3.40","14264600","co38542","norming","","","{""guess"":""""}","","../img/tt/1151tt.jpg","",""
"null","../img/gs/1151gs.jpg","null","reveal","image-keyboard-response","290","927355","0.0-6.0-4.40","14264600","co38542","norming","","","","","","",""
"null","../img/tt/1151tt.jpg","null","mooney2","image-keyboard-response","291","930355","0.0-6.0-5.40","14264600","co38542","norming","","","","","","",""
"23531.955000013113","","","post_reveal_questions","survey-likert","292","953889","0.0-6.0-6.40","14264600","co38542","norming","","","{""aha"":3}","[0]","../img/tt/1151tt.jpg","",""
"null","<div style=""font-size:60px;""> </div>","null","fixation","html-keyboard-response","293","954093","0.0-6.0-0.41","14264600","co38542","norming","","","","","","",""
"null","../img/tt/1070tt.jpg","null","mooney1","image-keyboard-response","294","957097","0.0-6.0-1.41","14264600","co38542","norming","","","","","","",""
"3721.0050000576302","","","post_mooney1_questions","survey-likert","295","960822","0.0-6.0-2.41","14264600","co38542","norming","","","{""curiosity"":3,""confidence"":4}","[0,1]","../img/tt/1070tt.jpg","",""
"1150.8499999763444","","","recognition","survey-text","296","961981","0.0-6.0-3.41","14264600","co38542","norming","","","{""guess"":""pie""}","","../img/tt/1070tt.jpg","",""
"null","../img/gs/1070gs.jpg","null","reveal","image-keyboard-response","297","963984","0.0-6.0-4.41","14264600","co38542","norming","","","","","","",""
"null","../img/tt/1070tt.jpg","null","mooney2","image-keyboard-response","298","965986","0.0-6.0-5.41","14264600","co38542","norming","","","","","","",""
"2170.240000006743","","","post_reveal_questions","survey-likert","299","968160","0.0-6.0-6.41","14264600","co38542","norming","","","{""aha"":4}","[0]","../img/tt/1070tt.jpg","",""
"null","<div style=""font-size:60px;""> </div>","null","fixation","html-keyboard-response","300","968364","0.0-6.0-0.42","14264600","co38542","norming","","","","","","",""
"null","../img/tt/1186tt.jpg","null","mooney1","image-keyboard-response","301","971368","0.0-6.0-1.42","14264600","co38542","norming","","","","","","",""
"3271.264999988489","","","post_mooney1_questions","survey-likert","302","974646","0.0-6.0-2.42","14264600","co38542","norming","","","{""curiosity"":3,""confidence"":3}","[0,1]","../img/tt/1186tt.jpg","",""
"2527.8800000669435","","","recognition","survey-text","303","977182","0.0-6.0-3.42","14264600","co38542","norming","","","{""guess"":""""}","","../img/tt/1186tt.jpg","",""
"null","../img/gs/1186gs.jpg","null","reveal","image-keyboard-response","304","979186","0.0-6.0-4.42","14264600","co38542","norming","","","","","","",""
"null","../img/tt/1186tt.jpg","null","mooney2","image-keyboard-response","305","981188","0.0-6.0-5.42","14264600","co38542","norming","","","","","","",""
"1989.724999992177","","","post_reveal_questions","survey-likert","306","983181","0.0-6.0-6.42","14264600","co38542","norming","","","{""aha"":3}","[0]","../img/tt/1186tt.jpg","",""
"null","<div style=""font-size:60px;""> </div>","null","fixation","html-keyboard-response","307","983386","0.0-6.0-0.43","14264600","co38542","norming","","","","","","",""
"null","../img/tt/1199tt.jpg","null","mooney1","image-keyboard-response","308","986393","0.0-6.0-1.43","14264600","co38542","norming","","","","","","",""
"5955.880000023171","","","post_mooney1_questions","survey-likert","309","992353","0.0-6.0-2.43","14264600","co38542","norming","","","{""curiosity"":3,""confidence"":5}","[0,1]","../img/tt/1199tt.jpg","",""
"3025.774999987334","","","recognition","survey-text","310","995388","0.0-6.0-3.43","14264600","co38542","norming","","","{""guess"":""gymnast balk""}","","../img/tt/1199tt.jpg","",""
"null","../img/gs/1199gs.jpg","null","reveal","image-keyboard-response","311","997391","0.0-6.0-4.43","14264600","co38542","norming","","","","","","",""
"null","../img/tt/1199tt.jpg","null","mooney2","image-keyboard-response","312","999392","0.0-6.0-5.43","14264600","co38542","norming","","","","","","",""
"2811.669999966398","","","post_reveal_questions","survey-likert","313","1002207","0.0-6.0-6.43","14264600","co38542","norming","","","{""aha"":3}","[0]","../img/tt/1199tt.jpg","",""
"null","<div style=""font-size:60px;""> </div>","null","fixation","html-keyboard-response","314","1002411","0.0-6.0-0.44","14264600","co38542","norming","","","","","","",""
"null","../img/tt/1037tt.jpg","null","mooney1","image-keyboard-response","315","1005415","0.0-6.0-1.44","14264600","co38542","norming","","","","","","",""
"5209.090000018477","","","post_mooney1_questions","survey-likert","316","1010628","0.0-6.0-2.44","14264600","co38542","norming","","","{""curiosity"":3,""confidence"":0}","[0,1]","../img/tt/1037tt.jpg","",""
"1125.6849999772385","","","recognition","survey-text","317","1011758","0.0-6.0-3.44","14264600","co38542","norming","","","{""guess"":""tree""}","","../img/tt/1037tt.jpg","",""
"null","../img/gs/1037gs.jpg","null","reveal","image-keyboard-response","318","1013760","0.0-6.0-4.44","14264600","co38542","norming","","","","","","",""
"null","../img/tt/1037tt.jpg","null","mooney2","image-keyboard-response","319","1016356","0.0-6.0-5.44","14264600","co38542","norming","","","","","","",""
"13093.499999959022","","","post_reveal_questions","survey-likert","320","1029452","0.0-6.0-6.44","14264600","co38542","norming","","","{""aha"":6}","[0]","../img/tt/1037tt.jpg","",""
"null","<div style=""font-size:60px;""> </div>","null","fixation","html-keyboard-response","321","1029655","0.0-6.0-0.45","14264600","co38542","norming","","","","","","",""
"null","../img/tt/1033tt.jpg","null","mooney1","image-keyboard-response","322","1032659","0.0-6.0-1.45","14264600","co38542","norming","","","","","","",""
"3287.789999973029","","","post_mooney1_questions","survey-likert","323","1035951","0.0-6.0-2.45","14264600","co38542","norming","","","{""curiosity"":4,""confidence"":0}","[0,1]","../img/tt/1033tt.jpg","",""
"892.0699999434873","","","recognition","survey-text","324","1036847","0.0-6.0-3.45","14264600","co38542","norming","","","{""guess"":""""}","","../img/tt/1033tt.jpg","",""
"null","../img/gs/1033gs.jpg","null","reveal","image-keyboard-response","325","1038851","0.0-6.0-4.45","14264600","co38542","norming","","","","","","",""
"null","../img/tt/1033tt.jpg","null","mooney2","image-keyboard-response","326","1040854","0.0-6.0-5.45","14264600","co38542","norming","","","","","","",""
"3090.3699999907985","","","post_reveal_questions","survey-likert","327","1043948","0.0-6.0-6.45","14264600","co38542","norming","","","{""aha"":4}","[0]","../img/tt/1033tt.jpg","",""
"null","<div style=""font-size:60px;""> </div>","null","fixation","html-keyboard-response","328","1044151","0.0-6.0-0.46","14264600","co38542","norming","","","","","","",""
"null","../img/tt/056tt.jpg","null","mooney1","image-keyboard-response","329","1047155","0.0-6.0-1.46","14264600","co38542","norming","","","","","","",""
"4713.675000006333","","","post_mooney1_questions","survey-likert","330","1051872","0.0-6.0-2.46","14264600","co38542","norming","","","{""curiosity"":4,""confidence"":1}","[0,1]","../img/tt/056tt.jpg","",""
"2541.689999983646","","","recognition","survey-text","331","1054421","0.0-6.0-3.46","14264600","co38542","norming","","","{""guess"":""people rock""}","","../img/tt/056tt.jpg","",""
"null","../img/gs/056gs.jpg","null","reveal","image-keyboard-response","332","1056423","0.0-6.0-4.46","14264600","co38542","norming","","","","","","",""
"null","../img/tt/056tt.jpg","null","mooney2","image-keyboard-response","333","1058425","0.0-6.0-5.46","14264600","co38542","norming","","","","","","",""
"2706.400000024587","","","post_reveal_questions","survey-likert","334","1061134","0.0-6.0-6.46","14264600","co38542","norming","","","{""aha"":5}","[0]","../img/tt/056tt.jpg","",""
"null","<div style=""font-size:60px;""> </div>","null","fixation","html-keyboard-response","335","1061337","0.0-6.0-0.47","14264600","co38542","norming","","","","","","",""
"null","../img/tt/194tt.jpg","null","mooney1","image-keyboard-response","336","1064341","0.0-6.0-1.47","14264600","co38542","norming","","","","","","",""
"4844.909999985248","","","post_mooney1_questions","survey-likert","337","1069191","0.0-6.0-2.47","14264600","co38542","norming","","","{""curiosity"":4,""confidence"":1}","[0,1]","../img/tt/194tt.jpg","",""
"2904.8300000140443","","","recognition","survey-text","338","1072103","0.0-6.0-3.47","14264600","co38542","norming","","","{""guess"":""girl tram""}","","../img/tt/194tt.jpg","",""
"null","../img/gs/194gs.jpg","null","reveal","image-keyboard-response","339","1074106","0.0-6.0-4.47","14264600","co38542","norming","","","","","","",""
"null","../img/tt/194tt.jpg","null","mooney2","image-keyboard-response","340","1076109","0.0-6.0-5.47","14264600","co38542","norming","","","","","","",""
"3186.864999937825","","","post_reveal_questions","survey-likert","341","1079299","0.0-6.0-6.47","14264600","co38542","norming","","","{""aha"":4}","[0]","../img/tt/194tt.jpg","",""
"null","<div style=""font-size:60px;""> </div>","null","fixation","html-keyboard-response","342","1079506","0.0-6.0-0.48","14264600","co38542","norming","","","","","","",""
"null","../img/tt/1270tt.jpg","null","mooney1","image-keyboard-response","343","1082511","0.0-6.0-1.48","14264600","co38542","norming","","","","","","",""
"3245.7249999279156","","","post_mooney1_questions","survey-likert","344","1085761","0.0-6.0-2.48","14264600","co38542","norming","","","{""curiosity"":0,""confidence"":0}","[0,1]","../img/tt/1270tt.jpg","",""
"1050.8649999974295","","","recognition","survey-text","345","1086818","0.0-6.0-3.48","14264600","co38542","norming","","","{""guess"":""""}","","../img/tt/1270tt.jpg","",""
"null","../img/gs/1270gs.jpg","null","reveal","image-keyboard-response","346","1088823","0.0-6.0-4.48","14264600","co38542","norming","","","","","","",""
"null","../img/tt/1270tt.jpg","null","mooney2","image-keyboard-response","347","1090826","0.0-6.0-5.48","14264600","co38542","norming","","","","","","",""
"1882.9250000417233","","","post_reveal_questions","survey-likert","348","1092712","0.0-6.0-6.48","14264600","co38542","norming","","","{""aha"":2}","[0]","../img/tt/1270tt.jpg","",""
"null","<div style=""font-size:60px;""> </div>","null","fixation","html-keyboard-response","349","1092916","0.0-6.0-0.49","14264600","co38542","norming","","","","","","",""
"null","../img/tt/552tt.jpg","null","mooney1","image-keyboard-response","350","1096356","0.0-6.0-1.49","14264600","co38542","norming","","","","","","",""
"39826.66999998037","","","post_mooney1_questions","survey-likert","351","1136185","0.0-6.0-2.49","14264600","co38542","norming","","","{""curiosity"":4,""confidence"":0}","[0,1]","../img/tt/552tt.jpg","",""
"23239.99500006903","","","recognition","survey-text","352","1159432","0.0-6.0-3.49","14264600","co38542","norming","","","{""guess"":""""}","","../img/tt/552tt.jpg","",""
"null","../img/gs/552gs.jpg","null","reveal","image-keyboard-response","353","1161435","0.0-6.0-4.49","14264600","co38542","norming","","","","","","",""
"null","../img/tt/552tt.jpg","null","mooney2","image-keyboard-response","354","1163437","0.0-6.0-5.49","14264600","co38542","norming","","","","","","",""
"2995.4000000143424","","","post_reveal_questions","survey-likert","355","1166435","0.0-6.0-6.49","14264600","co38542","norming","","","{""aha"":3}","[0]","../img/tt/552tt.jpg","",""
"null","<div style=""font-size:60px;""> </div>","null","fixation","html-keyboard-response","356","1166640","0.0-6.0-0.50","14264600","co38542","norming","","","","","","",""
"null","../img/tt/135tt.jpg","null","mooney1","image-keyboard-response","357","1169644","0.0-6.0-1.50","14264600","co38542","norming","","","","","","",""
"5714.440000010654","","","post_mooney1_questions","survey-likert","358","1175366","0.0-6.0-2.50","14264600","co38542","norming","","","{""curiosity"":2,""confidence"":6}","[0,1]","../img/tt/135tt.jpg","",""
"1503.3650000113994","","","recognition","survey-text","359","1176882","0.0-6.0-3.50","14264600","co38542","norming","","","{""guess"":""toilet""}","","../img/tt/135tt.jpg","",""
"null","../img/gs/135gs.jpg","null","reveal","image-keyboard-response","360","1178884","0.0-6.0-4.50","14264600","co38542","norming","","","","","","",""
"null","../img/tt/135tt.jpg","null","mooney2","image-keyboard-response","361","1180886","0.0-6.0-5.50","14264600","co38542","norming","","","","","","",""
"3059.605000074953","","","post_reveal_questions","survey-likert","362","1183949","0.0-6.0-6.50","14264600","co38542","norming","","","{""aha"":0}","[0]","../img/tt/135tt.jpg","",""
"null","<div style=""font-size:60px;""> </div>","null","fixation","html-keyboard-response","363","1184153","0.0-6.0-0.51","14264600","co38542","norming","","","","","","",""
"null","../img/tt/549tt.jpg","null","mooney1","image-keyboard-response","364","1187157","0.0-6.0-1.51","14264600","co38542","norming","","","","","","",""
"5731.995000038296","","","post_mooney1_questions","survey-likert","365","1192894","0.0-6.0-2.51","14264600","co38542","norming","","","{""curiosity"":1,""confidence"":0}","[0,1]","../img/tt/549tt.jpg","",""
"788.7199999531731","","","recognition","survey-text","366","1193689","0.0-6.0-3.51","14264600","co38542","norming","","","{""guess"":""""}","","../img/tt/549tt.jpg","",""
"null","../img/gs/549gs.jpg","null","reveal","image-keyboard-response","367","1195694","0.0-6.0-4.51","14264600","co38542","norming","","","","","","",""
"null","../img/tt/549tt.jpg","null","mooney2","image-keyboard-response","368","1198356","0.0-6.0-5.51","14264600","co38542","norming","","","","","","",""
"164456.48499997333","","","post_reveal_questions","survey-likert","369","1362816","0.0-6.0-6.51","14264600","co38542","norming","","","{""aha"":2}","[0]","../img/tt/549tt.jpg","",""
"null","<div style=""font-size:60px;""> </div>","null","fixation","html-keyboard-response","370","1363027","0.0-6.0-0.52","14264600","co38542","norming","","","","","","",""
"null","../img/tt/1063tt.jpg","null","mooney1","image-keyboard-response","371","1366033","0.0-6.0-1.52","14264600","co38542","norming","","","","","","",""
"3124.0499999839813","","","post_mooney1_questions","survey-likert","372","1369163","0.0-6.0-2.52","14264600","co38542","norming","","","{""curiosity"":0,""confidence"":0}","[0,1]","../img/tt/1063tt.jpg","",""
"773.4649999765679","","","recognition","survey-text","373","1369946","0.0-6.0-3.52","14264600","co38542","norming","","","{""guess"":""""}","","../img/tt/1063tt.jpg","",""
"null","../img/gs/1063gs.jpg","null","reveal","image-keyboard-response","374","1372356","0.0-6.0-4.52","14264600","co38542","norming","","","","","","",""
"null","../img/tt/1063tt.jpg","null","mooney2","image-keyboard-response","375","1375356","0.0-6.0-5.52","14264600","co38542","norming","","","","","","",""
"25858.514999970794","","","post_reveal_questions","survey-likert","376","1401218","0.0-6.0-6.52","14264600","co38542","norming","","","{""aha"":4}","[0]","../img/tt/1063tt.jpg","",""
"null","<div style=""font-size:60px;""> </div>","null","fixation","html-keyboard-response","377","1401424","0.0-6.0-0.53","14264600","co38542","norming","","","","","","",""
"null","../img/tt/358tt.jpg","null","mooney1","image-keyboard-response","378","1404429","0.0-6.0-1.53","14264600","co38542","norming","","","","","","",""
"3022.9899999685585","","","post_mooney1_questions","survey-likert","379","1407462","0.0-6.0-2.53","14264600","co38542","norming","","","{""curiosity"":2,""confidence"":2}","[0,1]","../img/tt/358tt.jpg","",""
"810.5399999767542","","","recognition","survey-text","380","1408280","0.0-6.0-3.53","14264600","co38542","norming","","","{""guess"":""""}","","../img/tt/358tt.jpg","",""
"null","../img/gs/358gs.jpg","null","reveal","image-keyboard-response","381","1410285","0.0-6.0-4.53","14264600","co38542","norming","","","","","","",""
"null","../img/tt/358tt.jpg","null","mooney2","image-keyboard-response","382","1412287","0.0-6.0-5.53","14264600","co38542","norming","","","","","","",""
"3222.6550000486895","","","post_reveal_questions","survey-likert","383","1415513","0.0-6.0-6.53","14264600","co38542","norming","","","{""aha"":3}","[0]","../img/tt/358tt.jpg","",""
"null","<div style=""font-size:60px;""> </div>","null","fixation","html-keyboard-response","384","1415718","0.0-6.0-0.54","14264600","co38542","norming","","","","","","",""
"null","../img/tt/1048tt.jpg","null","mooney1","image-keyboard-response","385","1418722","0.0-6.0-1.54","14264600","co38542","norming","","","","","","",""
"3825.9050000924617","","","post_mooney1_questions","survey-likert","386","1422551","0.0-6.0-2.54","14264600","co38542","norming","","","{""curiosity"":2,""confidence"":1}","[0,1]","../img/tt/1048tt.jpg","",""
"1333.7499999906868","","","recognition","survey-text","387","1423888","0.0-6.0-3.54","14264600","co38542","norming","","","{""guess"":""tree""}","","../img/tt/1048tt.jpg","",""
"null","../img/gs/1048gs.jpg","null","reveal","image-keyboard-response","388","1425890","0.0-6.0-4.54","14264600","co38542","norming","","","","","","",""
"null","../img/tt/1048tt.jpg","null","mooney2","image-keyboard-response","389","1427892","0.0-6.0-5.54","14264600","co38542","norming","","","","","","",""
"1988.4949999395758","","","post_reveal_questions","survey-likert","390","1429884","0.0-6.0-6.54","14264600","co38542","norming","","","{""aha"":4}","[0]","../img/tt/1048tt.jpg","",""
"null","<div style=""font-size:60px;""> </div>","null","fixation","html-keyboard-response","391","1430087","0.0-6.0-0.55","14264600","co38542","norming","","","","","","",""
"null","../img/tt/1096tt.jpg","null","mooney1","image-keyboard-response","392","1433091","0.0-6.0-1.55","14264600","co38542","norming","","","","","","",""
"4126.475000055507","","","post_mooney1_questions","survey-likert","393","1437222","0.0-6.0-2.55","14264600","co38542","norming","","","{""curiosity"":4,""confidence"":0}","[0,1]","../img/tt/1096tt.jpg","",""
"1702.240000013262","","","recognition","survey-text","394","1438931","0.0-6.0-3.55","14264600","co38542","norming","","","{""guess"":""bar""}","","../img/tt/1096tt.jpg","",""
"null","../img/gs/1096gs.jpg","null","reveal","image-keyboard-response","395","1440933","0.0-6.0-4.55","14264600","co38542","norming","","","","","","",""
"null","../img/tt/1096tt.jpg","null","mooney2","image-keyboard-response","396","1442936","0.0-6.0-5.55","14264600","co38542","norming","","","","","","",""
"2440.3049999382347","","","post_reveal_questions","survey-likert","397","1445379","0.0-6.0-6.55","14264600","co38542","norming","","","{""aha"":5}","[0]","../img/tt/1096tt.jpg","",""
"null","<div style=""font-size:60px;""> </div>","null","fixation","html-keyboard-response","398","1445582","0.0-6.0-0.56","14264600","co38542","norming","","","","","","",""
"null","../img/tt/416tt.jpg","null","mooney1","image-keyboard-response","399","1448585","0.0-6.0-1.56","14264600","co38542","norming","","","","","","",""
"5444.555000052787","","","post_mooney1_questions","survey-likert","400","1454034","0.0-6.0-2.56","14264600","co38542","norming","","","{""curiosity"":2,""confidence"":0}","[0,1]","../img/tt/416tt.jpg","",""
"650.0750000122935","","","recognition","survey-text","401","1454691","0.0-6.0-3.56","14264600","co38542","norming","","","{""guess"":""""}","","../img/tt/416tt.jpg","",""
"null","../img/gs/416gs.jpg","null","reveal","image-keyboard-response","402","1457355","0.0-6.0-4.56","14264600","co38542","norming","","","","","","",""
"null","../img/tt/416tt.jpg","null","mooney2","image-keyboard-response","403","1460355","0.0-6.0-5.56","14264600","co38542","norming","","","","","","",""
"58644.78000008967","","","post_reveal_questions","survey-likert","404","1519004","0.0-6.0-6.56","14264600","co38542","norming","","","{""aha"":3}","[0]","../img/tt/416tt.jpg","",""
"null","<div style=""font-size:60px;""> </div>","null","fixation","html-keyboard-response","405","1519208","0.0-6.0-0.57","14264600","co38542","norming","","","","","","",""
"null","../img/tt/1283tt.jpg","null","mooney1","image-keyboard-response","406","1522213","0.0-6.0-1.57","14264600","co38542","norming","","","","","","",""
"3770.090000005439","","","post_mooney1_questions","survey-likert","407","1525987","0.0-6.0-2.57","14264600","co38542","norming","","","{""curiosity"":3,""confidence"":1}","[0,1]","../img/tt/1283tt.jpg","",""
"2310.9850001055747","","","recognition","survey-text","408","1528306","0.0-6.0-3.57","14264600","co38542","norming","","","{""guess"":""raccoon""}","","../img/tt/1283tt.jpg","",""
"null","../img/gs/1283gs.jpg","null","reveal","image-keyboard-response","409","1530308","0.0-6.0-4.57","14264600","co38542","norming","","","","","","",""
"null","../img/tt/1283tt.jpg","null","mooney2","image-keyboard-response","410","1532311","0.0-6.0-5.57","14264600","co38542","norming","","","","","","",""
"2370.9849999286234","","","post_reveal_questions","survey-likert","411","1534686","0.0-6.0-6.57","14264600","co38542","norming","","","{""aha"":3}","[0]","../img/tt/1283tt.jpg","",""
"null","<div style=""font-size:60px;""> </div>","null","fixation","html-keyboard-response","412","1534889","0.0-6.0-0.58","14264600","co38542","norming","","","","","","",""
"null","../img/tt/001tt.jpg","null","mooney1","image-keyboard-response","413","1537894","0.0-6.0-1.58","14264600","co38542","norming","","","","","","",""
"3832.330000004731","","","post_mooney1_questions","survey-likert","414","1541730","0.0-6.0-2.58","14264600","co38542","norming","","","{""curiosity"":2,""confidence"":0}","[0,1]","../img/tt/001tt.jpg","",""
"1975.0800000037998","","","recognition","survey-text","415","1543712","0.0-6.0-3.58","14264600","co38542","norming","","","{""guess"":""cow""}","","../img/tt/001tt.jpg","",""
"null","../img/gs/001gs.jpg","null","reveal","image-keyboard-response","416","1545716","0.0-6.0-4.58","14264600","co38542","norming","","","","","","",""
"null","../img/tt/001tt.jpg","null","mooney2","image-keyboard-response","417","1547719","0.0-6.0-5.58","14264600","co38542","norming","","","","","","",""
"3309.8750000353903","","","post_reveal_questions","survey-likert","418","1551032","0.0-6.0-6.58","14264600","co38542","norming","","","{""aha"":3}","[0]","../img/tt/001tt.jpg","",""
"null","<div style=""font-size:60px;""> </div>","null","fixation","html-keyboard-response","419","1551236","0.0-6.0-0.59","14264600","co38542","norming","","","","","","",""
"null","../img/tt/1268tt.jpg","null","mooney1","image-keyboard-response","420","1554240","0.0-6.0-1.59","14264600","co38542","norming","","","","","","",""
"3820.9849999984726","","","post_mooney1_questions","survey-likert","421","1558066","0.0-6.0-2.59","14264600","co38542","norming","","","{""curiosity"":0,""confidence"":0}","[0,1]","../img/tt/1268tt.jpg","",""
"603.3599999500439","","","recognition","survey-text","422","1558679","0.0-6.0-3.59","14264600","co38542","norming","","","{""guess"":""""}","","../img/tt/1268tt.jpg","",""
"null","../img/gs/1268gs.jpg","null","reveal","image-keyboard-response","423","1560683","0.0-6.0-4.59","14264600","co38542","norming","","","","","","",""
"null","../img/tt/1268tt.jpg","null","mooney2","image-keyboard-response","424","1562686","0.0-6.0-5.59","14264600","co38542","norming","","","","","","",""
"2002.1499999566004","","","post_reveal_questions","survey-likert","425","1564692","0.0-6.0-6.59","14264600","co38542","norming","","","{""aha"":1}","[0]","../img/tt/1268tt.jpg","",""
"null","<div style=""font-size:60px;""> </div>","null","fixation","html-keyboard-response","426","1564896","0.0-6.0-0.60","14264600","co38542","norming","","","","","","",""
"null","../img/tt/1116tt.jpg","null","mooney1","image-keyboard-response","427","1567901","0.0-6.0-1.60","14264600","co38542","norming","","","","","","",""
"5235.194999957457","","","post_mooney1_questions","survey-likert","428","1573141","0.0-6.0-2.60","14264600","co38542","norming","","","{""curiosity"":3,""confidence"":1}","[0,1]","../img/tt/1116tt.jpg","",""
"2231.1150000896305","","","recognition","survey-text","429","1575379","0.0-6.0-3.60","14264600","co38542","norming","","","{""guess"":""boats""}","","../img/tt/1116tt.jpg","",""
"null","../img/gs/1116gs.jpg","null","reveal","image-keyboard-response","430","1577382","0.0-6.0-4.60","14264600","co38542","norming","","","","","","",""
"null","../img/tt/1116tt.jpg","null","mooney2","image-keyboard-response","431","1579384","0.0-6.0-5.60","14264600","co38542","norming","","","","","","",""
"2951.4849999686703","","","post_reveal_questions","survey-likert","432","1582339","0.0-6.0-6.60","14264600","co38542","norming","","","{""aha"":4}","[0]","../img/tt/1116tt.jpg","",""
"null","<div style=""font-size:60px;""> </div>","null","fixation","html-keyboard-response","433","1582542","0.0-6.0-0.61","14264600","co38542","norming","","","","","","",""
"null","../img/tt/124tt.jpg","null","mooney1","image-keyboard-response","434","1585547","0.0-6.0-1.61","14264600","co38542","norming","","","","","","",""
"4124.124999972992","","","post_mooney1_questions","survey-likert","435","1589675","0.0-6.0-2.61","14264600","co38542","norming","","","{""curiosity"":3,""confidence"":5}","[0,1]","../img/tt/124tt.jpg","",""
"2266.0300000570714","","","recognition","survey-text","436","1591949","0.0-6.0-3.61","14264600","co38542","norming","","","{""guess"":""monkey""}","","../img/tt/124tt.jpg","",""
"null","../img/gs/124gs.jpg","null","reveal","image-keyboard-response","437","1593951","0.0-6.0-4.61","14264600","co38542","norming","","","","","","",""
"null","../img/tt/124tt.jpg","null","mooney2","image-keyboard-response","438","1595953","0.0-6.0-5.61","14264600","co38542","norming","","","","","","",""
"2276.060000061989","","","post_reveal_questions","survey-likert","439","1598233","0.0-6.0-6.61","14264600","co38542","norming","","","{""aha"":3}","[0]","../img/tt/124tt.jpg","",""
"null","<div style=""font-size:60px;""> </div>","null","fixation","html-keyboard-response","440","1598438","0.0-6.0-0.62","14264600","co38542","norming","","","","","","",""
"null","../img/tt/096tt.jpg","null","mooney1","image-keyboard-response","441","1601443","0.0-6.0-1.62","14264600","co38542","norming","","","","","","",""
"4751.494999974966","","","post_mooney1_questions","survey-likert","442","1606199","0.0-6.0-2.62","14264600","co38542","norming","","","{""curiosity"":1,""confidence"":1}","[0,1]","../img/tt/096tt.jpg","",""
"2483.4950000513345","","","recognition","survey-text","443","1608689","0.0-6.0-3.62","14264600","co38542","norming","","","{""guess"":""piano""}","","../img/tt/096tt.jpg","",""
"null","../img/gs/096gs.jpg","null","reveal","image-keyboard-response","444","1610691","0.0-6.0-4.62","14264600","co38542","norming","","","","","","",""
"null","../img/tt/096tt.jpg","null","mooney2","image-keyboard-response","445","1612693","0.0-6.0-5.62","14264600","co38542","norming","","","","","","",""
"3178.994999965653","","","post_reveal_questions","survey-likert","446","1615876","0.0-6.0-6.62","14264600","co38542","norming","","","{""aha"":2}","[0]","../img/tt/096tt.jpg","",""
"null","<div style=""font-size:60px;""> </div>","null","fixation","html-keyboard-response","447","1616081","0.0-6.0-0.63","14264600","co38542","norming","","","","","","",""
"null","../img/tt/1159tt.jpg","null","mooney1","image-keyboard-response","448","1619086","0.0-6.0-1.63","14264600","co38542","norming","","","","","","",""
"5362.829999998212","","","post_mooney1_questions","survey-likert","449","1624453","0.0-6.0-2.63","14264600","co38542","norming","","","{""curiosity"":3,""confidence"":4}","[0,1]","../img/tt/1159tt.jpg","",""
"2304.839999997057","","","recognition","survey-text","450","1626764","0.0-6.0-3.63","14264600","co38542","norming","","","{""guess"":""skater""}","","../img/tt/1159tt.jpg","",""
"null","../img/gs/1159gs.jpg","null","reveal","image-keyboard-response","451","1628766","0.0-6.0-4.63","14264600","co38542","norming","","","","","","",""
"null","../img/tt/1159tt.jpg","null","mooney2","image-keyboard-response","452","1630769","0.0-6.0-5.63","14264600","co38542","norming","","","","","","",""
"2301.6800000332296","","","post_reveal_questions","survey-likert","453","1633073","0.0-6.0-6.63","14264600","co38542","norming","","","{""aha"":0}","[0]","../img/tt/1159tt.jpg","",""
"null","<div style=""font-size:60px;""> </div>","null","fixation","html-keyboard-response","454","1633277","0.0-6.0-0.64","14264600","co38542","norming","","","","","","",""
"null","../img/tt/1309tt.jpg","null","mooney1","image-keyboard-response","455","1636281","0.0-6.0-1.64","14264600","co38542","norming","","","","","","",""
"5290.275000035763","","","post_mooney1_questions","survey-likert","456","1641575","0.0-6.0-2.64","14264600","co38542","norming","","","{""curiosity"":2,""confidence"":5}","[0,1]","../img/tt/1309tt.jpg","",""
"3092.784999986179","","","recognition","survey-text","457","1644675","0.0-6.0-3.64","14264600","co38542","norming","","","{""guess"":""car woods""}","","../img/tt/1309tt.jpg","",""
"null","../img/gs/1309gs.jpg","null","reveal","image-keyboard-response","458","1646677","0.0-6.0-4.64","14264600","co38542","norming","","","","","","",""
"null","../img/tt/1309tt.jpg","null","mooney2","image-keyboard-response","459","1648680","0.0-6.0-5.64","14264600","co38542","norming","","","","","","",""
"3730.75499990955","","","post_reveal_questions","survey-likert","460","1652414","0.0-6.0-6.64","14264600","co38542","norming","","","{""aha"":0}","[0]","../img/tt/1309tt.jpg","",""
"null","<div style=""font-size:60px;""> </div>","null","fixation","html-keyboard-response","461","1652617","0.0-6.0-0.65","14264600","co38542","norming","","","","","","",""
"null","../img/tt/076tt.jpg","null","mooney1","image-keyboard-response","462","1655621","0.0-6.0-1.65","14264600","co38542","norming","","","","","","",""
"5170.42500001844","","","post_mooney1_questions","survey-likert","463","1660796","0.0-6.0-2.65","14264600","co38542","norming","","","{""curiosity"":1,""confidence"":5}","[0,1]","../img/tt/076tt.jpg","",""
"8435.36000000313","","","recognition","survey-text","464","1669238","0.0-6.0-3.65","14264600","co38542","norming","","","{""guess"":""rollerskate""}","","../img/tt/076tt.jpg","",""
"null","../img/gs/076gs.jpg","null","reveal","image-keyboard-response","465","1671240","0.0-6.0-4.65","14264600","co38542","norming","","","","","","",""
"null","../img/tt/076tt.jpg","null","mooney2","image-keyboard-response","466","1673242","0.0-6.0-5.65","14264600","co38542","norming","","","","","","",""
"4139.239999931306","","","post_reveal_questions","survey-likert","467","1677385","0.0-6.0-6.65","14264600","co38542","norming","","","{""aha"":0}","[0]","../img/tt/076tt.jpg","",""
"null","<div style=""font-size:60px;""> </div>","null","fixation","html-keyboard-response","468","1677589","0.0-6.0-0.66","14264600","co38542","norming","","","","","","",""
"null","../img/tt/1250tt.jpg","null","mooney1","image-keyboard-response","469","1680593","0.0-6.0-1.66","14264600","co38542","norming","","","","","","",""
"3428.2050000038","","","post_mooney1_questions","survey-likert","470","1684026","0.0-6.0-2.66","14264600","co38542","norming","","","{""curiosity"":0,""confidence"":0}","[0,1]","../img/tt/1250tt.jpg","",""
"2218.7250000424683","","","recognition","survey-text","471","1686252","0.0-6.0-3.66","14264600","co38542","norming","","","{""guess"":""""}","","../img/tt/1250tt.jpg","",""
"null","../img/gs/1250gs.jpg","null","reveal","image-keyboard-response","472","1688256","0.0-6.0-4.66","14264600","co38542","norming","","","","","","",""
"null","../img/tt/1250tt.jpg","null","mooney2","image-keyboard-response","473","1690260","0.0-6.0-5.66","14264600","co38542","norming","","","","","","",""
"2499.599999981001","","","post_reveal_questions","survey-likert","474","1692763","0.0-6.0-6.66","14264600","co38542","norming","","","{""aha"":5}","[0]","../img/tt/1250tt.jpg","",""
"null","<div style=""font-size:60px;""> </div>","null","fixation","html-keyboard-response","475","1692967","0.0-6.0-0.67","14264600","co38542","norming","","","","","","",""
"null","../img/tt/063tt.jpg","null","mooney1","image-keyboard-response","476","1695971","0.0-6.0-1.67","14264600","co38542","norming","","","","","","",""
"8593.285000068136","","","post_mooney1_questions","survey-likert","477","1704569","0.0-6.0-2.67","14264600","co38542","norming","","","{""curiosity"":3,""confidence"":1}","[0,1]","../img/tt/063tt.jpg","",""
"3608.520000008866","","","recognition","survey-text","478","1708184","0.0-6.0-3.67","14264600","co38542","norming","","","{""guess"":""harmonica""}","","../img/tt/063tt.jpg","",""
"null","../img/gs/063gs.jpg","null","reveal","image-keyboard-response","479","1710186","0.0-6.0-4.67","14264600","co38542","norming","","","","","","",""
"null","../img/tt/063tt.jpg","null","mooney2","image-keyboard-response","480","1712189","0.0-6.0-5.67","14264600","co38542","norming","","","","","","",""
"3285.370000055991","","","post_reveal_questions","survey-likert","481","1715478","0.0-6.0-6.67","14264600","co38542","norming","","","{""aha"":0}","[0]","../img/tt/063tt.jpg","",""
"null","<div style=""font-size:60px;""> </div>","null","fixation","html-keyboard-response","482","1715681","0.0-6.0-0.68","14264600","co38542","norming","","","","","","",""
"null","../img/tt/1128tt.jpg","null","mooney1","image-keyboard-response","483","1718685","0.0-6.0-1.68","14264600","co38542","norming","","","","","","",""
"4035.03999998793","","","post_mooney1_questions","survey-likert","484","1722725","0.0-6.0-2.68","14264600","co38542","norming","","","{""curiosity"":2,""confidence"":1}","[0,1]","../img/tt/1128tt.jpg","",""
"2673.3199999434873","","","recognition","survey-text","485","1725405","0.0-6.0-3.68","14264600","co38542","norming","","","{""guess"":""panda""}","","../img/tt/1128tt.jpg","",""
"null","../img/gs/1128gs.jpg","null","reveal","image-keyboard-response","486","1727408","0.0-6.0-4.68","14264600","co38542","norming","","","","","","",""
"null","../img/tt/1128tt.jpg","null","mooney2","image-keyboard-response","487","1729411","0.0-6.0-5.68","14264600","co38542","norming","","","","","","",""
"3026.9850000040606","","","post_reveal_questions","survey-likert","488","1732441","0.0-6.0-6.68","14264600","co38542","norming","","","{""aha"":4}","[0]","../img/tt/1128tt.jpg","",""
"null","<div style=""font-size:60px;""> </div>","null","fixation","html-keyboard-response","489","1732646","0.0-6.0-0.69","14264600","co38542","norming","","","","","","",""
"null","../img/tt/189tt.jpg","null","mooney1","image-keyboard-response","490","1735650","0.0-6.0-1.69","14264600","co38542","norming","","","","","","",""
"3493.0699999677017","","","post_mooney1_questions","survey-likert","491","1739147","0.0-6.0-2.69","14264600","co38542","norming","","","{""curiosity"":2,""confidence"":0}","[0,1]","../img/tt/189tt.jpg","",""
"781.7250000080094","","","recognition","survey-text","492","1739936","0.0-6.0-3.69","14264600","co38542","norming","","","{""guess"":""""}","","../img/tt/189tt.jpg","",""
"null","../img/gs/189gs.jpg","null","reveal","image-keyboard-response","493","1741941","0.0-6.0-4.69","14264600","co38542","norming","","","","","","",""
"null","../img/tt/189tt.jpg","null","mooney2","image-keyboard-response","494","1743944","0.0-6.0-5.69","14264600","co38542","norming","","","","","","",""
"3277.5649999966845","","","post_reveal_questions","survey-likert","495","1747225","0.0-6.0-6.69","14264600","co38542","norming","","","{""aha"":4}","[0]","../img/tt/189tt.jpg","",""
"null","<div style=""font-size:60px;""> </div>","null","fixation","html-keyboard-response","496","1747429","0.0-6.0-0.70","14264600","co38542","norming","","","","","","",""
"null","../img/tt/1087tt.jpg","null","mooney1","image-keyboard-response","497","1750433","0.0-6.0-1.70","14264600","co38542","norming","","","","","","",""
"4830.900000059046","","","post_mooney1_questions","survey-likert","498","1755268","0.0-6.0-2.70","14264600","co38542","norming","","","{""curiosity"":5,""confidence"":0}","[0,1]","../img/tt/1087tt.jpg","",""
"849.3749999906868","","","recognition","survey-text","499","1756124","0.0-6.0-3.70","14264600","co38542","norming","","","{""guess"":""""}","","../img/tt/1087tt.jpg","",""
"null","../img/gs/1087gs.jpg","null","reveal","image-keyboard-response","500","1758129","0.0-6.0-4.70","14264600","co38542","norming","","","","","","",""
"null","../img/tt/1087tt.jpg","null","mooney2","image-keyboard-response","501","1760131","0.0-6.0-5.70","14264600","co38542","norming","","","","","","",""
"3044.6849999716505","","","post_reveal_questions","survey-likert","502","1763179","0.0-6.0-6.70","14264600","co38542","norming","","","{""aha"":3}","[0]","../img/tt/1087tt.jpg","",""
"null","<div style=""font-size:60px;""> </div>","null","fixation","html-keyboard-response","503","1763383","0.0-6.0-0.71","14264600","co38542","norming","","","","","","",""
"null","../img/tt/1156tt.jpg","null","mooney1","image-keyboard-response","504","1766386","0.0-6.0-1.71","14264600","co38542","norming","","","","","","",""
"3598.17499993369","","","post_mooney1_questions","survey-likert","505","1769989","0.0-6.0-2.71","14264600","co38542","norming","","","{""curiosity"":0,""confidence"":0}","[0,1]","../img/tt/1156tt.jpg","",""
"1077.8550000395626","","","recognition","survey-text","506","1771075","0.0-6.0-3.71","14264600","co38542","norming","","","{""guess"":""""}","","../img/tt/1156tt.jpg","",""
"null","../img/gs/1156gs.jpg","null","reveal","image-keyboard-response","507","1773080","0.0-6.0-4.71","14264600","co38542","norming","","","","","","",""
"null","../img/tt/1156tt.jpg","null","mooney2","image-keyboard-response","508","1775083","0.0-6.0-5.71","14264600","co38542","norming","","","","","","",""
"3108.4699999773875","","","post_reveal_questions","survey-likert","509","1778195","0.0-6.0-6.71","14264600","co38542","norming","","","{""aha"":5}","[0]","../img/tt/1156tt.jpg","",""
"null","<div style=""font-size:60px;""> </div>","null","fixation","html-keyboard-response","510","1778399","0.0-6.0-0.72","14264600","co38542","norming","","","","","","",""
"null","../img/tt/1243tt.jpg","null","mooney1","image-keyboard-response","511","1781403","0.0-6.0-1.72","14264600","co38542","norming","","","","","","",""
"5443.519999971613","","","post_mooney1_questions","survey-likert","512","1786850","0.0-6.0-2.72","14264600","co38542","norming","","","{""curiosity"":2,""confidence"":4}","[0,1]","../img/tt/1243tt.jpg","",""
"4729.034999967553","","","recognition","survey-text","513","1791582","0.0-6.0-3.72","14264600","co38542","norming","","","{""guess"":""rugby goal""}","","../img/tt/1243tt.jpg","",""
"null","../img/gs/1243gs.jpg","null","reveal","image-keyboard-response","514","1793585","0.0-6.0-4.72","14264600","co38542","norming","","","","","","",""
"null","../img/tt/1243tt.jpg","null","mooney2","image-keyboard-response","515","1795588","0.0-6.0-5.72","14264600","co38542","norming","","","","","","",""
"2227.3699999786913","","","post_reveal_questions","survey-likert","516","1797818","0.0-6.0-6.72","14264600","co38542","norming","","","{""aha"":5}","[0]","../img/tt/1243tt.jpg","",""
"null","<div style=""font-size:60px;""> </div>","null","fixation","html-keyboard-response","517","1798021","0.0-6.0-0.73","14264600","co38542","norming","","","","","","",""
"null","../img/tt/091tt.jpg","null","mooney1","image-keyboard-response","518","1801025","0.0-6.0-1.73","14264600","co38542","norming","","","","","","",""
"3400.219999952242","","","post_mooney1_questions","survey-likert","519","1804430","0.0-6.0-2.73","14264600","co38542","norming","","","{""curiosity"":2,""confidence"":2}","[0,1]","../img/tt/091tt.jpg","",""
"3903.844999964349","","","recognition","survey-text","520","1808340","0.0-6.0-3.73","14264600","co38542","norming","","","{""guess"":""reptile""}","","../img/tt/091tt.jpg","",""
"null","../img/gs/091gs.jpg","null","reveal","image-keyboard-response","521","1810342","0.0-6.0-4.73","14264600","co38542","norming","","","","","","",""
"null","../img/tt/091tt.jpg","null","mooney2","image-keyboard-response","522","1812345","0.0-6.0-5.73","14264600","co38542","norming","","","","","","",""
"3628.675000043586","","","post_reveal_questions","survey-likert","523","1815978","0.0-6.0-6.73","14264600","co38542","norming","","","{""aha"":2}","[0]","../img/tt/091tt.jpg","",""
"null","<div style=""font-size:60px;""> </div>","null","fixation","html-keyboard-response","524","1816181","0.0-6.0-0.74","14264600","co38542","norming","","","","","","",""
"null","../img/tt/1269tt.jpg","null","mooney1","image-keyboard-response","525","1819186","0.0-6.0-1.74","14264600","co38542","norming","","","","","","",""
"6002.160000032745","","","post_mooney1_questions","survey-likert","526","1825192","0.0-6.0-2.74","14264600","co38542","norming","","","{""curiosity"":3,""confidence"":1}","[0,1]","../img/tt/1269tt.jpg","",""
"2946.059999987483","","","recognition","survey-text","527","1828145","0.0-6.0-3.74","14264600","co38542","norming","","","{""guess"":""raccoon""}","","../img/tt/1269tt.jpg","",""
"null","../img/gs/1269gs.jpg","null","reveal","image-keyboard-response","528","1830148","0.0-6.0-4.74","14264600","co38542","norming","","","","","","",""
"null","../img/tt/1269tt.jpg","null","mooney2","image-keyboard-response","529","1832150","0.0-6.0-5.74","14264600","co38542","norming","","","","","","",""
"2307.8199999872595","","","post_reveal_questions","survey-likert","530","1834462","0.0-6.0-6.74","14264600","co38542","norming","","","{""aha"":2}","[0]","../img/tt/1269tt.jpg","",""
"null","<div style=""font-size:60px;""> </div>","null","fixation","html-keyboard-response","531","1834665","0.0-6.0-0.75","14264600","co38542","norming","","","","","","",""
"null","../img/tt/1234tt.jpg","null","mooney1","image-keyboard-response","532","1837668","0.0-6.0-1.75","14264600","co38542","norming","","","","","","",""
"3888.470000005327","","","post_mooney1_questions","survey-likert","533","1841562","0.0-6.0-2.75","14264600","co38542","norming","","","{""curiosity"":3,""confidence"":3}","[0,1]","../img/tt/1234tt.jpg","",""
"993.0750000057742","","","recognition","survey-text","534","1842562","0.0-6.0-3.75","14264600","co38542","norming","","","{""guess"":""""}","","../img/tt/1234tt.jpg","",""
"null","../img/gs/1234gs.jpg","null","reveal","image-keyboard-response","535","1844567","0.0-6.0-4.75","14264600","co38542","norming","","","","","","",""
"null","../img/tt/1234tt.jpg","null","mooney2","image-keyboard-response","536","1846569","0.0-6.0-5.75","14264600","co38542","norming","","","","","","",""
"6087.994999950752","","","post_reveal_questions","survey-likert","537","1852659","0.0-6.0-6.75","14264600","co38542","norming","","","{""aha"":2}","[0]","../img/tt/1234tt.jpg","",""
"null","<div style=""font-size:60px;""> </div>","null","fixation","html-keyboard-response","538","1852864","0.0-6.0-0.76","14264600","co38542","norming","","","","","","",""
"null","../img/tt/477tt.jpg","null","mooney1","image-keyboard-response","539","1855868","0.0-6.0-1.76","14264600","co38542","norming","","","","","","",""
"4258.859999943525","","","post_mooney1_questions","survey-likert","540","1860129","0.0-6.0-2.76","14264600","co38542","norming","","","{""curiosity"":1,""confidence"":2}","[0,1]","../img/tt/477tt.jpg","",""
"1397.9049999034032","","","recognition","survey-text","541","1861534","0.0-6.0-3.76","14264600","co38542","norming","","","{""guess"":""""}","","../img/tt/477tt.jpg","",""
"null","../img/gs/477gs.jpg","null","reveal","image-keyboard-response","542","1863538","0.0-6.0-4.76","14264600","co38542","norming","","","","","","",""
"null","../img/tt/477tt.jpg","null","mooney2","image-keyboard-response","543","1865543","0.0-6.0-5.76","14264600","co38542","norming","","","","","","",""
"2370.8999999798834","","","post_reveal_questions","survey-likert","544","1867918","0.0-6.0-6.76","14264600","co38542","norming","","","{""aha"":2}","[0]","../img/tt/477tt.jpg","",""
"null","<div style=""font-size:60px;""> </div>","null","fixation","html-keyboard-response","545","1868121","0.0-6.0-0.77","14264600","co38542","norming","","","","","","",""
"null","../img/tt/603tt.jpg","null","mooney1","image-keyboard-response","546","1871124","0.0-6.0-1.77","14264600","co38542","norming","","","","","","",""
"5343.6850000871345","","","post_mooney1_questions","survey-likert","547","1876473","0.0-6.0-2.77","14264600","co38542","norming","","","{""curiosity"":2,""confidence"":2}","[0,1]","../img/tt/603tt.jpg","",""
"1438.5349999647588","","","recognition","survey-text","548","1877921","0.0-6.0-3.77","14264600","co38542","norming","","","{""guess"":""cat""}","","../img/tt/603tt.jpg","",""
"null","../img/gs/603gs.jpg","null","reveal","image-keyboard-response","549","1879923","0.0-6.0-4.77","14264600","co38542","norming","","","","","","",""
