"rt","stimulus","key_press","test_part","trial_type","trial_index","time_elapsed","internal_node_id","totalTime","subject","experiment_name","button_pressed","success","responses","question_order","currentStim","old","correct"
"6501.575000000002","Welcome to the experiment. This is an online experiment so please don't close the tab/window until we say goodbye.  Press any key to begin.","32","instructions","html-keyboard-response","0","6555","0.0-0.0","2981787","co38725","norming","","","","","","",""
"39853.81500000002","<div style='word-wrap: break-word; width: 900px'><h3>Please consider this information carefully before deciding whether to participate in this research</h3><ul style='text-align: left; font-size: .8em;'><li><b>Purpose of the research</b>: To examine how people process images.</li><li><b>What you will do in this research</b>:  Stimuli (images) will be presented on the computer and you will be asked different questions about them.</li><li><b>Time required</b>: Participation will take between 45 and 60 minutes to complete.</li><li><b>Risks</b>:  There are no anticipated risks associated with participating in this study. The effects of participating should be comparable to those you would experience from viewing a computer monitor for 30 minutes and using a mouse or keyboard.</li><li><b>Benefits</b>:  This study provides no benefits to you individually except for the credit. The study provides important information about the nature of perception and learning.</li><li><b>Confidentiality</b>:  Your participation in this study will remain confidential. No personally identifiable information will be associated with your data. Your de-identified data may be shared with other researchers and used in future projects.</li><li><b>Participation and withdrawal</b>:  Your participation in this study is completely voluntary and you may refuse to participate or you may choose to withdraw at any time without penalty.</li><li><b>How to contact the researchers</b>: If you have questions or concerns about your participation or payment, or want to request a summary of research findings, please contact Sander Van de Cruys (KU Leuven), at sander.vandecruys@kuleuven.be.</li></ul><p>The nature and purpose of this research have been sufficiently explained and I agree to participate in this study.  I understand that I am free to withdraw at any time without incurring any penalty.</p><p>Please consent by clicking the button below to continue. Otherwise, please exit the study at this time.</p></div>","","instructions","html-button-response","1","46412","0.0-1.0","2981787","co38725","norming","0","","","","","",""
"","","","instructions","fullscreen","2","51432","0.0-2.0","2981787","co38725","norming","","true","","","","",""
"75426.98500000002","","","sona","survey-html-form","3","126858","0.0-3.0","2981787","co38725","norming","","","[{""name"":""sonaid"",""value"":""38725""},{""name"":""debrief"",""value"":""yes""},{""name"":""datajoin"",""value"":""yes""}]","","","",""
"63726.18999999997","<div style='word-wrap: break-word; width: 900px'><h3>Instructions</h3><p>This experiment will have 3 parts. In the first part you will see a series of distorted images like the one below on the left. As you can see in the righthand image, the distorted images are derived from actual photographs. In what follows, you will <strong>briefly</strong> be presented with <strong>only</strong> the distorted image.</p> <div style='float: left; margin-right: 20px;'><img src='../img/018tt.jpg' height='250' width='250'></img></div><div style='float: right; margin-left: 20px;'><img src='../img/018gs.jpg' height='250' width='250'></img></div><p>Subsequently you will be asked a few questions about the image: One question on how <strong>curious</strong> you are about the solution and one on how <strong>confident</strong> you are that you know the solution.</p>Next, we ask you to make a guess on what is in the image. Note that it is OK to name just the <strong>basic level category</strong>. For example when you see a parrot in the image, 'parrot' will obviously be a correct answer but also correct is 'bird'. However, 'animal' will <strong>not</strong> be counted as a correct response. For the example above, 'rose' would be correct or 'flower', but not 'plant'. When soccer players are depicted, 'soccer', 'football', 'soccer players' will be correct, but not 'humans', 'outdoors', or 'sports'. You do not need to describe the image in full, just name the main object in it <strong>in one or two words</strong>. All images depict objects from one of the following broad level categories: animals, inanimate objects, plants, sports, vehicles, and food. Recognizing means knowing <strong>more</strong> than these broad labels for a given image. But we always encourage you to <strong>make a guess</strong> if you can. Note that you are allowed to use <strong>Dutch and English</strong> in your answers, whatever comes easiest for you.</p><p>Press any key to continue.</p></div>","86","instructions","html-keyboard-response","4","190590","0.0-4.0","2981787","co38725","norming","","","","","","",""
"20143.125","<div style='word-wrap: break-word; width: 900px'><h3>Instructions</h3> <p>Next, the solution image will be revealed to you and you'll be asked to indicate how strong your <strong>aha-experience</strong> was after seeing the solution. This describes the positive feeling of the 'click' you sometimes experience, when the pieces of the 'puzzle' fall together and you suddenly have 'insight' in the image.</p><img src='aha.jpg' height='188' width='250'></img><p>Note that there are no right or wrong answers. We are interested in what <strong>you</strong> see in the image and how <strong>you</strong> feel about it.</p><p>Press any key to start the experiment.</p></div>","32","instructions","html-keyboard-response","5","210733","0.0-5.0","2981787","co38725","norming","","","","","","",""
"null","<div style=""font-size:60px;""> </div>","null","fixation","html-keyboard-response","6","210935","0.0-6.0-0.0","2981787","co38725","norming","","","","","","",""
"null","../img/tt/1278tt.jpg","null","mooney1","image-keyboard-response","7","213940","0.0-6.0-1.0","2981787","co38725","norming","","","","","","",""
"15576.75","","","post_mooney1_questions","survey-likert","8","229518","0.0-6.0-2.0","2981787","co38725","norming","","","{""curiosity"":6,""confidence"":1}","[0,1]","../img/tt/1278tt.jpg","",""
"7517.3099999999395","","","recognition","survey-text","9","237038","0.0-6.0-3.0","2981787","co38725","norming","","","{""guess"":""student""}","","../img/tt/1278tt.jpg","",""
"null","../img/gs/1278gs.jpg","null","reveal","image-keyboard-response","10","239040","0.0-6.0-4.0","2981787","co38725","norming","","","","","","",""
"null","../img/tt/1278tt.jpg","null","mooney2","image-keyboard-response","11","241041","0.0-6.0-5.0","2981787","co38725","norming","","","","","","",""
"4115.599999999977","","","post_reveal_questions","survey-likert","12","245158","0.0-6.0-6.0","2981787","co38725","norming","","","{""aha"":6}","[0]","../img/tt/1278tt.jpg","",""
"null","<div style=""font-size:60px;""> </div>","null","fixation","html-keyboard-response","13","245365","0.0-6.0-0.1","2981787","co38725","norming","","","","","","",""
"null","../img/tt/094tt.jpg","null","mooney1","image-keyboard-response","14","248368","0.0-6.0-1.1","2981787","co38725","norming","","","","","","",""
"7476.7699999999895","","","post_mooney1_questions","survey-likert","15","255793","0.0-6.0-2.1","2981787","co38725","norming","","","{""curiosity"":0,""confidence"":6}","[0,1]","../img/tt/094tt.jpg","",""
"3870.564999999973","","","recognition","survey-text","16","259665","0.0-6.0-3.1","2981787","co38725","norming","","","{""guess"":""wolf""}","","../img/tt/094tt.jpg","",""
"null","../img/gs/094gs.jpg","null","reveal","image-keyboard-response","17","261672","0.0-6.0-4.1","2981787","co38725","norming","","","","","","",""
"null","../img/tt/094tt.jpg","null","mooney2","image-keyboard-response","18","263674","0.0-6.0-5.1","2981787","co38725","norming","","","","","","",""
"3125.2600000000093","","","post_reveal_questions","survey-likert","19","266801","0.0-6.0-6.1","2981787","co38725","norming","","","{""aha"":0}","[0]","../img/tt/094tt.jpg","",""
"null","<div style=""font-size:60px;""> </div>","null","fixation","html-keyboard-response","20","267010","0.0-6.0-0.2","2981787","co38725","norming","","","","","","",""
"null","../img/tt/1043tt.jpg","null","mooney1","image-keyboard-response","21","270017","0.0-6.0-1.2","2981787","co38725","norming","","","","","","",""
"4581.929999999993","","","post_mooney1_questions","survey-likert","22","274601","0.0-6.0-2.2","2981787","co38725","norming","","","{""curiosity"":4,""confidence"":1}","[0,1]","../img/tt/1043tt.jpg","",""
"5654.040000000037","","","recognition","survey-text","23","280257","0.0-6.0-3.2","2981787","co38725","norming","","","{""guess"":""fruit bowl""}","","../img/tt/1043tt.jpg","",""
"null","../img/gs/1043gs.jpg","null","reveal","image-keyboard-response","24","282266","0.0-6.0-4.2","2981787","co38725","norming","","","","","","",""
"null","../img/tt/1043tt.jpg","null","mooney2","image-keyboard-response","25","284275","0.0-6.0-5.2","2981787","co38725","norming","","","","","","",""
"2717.570000000065","","","post_reveal_questions","survey-likert","26","286993","0.0-6.0-6.2","2981787","co38725","norming","","","{""aha"":5}","[0]","../img/tt/1043tt.jpg","",""
"null","<div style=""font-size:60px;""> </div>","null","fixation","html-keyboard-response","27","287195","0.0-6.0-0.3","2981787","co38725","norming","","","","","","",""
"null","../img/tt/1123tt.jpg","null","mooney1","image-keyboard-response","28","290201","0.0-6.0-1.3","2981787","co38725","norming","","","","","","",""
"5453.609999999986","","","post_mooney1_questions","survey-likert","29","295658","0.0-6.0-2.3","2981787","co38725","norming","","","{""curiosity"":5,""confidence"":1}","[0,1]","../img/tt/1123tt.jpg","",""
"4270.124999999942","","","recognition","survey-text","30","299929","0.0-6.0-3.3","2981787","co38725","norming","","","{""guess"":""baseball""}","","../img/tt/1123tt.jpg","",""
"null","../img/gs/1123gs.jpg","null","reveal","image-keyboard-response","31","301931","0.0-6.0-4.3","2981787","co38725","norming","","","","","","",""
"null","../img/tt/1123tt.jpg","null","mooney2","image-keyboard-response","32","303941","0.0-6.0-5.3","2981787","co38725","norming","","","","","","",""
"3066.3549999999814","","","post_reveal_questions","survey-likert","33","307009","0.0-6.0-6.3","2981787","co38725","norming","","","{""aha"":5}","[0]","../img/tt/1123tt.jpg","",""
"null","<div style=""font-size:60px;""> </div>","null","fixation","html-keyboard-response","34","307212","0.0-6.0-0.4","2981787","co38725","norming","","","","","","",""
"null","../img/tt/084tt.jpg","null","mooney1","image-keyboard-response","35","310219","0.0-6.0-1.4","2981787","co38725","norming","","","","","","",""
"4595.460000000021","","","post_mooney1_questions","survey-likert","36","314684","0.0-6.0-2.4","2981787","co38725","norming","","","{""curiosity"":3,""confidence"":3}","[0,1]","../img/tt/084tt.jpg","",""
"5246.390000000014","","","recognition","survey-text","37","319932","0.0-6.0-3.4","2981787","co38725","norming","","","{""guess"":""bird""}","","../img/tt/084tt.jpg","",""
"null","../img/gs/084gs.jpg","null","reveal","image-keyboard-response","38","321934","0.0-6.0-4.4","2981787","co38725","norming","","","","","","",""
"null","../img/tt/084tt.jpg","null","mooney2","image-keyboard-response","39","323941","0.0-6.0-5.4","2981787","co38725","norming","","","","","","",""
"1820.8349999999627","","","post_reveal_questions","survey-likert","40","325764","0.0-6.0-6.4","2981787","co38725","norming","","","{""aha"":3}","[0]","../img/tt/084tt.jpg","",""
"null","<div style=""font-size:60px;""> </div>","null","fixation","html-keyboard-response","41","325966","0.0-6.0-0.5","2981787","co38725","norming","","","","","","",""
"null","../img/tt/063tt.jpg","null","mooney1","image-keyboard-response","42","328972","0.0-6.0-1.5","2981787","co38725","norming","","","","","","",""
"4862.034999999974","","","post_mooney1_questions","survey-likert","43","333836","0.0-6.0-2.5","2981787","co38725","norming","","","{""curiosity"":6,""confidence"":0}","[0,1]","../img/tt/063tt.jpg","",""
"6605.929999999993","","","recognition","survey-text","44","340444","0.0-6.0-3.5","2981787","co38725","norming","","","{""guess"":""type-writer""}","","../img/tt/063tt.jpg","",""
"null","../img/gs/063gs.jpg","null","reveal","image-keyboard-response","45","342450","0.0-6.0-4.5","2981787","co38725","norming","","","","","","",""
"null","../img/tt/063tt.jpg","null","mooney2","image-keyboard-response","46","344452","0.0-6.0-5.5","2981787","co38725","norming","","","","","","",""
"4182.054999999993","","","post_reveal_questions","survey-likert","47","348636","0.0-6.0-6.5","2981787","co38725","norming","","","{""aha"":6}","[0]","../img/tt/063tt.jpg","",""
"null","<div style=""font-size:60px;""> </div>","null","fixation","html-keyboard-response","48","348838","0.0-6.0-0.6","2981787","co38725","norming","","","","","","",""
"null","../img/tt/438tt.jpg","null","mooney1","image-keyboard-response","49","351849","0.0-6.0-1.6","2981787","co38725","norming","","","","","","",""
"3136.5400000000373","","","post_mooney1_questions","survey-likert","50","354988","0.0-6.0-2.6","2981787","co38725","norming","","","{""curiosity"":6,""confidence"":0}","[0,1]","../img/tt/438tt.jpg","",""
"5086.080000000016","","","recognition","survey-text","51","360076","0.0-6.0-3.6","2981787","co38725","norming","","","{""guess"":""""}","","../img/tt/438tt.jpg","",""
"null","../img/gs/438gs.jpg","null","reveal","image-keyboard-response","52","362079","0.0-6.0-4.6","2981787","co38725","norming","","","","","","",""
"null","../img/tt/438tt.jpg","null","mooney2","image-keyboard-response","53","364081","0.0-6.0-5.6","2981787","co38725","norming","","","","","","",""
"2160.0400000000373","","","post_reveal_questions","survey-likert","54","366244","0.0-6.0-6.6","2981787","co38725","norming","","","{""aha"":6}","[0]","../img/tt/438tt.jpg","",""
"null","<div style=""font-size:60px;""> </div>","null","fixation","html-keyboard-response","55","366449","0.0-6.0-0.7","2981787","co38725","norming","","","","","","",""
"null","../img/tt/096tt.jpg","null","mooney1","image-keyboard-response","56","369456","0.0-6.0-1.7","2981787","co38725","norming","","","","","","",""
"4137.515000000014","","","post_mooney1_questions","survey-likert","57","373477","0.0-6.0-2.7","2981787","co38725","norming","","","{""curiosity"":1,""confidence"":5}","[0,1]","../img/tt/096tt.jpg","",""
"3822.085000000021","","","recognition","survey-text","58","377301","0.0-6.0-3.7","2981787","co38725","norming","","","{""guess"":""piano""}","","../img/tt/096tt.jpg","",""
"null","../img/gs/096gs.jpg","null","reveal","image-keyboard-response","59","379311","0.0-6.0-4.7","2981787","co38725","norming","","","","","","",""
"null","../img/tt/096tt.jpg","null","mooney2","image-keyboard-response","60","381314","0.0-6.0-5.7","2981787","co38725","norming","","","","","","",""
"1713.765000000014","","","post_reveal_questions","survey-likert","61","383029","0.0-6.0-6.7","2981787","co38725","norming","","","{""aha"":1}","[0]","../img/tt/096tt.jpg","",""
"null","<div style=""font-size:60px;""> </div>","null","fixation","html-keyboard-response","62","383231","0.0-6.0-0.8","2981787","co38725","norming","","","","","","",""
"null","../img/tt/552tt.jpg","null","mooney1","image-keyboard-response","63","386235","0.0-6.0-1.8","2981787","co38725","norming","","","","","","",""
"9840.555000000051","","","post_mooney1_questions","survey-likert","64","396077","0.0-6.0-2.8","2981787","co38725","norming","","","{""curiosity"":6,""confidence"":0}","[0,1]","../img/tt/552tt.jpg","",""
"5654.14499999996","","","recognition","survey-text","65","401733","0.0-6.0-3.8","2981787","co38725","norming","","","{""guess"":""hippo""}","","../img/tt/552tt.jpg","",""
"null","../img/gs/552gs.jpg","null","reveal","image-keyboard-response","66","403734","0.0-6.0-4.8","2981787","co38725","norming","","","","","","",""
"null","../img/tt/552tt.jpg","null","mooney2","image-keyboard-response","67","405743","0.0-6.0-5.8","2981787","co38725","norming","","","","","","",""
"2507.405000000028","","","post_reveal_questions","survey-likert","68","408253","0.0-6.0-6.8","2981787","co38725","norming","","","{""aha"":6}","[0]","../img/tt/552tt.jpg","",""
"null","<div style=""font-size:60px;""> </div>","null","fixation","html-keyboard-response","69","408459","0.0-6.0-0.9","2981787","co38725","norming","","","","","","",""
"null","../img/tt/105tt.jpg","null","mooney1","image-keyboard-response","70","411468","0.0-6.0-1.9","2981787","co38725","norming","","","","","","",""
"3670.2000000000116","","","post_mooney1_questions","survey-likert","71","415141","0.0-6.0-2.9","2981787","co38725","norming","","","{""curiosity"":1,""confidence"":5}","[0,1]","../img/tt/105tt.jpg","",""
"5702.094999999972","","","recognition","survey-text","72","420845","0.0-6.0-3.9","2981787","co38725","norming","","","{""guess"":""paperclips""}","","../img/tt/105tt.jpg","",""
"null","../img/gs/105gs.jpg","null","reveal","image-keyboard-response","73","422847","0.0-6.0-4.9","2981787","co38725","norming","","","","","","",""
"null","../img/tt/105tt.jpg","null","mooney2","image-keyboard-response","74","424849","0.0-6.0-5.9","2981787","co38725","norming","","","","","","",""
"1890.265000000014","","","post_reveal_questions","survey-likert","75","426741","0.0-6.0-6.9","2981787","co38725","norming","","","{""aha"":1}","[0]","../img/tt/105tt.jpg","",""
"null","<div style=""font-size:60px;""> </div>","null","fixation","html-keyboard-response","76","426949","0.0-6.0-0.10","2981787","co38725","norming","","","","","","",""
"null","../img/tt/1044tt.jpg","null","mooney1","image-keyboard-response","77","429955","0.0-6.0-1.10","2981787","co38725","norming","","","","","","",""
"5800.430000000051","","","post_mooney1_questions","survey-likert","78","435631","0.0-6.0-2.10","2981787","co38725","norming","","","{""curiosity"":5,""confidence"":1}","[0,1]","../img/tt/1044tt.jpg","",""
"2661.240000000049","","","recognition","survey-text","79","438295","0.0-6.0-3.10","2981787","co38725","norming","","","{""guess"":""cow""}","","../img/tt/1044tt.jpg","",""
"null","../img/gs/1044gs.jpg","null","reveal","image-keyboard-response","80","440298","0.0-6.0-4.10","2981787","co38725","norming","","","","","","",""
"null","../img/tt/1044tt.jpg","null","mooney2","image-keyboard-response","81","442299","0.0-6.0-5.10","2981787","co38725","norming","","","","","","",""
"2546.67499999993","","","post_reveal_questions","survey-likert","82","444847","0.0-6.0-6.10","2981787","co38725","norming","","","{""aha"":5}","[0]","../img/tt/1044tt.jpg","",""
"null","<div style=""font-size:60px;""> </div>","null","fixation","html-keyboard-response","83","445048","0.0-6.0-0.11","2981787","co38725","norming","","","","","","",""
"null","../img/tt/270tt.jpg","null","mooney1","image-keyboard-response","84","448057","0.0-6.0-1.11","2981787","co38725","norming","","","","","","",""
"5676.515000000014","","","post_mooney1_questions","survey-likert","85","453735","0.0-6.0-2.11","2981787","co38725","norming","","","{""curiosity"":6,""confidence"":0}","[0,1]","../img/tt/270tt.jpg","",""
"1014.0799999999581","","","recognition","survey-text","86","454751","0.0-6.0-3.11","2981787","co38725","norming","","","{""guess"":""""}","","../img/tt/270tt.jpg","",""
"null","../img/gs/270gs.jpg","null","reveal","image-keyboard-response","87","456756","0.0-6.0-4.11","2981787","co38725","norming","","","","","","",""
"null","../img/tt/270tt.jpg","null","mooney2","image-keyboard-response","88","458757","0.0-6.0-5.11","2981787","co38725","norming","","","","","","",""
"2552.755000000063","","","post_reveal_questions","survey-likert","89","461311","0.0-6.0-6.11","2981787","co38725","norming","","","{""aha"":6}","[0]","../img/tt/270tt.jpg","",""
"null","<div style=""font-size:60px;""> </div>","null","fixation","html-keyboard-response","90","461512","0.0-6.0-0.12","2981787","co38725","norming","","","","","","",""
"null","../img/tt/1102tt.jpg","null","mooney1","image-keyboard-response","91","464513","0.0-6.0-1.12","2981787","co38725","norming","","","","","","",""
"5412.415000000037","","","post_mooney1_questions","survey-likert","92","469927","0.0-6.0-2.12","2981787","co38725","norming","","","{""curiosity"":6,""confidence"":0}","[0,1]","../img/tt/1102tt.jpg","",""
"5909.925000000047","","","recognition","survey-text","93","475839","0.0-6.0-3.12","2981787","co38725","norming","","","{""guess"":""fence""}","","../img/tt/1102tt.jpg","",""
"null","../img/gs/1102gs.jpg","null","reveal","image-keyboard-response","94","477841","0.0-6.0-4.12","2981787","co38725","norming","","","","","","",""
"null","../img/tt/1102tt.jpg","null","mooney2","image-keyboard-response","95","479850","0.0-6.0-5.12","2981787","co38725","norming","","","","","","",""
"3619.92499999993","","","post_reveal_questions","survey-likert","96","483471","0.0-6.0-6.12","2981787","co38725","norming","","","{""aha"":6}","[0]","../img/tt/1102tt.jpg","",""
"null","<div style=""font-size:60px;""> </div>","null","fixation","html-keyboard-response","97","483677","0.0-6.0-0.13","2981787","co38725","norming","","","","","","",""
"null","../img/tt/1237tt.jpg","null","mooney1","image-keyboard-response","98","486686","0.0-6.0-1.13","2981787","co38725","norming","","","","","","",""
"7303.524999999907","","","post_mooney1_questions","survey-likert","99","493865","0.0-6.0-2.13","2981787","co38725","norming","","","{""curiosity"":1,""confidence"":5}","[0,1]","../img/tt/1237tt.jpg","",""
"3373.9300000001094","","","recognition","survey-text","100","497241","0.0-6.0-3.13","2981787","co38725","norming","","","{""guess"":""duck""}","","../img/tt/1237tt.jpg","",""
"null","../img/gs/1237gs.jpg","null","reveal","image-keyboard-response","101","499251","0.0-6.0-4.13","2981787","co38725","norming","","","","","","",""
"null","../img/tt/1237tt.jpg","null","mooney2","image-keyboard-response","102","501253","0.0-6.0-5.13","2981787","co38725","norming","","","","","","",""
"2043.0149999999558","","","post_reveal_questions","survey-likert","103","503297","0.0-6.0-6.13","2981787","co38725","norming","","","{""aha"":1}","[0]","../img/tt/1237tt.jpg","",""
"null","<div style=""font-size:60px;""> </div>","null","fixation","html-keyboard-response","104","503499","0.0-6.0-0.14","2981787","co38725","norming","","","","","","",""
"null","../img/tt/1241tt.jpg","null","mooney1","image-keyboard-response","105","506502","0.0-6.0-1.14","2981787","co38725","norming","","","","","","",""
"5426.230000000098","","","post_mooney1_questions","survey-likert","106","511929","0.0-6.0-2.14","2981787","co38725","norming","","","{""curiosity"":5,""confidence"":1}","[0,1]","../img/tt/1241tt.jpg","",""
"3725.9249999999884","","","recognition","survey-text","107","515657","0.0-6.0-3.14","2981787","co38725","norming","","","{""guess"":""horses""}","","../img/tt/1241tt.jpg","",""
"null","../img/gs/1241gs.jpg","null","reveal","image-keyboard-response","108","517666","0.0-6.0-4.14","2981787","co38725","norming","","","","","","",""
"null","../img/tt/1241tt.jpg","null","mooney2","image-keyboard-response","109","519674","0.0-6.0-5.14","2981787","co38725","norming","","","","","","",""
"3636.8899999999558","","","post_reveal_questions","survey-likert","110","523313","0.0-6.0-6.14","2981787","co38725","norming","","","{""aha"":6}","[0]","../img/tt/1241tt.jpg","",""
"null","<div style=""font-size:60px;""> </div>","null","fixation","html-keyboard-response","111","523522","0.0-6.0-0.15","2981787","co38725","norming","","","","","","",""
"null","../img/tt/124tt.jpg","null","mooney1","image-keyboard-response","112","526532","0.0-6.0-1.15","2981787","co38725","norming","","","","","","",""
"3659.8699999999953","","","post_mooney1_questions","survey-likert","113","530193","0.0-6.0-2.15","2981787","co38725","norming","","","{""curiosity"":0,""confidence"":6}","[0,1]","../img/tt/124tt.jpg","",""
"3638.0749999999534","","","recognition","survey-text","114","533833","0.0-6.0-3.15","2981787","co38725","norming","","","{""guess"":""gorilla""}","","../img/tt/124tt.jpg","",""
"null","../img/gs/124gs.jpg","null","reveal","image-keyboard-response","115","535841","0.0-6.0-4.15","2981787","co38725","norming","","","","","","",""
"null","../img/tt/124tt.jpg","null","mooney2","image-keyboard-response","116","537848","0.0-6.0-5.15","2981787","co38725","norming","","","","","","",""
"2351.730000000098","","","post_reveal_questions","survey-likert","117","540201","0.0-6.0-6.15","2981787","co38725","norming","","","{""aha"":0}","[0]","../img/tt/124tt.jpg","",""
"null","<div style=""font-size:60px;""> </div>","null","fixation","html-keyboard-response","118","540403","0.0-6.0-0.16","2981787","co38725","norming","","","","","","",""
"null","../img/tt/060tt.jpg","null","mooney1","image-keyboard-response","119","543405","0.0-6.0-1.16","2981787","co38725","norming","","","","","","",""
"4522.755000000005","","","post_mooney1_questions","survey-likert","120","547929","0.0-6.0-2.16","2981787","co38725","norming","","","{""curiosity"":3,""confidence"":3}","[0,1]","../img/tt/060tt.jpg","",""
"4437.9400000000605","","","recognition","survey-text","121","552369","0.0-6.0-3.16","2981787","co38725","norming","","","{""guess"":""hamburger""}","","../img/tt/060tt.jpg","",""
"null","../img/gs/060gs.jpg","null","reveal","image-keyboard-response","122","554305","0.0-6.0-4.16","2981787","co38725","norming","","","","","","",""
"null","../img/tt/060tt.jpg","null","mooney2","image-keyboard-response","123","556306","0.0-6.0-5.16","2981787","co38725","norming","","","","","","",""
"1818.9600000000792","","","post_reveal_questions","survey-likert","124","558126","0.0-6.0-6.16","2981787","co38725","norming","","","{""aha"":3}","[0]","../img/tt/060tt.jpg","",""
"null","<div style=""font-size:60px;""> </div>","null","fixation","html-keyboard-response","125","558329","0.0-6.0-0.17","2981787","co38725","norming","","","","","","",""
"null","../img/tt/1190tt.jpg","null","mooney1","image-keyboard-response","126","561333","0.0-6.0-1.17","2981787","co38725","norming","","","","","","",""
"3047.640000000014","","","post_mooney1_questions","survey-likert","127","564382","0.0-6.0-2.17","2981787","co38725","norming","","","{""curiosity"":6,""confidence"":0}","[0,1]","../img/tt/1190tt.jpg","",""
"885.7500000001164","","","recognition","survey-text","128","565270","0.0-6.0-3.17","2981787","co38725","norming","","","{""guess"":""""}","","../img/tt/1190tt.jpg","",""
"null","../img/gs/1190gs.jpg","null","reveal","image-keyboard-response","129","567271","0.0-6.0-4.17","2981787","co38725","norming","","","","","","",""
"null","../img/tt/1190tt.jpg","null","mooney2","image-keyboard-response","130","569274","0.0-6.0-5.17","2981787","co38725","norming","","","","","","",""
"2058.875","","","post_reveal_questions","survey-likert","131","571334","0.0-6.0-6.17","2981787","co38725","norming","","","{""aha"":6}","[0]","../img/tt/1190tt.jpg","",""
"null","<div style=""font-size:60px;""> </div>","null","fixation","html-keyboard-response","132","571536","0.0-6.0-0.18","2981787","co38725","norming","","","","","","",""
"null","../img/tt/1202tt.jpg","null","mooney1","image-keyboard-response","133","574537","0.0-6.0-1.18","2981787","co38725","norming","","","","","","",""
"5507.9349999999395","","","post_mooney1_questions","survey-likert","134","580046","0.0-6.0-2.18","2981787","co38725","norming","","","{""curiosity"":5,""confidence"":1}","[0,1]","../img/tt/1202tt.jpg","",""
"3069.8749999998836","","","recognition","survey-text","135","583118","0.0-6.0-3.18","2981787","co38725","norming","","","{""guess"":""judo""}","","../img/tt/1202tt.jpg","",""
"null","../img/gs/1202gs.jpg","null","reveal","image-keyboard-response","136","585126","0.0-6.0-4.18","2981787","co38725","norming","","","","","","",""
"null","../img/tt/1202tt.jpg","null","mooney2","image-keyboard-response","137","587128","0.0-6.0-5.18","2981787","co38725","norming","","","","","","",""
"1835.9500000000698","","","post_reveal_questions","survey-likert","138","588966","0.0-6.0-6.18","2981787","co38725","norming","","","{""aha"":5}","[0]","../img/tt/1202tt.jpg","",""
"null","<div style=""font-size:60px;""> </div>","null","fixation","html-keyboard-response","139","589167","0.0-6.0-0.19","2981787","co38725","norming","","","","","","",""
"null","../img/tt/189tt.jpg","null","mooney1","image-keyboard-response","140","592177","0.0-6.0-1.19","2981787","co38725","norming","","","","","","",""
"8130.909999999916","","","post_mooney1_questions","survey-likert","141","600310","0.0-6.0-2.19","2981787","co38725","norming","","","{""curiosity"":5,""confidence"":3}","[0,1]","../img/tt/189tt.jpg","",""
"8390.089999999967","","","recognition","survey-text","142","608702","0.0-6.0-3.19","2981787","co38725","norming","","","{""guess"":""sitting man""}","","../img/tt/189tt.jpg","",""
"null","../img/gs/189gs.jpg","null","reveal","image-keyboard-response","143","610706","0.0-6.0-4.19","2981787","co38725","norming","","","","","","",""
"null","../img/tt/189tt.jpg","null","mooney2","image-keyboard-response","144","612716","0.0-6.0-5.19","2981787","co38725","norming","","","","","","",""
"5816.035000000033","","","post_reveal_questions","survey-likert","145","618534","0.0-6.0-6.19","2981787","co38725","norming","","","{""aha"":1}","[0]","../img/tt/189tt.jpg","",""
"null","<div style=""font-size:60px;""> </div>","null","fixation","html-keyboard-response","146","618735","0.0-6.0-0.20","2981787","co38725","norming","","","","","","",""
"null","../img/tt/1196tt.jpg","null","mooney1","image-keyboard-response","147","621746","0.0-6.0-1.20","2981787","co38725","norming","","","","","","",""
"4680.994999999995","","","post_mooney1_questions","survey-likert","148","626430","0.0-6.0-2.20","2981787","co38725","norming","","","{""curiosity"":1,""confidence"":5}","[0,1]","../img/tt/1196tt.jpg","",""
"6213.865000000107","","","recognition","survey-text","149","632646","0.0-6.0-3.20","2981787","co38725","norming","","","{""guess"":""human tower""}","","../img/tt/1196tt.jpg","",""
"null","../img/gs/1196gs.jpg","null","reveal","image-keyboard-response","150","634655","0.0-6.0-4.20","2981787","co38725","norming","","","","","","",""
"null","../img/tt/1196tt.jpg","null","mooney2","image-keyboard-response","151","636660","0.0-6.0-5.20","2981787","co38725","norming","","","","","","",""
"3720.990000000107","","","post_reveal_questions","survey-likert","152","640382","0.0-6.0-6.20","2981787","co38725","norming","","","{""aha"":6}","[0]","../img/tt/1196tt.jpg","",""
"null","<div style=""font-size:60px;""> </div>","null","fixation","html-keyboard-response","153","640586","0.0-6.0-0.21","2981787","co38725","norming","","","","","","",""
"null","../img/tt/044tt.jpg","null","mooney1","image-keyboard-response","154","643592","0.0-6.0-1.21","2981787","co38725","norming","","","","","","",""
"4906.540000000037","","","post_mooney1_questions","survey-likert","155","648502","0.0-6.0-2.21","2981787","co38725","norming","","","{""curiosity"":6,""confidence"":1}","[0,1]","../img/tt/044tt.jpg","",""
"4262.070000000065","","","recognition","survey-text","156","652765","0.0-6.0-3.21","2981787","co38725","norming","","","{""guess"":""computer""}","","../img/tt/044tt.jpg","",""
"null","../img/gs/044gs.jpg","null","reveal","image-keyboard-response","157","654773","0.0-6.0-4.21","2981787","co38725","norming","","","","","","",""
"null","../img/tt/044tt.jpg","null","mooney2","image-keyboard-response","158","656775","0.0-6.0-5.21","2981787","co38725","norming","","","","","","",""
"3163.7600000000093","","","post_reveal_questions","survey-likert","159","659942","0.0-6.0-6.21","2981787","co38725","norming","","","{""aha"":6}","[0]","../img/tt/044tt.jpg","",""
"null","<div style=""font-size:60px;""> </div>","null","fixation","html-keyboard-response","160","660142","0.0-6.0-0.22","2981787","co38725","norming","","","","","","",""
"null","../img/tt/599tt.jpg","null","mooney1","image-keyboard-response","161","663145","0.0-6.0-1.22","2981787","co38725","norming","","","","","","",""
"6289.790000000037","","","post_mooney1_questions","survey-likert","162","669438","0.0-6.0-2.22","2981787","co38725","norming","","","{""curiosity"":0,""confidence"":6}","[0,1]","../img/tt/599tt.jpg","",""
"5254.050000000047","","","recognition","survey-text","163","674694","0.0-6.0-3.22","2981787","co38725","norming","","","{""guess"":""hawk""}","","../img/tt/599tt.jpg","",""
"null","../img/gs/599gs.jpg","null","reveal","image-keyboard-response","164","676703","0.0-6.0-4.22","2981787","co38725","norming","","","","","","",""
"null","../img/tt/599tt.jpg","null","mooney2","image-keyboard-response","165","678713","0.0-6.0-5.22","2981787","co38725","norming","","","","","","",""
"2618.634999999893","","","post_reveal_questions","survey-likert","166","681334","0.0-6.0-6.22","2981787","co38725","norming","","","{""aha"":5}","[0]","../img/tt/599tt.jpg","",""
"null","<div style=""font-size:60px;""> </div>","null","fixation","html-keyboard-response","167","681535","0.0-6.0-0.23","2981787","co38725","norming","","","","","","",""
"null","../img/tt/112tt.jpg","null","mooney1","image-keyboard-response","168","684548","0.0-6.0-1.23","2981787","co38725","norming","","","","","","",""
"7728.005000000005","","","post_mooney1_questions","survey-likert","169","692278","0.0-6.0-2.23","2981787","co38725","norming","","","{""curiosity"":6,""confidence"":1}","[0,1]","../img/tt/112tt.jpg","",""
"7549.844999999972","","","recognition","survey-text","170","699830","0.0-6.0-3.23","2981787","co38725","norming","","","{""guess"":""sports equipment""}","","../img/tt/112tt.jpg","",""
"null","../img/gs/112gs.jpg","null","reveal","image-keyboard-response","171","701840","0.0-6.0-4.23","2981787","co38725","norming","","","","","","",""
"null","../img/tt/112tt.jpg","null","mooney2","image-keyboard-response","172","703848","0.0-6.0-5.23","2981787","co38725","norming","","","","","","",""
"2045.015000000014","","","post_reveal_questions","survey-likert","173","705894","0.0-6.0-6.23","2981787","co38725","norming","","","{""aha"":6}","[0]","../img/tt/112tt.jpg","",""
"null","<div style=""font-size:60px;""> </div>","null","fixation","html-keyboard-response","174","706095","0.0-6.0-0.24","2981787","co38725","norming","","","","","","",""
"null","../img/tt/1126tt.jpg","null","mooney1","image-keyboard-response","175","709097","0.0-6.0-1.24","2981787","co38725","norming","","","","","","",""
"3626.865000000107","","","post_mooney1_questions","survey-likert","176","712726","0.0-6.0-2.24","2981787","co38725","norming","","","{""curiosity"":6,""confidence"":0}","[0,1]","../img/tt/1126tt.jpg","",""
"549.8750000001164","","","recognition","survey-text","177","713278","0.0-6.0-3.24","2981787","co38725","norming","","","{""guess"":""""}","","../img/tt/1126tt.jpg","",""
"null","../img/gs/1126gs.jpg","null","reveal","image-keyboard-response","178","715287","0.0-6.0-4.24","2981787","co38725","norming","","","","","","",""
"null","../img/tt/1126tt.jpg","null","mooney2","image-keyboard-response","179","717298","0.0-6.0-5.24","2981787","co38725","norming","","","","","","",""
"2065.649999999907","","","post_reveal_questions","survey-likert","180","719366","0.0-6.0-6.24","2981787","co38725","norming","","","{""aha"":6}","[0]","../img/tt/1126tt.jpg","",""
"null","<div style=""font-size:60px;""> </div>","null","fixation","html-keyboard-response","181","719567","0.0-6.0-0.25","2981787","co38725","norming","","","","","","",""
"null","../img/tt/1046tt.jpg","null","mooney1","image-keyboard-response","182","722577","0.0-6.0-1.25","2981787","co38725","norming","","","","","","",""
"5290.850000000093","","","post_mooney1_questions","survey-likert","183","727870","0.0-6.0-2.25","2981787","co38725","norming","","","{""curiosity"":6,""confidence"":0}","[0,1]","../img/tt/1046tt.jpg","",""
"3390.265000000014","","","recognition","survey-text","184","731262","0.0-6.0-3.25","2981787","co38725","norming","","","{""guess"":""bed""}","","../img/tt/1046tt.jpg","",""
"null","../img/gs/1046gs.jpg","null","reveal","image-keyboard-response","185","733265","0.0-6.0-4.25","2981787","co38725","norming","","","","","","",""
"null","../img/tt/1046tt.jpg","null","mooney2","image-keyboard-response","186","735276","0.0-6.0-5.25","2981787","co38725","norming","","","","","","",""
"2127.310000000056","","","post_reveal_questions","survey-likert","187","737406","0.0-6.0-6.25","2981787","co38725","norming","","","{""aha"":6}","[0]","../img/tt/1046tt.jpg","",""
"null","<div style=""font-size:60px;""> </div>","null","fixation","html-keyboard-response","188","737607","0.0-6.0-0.26","2981787","co38725","norming","","","","","","",""
"null","../img/tt/1091tt.jpg","null","mooney1","image-keyboard-response","189","740610","0.0-6.0-1.26","2981787","co38725","norming","","","","","","",""
"3457.8249999999534","","","post_mooney1_questions","survey-likert","190","744070","0.0-6.0-2.26","2981787","co38725","norming","","","{""curiosity"":0,""confidence"":6}","[0,1]","../img/tt/1091tt.jpg","",""
"3374.3099999999395","","","recognition","survey-text","191","747446","0.0-6.0-3.26","2981787","co38725","norming","","","{""guess"":""horse""}","","../img/tt/1091tt.jpg","",""
"null","../img/gs/1091gs.jpg","null","reveal","image-keyboard-response","192","749456","0.0-6.0-4.26","2981787","co38725","norming","","","","","","",""
"null","../img/tt/1091tt.jpg","null","mooney2","image-keyboard-response","193","751459","0.0-6.0-5.26","2981787","co38725","norming","","","","","","",""
"2449.25","","","post_reveal_questions","survey-likert","194","753910","0.0-6.0-6.26","2981787","co38725","norming","","","{""aha"":0}","[0]","../img/tt/1091tt.jpg","",""
"null","<div style=""font-size:60px;""> </div>","null","fixation","html-keyboard-response","195","754118","0.0-6.0-0.27","2981787","co38725","norming","","","","","","",""
"null","../img/tt/517tt.jpg","null","mooney1","image-keyboard-response","196","757128","0.0-6.0-1.27","2981787","co38725","norming","","","","","","",""
"7276.014999999898","","","post_mooney1_questions","survey-likert","197","764406","0.0-6.0-2.27","2981787","co38725","norming","","","{""curiosity"":3,""confidence"":3}","[0,1]","../img/tt/517tt.jpg","",""
"3206.0500000000466","","","recognition","survey-text","198","767614","0.0-6.0-3.27","2981787","co38725","norming","","","{""guess"":""sloth""}","","../img/tt/517tt.jpg","",""
"null","../img/gs/517gs.jpg","null","reveal","image-keyboard-response","199","769622","0.0-6.0-4.27","2981787","co38725","norming","","","","","","",""
"null","../img/tt/517tt.jpg","null","mooney2","image-keyboard-response","200","771632","0.0-6.0-5.27","2981787","co38725","norming","","","","","","",""
"3635.2450000001118","","","post_reveal_questions","survey-likert","201","775270","0.0-6.0-6.27","2981787","co38725","norming","","","{""aha"":5}","[0]","../img/tt/517tt.jpg","",""
"null","<div style=""font-size:60px;""> </div>","null","fixation","html-keyboard-response","202","775479","0.0-6.0-0.28","2981787","co38725","norming","","","","","","",""
"null","../img/tt/1186tt.jpg","null","mooney1","image-keyboard-response","203","778483","0.0-6.0-1.28","2981787","co38725","norming","","","","","","",""
"3592.909999999916","","","post_mooney1_questions","survey-likert","204","782079","0.0-6.0-2.28","2981787","co38725","norming","","","{""curiosity"":0,""confidence"":6}","[0,1]","../img/tt/1186tt.jpg","",""
"13877.90000000014","","","recognition","survey-text","205","795958","0.0-6.0-3.28","2981787","co38725","norming","","","{""guess"":""rolerskater""}","","../img/tt/1186tt.jpg","",""
"null","../img/gs/1186gs.jpg","null","reveal","image-keyboard-response","206","797961","0.0-6.0-4.28","2981787","co38725","norming","","","","","","",""
"null","../img/tt/1186tt.jpg","null","mooney2","image-keyboard-response","207","799963","0.0-6.0-5.28","2981787","co38725","norming","","","","","","",""
"2146.109999999986","","","post_reveal_questions","survey-likert","208","802107","0.0-6.0-6.28","2981787","co38725","norming","","","{""aha"":0}","[0]","../img/tt/1186tt.jpg","",""
"null","<div style=""font-size:60px;""> </div>","null","fixation","html-keyboard-response","209","802309","0.0-6.0-0.29","2981787","co38725","norming","","","","","","",""
"null","../img/tt/123tt.jpg","null","mooney1","image-keyboard-response","210","805316","0.0-6.0-1.29","2981787","co38725","norming","","","","","","",""
"4901.195000000065","","","post_mooney1_questions","survey-likert","211","810220","0.0-6.0-2.29","2981787","co38725","norming","","","{""curiosity"":3,""confidence"":3}","[0,1]","../img/tt/123tt.jpg","",""
"2901.909999999916","","","recognition","survey-text","212","813123","0.0-6.0-3.29","2981787","co38725","norming","","","{""guess"":""bag""}","","../img/tt/123tt.jpg","",""
"null","../img/gs/123gs.jpg","null","reveal","image-keyboard-response","213","815124","0.0-6.0-4.29","2981787","co38725","norming","","","","","","",""
"null","../img/tt/123tt.jpg","null","mooney2","image-keyboard-response","214","817132","0.0-6.0-5.29","2981787","co38725","norming","","","","","","",""
"3060.7649999998976","","","post_reveal_questions","survey-likert","215","820195","0.0-6.0-6.29","2981787","co38725","norming","","","{""aha"":1}","[0]","../img/tt/123tt.jpg","",""
"null","<div style=""font-size:60px;""> </div>","null","fixation","html-keyboard-response","216","820397","0.0-6.0-0.30","2981787","co38725","norming","","","","","","",""
"null","../img/tt/1247tt.jpg","null","mooney1","image-keyboard-response","217","823400","0.0-6.0-1.30","2981787","co38725","norming","","","","","","",""
"4073.0800000000745","","","post_mooney1_questions","survey-likert","218","827475","0.0-6.0-2.30","2981787","co38725","norming","","","{""curiosity"":6,""confidence"":1}","[0,1]","../img/tt/1247tt.jpg","",""
"10709.920000000042","","","recognition","survey-text","219","838187","0.0-6.0-3.30","2981787","co38725","norming","","","{""guess"":""cat""}","","../img/tt/1247tt.jpg","",""
"null","../img/gs/1247gs.jpg","null","reveal","image-keyboard-response","220","840191","0.0-6.0-4.30","2981787","co38725","norming","","","","","","",""
"null","../img/tt/1247tt.jpg","null","mooney2","image-keyboard-response","221","842198","0.0-6.0-5.30","2981787","co38725","norming","","","","","","",""
"2810.5100000001257","","","post_reveal_questions","survey-likert","222","845011","0.0-6.0-6.30","2981787","co38725","norming","","","{""aha"":4}","[0]","../img/tt/1247tt.jpg","",""
"null","<div style=""font-size:60px;""> </div>","null","fixation","html-keyboard-response","223","845212","0.0-6.0-0.31","2981787","co38725","norming","","","","","","",""
"null","../img/tt/1143tt.jpg","null","mooney1","image-keyboard-response","224","848220","0.0-6.0-1.31","2981787","co38725","norming","","","","","","",""
"6316.264999999898","","","post_mooney1_questions","survey-likert","225","854539","0.0-6.0-2.31","2981787","co38725","norming","","","{""curiosity"":0,""confidence"":6}","[0,1]","../img/tt/1143tt.jpg","",""
"5990.050000000047","","","recognition","survey-text","226","860531","0.0-6.0-3.31","2981787","co38725","norming","","","{""guess"":""gym cyclists""}","","../img/tt/1143tt.jpg","",""
"null","../img/gs/1143gs.jpg","null","reveal","image-keyboard-response","227","862535","0.0-6.0-4.31","2981787","co38725","norming","","","","","","",""
"null","../img/tt/1143tt.jpg","null","mooney2","image-keyboard-response","228","864538","0.0-6.0-5.31","2981787","co38725","norming","","","","","","",""
"2105.185000000056","","","post_reveal_questions","survey-likert","229","866646","0.0-6.0-6.31","2981787","co38725","norming","","","{""aha"":1}","[0]","../img/tt/1143tt.jpg","",""
"null","<div style=""font-size:60px;""> </div>","null","fixation","html-keyboard-response","230","866847","0.0-6.0-0.32","2981787","co38725","norming","","","","","","",""
"null","../img/tt/319tt.jpg","null","mooney1","image-keyboard-response","231","869851","0.0-6.0-1.32","2981787","co38725","norming","","","","","","",""
"3857.9150000000373","","","post_mooney1_questions","survey-likert","232","873710","0.0-6.0-2.32","2981787","co38725","norming","","","{""curiosity"":0,""confidence"":6}","[0,1]","../img/tt/319tt.jpg","",""
"4149.92499999993","","","recognition","survey-text","233","877862","0.0-6.0-3.32","2981787","co38725","norming","","","{""guess"":""donkeys""}","","../img/tt/319tt.jpg","",""
"null","../img/gs/319gs.jpg","null","reveal","image-keyboard-response","234","879869","0.0-6.0-4.32","2981787","co38725","norming","","","","","","",""
"null","../img/tt/319tt.jpg","null","mooney2","image-keyboard-response","235","881874","0.0-6.0-5.32","2981787","co38725","norming","","","","","","",""
"2915.1849999999395","","","post_reveal_questions","survey-likert","236","884790","0.0-6.0-6.32","2981787","co38725","norming","","","{""aha"":0}","[0]","../img/tt/319tt.jpg","",""
"null","<div style=""font-size:60px;""> </div>","null","fixation","html-keyboard-response","237","884992","0.0-6.0-0.33","2981787","co38725","norming","","","","","","",""
"null","../img/tt/1283tt.jpg","null","mooney1","image-keyboard-response","238","887996","0.0-6.0-1.33","2981787","co38725","norming","","","","","","",""
"4216.740000000107","","","post_mooney1_questions","survey-likert","239","892214","0.0-6.0-2.33","2981787","co38725","norming","","","{""curiosity"":3,""confidence"":3}","[0,1]","../img/tt/1283tt.jpg","",""
"4301.89000000013","","","recognition","survey-text","240","896518","0.0-6.0-3.33","2981787","co38725","norming","","","{""guess"":""monkey""}","","../img/tt/1283tt.jpg","",""
"null","../img/gs/1283gs.jpg","null","reveal","image-keyboard-response","241","898524","0.0-6.0-4.33","2981787","co38725","norming","","","","","","",""
"null","../img/tt/1283tt.jpg","null","mooney2","image-keyboard-response","242","900529","0.0-6.0-5.33","2981787","co38725","norming","","","","","","",""
"1627.7749999999069","","","post_reveal_questions","survey-likert","243","902158","0.0-6.0-6.33","2981787","co38725","norming","","","{""aha"":5}","[0]","../img/tt/1283tt.jpg","",""
"null","<div style=""font-size:60px;""> </div>","null","fixation","html-keyboard-response","244","902360","0.0-6.0-0.34","2981787","co38725","norming","","","","","","",""
"null","../img/tt/1243tt.jpg","null","mooney1","image-keyboard-response","245","905363","0.0-6.0-1.34","2981787","co38725","norming","","","","","","",""
"5473.229999999865","","","post_mooney1_questions","survey-likert","246","910838","0.0-6.0-2.34","2981787","co38725","norming","","","{""curiosity"":3,""confidence"":3}","[0,1]","../img/tt/1243tt.jpg","",""
"3542.1500000000233","","","recognition","survey-text","247","914382","0.0-6.0-3.34","2981787","co38725","norming","","","{""guess"":""monkey""}","","../img/tt/1243tt.jpg","",""
"null","../img/gs/1243gs.jpg","null","reveal","image-keyboard-response","248","916384","0.0-6.0-4.34","2981787","co38725","norming","","","","","","",""
"null","../img/tt/1243tt.jpg","null","mooney2","image-keyboard-response","249","918388","0.0-6.0-5.34","2981787","co38725","norming","","","","","","",""
"3079.6599999997998","","","post_reveal_questions","survey-likert","250","921470","0.0-6.0-6.34","2981787","co38725","norming","","","{""aha"":6}","[0]","../img/tt/1243tt.jpg","",""
"null","<div style=""font-size:60px;""> </div>","null","fixation","html-keyboard-response","251","921671","0.0-6.0-0.35","2981787","co38725","norming","","","","","","",""
"null","../img/tt/1159tt.jpg","null","mooney1","image-keyboard-response","252","924674","0.0-6.0-1.35","2981787","co38725","norming","","","","","","",""
"4139.23499999987","","","post_mooney1_questions","survey-likert","253","928815","0.0-6.0-2.35","2981787","co38725","norming","","","{""curiosity"":0,""confidence"":6}","[0,1]","../img/tt/1159tt.jpg","",""
"5806.109999999986","","","recognition","survey-text","254","934622","0.0-6.0-3.35","2981787","co38725","norming","","","{""guess"":""skateboarder""}","","../img/tt/1159tt.jpg","",""
"null","../img/gs/1159gs.jpg","null","reveal","image-keyboard-response","255","936624","0.0-6.0-4.35","2981787","co38725","norming","","","","","","",""
"null","../img/tt/1159tt.jpg","null","mooney2","image-keyboard-response","256","938626","0.0-6.0-5.35","2981787","co38725","norming","","","","","","",""
"1930.2499999998836","","","post_reveal_questions","survey-likert","257","940558","0.0-6.0-6.35","2981787","co38725","norming","","","{""aha"":0}","[0]","../img/tt/1159tt.jpg","",""
"null","<div style=""font-size:60px;""> </div>","null","fixation","html-keyboard-response","258","940760","0.0-6.0-0.36","2981787","co38725","norming","","","","","","",""
"null","../img/tt/296tt.jpg","null","mooney1","image-keyboard-response","259","943764","0.0-6.0-1.36","2981787","co38725","norming","","","","","","",""
"5031.6300000002375","","","post_mooney1_questions","survey-likert","260","948798","0.0-6.0-2.36","2981787","co38725","norming","","","{""curiosity"":3,""confidence"":3}","[0,1]","../img/tt/296tt.jpg","",""
"3390.3649999998743","","","recognition","survey-text","261","952190","0.0-6.0-3.36","2981787","co38725","norming","","","{""guess"":""stroler""}","","../img/tt/296tt.jpg","",""
"null","../img/gs/296gs.jpg","null","reveal","image-keyboard-response","262","954193","0.0-6.0-4.36","2981787","co38725","norming","","","","","","",""
"null","../img/tt/296tt.jpg","null","mooney2","image-keyboard-response","263","956196","0.0-6.0-5.36","2981787","co38725","norming","","","","","","",""
"2375.935000000056","","","post_reveal_questions","survey-likert","264","958574","0.0-6.0-6.36","2981787","co38725","norming","","","{""aha"":5}","[0]","../img/tt/296tt.jpg","",""
"null","<div style=""font-size:60px;""> </div>","null","fixation","html-keyboard-response","265","958775","0.0-6.0-0.37","2981787","co38725","norming","","","","","","",""
"null","../img/tt/1260tt.jpg","null","mooney1","image-keyboard-response","266","961778","0.0-6.0-1.37","2981787","co38725","norming","","","","","","",""
"4257.505000000121","","","post_mooney1_questions","survey-likert","267","966038","0.0-6.0-2.37","2981787","co38725","norming","","","{""curiosity"":6,""confidence"":0}","[0,1]","../img/tt/1260tt.jpg","",""
"661.9450000000652","","","recognition","survey-text","268","966702","0.0-6.0-3.37","2981787","co38725","norming","","","{""guess"":""""}","","../img/tt/1260tt.jpg","",""
"null","../img/gs/1260gs.jpg","null","reveal","image-keyboard-response","269","968711","0.0-6.0-4.37","2981787","co38725","norming","","","","","","",""
"null","../img/tt/1260tt.jpg","null","mooney2","image-keyboard-response","270","970713","0.0-6.0-5.37","2981787","co38725","norming","","","","","","",""
"2042.6350000000093","","","post_reveal_questions","survey-likert","271","972758","0.0-6.0-6.37","2981787","co38725","norming","","","{""aha"":6}","[0]","../img/tt/1260tt.jpg","",""
"null","<div style=""font-size:60px;""> </div>","null","fixation","html-keyboard-response","272","972960","0.0-6.0-0.38","2981787","co38725","norming","","","","","","",""
"null","../img/tt/567tt.jpg","null","mooney1","image-keyboard-response","273","975971","0.0-6.0-1.38","2981787","co38725","norming","","","","","","",""
"7562.07500000007","","","post_mooney1_questions","survey-likert","274","983535","0.0-6.0-2.38","2981787","co38725","norming","","","{""curiosity"":6,""confidence"":1}","[0,1]","../img/tt/567tt.jpg","",""
"3726.0400000000373","","","recognition","survey-text","275","987256","0.0-6.0-3.38","2981787","co38725","norming","","","{""guess"":""coffin""}","","../img/tt/567tt.jpg","",""
"null","../img/gs/567gs.jpg","null","reveal","image-keyboard-response","276","989262","0.0-6.0-4.38","2981787","co38725","norming","","","","","","",""
"null","../img/tt/567tt.jpg","null","mooney2","image-keyboard-response","277","991264","0.0-6.0-5.38","2981787","co38725","norming","","","","","","",""
"2421.7299999999814","","","post_reveal_questions","survey-likert","278","993688","0.0-6.0-6.38","2981787","co38725","norming","","","{""aha"":6}","[0]","../img/tt/567tt.jpg","",""
"null","<div style=""font-size:60px;""> </div>","null","fixation","html-keyboard-response","279","993889","0.0-6.0-0.39","2981787","co38725","norming","","","","","","",""
"null","../img/tt/416tt.jpg","null","mooney1","image-keyboard-response","280","996897","0.0-6.0-1.39","2981787","co38725","norming","","","","","","",""
"5396.39000000013","","","post_mooney1_questions","survey-likert","281","1002296","0.0-6.0-2.39","2981787","co38725","norming","","","{""curiosity"":0,""confidence"":6}","[0,1]","../img/tt/416tt.jpg","",""
"4862.109999999986","","","recognition","survey-text","282","1007160","0.0-6.0-3.39","2981787","co38725","norming","","","{""guess"":""ostriches""}","","../img/tt/416tt.jpg","",""
"null","../img/gs/416gs.jpg","null","reveal","image-keyboard-response","283","1009161","0.0-6.0-4.39","2981787","co38725","norming","","","","","","",""
"null","../img/tt/416tt.jpg","null","mooney2","image-keyboard-response","284","1011164","0.0-6.0-5.39","2981787","co38725","norming","","","","","","",""
"1994.094999999972","","","post_reveal_questions","survey-likert","285","1013160","0.0-6.0-6.39","2981787","co38725","norming","","","{""aha"":0}","[0]","../img/tt/416tt.jpg","",""
"null","<div style=""font-size:60px;""> </div>","null","fixation","html-keyboard-response","286","1013362","0.0-6.0-0.40","2981787","co38725","norming","","","","","","",""
"null","../img/tt/1118tt.jpg","null","mooney1","image-keyboard-response","287","1016370","0.0-6.0-1.40","2981787","co38725","norming","","","","","","",""
"3299.1350000001257","","","post_mooney1_questions","survey-likert","288","1019672","0.0-6.0-2.40","2981787","co38725","norming","","","{""curiosity"":3,""confidence"":3}","[0,1]","../img/tt/1118tt.jpg","",""
"3157.905000000028","","","recognition","survey-text","289","1022832","0.0-6.0-3.40","2981787","co38725","norming","","","{""guess"":""car""}","","../img/tt/1118tt.jpg","",""
"null","../img/gs/1118gs.jpg","null","reveal","image-keyboard-response","290","1024835","0.0-6.0-4.40","2981787","co38725","norming","","","","","","",""
"null","../img/tt/1118tt.jpg","null","mooney2","image-keyboard-response","291","1026837","0.0-6.0-5.40","2981787","co38725","norming","","","","","","",""
"1776.4750000000931","","","post_reveal_questions","survey-likert","292","1028616","0.0-6.0-6.40","2981787","co38725","norming","","","{""aha"":6}","[0]","../img/tt/1118tt.jpg","",""
"null","<div style=""font-size:60px;""> </div>","null","fixation","html-keyboard-response","293","1028818","0.0-6.0-0.41","2981787","co38725","norming","","","","","","",""
"null","../img/tt/1027tt.jpg","null","mooney1","image-keyboard-response","294","1031820","0.0-6.0-1.41","2981787","co38725","norming","","","","","","",""
"3939.4899999999907","","","post_mooney1_questions","survey-likert","295","1035760","0.0-6.0-2.41","2981787","co38725","norming","","","{""curiosity"":0,""confidence"":6}","[0,1]","../img/tt/1027tt.jpg","",""
"3278.1199999999953","","","recognition","survey-text","296","1039040","0.0-6.0-3.41","2981787","co38725","norming","","","{""guess"":""cow""}","","../img/tt/1027tt.jpg","",""
"null","../img/gs/1027gs.jpg","null","reveal","image-keyboard-response","297","1041048","0.0-6.0-4.41","2981787","co38725","norming","","","","","","",""
"null","../img/tt/1027tt.jpg","null","mooney2","image-keyboard-response","298","1043050","0.0-6.0-5.41","2981787","co38725","norming","","","","","","",""
"2651.154999999795","","","post_reveal_questions","survey-likert","299","1045711","0.0-6.0-6.41","2981787","co38725","norming","","","{""aha"":0}","[0]","../img/tt/1027tt.jpg","",""
"null","<div style=""font-size:60px;""> </div>","null","fixation","html-keyboard-response","300","1045914","0.0-6.0-0.42","2981787","co38725","norming","","","","","","",""
"null","../img/tt/405tt.jpg","null","mooney1","image-keyboard-response","301","1048924","0.0-6.0-1.42","2981787","co38725","norming","","","","","","",""
"2288.839999999851","","","post_mooney1_questions","survey-likert","302","1051216","0.0-6.0-2.42","2981787","co38725","norming","","","{""curiosity"":0,""confidence"":6}","[0,1]","../img/tt/405tt.jpg","",""
"3301.965000000084","","","recognition","survey-text","303","1054519","0.0-6.0-3.42","2981787","co38725","norming","","","{""guess"":""koala""}","","../img/tt/405tt.jpg","",""
"null","../img/gs/405gs.jpg","null","reveal","image-keyboard-response","304","1056529","0.0-6.0-4.42","2981787","co38725","norming","","","","","","",""
"null","../img/tt/405tt.jpg","null","mooney2","image-keyboard-response","305","1058530","0.0-6.0-5.42","2981787","co38725","norming","","","","","","",""
"8162.854999999981","","","post_reveal_questions","survey-likert","306","1066695","0.0-6.0-6.42","2981787","co38725","norming","","","{""aha"":0}","[0]","../img/tt/405tt.jpg","",""
"null","<div style=""font-size:60px;""> </div>","null","fixation","html-keyboard-response","307","1066901","0.0-6.0-0.43","2981787","co38725","norming","","","","","","",""
"null","../img/tt/1049tt.jpg","null","mooney1","image-keyboard-response","308","1069912","0.0-6.0-1.43","2981787","co38725","norming","","","","","","",""
"6238.219999999972","","","post_mooney1_questions","survey-likert","309","1076152","0.0-6.0-2.43","2981787","co38725","norming","","","{""curiosity"":5,""confidence"":3}","[0,1]","../img/tt/1049tt.jpg","",""
"10190.02500000014","","","recognition","survey-text","310","1086343","0.0-6.0-3.43","2981787","co38725","norming","","","{""guess"":""fisherman""}","","../img/tt/1049tt.jpg","",""
"null","../img/gs/1049gs.jpg","null","reveal","image-keyboard-response","311","1088353","0.0-6.0-4.43","2981787","co38725","norming","","","","","","",""
"null","../img/tt/1049tt.jpg","null","mooney2","image-keyboard-response","312","1090363","0.0-6.0-5.43","2981787","co38725","norming","","","","","","",""
"2010.0749999999534","","","post_reveal_questions","survey-likert","313","1092376","0.0-6.0-6.43","2981787","co38725","norming","","","{""aha"":6}","[0]","../img/tt/1049tt.jpg","",""
"null","<div style=""font-size:60px;""> </div>","null","fixation","html-keyboard-response","314","1092577","0.0-6.0-0.44","2981787","co38725","norming","","","","","","",""
"null","../img/tt/603tt.jpg","null","mooney1","image-keyboard-response","315","1095579","0.0-6.0-1.44","2981787","co38725","norming","","","","","","",""
"5545.184999999823","","","post_mooney1_questions","survey-likert","316","1101128","0.0-6.0-2.44","2981787","co38725","norming","","","{""curiosity"":6,""confidence"":0}","[0,1]","../img/tt/603tt.jpg","",""
"878.1749999998137","","","recognition","survey-text","317","1102007","0.0-6.0-3.44","2981787","co38725","norming","","","{""guess"":""""}","","../img/tt/603tt.jpg","",""
"null","../img/gs/603gs.jpg","null","reveal","image-keyboard-response","318","1104009","0.0-6.0-4.44","2981787","co38725","norming","","","","","","",""
"null","../img/tt/603tt.jpg","null","mooney2","image-keyboard-response","319","1106013","0.0-6.0-5.44","2981787","co38725","norming","","","","","","",""
"2547.3199999998324","","","post_reveal_questions","survey-likert","320","1108562","0.0-6.0-6.44","2981787","co38725","norming","","","{""aha"":6}","[0]","../img/tt/603tt.jpg","",""
"null","<div style=""font-size:60px;""> </div>","null","fixation","html-keyboard-response","321","1108769","0.0-6.0-0.45","2981787","co38725","norming","","","","","","",""
"null","../img/tt/1309tt.jpg","null","mooney1","image-keyboard-response","322","1111773","0.0-6.0-1.45","2981787","co38725","norming","","","","","","",""
"3906.185000000056","","","post_mooney1_questions","survey-likert","323","1115682","0.0-6.0-2.45","2981787","co38725","norming","","","{""curiosity"":4,""confidence"":3}","[0,1]","../img/tt/1309tt.jpg","",""
"3318.625000000233","","","recognition","survey-text","324","1119002","0.0-6.0-3.45","2981787","co38725","norming","","","{""guess"":""car""}","","../img/tt/1309tt.jpg","",""
"null","../img/gs/1309gs.jpg","null","reveal","image-keyboard-response","325","1121010","0.0-6.0-4.45","2981787","co38725","norming","","","","","","",""
"null","../img/tt/1309tt.jpg","null","mooney2","image-keyboard-response","326","1123011","0.0-6.0-5.45","2981787","co38725","norming","","","","","","",""
"2252.8649999999907","","","post_reveal_questions","survey-likert","327","1125266","0.0-6.0-6.45","2981787","co38725","norming","","","{""aha"":4}","[0]","../img/tt/1309tt.jpg","",""
"null","<div style=""font-size:60px;""> </div>","null","fixation","html-keyboard-response","328","1125468","0.0-6.0-0.46","2981787","co38725","norming","","","","","","",""
"null","../img/tt/1217tt.jpg","null","mooney1","image-keyboard-response","329","1128471","0.0-6.0-1.46","2981787","co38725","norming","","","","","","",""
"4569.014999999898","","","post_mooney1_questions","survey-likert","330","1133043","0.0-6.0-2.46","2981787","co38725","norming","","","{""curiosity"":1,""confidence"":5}","[0,1]","../img/tt/1217tt.jpg","",""
"10949.97499999986","","","recognition","survey-text","331","1143994","0.0-6.0-3.46","2981787","co38725","norming","","","{""guess"":""football players""}","","../img/tt/1217tt.jpg","",""
"null","../img/gs/1217gs.jpg","null","reveal","image-keyboard-response","332","1146001","0.0-6.0-4.46","2981787","co38725","norming","","","","","","",""
"null","../img/tt/1217tt.jpg","null","mooney2","image-keyboard-response","333","1148009","0.0-6.0-5.46","2981787","co38725","norming","","","","","","",""
"3784.0849999999627","","","post_reveal_questions","survey-likert","334","1151794","0.0-6.0-6.46","2981787","co38725","norming","","","{""aha"":0}","[0]","../img/tt/1217tt.jpg","",""
"null","<div style=""font-size:60px;""> </div>","null","fixation","html-keyboard-response","335","1151996","0.0-6.0-0.47","2981787","co38725","norming","","","","","","",""
"null","../img/tt/163tt.jpg","null","mooney1","image-keyboard-response","336","1154999","0.0-6.0-1.47","2981787","co38725","norming","","","","","","",""
"4064.4600000001956","","","post_mooney1_questions","survey-likert","337","1159066","0.0-6.0-2.47","2981787","co38725","norming","","","{""curiosity"":0,""confidence"":6}","[0,1]","../img/tt/163tt.jpg","",""
"3133.2900000000373","","","recognition","survey-text","338","1162202","0.0-6.0-3.47","2981787","co38725","norming","","","{""guess"":""frog""}","","../img/tt/163tt.jpg","",""
"null","../img/gs/163gs.jpg","null","reveal","image-keyboard-response","339","1164204","0.0-6.0-4.47","2981787","co38725","norming","","","","","","",""
"null","../img/tt/163tt.jpg","null","mooney2","image-keyboard-response","340","1166207","0.0-6.0-5.47","2981787","co38725","norming","","","","","","",""
"1868.100000000326","","","post_reveal_questions","survey-likert","341","1168076","0.0-6.0-6.47","2981787","co38725","norming","","","{""aha"":0}","[0]","../img/tt/163tt.jpg","",""
"null","<div style=""font-size:60px;""> </div>","null","fixation","html-keyboard-response","342","1168278","0.0-6.0-0.48","2981787","co38725","norming","","","","","","",""
"null","../img/tt/300tt.jpg","null","mooney1","image-keyboard-response","343","1171286","0.0-6.0-1.48","2981787","co38725","norming","","","","","","",""
"4907.1450000002515","","","post_mooney1_questions","survey-likert","344","1176196","0.0-6.0-2.48","2981787","co38725","norming","","","{""curiosity"":3,""confidence"":3}","[0,1]","../img/tt/300tt.jpg","",""
"5550.090000000084","","","recognition","survey-text","345","1181748","0.0-6.0-3.48","2981787","co38725","norming","","","{""guess"":""sitting woman""}","","../img/tt/300tt.jpg","",""
"null","../img/gs/300gs.jpg","null","reveal","image-keyboard-response","346","1183755","0.0-6.0-4.48","2981787","co38725","norming","","","","","","",""
"null","../img/tt/300tt.jpg","null","mooney2","image-keyboard-response","347","1185757","0.0-6.0-5.48","2981787","co38725","norming","","","","","","",""
"3260.344999999972","","","post_reveal_questions","survey-likert","348","1189020","0.0-6.0-6.48","2981787","co38725","norming","","","{""aha"":2}","[0]","../img/tt/300tt.jpg","",""
"null","<div style=""font-size:60px;""> </div>","null","fixation","html-keyboard-response","349","1189221","0.0-6.0-0.49","2981787","co38725","norming","","","","","","",""
"null","../img/tt/049tt.jpg","null","mooney1","image-keyboard-response","350","1192231","0.0-6.0-1.49","2981787","co38725","norming","","","","","","",""
"4610.3300000000745","","","post_mooney1_questions","survey-likert","351","1196844","0.0-6.0-2.49","2981787","co38725","norming","","","{""curiosity"":3,""confidence"":3}","[0,1]","../img/tt/049tt.jpg","",""
"3406.255000000121","","","recognition","survey-text","352","1200252","0.0-6.0-3.49","2981787","co38725","norming","","","{""guess"":""possum""}","","../img/tt/049tt.jpg","",""
"null","../img/gs/049gs.jpg","null","reveal","image-keyboard-response","353","1202253","0.0-6.0-4.49","2981787","co38725","norming","","","","","","",""
"null","../img/tt/049tt.jpg","null","mooney2","image-keyboard-response","354","1204258","0.0-6.0-5.49","2981787","co38725","norming","","","","","","",""
"1983.5149999998976","","","post_reveal_questions","survey-likert","355","1206244","0.0-6.0-6.49","2981787","co38725","norming","","","{""aha"":6}","[0]","../img/tt/049tt.jpg","",""
"null","<div style=""font-size:60px;""> </div>","null","fixation","html-keyboard-response","356","1206446","0.0-6.0-0.50","2981787","co38725","norming","","","","","","",""
"null","../img/tt/194tt.jpg","null","mooney1","image-keyboard-response","357","1209449","0.0-6.0-1.50","2981787","co38725","norming","","","","","","",""
"12112.300000000047","","","post_mooney1_questions","survey-likert","358","1221564","0.0-6.0-2.50","2981787","co38725","norming","","","{""curiosity"":6,""confidence"":3}","[0,1]","../img/tt/194tt.jpg","",""
"34598.10000000009","","","recognition","survey-text","359","1256164","0.0-6.0-3.50","2981787","co38725","norming","","","{""guess"":""music player""}","","../img/tt/194tt.jpg","",""
"null","../img/gs/194gs.jpg","null","reveal","image-keyboard-response","360","1258168","0.0-6.0-4.50","2981787","co38725","norming","","","","","","",""
"null","../img/tt/194tt.jpg","null","mooney2","image-keyboard-response","361","1260173","0.0-6.0-5.50","2981787","co38725","norming","","","","","","",""
"4461.449999999953","","","post_reveal_questions","survey-likert","362","1264637","0.0-6.0-6.50","2981787","co38725","norming","","","{""aha"":5}","[0]","../img/tt/194tt.jpg","",""
"null","<div style=""font-size:60px;""> </div>","null","fixation","html-keyboard-response","363","1264839","0.0-6.0-0.51","2981787","co38725","norming","","","","","","",""
"null","../img/tt/1268tt.jpg","null","mooney1","image-keyboard-response","364","1267842","0.0-6.0-1.51","2981787","co38725","norming","","","","","","",""
"2879.720000000205","","","post_mooney1_questions","survey-likert","365","1270725","0.0-6.0-2.51","2981787","co38725","norming","","","{""curiosity"":0,""confidence"":6}","[0,1]","../img/tt/1268tt.jpg","",""
"4766.189999999944","","","recognition","survey-text","366","1275493","0.0-6.0-3.51","2981787","co38725","norming","","","{""guess"":""squirrel""}","","../img/tt/1268tt.jpg","",""
"null","../img/gs/1268gs.jpg","null","reveal","image-keyboard-response","367","1277494","0.0-6.0-4.51","2981787","co38725","norming","","","","","","",""
"null","../img/tt/1268tt.jpg","null","mooney2","image-keyboard-response","368","1279498","0.0-6.0-5.51","2981787","co38725","norming","","","","","","",""
"1624.1949999998324","","","post_reveal_questions","survey-likert","369","1281125","0.0-6.0-6.51","2981787","co38725","norming","","","{""aha"":0}","[0]","../img/tt/1268tt.jpg","",""
"null","<div style=""font-size:60px;""> </div>","null","fixation","html-keyboard-response","370","1281335","0.0-6.0-0.52","2981787","co38725","norming","","","","","","",""
"null","../img/tt/076tt.jpg","null","mooney1","image-keyboard-response","371","1284337","0.0-6.0-1.52","2981787","co38725","norming","","","","","","",""
"3201.034999999916","","","post_mooney1_questions","survey-likert","372","1287535","0.0-6.0-2.52","2981787","co38725","norming","","","{""curiosity"":0,""confidence"":6}","[0,1]","../img/tt/076tt.jpg","",""
"14430.23999999999","","","recognition","survey-text","373","1301967","0.0-6.0-3.52","2981787","co38725","norming","","","{""guess"":""rolerblade""}","","../img/tt/076tt.jpg","",""
"null","../img/gs/076gs.jpg","null","reveal","image-keyboard-response","374","1303976","0.0-6.0-4.52","2981787","co38725","norming","","","","","","",""
"null","../img/tt/076tt.jpg","null","mooney2","image-keyboard-response","375","1305978","0.0-6.0-5.52","2981787","co38725","norming","","","","","","",""
"2235.530000000028","","","post_reveal_questions","survey-likert","376","1308215","0.0-6.0-6.52","2981787","co38725","norming","","","{""aha"":0}","[0]","../img/tt/076tt.jpg","",""
"null","<div style=""font-size:60px;""> </div>","null","fixation","html-keyboard-response","377","1308416","0.0-6.0-0.53","2981787","co38725","norming","","","","","","",""
"null","../img/tt/1107tt.jpg","null","mooney1","image-keyboard-response","378","1311426","0.0-6.0-1.53","2981787","co38725","norming","","","","","","",""
"6538.804999999935","","","post_mooney1_questions","survey-likert","379","1317967","0.0-6.0-2.53","2981787","co38725","norming","","","{""curiosity"":6,""confidence"":1}","[0,1]","../img/tt/1107tt.jpg","",""
"4742.279999999795","","","recognition","survey-text","380","1322711","0.0-6.0-3.53","2981787","co38725","norming","","","{""guess"":""t-shirt""}","","../img/tt/1107tt.jpg","",""
"null","../img/gs/1107gs.jpg","null","reveal","image-keyboard-response","381","1324718","0.0-6.0-4.53","2981787","co38725","norming","","","","","","",""
"null","../img/tt/1107tt.jpg","null","mooney2","image-keyboard-response","382","1326721","0.0-6.0-5.53","2981787","co38725","norming","","","","","","",""
"1858.875","","","post_reveal_questions","survey-likert","383","1328582","0.0-6.0-6.53","2981787","co38725","norming","","","{""aha"":6}","[0]","../img/tt/1107tt.jpg","",""
"null","<div style=""font-size:60px;""> </div>","null","fixation","html-keyboard-response","384","1328789","0.0-6.0-0.54","2981787","co38725","norming","","","","","","",""
"null","../img/tt/406tt.jpg","null","mooney1","image-keyboard-response","385","1331794","0.0-6.0-1.54","2981787","co38725","norming","","","","","","",""
"3297.9550000000745","","","post_mooney1_questions","survey-likert","386","1335095","0.0-6.0-2.54","2981787","co38725","norming","","","{""curiosity"":6,""confidence"":1}","[0,1]","../img/tt/406tt.jpg","",""
"3126.1500000001397","","","recognition","survey-text","387","1338223","0.0-6.0-3.54","2981787","co38725","norming","","","{""guess"":""bat""}","","../img/tt/406tt.jpg","",""
"null","../img/gs/406gs.jpg","null","reveal","image-keyboard-response","388","1340224","0.0-6.0-4.54","2981787","co38725","norming","","","","","","",""
"null","../img/tt/406tt.jpg","null","mooney2","image-keyboard-response","389","1342226","0.0-6.0-5.54","2981787","co38725","norming","","","","","","",""
"1650.0200000002515","","","post_reveal_questions","survey-likert","390","1343879","0.0-6.0-6.54","2981787","co38725","norming","","","{""aha"":4}","[0]","../img/tt/406tt.jpg","",""
"null","<div style=""font-size:60px;""> </div>","null","fixation","html-keyboard-response","391","1344083","0.0-6.0-0.55","2981787","co38725","norming","","","","","","",""
"null","../img/tt/357tt.jpg","null","mooney1","image-keyboard-response","392","1347101","0.0-6.0-1.55","2981787","co38725","norming","","","","","","",""
"7550.175000000047","","","post_mooney1_questions","survey-likert","393","1354654","0.0-6.0-2.55","2981787","co38725","norming","","","{""curiosity"":5,""confidence"":1}","[0,1]","../img/tt/357tt.jpg","",""
"4494.020000000019","","","recognition","survey-text","394","1359150","0.0-6.0-3.55","2981787","co38725","norming","","","{""guess"":""hedgehog""}","","../img/tt/357tt.jpg","",""
"null","../img/gs/357gs.jpg","null","reveal","image-keyboard-response","395","1361151","0.0-6.0-4.55","2981787","co38725","norming","","","","","","",""
"null","../img/tt/357tt.jpg","null","mooney2","image-keyboard-response","396","1363154","0.0-6.0-5.55","2981787","co38725","norming","","","","","","",""
"1450.1000000000931","","","post_reveal_questions","survey-likert","397","1364606","0.0-6.0-6.55","2981787","co38725","norming","","","{""aha"":4}","[0]","../img/tt/357tt.jpg","",""
"null","<div style=""font-size:60px;""> </div>","null","fixation","html-keyboard-response","398","1364808","0.0-6.0-0.56","2981787","co38725","norming","","","","","","",""
"null","../img/tt/1275tt.jpg","null","mooney1","image-keyboard-response","399","1367817","0.0-6.0-1.56","2981787","co38725","norming","","","","","","",""
"9828.045000000158","","","post_mooney1_questions","survey-likert","400","1377646","0.0-6.0-2.56","2981787","co38725","norming","","","{""curiosity"":1,""confidence"":5}","[0,1]","../img/tt/1275tt.jpg","",""
"3166.2750000001397","","","recognition","survey-text","401","1380814","0.0-6.0-3.56","2981787","co38725","norming","","","{""guess"":""boar""}","","../img/tt/1275tt.jpg","",""
"null","../img/gs/1275gs.jpg","null","reveal","image-keyboard-response","402","1382825","0.0-6.0-4.56","2981787","co38725","norming","","","","","","",""
"null","../img/tt/1275tt.jpg","null","mooney2","image-keyboard-response","403","1384835","0.0-6.0-5.56","2981787","co38725","norming","","","","","","",""
"3952.744999999879","","","post_reveal_questions","survey-likert","404","1388790","0.0-6.0-6.56","2981787","co38725","norming","","","{""aha"":0}","[0]","../img/tt/1275tt.jpg","",""
"null","<div style=""font-size:60px;""> </div>","null","fixation","html-keyboard-response","405","1388992","0.0-6.0-0.57","2981787","co38725","norming","","","","","","",""
"null","../img/tt/1279tt.jpg","null","mooney1","image-keyboard-response","406","1391999","0.0-6.0-1.57","2981787","co38725","norming","","","","","","",""
"4037.9499999999534","","","post_mooney1_questions","survey-likert","407","1396038","0.0-6.0-2.57","2981787","co38725","norming","","","{""curiosity"":6,""confidence"":0}","[0,1]","../img/tt/1279tt.jpg","",""
"3118.184999999823","","","recognition","survey-text","408","1399158","0.0-6.0-3.57","2981787","co38725","norming","","","{""guess"":""bird""}","","../img/tt/1279tt.jpg","",""
"null","../img/gs/1279gs.jpg","null","reveal","image-keyboard-response","409","1401167","0.0-6.0-4.57","2981787","co38725","norming","","","","","","",""
"null","../img/tt/1279tt.jpg","null","mooney2","image-keyboard-response","410","1403176","0.0-6.0-5.57","2981787","co38725","norming","","","","","","",""
"2339.369999999879","","","post_reveal_questions","survey-likert","411","1405518","0.0-6.0-6.57","2981787","co38725","norming","","","{""aha"":6}","[0]","../img/tt/1279tt.jpg","",""
"null","<div style=""font-size:60px;""> </div>","null","fixation","html-keyboard-response","412","1405720","0.0-6.0-0.58","2981787","co38725","norming","","","","","","",""
"null","../img/tt/1228tt.jpg","null","mooney1","image-keyboard-response","413","1408724","0.0-6.0-1.58","2981787","co38725","norming","","","","","","",""
"3631.404999999795","","","post_mooney1_questions","survey-likert","414","1412358","0.0-6.0-2.58","2981787","co38725","norming","","","{""curiosity"":6,""confidence"":1}","[0,1]","../img/tt/1228tt.jpg","",""
"2894.0100000000093","","","recognition","survey-text","415","1415254","0.0-6.0-3.58","2981787","co38725","norming","","","{""guess"":""bird""}","","../img/tt/1228tt.jpg","",""
"null","../img/gs/1228gs.jpg","null","reveal","image-keyboard-response","416","1417256","0.0-6.0-4.58","2981787","co38725","norming","","","","","","",""
"null","../img/tt/1228tt.jpg","null","mooney2","image-keyboard-response","417","1419259","0.0-6.0-5.58","2981787","co38725","norming","","","","","","",""
"3456.399999999907","","","post_reveal_questions","survey-likert","418","1422718","0.0-6.0-6.58","2981787","co38725","norming","","","{""aha"":6}","[0]","../img/tt/1228tt.jpg","",""
"null","<div style=""font-size:60px;""> </div>","null","fixation","html-keyboard-response","419","1422921","0.0-6.0-0.59","2981787","co38725","norming","","","","","","",""
"null","../img/tt/1242tt.jpg","null","mooney1","image-keyboard-response","420","1425924","0.0-6.0-1.59","2981787","co38725","norming","","","","","","",""
"2985.1350000000093","","","post_mooney1_questions","survey-likert","421","1428910","0.0-6.0-2.59","2981787","co38725","norming","","","{""curiosity"":1,""confidence"":5}","[0,1]","../img/tt/1242tt.jpg","",""
"2870.179999999935","","","recognition","survey-text","422","1431782","0.0-6.0-3.59","2981787","co38725","norming","","","{""guess"":""fox""}","","../img/tt/1242tt.jpg","",""
"null","../img/gs/1242gs.jpg","null","reveal","image-keyboard-response","423","1433788","0.0-6.0-4.59","2981787","co38725","norming","","","","","","",""
"null","../img/tt/1242tt.jpg","null","mooney2","image-keyboard-response","424","1435790","0.0-6.0-5.59","2981787","co38725","norming","","","","","","",""
"1534.1649999995716","","","post_reveal_questions","survey-likert","425","1437326","0.0-6.0-6.59","2981787","co38725","norming","","","{""aha"":1}","[0]","../img/tt/1242tt.jpg","",""
"null","<div style=""font-size:60px;""> </div>","null","fixation","html-keyboard-response","426","1437528","0.0-6.0-0.60","2981787","co38725","norming","","","","","","",""
"null","../img/tt/031tt.jpg","null","mooney1","image-keyboard-response","427","1440537","0.0-6.0-1.60","2981787","co38725","norming","","","","","","",""
"3324.0800000000745","","","post_mooney1_questions","survey-likert","428","1443862","0.0-6.0-2.60","2981787","co38725","norming","","","{""curiosity"":0,""confidence"":6}","[0,1]","../img/tt/031tt.jpg","",""
"4718.354999999981","","","recognition","survey-text","429","1448582","0.0-6.0-3.60","2981787","co38725","norming","","","{""guess"":""black bear""}","","../img/tt/031tt.jpg","",""
"null","../img/gs/031gs.jpg","null","reveal","image-keyboard-response","430","1450592","0.0-6.0-4.60","2981787","co38725","norming","","","","","","",""
"null","../img/tt/031tt.jpg","null","mooney2","image-keyboard-response","431","1452598","0.0-6.0-5.60","2981787","co38725","norming","","","","","","",""
"2661.524999999907","","","post_reveal_questions","survey-likert","432","1455262","0.0-6.0-6.60","2981787","co38725","norming","","","{""aha"":0}","[0]","../img/tt/031tt.jpg","",""
"null","<div style=""font-size:60px;""> </div>","null","fixation","html-keyboard-response","433","1455467","0.0-6.0-0.61","2981787","co38725","norming","","","","","","",""
"null","../img/tt/1211tt.jpg","null","mooney1","image-keyboard-response","434","1458472","0.0-6.0-1.61","2981787","co38725","norming","","","","","","",""
"6931.074999999953","","","post_mooney1_questions","survey-likert","435","1465406","0.0-6.0-2.61","2981787","co38725","norming","","","{""curiosity"":6,""confidence"":1}","[0,1]","../img/tt/1211tt.jpg","",""
"2910.1800000001676","","","recognition","survey-text","436","1468318","0.0-6.0-3.61","2981787","co38725","norming","","","{""guess"":""boat""}","","../img/tt/1211tt.jpg","",""
"null","../img/gs/1211gs.jpg","null","reveal","image-keyboard-response","437","1470323","0.0-6.0-4.61","2981787","co38725","norming","","","","","","",""
"null","../img/tt/1211tt.jpg","null","mooney2","image-keyboard-response","438","1472334","0.0-6.0-5.61","2981787","co38725","norming","","","","","","",""
"2742.3499999998603","","","post_reveal_questions","survey-likert","439","1475078","0.0-6.0-6.61","2981787","co38725","norming","","","{""aha"":6}","[0]","../img/tt/1211tt.jpg","",""
"null","<div style=""font-size:60px;""> </div>","null","fixation","html-keyboard-response","440","1475286","0.0-6.0-0.62","2981787","co38725","norming","","","","","","",""
"null","../img/tt/040tt.jpg","null","mooney1","image-keyboard-response","441","1478291","0.0-6.0-1.62","2981787","co38725","norming","","","","","","",""
"5904.594999999972","","","post_mooney1_questions","survey-likert","442","1484199","0.0-6.0-2.62","2981787","co38725","norming","","","{""curiosity"":6,""confidence"":1}","[0,1]","../img/tt/040tt.jpg","",""
"3829.939999999944","","","recognition","survey-text","443","1488030","0.0-6.0-3.62","2981787","co38725","norming","","","{""guess"":""bird""}","","../img/tt/040tt.jpg","",""
"null","../img/gs/040gs.jpg","null","reveal","image-keyboard-response","444","1490031","0.0-6.0-4.62","2981787","co38725","norming","","","","","","",""
"null","../img/tt/040tt.jpg","null","mooney2","image-keyboard-response","445","1492033","0.0-6.0-5.62","2981787","co38725","norming","","","","","","",""
"1938.2699999997858","","","post_reveal_questions","survey-likert","446","1493974","0.0-6.0-6.62","2981787","co38725","norming","","","{""aha"":6}","[0]","../img/tt/040tt.jpg","",""
"null","<div style=""font-size:60px;""> </div>","null","fixation","html-keyboard-response","447","1494181","0.0-6.0-0.63","2981787","co38725","norming","","","","","","",""
"null","../img/tt/301tt.jpg","null","mooney1","image-keyboard-response","448","1497186","0.0-6.0-1.63","2981787","co38725","norming","","","","","","",""
"3891.0500000000466","","","post_mooney1_questions","survey-likert","449","1501078","0.0-6.0-2.63","2981787","co38725","norming","","","{""curiosity"":6,""confidence"":0}","[0,1]","../img/tt/301tt.jpg","",""
"2990.100000000093","","","recognition","survey-text","450","1504070","0.0-6.0-3.63","2981787","co38725","norming","","","{""guess"":""lamp""}","","../img/tt/301tt.jpg","",""
"null","../img/gs/301gs.jpg","null","reveal","image-keyboard-response","451","1506079","0.0-6.0-4.63","2981787","co38725","norming","","","","","","",""
"null","../img/tt/301tt.jpg","null","mooney2","image-keyboard-response","452","1508089","0.0-6.0-5.63","2981787","co38725","norming","","","","","","",""
"3138.730000000214","","","post_reveal_questions","survey-likert","453","1511230","0.0-6.0-6.63","2981787","co38725","norming","","","{""aha"":6}","[0]","../img/tt/301tt.jpg","",""
"null","<div style=""font-size:60px;""> </div>","null","fixation","html-keyboard-response","454","1511434","0.0-6.0-0.64","2981787","co38725","norming","","","","","","",""
"null","../img/tt/140tt.jpg","null","mooney1","image-keyboard-response","455","1514438","0.0-6.0-1.64","2981787","co38725","norming","","","","","","",""
"6037.229999999981","","","post_mooney1_questions","survey-likert","456","1520478","0.0-6.0-2.64","2981787","co38725","norming","","","{""curiosity"":0,""confidence"":6}","[0,1]","../img/tt/140tt.jpg","",""
"7270.040000000037","","","recognition","survey-text","457","1527750","0.0-6.0-3.64","2981787","co38725","norming","","","{""guess"":""multiple fork""}","","../img/tt/140tt.jpg","",""
"null","../img/gs/140gs.jpg","null","reveal","image-keyboard-response","458","1529759","0.0-6.0-4.64","2981787","co38725","norming","","","","","","",""
"null","../img/tt/140tt.jpg","null","mooney2","image-keyboard-response","459","1531770","0.0-6.0-5.64","2981787","co38725","norming","","","","","","",""
"3377.155000000028","","","post_reveal_questions","survey-likert","460","1535150","0.0-6.0-6.64","2981787","co38725","norming","","","{""aha"":0}","[0]","../img/tt/140tt.jpg","",""
"null","<div style=""font-size:60px;""> </div>","null","fixation","html-keyboard-response","461","1535352","0.0-6.0-0.65","2981787","co38725","norming","","","","","","",""
"null","../img/tt/1189tt.jpg","null","mooney1","image-keyboard-response","462","1538360","0.0-6.0-1.65","2981787","co38725","norming","","","","","","",""
"3843.125","","","post_mooney1_questions","survey-likert","463","1542206","0.0-6.0-2.65","2981787","co38725","norming","","","{""curiosity"":6,""confidence"":0}","[0,1]","../img/tt/1189tt.jpg","",""
"1110.094999999972","","","recognition","survey-text","464","1543318","0.0-6.0-3.65","2981787","co38725","norming","","","{""guess"":""""}","","../img/tt/1189tt.jpg","",""
"null","../img/gs/1189gs.jpg","null","reveal","image-keyboard-response","465","1545320","0.0-6.0-4.65","2981787","co38725","norming","","","","","","",""
"null","../img/tt/1189tt.jpg","null","mooney2","image-keyboard-response","466","1547321","0.0-6.0-5.65","2981787","co38725","norming","","","","","","",""
"3475.964999999851","","","post_reveal_questions","survey-likert","467","1550798","0.0-6.0-6.65","2981787","co38725","norming","","","{""aha"":6}","[0]","../img/tt/1189tt.jpg","",""
"null","<div style=""font-size:60px;""> </div>","null","fixation","html-keyboard-response","468","1551000","0.0-6.0-0.66","2981787","co38725","norming","","","","","","",""
"null","../img/tt/1262tt.jpg","null","mooney1","image-keyboard-response","469","1554005","0.0-6.0-1.66","2981787","co38725","norming","","","","","","",""
"5920.159999999916","","","post_mooney1_questions","survey-likert","470","1559926","0.0-6.0-2.66","2981787","co38725","norming","","","{""curiosity"":6,""confidence"":1}","[0,1]","../img/tt/1262tt.jpg","",""
"2918.2399999999907","","","recognition","survey-text","471","1562846","0.0-6.0-3.66","2981787","co38725","norming","","","{""guess"":""car""}","","../img/tt/1262tt.jpg","",""
"null","../img/gs/1262gs.jpg","null","reveal","image-keyboard-response","472","1564854","0.0-6.0-4.66","2981787","co38725","norming","","","","","","",""
"null","../img/tt/1262tt.jpg","null","mooney2","image-keyboard-response","473","1566860","0.0-6.0-5.66","2981787","co38725","norming","","","","","","",""
"3103.7600000000093","","","post_reveal_questions","survey-likert","474","1569966","0.0-6.0-6.66","2981787","co38725","norming","","","{""aha"":6}","[0]","../img/tt/1262tt.jpg","",""
"null","<div style=""font-size:60px;""> </div>","null","fixation","html-keyboard-response","475","1570170","0.0-6.0-0.67","2981787","co38725","norming","","","","","","",""
"null","../img/tt/1156tt.jpg","null","mooney1","image-keyboard-response","476","1573179","0.0-6.0-1.67","2981787","co38725","norming","","","","","","",""
"3488.149999999907","","","post_mooney1_questions","survey-likert","477","1576670","0.0-6.0-2.67","2981787","co38725","norming","","","{""curiosity"":3,""confidence"":3}","[0,1]","../img/tt/1156tt.jpg","",""
"6142.255000000121","","","recognition","survey-text","478","1582814","0.0-6.0-3.67","2981787","co38725","norming","","","{""guess"":""sunbathing""}","","../img/tt/1156tt.jpg","",""
"null","../img/gs/1156gs.jpg","null","reveal","image-keyboard-response","479","1584816","0.0-6.0-4.67","2981787","co38725","norming","","","","","","",""
"null","../img/tt/1156tt.jpg","null","mooney2","image-keyboard-response","480","1586821","0.0-6.0-5.67","2981787","co38725","norming","","","","","","",""
"3006.4749999998603","","","post_reveal_questions","survey-likert","481","1589830","0.0-6.0-6.67","2981787","co38725","norming","","","{""aha"":5}","[0]","../img/tt/1156tt.jpg","",""
"null","<div style=""font-size:60px;""> </div>","null","fixation","html-keyboard-response","482","1590039","0.0-6.0-0.68","2981787","co38725","norming","","","","","","",""
"null","../img/tt/1363tt.jpg","null","mooney1","image-keyboard-response","483","1593043","0.0-6.0-1.68","2981787","co38725","norming","","","","","","",""
"9104.115000000224","","","post_mooney1_questions","survey-likert","484","1602151","0.0-6.0-2.68","2981787","co38725","norming","","","{""curiosity"":6,""confidence"":1}","[0,1]","../img/tt/1363tt.jpg","",""
"4742.255000000121","","","recognition","survey-text","485","1606894","0.0-6.0-3.68","2981787","co38725","norming","","","{""guess"":""sauce bowl""}","","../img/tt/1363tt.jpg","",""
"null","../img/gs/1363gs.jpg","null","reveal","image-keyboard-response","486","1608905","0.0-6.0-4.68","2981787","co38725","norming","","","","","","",""
"null","../img/tt/1363tt.jpg","null","mooney2","image-keyboard-response","487","1610914","0.0-6.0-5.68","2981787","co38725","norming","","","","","","",""
"2514.035000000149","","","post_reveal_questions","survey-likert","488","1613430","0.0-6.0-6.68","2981787","co38725","norming","","","{""aha"":4}","[0]","../img/tt/1363tt.jpg","",""
"null","<div style=""font-size:60px;""> </div>","null","fixation","html-keyboard-response","489","1613642","0.0-6.0-0.69","2981787","co38725","norming","","","","","","",""
"null","../img/tt/412tt.jpg","null","mooney1","image-keyboard-response","490","1616645","0.0-6.0-1.69","2981787","co38725","norming","","","","","","",""
"4726.415000000037","","","post_mooney1_questions","survey-likert","491","1621374","0.0-6.0-2.69","2981787","co38725","norming","","","{""curiosity"":3,""confidence"":3}","[0,1]","../img/tt/412tt.jpg","",""
"4038.130000000121","","","recognition","survey-text","492","1625414","0.0-6.0-3.69","2981787","co38725","norming","","","{""guess"":""sunscreen""}","","../img/tt/412tt.jpg","",""
"null","../img/gs/412gs.jpg","null","reveal","image-keyboard-response","493","1627418","0.0-6.0-4.69","2981787","co38725","norming","","","","","","",""
"null","../img/tt/412tt.jpg","null","mooney2","image-keyboard-response","494","1629422","0.0-6.0-5.69","2981787","co38725","norming","","","","","","",""
"2621.9950000001118","","","post_reveal_questions","survey-likert","495","1632046","0.0-6.0-6.69","2981787","co38725","norming","","","{""aha"":6}","[0]","../img/tt/412tt.jpg","",""
"null","<div style=""font-size:60px;""> </div>","null","fixation","html-keyboard-response","496","1632249","0.0-6.0-0.70","2981787","co38725","norming","","","","","","",""
"null","../img/tt/1272tt.jpg","null","mooney1","image-keyboard-response","497","1635259","0.0-6.0-1.70","2981787","co38725","norming","","","","","","",""
"4072.9850000001024","","","post_mooney1_questions","survey-likert","498","1639335","0.0-6.0-2.70","2981787","co38725","norming","","","{""curiosity"":1,""confidence"":5}","[0,1]","../img/tt/1272tt.jpg","",""
"3518.0849999999627","","","recognition","survey-text","499","1642854","0.0-6.0-3.70","2981787","co38725","norming","","","{""guess"":""monkey""}","","../img/tt/1272tt.jpg","",""
"null","../img/gs/1272gs.jpg","null","reveal","image-keyboard-response","500","1644864","0.0-6.0-4.70","2981787","co38725","norming","","","","","","",""
"null","../img/tt/1272tt.jpg","null","mooney2","image-keyboard-response","501","1646867","0.0-6.0-5.70","2981787","co38725","norming","","","","","","",""
"1449.1450000000186","","","post_reveal_questions","survey-likert","502","1648318","0.0-6.0-6.70","2981787","co38725","norming","","","{""aha"":5}","[0]","../img/tt/1272tt.jpg","",""
"null","<div style=""font-size:60px;""> </div>","null","fixation","html-keyboard-response","503","1648520","0.0-6.0-0.71","2981787","co38725","norming","","","","","","",""
"null","../img/tt/353tt.jpg","null","mooney1","image-keyboard-response","504","1651526","0.0-6.0-1.71","2981787","co38725","norming","","","","","","",""
"5639.614999999758","","","post_mooney1_questions","survey-likert","505","1657166","0.0-6.0-2.71","2981787","co38725","norming","","","{""curiosity"":5,""confidence"":1}","[0,1]","../img/tt/353tt.jpg","",""
"3821.9599999999627","","","recognition","survey-text","506","1660990","0.0-6.0-3.71","2981787","co38725","norming","","","{""guess"":""pinguin""}","","../img/tt/353tt.jpg","",""
"null","../img/gs/353gs.jpg","null","reveal","image-keyboard-response","507","1662999","0.0-6.0-4.71","2981787","co38725","norming","","","","","","",""
"null","../img/tt/353tt.jpg","null","mooney2","image-keyboard-response","508","1665008","0.0-6.0-5.71","2981787","co38725","norming","","","","","","",""
"2819.2249999998603","","","post_reveal_questions","survey-likert","509","1667830","0.0-6.0-6.71","2981787","co38725","norming","","","{""aha"":5}","[0]","../img/tt/353tt.jpg","",""
"null","<div style=""font-size:60px;""> </div>","null","fixation","html-keyboard-response","510","1668037","0.0-6.0-0.72","2981787","co38725","norming","","","","","","",""
"null","../img/tt/1128tt.jpg","null","mooney1","image-keyboard-response","511","1671047","0.0-6.0-1.72","2981787","co38725","norming","","","","","","",""
"3899.5200000000186","","","post_mooney1_questions","survey-likert","512","1674950","0.0-6.0-2.72","2981787","co38725","norming","","","{""curiosity"":6,""confidence"":1}","[0,1]","../img/tt/1128tt.jpg","",""
"3022.320000000065","","","recognition","survey-text","513","1677974","0.0-6.0-3.72","2981787","co38725","norming","","","{""guess"":""panda""}","","../img/tt/1128tt.jpg","",""
"null","../img/gs/1128gs.jpg","null","reveal","image-keyboard-response","514","1679983","0.0-6.0-4.72","2981787","co38725","norming","","","","","","",""
"null","../img/tt/1128tt.jpg","null","mooney2","image-keyboard-response","515","1681987","0.0-6.0-5.72","2981787","co38725","norming","","","","","","",""
"4042.159999999916","","","post_reveal_questions","survey-likert","516","1686030","0.0-6.0-6.72","2981787","co38725","norming","","","{""aha"":6}","[0]","../img/tt/1128tt.jpg","",""
"null","<div style=""font-size:60px;""> </div>","null","fixation","html-keyboard-response","517","1686237","0.0-6.0-0.73","2981787","co38725","norming","","","","","","",""
"null","../img/tt/008tt.jpg","null","mooney1","image-keyboard-response","518","1689242","0.0-6.0-1.73","2981787","co38725","norming","","","","","","",""
"4048.405000000028","","","post_mooney1_questions","survey-likert","519","1693294","0.0-6.0-2.73","2981787","co38725","norming","","","{""curiosity"":6,""confidence"":0}","[0,1]","../img/tt/008tt.jpg","",""
"6917.885000000009","","","recognition","survey-text","520","1700214","0.0-6.0-3.73","2981787","co38725","norming","","","{""guess"":""human lifting""}","","../img/tt/008tt.jpg","",""
"null","../img/gs/008gs.jpg","null","reveal","image-keyboard-response","521","1702225","0.0-6.0-4.73","2981787","co38725","norming","","","","","","",""
"null","../img/tt/008tt.jpg","null","mooney2","image-keyboard-response","522","1704233","0.0-6.0-5.73","2981787","co38725","norming","","","","","","",""
"3537.885000000242","","","post_reveal_questions","survey-likert","523","1707774","0.0-6.0-6.73","2981787","co38725","norming","","","{""aha"":6}","[0]","../img/tt/008tt.jpg","",""
"null","<div style=""font-size:60px;""> </div>","null","fixation","html-keyboard-response","524","1707975","0.0-6.0-0.74","2981787","co38725","norming","","","","","","",""
"null","../img/tt/1097tt.jpg","null","mooney1","image-keyboard-response","525","1710979","0.0-6.0-1.74","2981787","co38725","norming","","","","","","",""
"5559.574999999953","","","post_mooney1_questions","survey-likert","526","1716538","0.0-6.0-2.74","2981787","co38725","norming","","","{""curiosity"":0,""confidence"":6}","[0,1]","../img/tt/1097tt.jpg","",""
"5189.1699999999255","","","recognition","survey-text","527","1721730","0.0-6.0-3.74","2981787","co38725","norming","","","{""guess"":""paddle boarder""}","","../img/tt/1097tt.jpg","",""
"null","../img/gs/1097gs.jpg","null","reveal","image-keyboard-response","528","1723731","0.0-6.0-4.74","2981787","co38725","norming","","","","","","",""
"null","../img/tt/1097tt.jpg","null","mooney2","image-keyboard-response","529","1725733","0.0-6.0-5.74","2981787","co38725","norming","","","","","","",""
"2906.494999999879","","","post_reveal_questions","survey-likert","530","1728642","0.0-6.0-6.74","2981787","co38725","norming","","","{""aha"":0}","[0]","../img/tt/1097tt.jpg","",""
"null","<div style=""font-size:60px;""> </div>","null","fixation","html-keyboard-response","531","1728847","0.0-6.0-0.75","2981787","co38725","norming","","","","","","",""
"null","../img/tt/1063tt.jpg","null","mooney1","image-keyboard-response","532","1731851","0.0-6.0-1.75","2981787","co38725","norming","","","","","","",""
"3252.4550000000745","","","post_mooney1_questions","survey-likert","533","1735106","0.0-6.0-2.75","2981787","co38725","norming","","","{""curiosity"":3,""confidence"":3}","[0,1]","../img/tt/1063tt.jpg","",""
"3126.0849999999627","","","recognition","survey-text","534","1738234","0.0-6.0-3.75","2981787","co38725","norming","","","{""guess"":""pony""}","","../img/tt/1063tt.jpg","",""
"null","../img/gs/1063gs.jpg","null","reveal","image-keyboard-response","535","1740235","0.0-6.0-4.75","2981787","co38725","norming","","","","","","",""
"null","../img/tt/1063tt.jpg","null","mooney2","image-keyboard-response","536","1742238","0.0-6.0-5.75","2981787","co38725","norming","","","","","","",""
"2265.7750000001397","","","post_reveal_questions","survey-likert","537","1744506","0.0-6.0-6.75","2981787","co38725","norming","","","{""aha"":4}","[0]","../img/tt/1063tt.jpg","",""
"null","<div style=""font-size:60px;""> </div>","null","fixation","html-keyboard-response","538","1744712","0.0-6.0-0.76","2981787","co38725","norming","","","","","","",""
"null","../img/tt/481tt.jpg","null","mooney1","image-keyboard-response","539","1747715","0.0-6.0-1.76","2981787","co38725","norming","","","","","","",""
"3382.1350000000093","","","post_mooney1_questions","survey-likert","540","1751098","0.0-6.0-2.76","2981787","co38725","norming","","","{""curiosity"":6,""confidence"":0}","[0,1]","../img/tt/481tt.jpg","",""
"854.2500000002328","","","recognition","survey-text","541","1751954","0.0-6.0-3.76","2981787","co38725","norming","","","{""guess"":""""}","","../img/tt/481tt.jpg","",""
"null","../img/gs/481gs.jpg","null","reveal","image-keyboard-response","542","1753955","0.0-6.0-4.76","2981787","co38725","norming","","","","","","",""
"null","../img/tt/481tt.jpg","null","mooney2","image-keyboard-response","543","1755955","0.0-6.0-5.76","2981787","co38725","norming","","","","","","",""
"1501.7100000001956","","","post_reveal_questions","survey-likert","544","1757458","0.0-6.0-6.76","2981787","co38725","norming","","","{""aha"":6}","[0]","../img/tt/481tt.jpg","",""
"null","<div style=""font-size:60px;""> </div>","null","fixation","html-keyboard-response","545","1757667","0.0-6.0-0.77","2981787","co38725","norming","","","","","","",""
"null","../img/tt/013tt.jpg","null","mooney1","image-keyboard-response","546","1760670","0.0-6.0-1.77","2981787","co38725","norming","","","","","","",""
"2433.195000000065","","","post_mooney1_questions","survey-likert","547","1763106","0.0-6.0-2.77","2981787","co38725","norming","","","{""curiosity"":0,""confidence"":6}","[0,1]","../img/tt/013tt.jpg","",""
"3510.0200000002515","","","recognition","survey-text","548","1766618","0.0-6.0-3.77","2981787","co38725","norming","","","{""guess"":""camel""}","","../img/tt/013tt.jpg","",""
"null","../img/gs/013gs.jpg","null","reveal","image-keyboard-response","549","1768621","0.0-6.0-4.77","2981787","co38725","norming","","","","","","",""
"null","../img/tt/013tt.jpg","null","mooney2","image-keyboard-response","550","1770623","0.0-6.0-5.77","2981787","co38725","norming","","","","","","",""
"2152.1049999999814","","","post_reveal_questions","survey-likert","551","1772778","0.0-6.0-6.77","2981787","co38725","norming","","","{""aha"":0}","[0]","../img/tt/013tt.jpg","",""
