"rt","stimulus","key_press","test_part","trial_type","trial_index","time_elapsed","internal_node_id","totalTime","subject","experiment_name","button_pressed","success","responses","question_order","currentStim","old","correct"
"4560.900000000001","Welcome to the experiment. This is an online experiment so please don't close the tab/window until we say goodbye.  Press any key to begin.","32","instructions","html-keyboard-response","0","4567","0.0-0.0","2644940","co38404","norming","","","","","","",""
"51155.6","<div style='word-wrap: break-word; width: 900px'><h3>Please consider this information carefully before deciding whether to participate in this research</h3><ul style='text-align: left; font-size: .8em;'><li><b>Purpose of the research</b>: To examine how people process images.</li><li><b>What you will do in this research</b>:  Stimuli (images) will be presented on the computer and you will be asked different questions about them.</li><li><b>Time required</b>: Participation will take between 45 and 60 minutes to complete.</li><li><b>Risks</b>:  There are no anticipated risks associated with participating in this study. The effects of participating should be comparable to those you would experience from viewing a computer monitor for 30 minutes and using a mouse or keyboard.</li><li><b>Benefits</b>:  This study provides no benefits to you individually except for the credit. The study provides important information about the nature of perception and learning.</li><li><b>Confidentiality</b>:  Your participation in this study will remain confidential. No personally identifiable information will be associated with your data. Your de-identified data may be shared with other researchers and used in future projects.</li><li><b>Participation and withdrawal</b>:  Your participation in this study is completely voluntary and you may refuse to participate or you may choose to withdraw at any time without penalty.</li><li><b>How to contact the researchers</b>: If you have questions or concerns about your participation or payment, or want to request a summary of research findings, please contact Sander Van de Cruys (KU Leuven), at sander.vandecruys@kuleuven.be.</li></ul><p>The nature and purpose of this research have been sufficiently explained and I agree to participate in this study.  I understand that I am free to withdraw at any time without incurring any penalty.</p><p>Please consent by clicking the button below to continue. Otherwise, please exit the study at this time.</p></div>","","instructions","html-button-response","1","55730","0.0-1.0","2644940","co38404","norming","0","","","","","",""
"","","","instructions","fullscreen","2","61051","0.0-2.0","2644940","co38404","norming","","true","","","","",""
"35789.40000000001","","","sona","survey-html-form","3","96844","0.0-3.0","2644940","co38404","norming","","","[{""name"":""sonaid"",""value"":""38404""},{""name"":""debrief"",""value"":""yes""},{""name"":""datajoin"",""value"":""yes""}]","","","",""
"53818.499999999985","<div style='word-wrap: break-word; width: 900px'><h3>Instructions</h3><p>This experiment will have 3 parts. In the first part you will see a series of distorted images like the one below on the left. As you can see in the righthand image, the distorted images are derived from actual photographs. In what follows, you will <strong>briefly</strong> be presented with <strong>only</strong> the distorted image.</p> <div style='float: left; margin-right: 20px;'><img src='../img/018tt.jpg' height='250' width='250'></img></div><div style='float: right; margin-left: 20px;'><img src='../img/018gs.jpg' height='250' width='250'></img></div><p>Subsequently you will be asked a few questions about the image: One question on how <strong>curious</strong> you are about the solution and one on how <strong>confident</strong> you are that you know the solution.</p>Next, we ask you to make a guess on what is in the image. Note that it is OK to name just the <strong>basic level category</strong>. For example when you see a parrot in the image, 'parrot' will obviously be a correct answer but also correct is 'bird'. However, 'animal' will <strong>not</strong> be counted as a correct response. For the example above, 'rose' would be correct or 'flower', but not 'plant'. When soccer players are depicted, 'soccer', 'football', 'soccer players' will be correct, but not 'humans', 'outdoors', or 'sports'. You do not need to describe the image in full, just name the main object in it <strong>in one or two words</strong>. All images depict objects from one of the following broad level categories: animals, inanimate objects, plants, sports, vehicles, and food. Recognizing means knowing <strong>more</strong> than these broad labels for a given image. But we always encourage you to <strong>make a guess</strong> if you can. Note that you are allowed to use <strong>Dutch and English</strong> in your answers, whatever comes easiest for you.</p><p>Press any key to continue.</p></div>","32","instructions","html-keyboard-response","4","150665","0.0-4.0","2644940","co38404","norming","","","","","","",""
"14034.200000000011","<div style='word-wrap: break-word; width: 900px'><h3>Instructions</h3> <p>Next, the solution image will be revealed to you and you'll be asked to indicate how strong your <strong>aha-experience</strong> was after seeing the solution. This describes the positive feeling of the 'click' you sometimes experience, when the pieces of the 'puzzle' fall together and you suddenly have 'insight' in the image.</p><img src='aha.jpg' height='188' width='250'></img><p>Note that there are no right or wrong answers. We are interested in what <strong>you</strong> see in the image and how <strong>you</strong> feel about it.</p><p>Press any key to start the experiment.</p></div>","32","instructions","html-keyboard-response","5","164702","0.0-5.0","2644940","co38404","norming","","","","","","",""
"null","<div style=""font-size:60px;""> </div>","null","fixation","html-keyboard-response","6","164917","0.0-6.0-0.0","2644940","co38404","norming","","","","","","",""
"null","../img/tt/1004tt.jpg","null","mooney1","image-keyboard-response","7","167934","0.0-6.0-1.0","2644940","co38404","norming","","","","","","",""
"5676.799999999988","","","post_mooney1_questions","survey-likert","8","173618","0.0-6.0-2.0","2644940","co38404","norming","","","{""curiosity"":6,""confidence"":0}","[0,1]","../img/tt/1004tt.jpg","",""
"5269.200000000012","","","recognition","survey-text","9","178892","0.0-6.0-3.0","2644940","co38404","norming","","","{""guess"":""""}","","../img/tt/1004tt.jpg","",""
"null","../img/gs/1004gs.jpg","null","reveal","image-keyboard-response","10","180899","0.0-6.0-4.0","2644940","co38404","norming","","","","","","",""
"null","../img/tt/1004tt.jpg","null","mooney2","image-keyboard-response","11","182905","0.0-6.0-5.0","2644940","co38404","norming","","","","","","",""
"3183.7000000000116","","","post_reveal_questions","survey-likert","12","186093","0.0-6.0-6.0","2644940","co38404","norming","","","{""aha"":1}","[0]","../img/tt/1004tt.jpg","",""
"null","<div style=""font-size:60px;""> </div>","null","fixation","html-keyboard-response","13","186312","0.0-6.0-0.1","2644940","co38404","norming","","","","","","",""
"null","../img/tt/1200tt.jpg","null","mooney1","image-keyboard-response","14","189343","0.0-6.0-1.1","2644940","co38404","norming","","","","","","",""
"5072.200000000012","","","post_mooney1_questions","survey-likert","15","194420","0.0-6.0-2.1","2644940","co38404","norming","","","{""curiosity"":6,""confidence"":1}","[0,1]","../img/tt/1200tt.jpg","",""
"3955.600000000006","","","recognition","survey-text","16","198383","0.0-6.0-3.1","2644940","co38404","norming","","","{""guess"":""turtle""}","","../img/tt/1200tt.jpg","",""
"null","../img/gs/1200gs.jpg","null","reveal","image-keyboard-response","17","200393","0.0-6.0-4.1","2644940","co38404","norming","","","","","","",""
"null","../img/tt/1200tt.jpg","null","mooney2","image-keyboard-response","18","202392","0.0-6.0-5.1","2644940","co38404","norming","","","","","","",""
"2743.899999999994","","","post_reveal_questions","survey-likert","19","205138","0.0-6.0-6.1","2644940","co38404","norming","","","{""aha"":5}","[0]","../img/tt/1200tt.jpg","",""
"null","<div style=""font-size:60px;""> </div>","null","fixation","html-keyboard-response","20","205347","0.0-6.0-0.2","2644940","co38404","norming","","","","","","",""
"null","../img/tt/517tt.jpg","null","mooney1","image-keyboard-response","21","208347","0.0-6.0-1.2","2644940","co38404","norming","","","","","","",""
"7060.400000000023","","","post_mooney1_questions","survey-likert","22","215412","0.0-6.0-2.2","2644940","co38404","norming","","","{""curiosity"":6,""confidence"":1}","[0,1]","../img/tt/517tt.jpg","",""
"3684.100000000006","","","recognition","survey-text","23","219102","0.0-6.0-3.2","2644940","co38404","norming","","","{""guess"":""panda""}","","../img/tt/517tt.jpg","",""
"null","../img/gs/517gs.jpg","null","reveal","image-keyboard-response","24","221107","0.0-6.0-4.2","2644940","co38404","norming","","","","","","",""
"null","../img/tt/517tt.jpg","null","mooney2","image-keyboard-response","25","223107","0.0-6.0-5.2","2644940","co38404","norming","","","","","","",""
"2300.9000000000233","","","post_reveal_questions","survey-likert","26","225412","0.0-6.0-6.2","2644940","co38404","norming","","","{""aha"":5}","[0]","../img/tt/517tt.jpg","",""
"null","<div style=""font-size:60px;""> </div>","null","fixation","html-keyboard-response","27","225623","0.0-6.0-0.3","2644940","co38404","norming","","","","","","",""
"null","../img/tt/1366tt.jpg","null","mooney1","image-keyboard-response","28","228639","0.0-6.0-1.3","2644940","co38404","norming","","","","","","",""
"6005.700000000012","","","post_mooney1_questions","survey-likert","29","234646","0.0-6.0-2.3","2644940","co38404","norming","","","{""curiosity"":6,""confidence"":2}","[0,1]","../img/tt/1366tt.jpg","",""
"3831.7999999999883","","","recognition","survey-text","30","238483","0.0-6.0-3.3","2644940","co38404","norming","","","{""guess"":""boat""}","","../img/tt/1366tt.jpg","",""
"null","../img/gs/1366gs.jpg","null","reveal","image-keyboard-response","31","240502","0.0-6.0-4.3","2644940","co38404","norming","","","","","","",""
"null","../img/tt/1366tt.jpg","null","mooney2","image-keyboard-response","32","242502","0.0-6.0-5.3","2644940","co38404","norming","","","","","","",""
"2008.6999999999825","","","post_reveal_questions","survey-likert","33","244512","0.0-6.0-6.3","2644940","co38404","norming","","","{""aha"":1}","[0]","../img/tt/1366tt.jpg","",""
"null","<div style=""font-size:60px;""> </div>","null","fixation","html-keyboard-response","34","244721","0.0-6.0-0.4","2644940","co38404","norming","","","","","","",""
"null","../img/tt/1181tt.jpg","null","mooney1","image-keyboard-response","35","247738","0.0-6.0-1.4","2644940","co38404","norming","","","","","","",""
"5273","","","post_mooney1_questions","survey-likert","36","253013","0.0-6.0-2.4","2644940","co38404","norming","","","{""curiosity"":6,""confidence"":1}","[0,1]","../img/tt/1181tt.jpg","",""
"10643.199999999982","","","recognition","survey-text","37","263660","0.0-6.0-3.4","2644940","co38404","norming","","","{""guess"":""supporter""}","","../img/tt/1181tt.jpg","",""
"null","../img/gs/1181gs.jpg","null","reveal","image-keyboard-response","38","265667","0.0-6.0-4.4","2644940","co38404","norming","","","","","","",""
"null","../img/tt/1181tt.jpg","null","mooney2","image-keyboard-response","39","267667","0.0-6.0-5.4","2644940","co38404","norming","","","","","","",""
"1915","","","post_reveal_questions","survey-likert","40","269584","0.0-6.0-6.4","2644940","co38404","norming","","","{""aha"":5}","[0]","../img/tt/1181tt.jpg","",""
"null","<div style=""font-size:60px;""> </div>","null","fixation","html-keyboard-response","41","269792","0.0-6.0-0.5","2644940","co38404","norming","","","","","","",""
"null","../img/tt/1107tt.jpg","null","mooney1","image-keyboard-response","42","272808","0.0-6.0-1.5","2644940","co38404","norming","","","","","","",""
"4718.199999999953","","","post_mooney1_questions","survey-likert","43","277529","0.0-6.0-2.5","2644940","co38404","norming","","","{""curiosity"":5,""confidence"":0}","[0,1]","../img/tt/1107tt.jpg","",""
"946.6999999999534","","","recognition","survey-text","44","278480","0.0-6.0-3.5","2644940","co38404","norming","","","{""guess"":""""}","","../img/tt/1107tt.jpg","",""
"null","../img/gs/1107gs.jpg","null","reveal","image-keyboard-response","45","280496","0.0-6.0-4.5","2644940","co38404","norming","","","","","","",""
"null","../img/tt/1107tt.jpg","null","mooney2","image-keyboard-response","46","282497","0.0-6.0-5.5","2644940","co38404","norming","","","","","","",""
"3043.7999999999883","","","post_reveal_questions","survey-likert","47","285544","0.0-6.0-6.5","2644940","co38404","norming","","","{""aha"":5}","[0]","../img/tt/1107tt.jpg","",""
"null","<div style=""font-size:60px;""> </div>","null","fixation","html-keyboard-response","48","285749","0.0-6.0-0.6","2644940","co38404","norming","","","","","","",""
"null","../img/tt/1126tt.jpg","null","mooney1","image-keyboard-response","49","288765","0.0-6.0-1.6","2644940","co38404","norming","","","","","","",""
"4149.200000000012","","","post_mooney1_questions","survey-likert","50","292920","0.0-6.0-2.6","2644940","co38404","norming","","","{""curiosity"":6,""confidence"":2}","[0,1]","../img/tt/1126tt.jpg","",""
"4556.099999999977","","","recognition","survey-text","51","297482","0.0-6.0-3.6","2644940","co38404","norming","","","{""guess"":""mountain""}","","../img/tt/1126tt.jpg","",""
"null","../img/gs/1126gs.jpg","null","reveal","image-keyboard-response","52","299500","0.0-6.0-4.6","2644940","co38404","norming","","","","","","",""
"null","../img/tt/1126tt.jpg","null","mooney2","image-keyboard-response","53","301485","0.0-6.0-5.6","2644940","co38404","norming","","","","","","",""
"1853.600000000035","","","post_reveal_questions","survey-likert","54","303340","0.0-6.0-6.6","2644940","co38404","norming","","","{""aha"":4}","[0]","../img/tt/1126tt.jpg","",""
"null","<div style=""font-size:60px;""> </div>","null","fixation","html-keyboard-response","55","303563","0.0-6.0-0.7","2644940","co38404","norming","","","","","","",""
"null","../img/tt/1236tt.jpg","null","mooney1","image-keyboard-response","56","306579","0.0-6.0-1.7","2644940","co38404","norming","","","","","","",""
"3810.2999999999883","","","post_mooney1_questions","survey-likert","57","310396","0.0-6.0-2.7","2644940","co38404","norming","","","{""curiosity"":5,""confidence"":0}","[0,1]","../img/tt/1236tt.jpg","",""
"649.5999999999767","","","recognition","survey-text","58","311051","0.0-6.0-3.7","2644940","co38404","norming","","","{""guess"":""""}","","../img/tt/1236tt.jpg","",""
"null","../img/gs/1236gs.jpg","null","reveal","image-keyboard-response","59","313081","0.0-6.0-4.7","2644940","co38404","norming","","","","","","",""
"null","../img/tt/1236tt.jpg","null","mooney2","image-keyboard-response","60","315066","0.0-6.0-5.7","2644940","co38404","norming","","","","","","",""
"2299.899999999965","","","post_reveal_questions","survey-likert","61","317370","0.0-6.0-6.7","2644940","co38404","norming","","","{""aha"":6}","[0]","../img/tt/1236tt.jpg","",""
"null","<div style=""font-size:60px;""> </div>","null","fixation","html-keyboard-response","62","317597","0.0-6.0-0.8","2644940","co38404","norming","","","","","","",""
"null","../img/tt/522tt.jpg","null","mooney1","image-keyboard-response","63","320629","0.0-6.0-1.8","2644940","co38404","norming","","","","","","",""
"6518.799999999988","","","post_mooney1_questions","survey-likert","64","327153","0.0-6.0-2.8","2644940","co38404","norming","","","{""curiosity"":6,""confidence"":2}","[0,1]","../img/tt/522tt.jpg","",""
"22574.899999999965","","","recognition","survey-text","65","349733","0.0-6.0-3.8","2644940","co38404","norming","","","{""guess"":""holding man""}","","../img/tt/522tt.jpg","",""
"null","../img/gs/522gs.jpg","null","reveal","image-keyboard-response","66","351744","0.0-6.0-4.8","2644940","co38404","norming","","","","","","",""
"null","../img/tt/522tt.jpg","null","mooney2","image-keyboard-response","67","353744","0.0-6.0-5.8","2644940","co38404","norming","","","","","","",""
"4131.700000000012","","","post_reveal_questions","survey-likert","68","357880","0.0-6.0-6.8","2644940","co38404","norming","","","{""aha"":0}","[0]","../img/tt/522tt.jpg","",""
"null","<div style=""font-size:60px;""> </div>","null","fixation","html-keyboard-response","69","358088","0.0-6.0-0.9","2644940","co38404","norming","","","","","","",""
"null","../img/tt/091tt.jpg","null","mooney1","image-keyboard-response","70","361120","0.0-6.0-1.9","2644940","co38404","norming","","","","","","",""
"4505.400000000023","","","post_mooney1_questions","survey-likert","71","365631","0.0-6.0-2.9","2644940","co38404","norming","","","{""curiosity"":6,""confidence"":1}","[0,1]","../img/tt/091tt.jpg","",""
"3605.899999999965","","","recognition","survey-text","72","369241","0.0-6.0-3.9","2644940","co38404","norming","","","{""guess"":""bird""}","","../img/tt/091tt.jpg","",""
"null","../img/gs/091gs.jpg","null","reveal","image-keyboard-response","73","371268","0.0-6.0-4.9","2644940","co38404","norming","","","","","","",""
"null","../img/tt/091tt.jpg","null","mooney2","image-keyboard-response","74","373253","0.0-6.0-5.9","2644940","co38404","norming","","","","","","",""
"1770.7999999999883","","","post_reveal_questions","survey-likert","75","375028","0.0-6.0-6.9","2644940","co38404","norming","","","{""aha"":1}","[0]","../img/tt/091tt.jpg","",""
"null","<div style=""font-size:60px;""> </div>","null","fixation","html-keyboard-response","76","375236","0.0-6.0-0.10","2644940","co38404","norming","","","","","","",""
"null","../img/tt/416tt.jpg","null","mooney1","image-keyboard-response","77","378253","0.0-6.0-1.10","2644940","co38404","norming","","","","","","",""
"5278","","","post_mooney1_questions","survey-likert","78","383537","0.0-6.0-2.10","2644940","co38404","norming","","","{""curiosity"":6,""confidence"":1}","[0,1]","../img/tt/416tt.jpg","",""
"5449.299999999988","","","recognition","survey-text","79","388990","0.0-6.0-3.10","2644940","co38404","norming","","","{""guess"":""struisvogel""}","","../img/tt/416tt.jpg","",""
"null","../img/gs/416gs.jpg","null","reveal","image-keyboard-response","80","391007","0.0-6.0-4.10","2644940","co38404","norming","","","","","","",""
"null","../img/tt/416tt.jpg","null","mooney2","image-keyboard-response","81","393004","0.0-6.0-5.10","2644940","co38404","norming","","","","","","",""
"3335.7999999999883","","","post_reveal_questions","survey-likert","82","396342","0.0-6.0-6.10","2644940","co38404","norming","","","{""aha"":2}","[0]","../img/tt/416tt.jpg","",""
"null","<div style=""font-size:60px;""> </div>","null","fixation","html-keyboard-response","83","396555","0.0-6.0-0.11","2644940","co38404","norming","","","","","","",""
"null","../img/tt/477tt.jpg","null","mooney1","image-keyboard-response","84","399572","0.0-6.0-1.11","2644940","co38404","norming","","","","","","",""
"7935.700000000012","","","post_mooney1_questions","survey-likert","85","407512","0.0-6.0-2.11","2644940","co38404","norming","","","{""curiosity"":6,""confidence"":5}","[0,1]","../img/tt/477tt.jpg","",""
"7745.399999999965","","","recognition","survey-text","86","415263","0.0-6.0-3.11","2644940","co38404","norming","","","{""guess"":""fishbowl""}","","../img/tt/477tt.jpg","",""
"null","../img/gs/477gs.jpg","null","reveal","image-keyboard-response","87","417279","0.0-6.0-4.11","2644940","co38404","norming","","","","","","",""
"null","../img/tt/477tt.jpg","null","mooney2","image-keyboard-response","88","419263","0.0-6.0-5.11","2644940","co38404","norming","","","","","","",""
"1996.5","","","post_reveal_questions","survey-likert","89","421262","0.0-6.0-6.11","2644940","co38404","norming","","","{""aha"":1}","[0]","../img/tt/477tt.jpg","",""
"null","<div style=""font-size:60px;""> </div>","null","fixation","html-keyboard-response","90","421472","0.0-6.0-0.12","2644940","co38404","norming","","","","","","",""
"null","../img/tt/1243tt.jpg","null","mooney1","image-keyboard-response","91","424486","0.0-6.0-1.12","2644940","co38404","norming","","","","","","",""
"4098.600000000035","","","post_mooney1_questions","survey-likert","92","428591","0.0-6.0-2.12","2644940","co38404","norming","","","{""curiosity"":6,""confidence"":5}","[0,1]","../img/tt/1243tt.jpg","",""
"3269","","","recognition","survey-text","93","431864","0.0-6.0-3.12","2644940","co38404","norming","","","{""guess"":""monkey""}","","../img/tt/1243tt.jpg","",""
"null","../img/gs/1243gs.jpg","null","reveal","image-keyboard-response","94","433864","0.0-6.0-4.12","2644940","co38404","norming","","","","","","",""
"null","../img/tt/1243tt.jpg","null","mooney2","image-keyboard-response","95","435879","0.0-6.0-5.12","2644940","co38404","norming","","","","","","",""
"1983.399999999965","","","post_reveal_questions","survey-likert","96","437865","0.0-6.0-6.12","2644940","co38404","norming","","","{""aha"":2}","[0]","../img/tt/1243tt.jpg","",""
"null","<div style=""font-size:60px;""> </div>","null","fixation","html-keyboard-response","97","438083","0.0-6.0-0.13","2644940","co38404","norming","","","","","","",""
"null","../img/tt/1033tt.jpg","null","mooney1","image-keyboard-response","98","441114","0.0-6.0-1.13","2644940","co38404","norming","","","","","","",""
"5420","","","post_mooney1_questions","survey-likert","99","446537","0.0-6.0-2.13","2644940","co38404","norming","","","{""curiosity"":6,""confidence"":2}","[0,1]","../img/tt/1033tt.jpg","",""
"3073.7000000000116","","","recognition","survey-text","100","449615","0.0-6.0-3.13","2644940","co38404","norming","","","{""guess"":""arrow""}","","../img/tt/1033tt.jpg","",""
"null","../img/gs/1033gs.jpg","null","reveal","image-keyboard-response","101","451633","0.0-6.0-4.13","2644940","co38404","norming","","","","","","",""
"null","../img/tt/1033tt.jpg","null","mooney2","image-keyboard-response","102","453632","0.0-6.0-5.13","2644940","co38404","norming","","","","","","",""
"4041.7999999999883","","","post_reveal_questions","survey-likert","103","457677","0.0-6.0-6.13","2644940","co38404","norming","","","{""aha"":5}","[0]","../img/tt/1033tt.jpg","",""
"null","<div style=""font-size:60px;""> </div>","null","fixation","html-keyboard-response","104","457883","0.0-6.0-0.14","2644940","co38404","norming","","","","","","",""
"null","../img/tt/507tt.jpg","null","mooney1","image-keyboard-response","105","460900","0.0-6.0-1.14","2644940","co38404","norming","","","","","","",""
"3374.2000000000116","","","post_mooney1_questions","survey-likert","106","464279","0.0-6.0-2.14","2644940","co38404","norming","","","{""curiosity"":6,""confidence"":5}","[0,1]","../img/tt/507tt.jpg","",""
"3651.5","","","recognition","survey-text","107","467935","0.0-6.0-3.14","2644940","co38404","norming","","","{""guess"":""teacher""}","","../img/tt/507tt.jpg","",""
"null","../img/gs/507gs.jpg","null","reveal","image-keyboard-response","108","469935","0.0-6.0-4.14","2644940","co38404","norming","","","","","","",""
"null","../img/tt/507tt.jpg","null","mooney2","image-keyboard-response","109","471950","0.0-6.0-5.14","2644940","co38404","norming","","","","","","",""
"1767.4000000000232","","","post_reveal_questions","survey-likert","110","473722","0.0-6.0-6.14","2644940","co38404","norming","","","{""aha"":1}","[0]","../img/tt/507tt.jpg","",""
"null","<div style=""font-size:60px;""> </div>","null","fixation","html-keyboard-response","111","473935","0.0-6.0-0.15","2644940","co38404","norming","","","","","","",""
"null","../img/tt/380tt.jpg","null","mooney1","image-keyboard-response","112","476951","0.0-6.0-1.15","2644940","co38404","norming","","","","","","",""
"3728","","","post_mooney1_questions","survey-likert","113","480685","0.0-6.0-2.15","2644940","co38404","norming","","","{""curiosity"":6,""confidence"":1}","[0,1]","../img/tt/380tt.jpg","",""
"16068.299999999988","","","recognition","survey-text","114","496758","0.0-6.0-3.15","2644940","co38404","norming","","","{""guess"":""handeling""}","","../img/tt/380tt.jpg","",""
"null","../img/gs/380gs.jpg","null","reveal","image-keyboard-response","115","498770","0.0-6.0-4.15","2644940","co38404","norming","","","","","","",""
"null","../img/tt/380tt.jpg","null","mooney2","image-keyboard-response","116","500770","0.0-6.0-5.15","2644940","co38404","norming","","","","","","",""
"1515.9000000000232","","","post_reveal_questions","survey-likert","117","502288","0.0-6.0-6.15","2644940","co38404","norming","","","{""aha"":0}","[0]","../img/tt/380tt.jpg","",""
"null","<div style=""font-size:60px;""> </div>","null","fixation","html-keyboard-response","118","502505","0.0-6.0-0.16","2644940","co38404","norming","","","","","","",""
"null","../img/tt/1227tt.jpg","null","mooney1","image-keyboard-response","119","505537","0.0-6.0-1.16","2644940","co38404","norming","","","","","","",""
"6241.200000000012","","","post_mooney1_questions","survey-likert","120","511780","0.0-6.0-2.16","2644940","co38404","norming","","","{""curiosity"":6,""confidence"":0}","[0,1]","../img/tt/1227tt.jpg","",""
"1315.6999999999534","","","recognition","survey-text","121","513100","0.0-6.0-3.16","2644940","co38404","norming","","","{""guess"":"" ""}","","../img/tt/1227tt.jpg","",""
"null","../img/gs/1227gs.jpg","null","reveal","image-keyboard-response","122","515101","0.0-6.0-4.16","2644940","co38404","norming","","","","","","",""
"null","../img/tt/1227tt.jpg","null","mooney2","image-keyboard-response","123","517116","0.0-6.0-5.16","2644940","co38404","norming","","","","","","",""
"1413","","","post_reveal_questions","survey-likert","124","518532","0.0-6.0-6.16","2644940","co38404","norming","","","{""aha"":0}","[0]","../img/tt/1227tt.jpg","",""
"null","<div style=""font-size:60px;""> </div>","null","fixation","html-keyboard-response","125","518758","0.0-6.0-0.17","2644940","co38404","norming","","","","","","",""
"null","../img/tt/524tt.jpg","null","mooney1","image-keyboard-response","126","521759","0.0-6.0-1.17","2644940","co38404","norming","","","","","","",""
"3642.9000000000233","","","post_mooney1_questions","survey-likert","127","525406","0.0-6.0-2.17","2644940","co38404","norming","","","{""curiosity"":6,""confidence"":2}","[0,1]","../img/tt/524tt.jpg","",""
"2581.1999999999534","","","recognition","survey-text","128","527993","0.0-6.0-3.17","2644940","co38404","norming","","","{""guess"":""koe""}","","../img/tt/524tt.jpg","",""
"null","../img/gs/524gs.jpg","null","reveal","image-keyboard-response","129","530010","0.0-6.0-4.17","2644940","co38404","norming","","","","","","",""
"null","../img/tt/524tt.jpg","null","mooney2","image-keyboard-response","130","532011","0.0-6.0-5.17","2644940","co38404","norming","","","","","","",""
"1679.3000000000465","","","post_reveal_questions","survey-likert","131","533694","0.0-6.0-6.17","2644940","co38404","norming","","","{""aha"":0}","[0]","../img/tt/524tt.jpg","",""
"null","<div style=""font-size:60px;""> </div>","null","fixation","html-keyboard-response","132","533902","0.0-6.0-0.18","2644940","co38404","norming","","","","","","",""
"null","../img/tt/1362tt.jpg","null","mooney1","image-keyboard-response","133","536918","0.0-6.0-1.18","2644940","co38404","norming","","","","","","",""
"3928.20000000007","","","post_mooney1_questions","survey-likert","134","540850","0.0-6.0-2.18","2644940","co38404","norming","","","{""curiosity"":6,""confidence"":1}","[0,1]","../img/tt/1362tt.jpg","",""
"10910.099999999976","","","recognition","survey-text","135","551765","0.0-6.0-3.18","2644940","co38404","norming","","","{""guess"":""camera equipment""}","","../img/tt/1362tt.jpg","",""
"null","../img/gs/1362gs.jpg","null","reveal","image-keyboard-response","136","553790","0.0-6.0-4.18","2644940","co38404","norming","","","","","","",""
"null","../img/tt/1362tt.jpg","null","mooney2","image-keyboard-response","137","555776","0.0-6.0-5.18","2644940","co38404","norming","","","","","","",""
"2390.4000000000233","","","post_reveal_questions","survey-likert","138","558170","0.0-6.0-6.18","2644940","co38404","norming","","","{""aha"":1}","[0]","../img/tt/1362tt.jpg","",""
"null","<div style=""font-size:60px;""> </div>","null","fixation","html-keyboard-response","139","558400","0.0-6.0-0.19","2644940","co38404","norming","","","","","","",""
"null","../img/tt/1175tt.jpg","null","mooney1","image-keyboard-response","140","561410","0.0-6.0-1.19","2644940","co38404","norming","","","","","","",""
"2795.6999999999534","","","post_mooney1_questions","survey-likert","141","564211","0.0-6.0-2.19","2644940","co38404","norming","","","{""curiosity"":6,""confidence"":2}","[0,1]","../img/tt/1175tt.jpg","",""
"4337.79999999993","","","recognition","survey-text","142","568553","0.0-6.0-3.19","2644940","co38404","norming","","","{""guess"":""a crowd""}","","../img/tt/1175tt.jpg","",""
"null","../img/gs/1175gs.jpg","null","reveal","image-keyboard-response","143","570560","0.0-6.0-4.19","2644940","co38404","norming","","","","","","",""
"null","../img/tt/1175tt.jpg","null","mooney2","image-keyboard-response","144","572562","0.0-6.0-5.19","2644940","co38404","norming","","","","","","",""
"1620.4000000000232","","","post_reveal_questions","survey-likert","145","574186","0.0-6.0-6.19","2644940","co38404","norming","","","{""aha"":5}","[0]","../img/tt/1175tt.jpg","",""
"null","<div style=""font-size:60px;""> </div>","null","fixation","html-keyboard-response","146","574390","0.0-6.0-0.20","2644940","co38404","norming","","","","","","",""
"null","../img/tt/435tt.jpg","null","mooney1","image-keyboard-response","147","577405","0.0-6.0-1.20","2644940","co38404","norming","","","","","","",""
"8338.300000000046","","","post_mooney1_questions","survey-likert","148","585748","0.0-6.0-2.20","2644940","co38404","norming","","","{""curiosity"":6,""confidence"":1}","[0,1]","../img/tt/435tt.jpg","",""
"1866.3000000000465","","","recognition","survey-text","149","587619","0.0-6.0-3.20","2644940","co38404","norming","","","{""guess"":""house""}","","../img/tt/435tt.jpg","",""
"null","../img/gs/435gs.jpg","null","reveal","image-keyboard-response","150","589626","0.0-6.0-4.20","2644940","co38404","norming","","","","","","",""
"null","../img/tt/435tt.jpg","null","mooney2","image-keyboard-response","151","591626","0.0-6.0-5.20","2644940","co38404","norming","","","","","","",""
"1867.3000000000465","","","post_reveal_questions","survey-likert","152","593498","0.0-6.0-6.20","2644940","co38404","norming","","","{""aha"":0}","[0]","../img/tt/435tt.jpg","",""
"null","<div style=""font-size:60px;""> </div>","null","fixation","html-keyboard-response","153","593705","0.0-6.0-0.21","2644940","co38404","norming","","","","","","",""
"null","../img/tt/055tt.jpg","null","mooney1","image-keyboard-response","154","596722","0.0-6.0-1.21","2644940","co38404","norming","","","","","","",""
"3092.5999999999767","","","post_mooney1_questions","survey-likert","155","599818","0.0-6.0-2.21","2644940","co38404","norming","","","{""curiosity"":6,""confidence"":0}","[0,1]","../img/tt/055tt.jpg","",""
"1307.2999999999301","","","recognition","survey-text","156","601131","0.0-6.0-3.21","2644940","co38404","norming","","","{""guess"":"" ""}","","../img/tt/055tt.jpg","",""
"null","../img/gs/055gs.jpg","null","reveal","image-keyboard-response","157","603131","0.0-6.0-4.21","2644940","co38404","norming","","","","","","",""
"null","../img/tt/055tt.jpg","null","mooney2","image-keyboard-response","158","605160","0.0-6.0-5.21","2644940","co38404","norming","","","","","","",""
"2593.3000000000465","","","post_reveal_questions","survey-likert","159","607756","0.0-6.0-6.21","2644940","co38404","norming","","","{""aha"":0}","[0]","../img/tt/055tt.jpg","",""
"null","<div style=""font-size:60px;""> </div>","null","fixation","html-keyboard-response","160","607973","0.0-6.0-0.22","2644940","co38404","norming","","","","","","",""
"null","../img/tt/040tt.jpg","null","mooney1","image-keyboard-response","161","610990","0.0-6.0-1.22","2644940","co38404","norming","","","","","","",""
"4073.1999999999534","","","post_mooney1_questions","survey-likert","162","615068","0.0-6.0-2.22","2644940","co38404","norming","","","{""curiosity"":6,""confidence"":4}","[0,1]","../img/tt/040tt.jpg","",""
"1866","","","recognition","survey-text","163","616939","0.0-6.0-3.22","2644940","co38404","norming","","","{""guess"":""sport""}","","../img/tt/040tt.jpg","",""
"null","../img/gs/040gs.jpg","null","reveal","image-keyboard-response","164","618947","0.0-6.0-4.22","2644940","co38404","norming","","","","","","",""
"null","../img/tt/040tt.jpg","null","mooney2","image-keyboard-response","165","620944","0.0-6.0-5.22","2644940","co38404","norming","","","","","","",""
"2829.20000000007","","","post_reveal_questions","survey-likert","166","623777","0.0-6.0-6.22","2644940","co38404","norming","","","{""aha"":0}","[0]","../img/tt/040tt.jpg","",""
"null","<div style=""font-size:60px;""> </div>","null","fixation","html-keyboard-response","167","624013","0.0-6.0-0.23","2644940","co38404","norming","","","","","","",""
"null","../img/tt/1143tt.jpg","null","mooney1","image-keyboard-response","168","627025","0.0-6.0-1.23","2644940","co38404","norming","","","","","","",""
"3484.9000000000233","","","post_mooney1_questions","survey-likert","169","630512","0.0-6.0-2.23","2644940","co38404","norming","","","{""curiosity"":6,""confidence"":1}","[0,1]","../img/tt/1143tt.jpg","",""
"3494","","","recognition","survey-text","170","634012","0.0-6.0-3.23","2644940","co38404","norming","","","{""guess"":""bowling""}","","../img/tt/1143tt.jpg","",""
"null","../img/gs/1143gs.jpg","null","reveal","image-keyboard-response","171","636042","0.0-6.0-4.23","2644940","co38404","norming","","","","","","",""
"null","../img/tt/1143tt.jpg","null","mooney2","image-keyboard-response","172","638026","0.0-6.0-5.23","2644940","co38404","norming","","","","","","",""
"2700.9000000000233","","","post_reveal_questions","survey-likert","173","640732","0.0-6.0-6.23","2644940","co38404","norming","","","{""aha"":2}","[0]","../img/tt/1143tt.jpg","",""
"null","<div style=""font-size:60px;""> </div>","null","fixation","html-keyboard-response","174","640949","0.0-6.0-0.24","2644940","co38404","norming","","","","","","",""
"null","../img/tt/584tt.jpg","null","mooney1","image-keyboard-response","175","643961","0.0-6.0-1.24","2644940","co38404","norming","","","","","","",""
"4534.100000000093","","","post_mooney1_questions","survey-likert","176","648497","0.0-6.0-2.24","2644940","co38404","norming","","","{""curiosity"":6,""confidence"":0}","[0,1]","../img/tt/584tt.jpg","",""
"627","","","recognition","survey-text","177","649130","0.0-6.0-3.24","2644940","co38404","norming","","","{""guess"":""""}","","../img/tt/584tt.jpg","",""
"null","../img/gs/584gs.jpg","null","reveal","image-keyboard-response","178","651139","0.0-6.0-4.24","2644940","co38404","norming","","","","","","",""
"null","../img/tt/584tt.jpg","null","mooney2","image-keyboard-response","179","653155","0.0-6.0-5.24","2644940","co38404","norming","","","","","","",""
"1774.1999999999534","","","post_reveal_questions","survey-likert","180","654934","0.0-6.0-6.24","2644940","co38404","norming","","","{""aha"":0}","[0]","../img/tt/584tt.jpg","",""
"null","<div style=""font-size:60px;""> </div>","null","fixation","html-keyboard-response","181","655140","0.0-6.0-0.25","2644940","co38404","norming","","","","","","",""
"null","../img/tt/1097tt.jpg","null","mooney1","image-keyboard-response","182","658145","0.0-6.0-1.25","2644940","co38404","norming","","","","","","",""
"3416.5999999999767","","","post_mooney1_questions","survey-likert","183","661567","0.0-6.0-2.25","2644940","co38404","norming","","","{""curiosity"":6,""confidence"":5}","[0,1]","../img/tt/1097tt.jpg","",""
"5251.699999999953","","","recognition","survey-text","184","666824","0.0-6.0-3.25","2644940","co38404","norming","","","{""guess"":""field woman""}","","../img/tt/1097tt.jpg","",""
"null","../img/gs/1097gs.jpg","null","reveal","image-keyboard-response","185","668830","0.0-6.0-4.25","2644940","co38404","norming","","","","","","",""
"null","../img/tt/1097tt.jpg","null","mooney2","image-keyboard-response","186","670847","0.0-6.0-5.25","2644940","co38404","norming","","","","","","",""
"2792.5999999999767","","","post_reveal_questions","survey-likert","187","673644","0.0-6.0-6.25","2644940","co38404","norming","","","{""aha"":6}","[0]","../img/tt/1097tt.jpg","",""
"null","<div style=""font-size:60px;""> </div>","null","fixation","html-keyboard-response","188","673848","0.0-6.0-0.26","2644940","co38404","norming","","","","","","",""
"null","../img/tt/1278tt.jpg","null","mooney1","image-keyboard-response","189","676880","0.0-6.0-1.26","2644940","co38404","norming","","","","","","",""
"4283.599999999977","","","post_mooney1_questions","survey-likert","190","681169","0.0-6.0-2.26","2644940","co38404","norming","","","{""curiosity"":6,""confidence"":0}","[0,1]","../img/tt/1278tt.jpg","",""
"959.5","","","recognition","survey-text","191","682137","0.0-6.0-3.26","2644940","co38404","norming","","","{""guess"":"" ""}","","../img/tt/1278tt.jpg","",""
"null","../img/gs/1278gs.jpg","null","reveal","image-keyboard-response","192","684148","0.0-6.0-4.26","2644940","co38404","norming","","","","","","",""
"null","../img/tt/1278tt.jpg","null","mooney2","image-keyboard-response","193","686145","0.0-6.0-5.26","2644940","co38404","norming","","","","","","",""
"1727.8999999999068","","","post_reveal_questions","survey-likert","194","687878","0.0-6.0-6.26","2644940","co38404","norming","","","{""aha"":0}","[0]","../img/tt/1278tt.jpg","",""
"null","<div style=""font-size:60px;""> </div>","null","fixation","html-keyboard-response","195","688086","0.0-6.0-0.27","2644940","co38404","norming","","","","","","",""
"null","../img/tt/300tt.jpg","null","mooney1","image-keyboard-response","196","691102","0.0-6.0-1.27","2644940","co38404","norming","","","","","","",""
"3271.100000000093","","","post_mooney1_questions","survey-likert","197","694378","0.0-6.0-2.27","2644940","co38404","norming","","","{""curiosity"":6,""confidence"":4}","[0,1]","../img/tt/300tt.jpg","",""
"7305","","","recognition","survey-text","198","701691","0.0-6.0-3.27","2644940","co38404","norming","","","{""guess"":""sports bench""}","","../img/tt/300tt.jpg","",""
"null","../img/gs/300gs.jpg","null","reveal","image-keyboard-response","199","703699","0.0-6.0-4.27","2644940","co38404","norming","","","","","","",""
"null","../img/tt/300tt.jpg","null","mooney2","image-keyboard-response","200","705699","0.0-6.0-5.27","2644940","co38404","norming","","","","","","",""
"1456.6999999999534","","","post_reveal_questions","survey-likert","201","707160","0.0-6.0-6.27","2644940","co38404","norming","","","{""aha"":5}","[0]","../img/tt/300tt.jpg","",""
"null","<div style=""font-size:60px;""> </div>","null","fixation","html-keyboard-response","202","707371","0.0-6.0-0.28","2644940","co38404","norming","","","","","","",""
"null","../img/tt/044tt.jpg","null","mooney1","image-keyboard-response","203","710373","0.0-6.0-1.28","2644940","co38404","norming","","","","","","",""
"4250.800000000047","","","post_mooney1_questions","survey-likert","204","714628","0.0-6.0-2.28","2644940","co38404","norming","","","{""curiosity"":6,""confidence"":4}","[0,1]","../img/tt/044tt.jpg","",""
"3520","","","recognition","survey-text","205","718153","0.0-6.0-3.28","2644940","co38404","norming","","","{""guess"":""piano""}","","../img/tt/044tt.jpg","",""
"null","../img/gs/044gs.jpg","null","reveal","image-keyboard-response","206","720180","0.0-6.0-4.28","2644940","co38404","norming","","","","","","",""
"null","../img/tt/044tt.jpg","null","mooney2","image-keyboard-response","207","722163","0.0-6.0-5.28","2644940","co38404","norming","","","","","","",""
"2069.5999999999767","","","post_reveal_questions","survey-likert","208","724238","0.0-6.0-6.28","2644940","co38404","norming","","","{""aha"":1}","[0]","../img/tt/044tt.jpg","",""
"null","<div style=""font-size:60px;""> </div>","null","fixation","html-keyboard-response","209","724468","0.0-6.0-0.29","2644940","co38404","norming","","","","","","",""
"null","../img/tt/1027tt.jpg","null","mooney1","image-keyboard-response","210","727484","0.0-6.0-1.29","2644940","co38404","norming","","","","","","",""
"14819.79999999993","","","post_mooney1_questions","survey-likert","211","742310","0.0-6.0-2.29","2644940","co38404","norming","","","{""curiosity"":6,""confidence"":0}","[0,1]","../img/tt/1027tt.jpg","",""
"867.4000000000233","","","recognition","survey-text","212","743183","0.0-6.0-3.29","2644940","co38404","norming","","","{""guess"":""""}","","../img/tt/1027tt.jpg","",""
"null","../img/gs/1027gs.jpg","null","reveal","image-keyboard-response","213","745191","0.0-6.0-4.29","2644940","co38404","norming","","","","","","",""
"null","../img/tt/1027tt.jpg","null","mooney2","image-keyboard-response","214","747191","0.0-6.0-5.29","2644940","co38404","norming","","","","","","",""
"1885.9000000000232","","","post_reveal_questions","survey-likert","215","749088","0.0-6.0-6.29","2644940","co38404","norming","","","{""aha"":0}","[0]","../img/tt/1027tt.jpg","",""
"null","<div style=""font-size:60px;""> </div>","null","fixation","html-keyboard-response","216","749301","0.0-6.0-0.30","2644940","co38404","norming","","","","","","",""
"null","../img/tt/358tt.jpg","null","mooney1","image-keyboard-response","217","752317","0.0-6.0-1.30","2644940","co38404","norming","","","","","","",""
"2721.5","","","post_mooney1_questions","survey-likert","218","755044","0.0-6.0-2.30","2644940","co38404","norming","","","{""curiosity"":6,""confidence"":5}","[0,1]","../img/tt/358tt.jpg","",""
"3064.5999999999767","","","recognition","survey-text","219","758114","0.0-6.0-3.30","2644940","co38404","norming","","","{""guess"":""hond""}","","../img/tt/358tt.jpg","",""
"null","../img/gs/358gs.jpg","null","reveal","image-keyboard-response","220","760147","0.0-6.0-4.30","2644940","co38404","norming","","","","","","",""
"null","../img/tt/358tt.jpg","null","mooney2","image-keyboard-response","221","762131","0.0-6.0-5.30","2644940","co38404","norming","","","","","","",""
"1891.5","","","post_reveal_questions","survey-likert","222","764028","0.0-6.0-6.30","2644940","co38404","norming","","","{""aha"":5}","[0]","../img/tt/358tt.jpg","",""
"null","<div style=""font-size:60px;""> </div>","null","fixation","html-keyboard-response","223","764256","0.0-6.0-0.31","2644940","co38404","norming","","","","","","",""
"null","../img/tt/440tt.jpg","null","mooney1","image-keyboard-response","224","767272","0.0-6.0-1.31","2644940","co38404","norming","","","","","","",""
"3178.6999999999534","","","post_mooney1_questions","survey-likert","225","770457","0.0-6.0-2.31","2644940","co38404","norming","","","{""curiosity"":6,""confidence"":4}","[0,1]","../img/tt/440tt.jpg","",""
"5306.900000000023","","","recognition","survey-text","226","775769","0.0-6.0-3.31","2644940","co38404","norming","","","{""guess"":""hek""}","","../img/tt/440tt.jpg","",""
"null","../img/gs/440gs.jpg","null","reveal","image-keyboard-response","227","777780","0.0-6.0-4.31","2644940","co38404","norming","","","","","","",""
"null","../img/tt/440tt.jpg","null","mooney2","image-keyboard-response","228","779782","0.0-6.0-5.31","2644940","co38404","norming","","","","","","",""
"1454.1999999999534","","","post_reveal_questions","survey-likert","229","781245","0.0-6.0-6.31","2644940","co38404","norming","","","{""aha"":5}","[0]","../img/tt/440tt.jpg","",""
"null","<div style=""font-size:60px;""> </div>","null","fixation","html-keyboard-response","230","781452","0.0-6.0-0.32","2644940","co38404","norming","","","","","","",""
"null","../img/tt/1171tt.jpg","null","mooney1","image-keyboard-response","231","784484","0.0-6.0-1.32","2644940","co38404","norming","","","","","","",""
"4965.29999999993","","","post_mooney1_questions","survey-likert","232","789455","0.0-6.0-2.32","2644940","co38404","norming","","","{""curiosity"":6,""confidence"":1}","[0,1]","../img/tt/1171tt.jpg","",""
"17839.800000000046","","","recognition","survey-text","233","807299","0.0-6.0-3.32","2644940","co38404","norming","","","{""guess"":""tree""}","","../img/tt/1171tt.jpg","",""
"null","../img/gs/1171gs.jpg","null","reveal","image-keyboard-response","234","809318","0.0-6.0-4.32","2644940","co38404","norming","","","","","","",""
"null","../img/tt/1171tt.jpg","null","mooney2","image-keyboard-response","235","811302","0.0-6.0-5.32","2644940","co38404","norming","","","","","","",""
"2514.4000000000233","","","post_reveal_questions","survey-likert","236","813822","0.0-6.0-6.32","2644940","co38404","norming","","","{""aha"":4}","[0]","../img/tt/1171tt.jpg","",""
"null","<div style=""font-size:60px;""> </div>","null","fixation","html-keyboard-response","237","814038","0.0-6.0-0.33","2644940","co38404","norming","","","","","","",""
"null","../img/tt/163tt.jpg","null","mooney1","image-keyboard-response","238","817054","0.0-6.0-1.33","2644940","co38404","norming","","","","","","",""
"3019.20000000007","","","post_mooney1_questions","survey-likert","239","820079","0.0-6.0-2.33","2644940","co38404","norming","","","{""curiosity"":6,""confidence"":0}","[0,1]","../img/tt/163tt.jpg","",""
"1120.9000000000232","","","recognition","survey-text","240","821204","0.0-6.0-3.33","2644940","co38404","norming","","","{""guess"":""""}","","../img/tt/163tt.jpg","",""
"null","../img/gs/163gs.jpg","null","reveal","image-keyboard-response","241","823226","0.0-6.0-4.33","2644940","co38404","norming","","","","","","",""
"null","../img/tt/163tt.jpg","null","mooney2","image-keyboard-response","242","825215","0.0-6.0-5.33","2644940","co38404","norming","","","","","","",""
"4078","","","post_reveal_questions","survey-likert","243","829298","0.0-6.0-6.33","2644940","co38404","norming","","","{""aha"":1}","[0]","../img/tt/163tt.jpg","",""
"null","<div style=""font-size:60px;""> </div>","null","fixation","html-keyboard-response","244","829509","0.0-6.0-0.34","2644940","co38404","norming","","","","","","",""
"null","../img/tt/020tt.jpg","null","mooney1","image-keyboard-response","245","832516","0.0-6.0-1.34","2644940","co38404","norming","","","","","","",""
"4543.400000000023","","","post_mooney1_questions","survey-likert","246","837064","0.0-6.0-2.34","2644940","co38404","norming","","","{""curiosity"":6,""confidence"":5}","[0,1]","../img/tt/020tt.jpg","",""
"2038.2999999999301","","","recognition","survey-text","247","839108","0.0-6.0-3.34","2644940","co38404","norming","","","{""guess"":""man""}","","../img/tt/020tt.jpg","",""
"null","../img/gs/020gs.jpg","null","reveal","image-keyboard-response","248","841122","0.0-6.0-4.34","2644940","co38404","norming","","","","","","",""
"null","../img/tt/020tt.jpg","null","mooney2","image-keyboard-response","249","843122","0.0-6.0-5.34","2644940","co38404","norming","","","","","","",""
"1603","","","post_reveal_questions","survey-likert","250","844730","0.0-6.0-6.34","2644940","co38404","norming","","","{""aha"":0}","[0]","../img/tt/020tt.jpg","",""
"null","<div style=""font-size:60px;""> </div>","null","fixation","html-keyboard-response","251","844935","0.0-6.0-0.35","2644940","co38404","norming","","","","","","",""
"null","../img/tt/1069tt.jpg","null","mooney1","image-keyboard-response","252","847951","0.0-6.0-1.35","2644940","co38404","norming","","","","","","",""
"2802","","","post_mooney1_questions","survey-likert","253","850758","0.0-6.0-2.35","2644940","co38404","norming","","","{""curiosity"":6,""confidence"":5}","[0,1]","../img/tt/1069tt.jpg","",""
"3291.79999999993","","","recognition","survey-text","254","854055","0.0-6.0-3.35","2644940","co38404","norming","","","{""guess"":""children""}","","../img/tt/1069tt.jpg","",""
"null","../img/gs/1069gs.jpg","null","reveal","image-keyboard-response","255","856077","0.0-6.0-4.35","2644940","co38404","norming","","","","","","",""
"null","../img/tt/1069tt.jpg","null","mooney2","image-keyboard-response","256","858063","0.0-6.0-5.35","2644940","co38404","norming","","","","","","",""
"2087.9000000000233","","","post_reveal_questions","survey-likert","257","860156","0.0-6.0-6.35","2644940","co38404","norming","","","{""aha"":0}","[0]","../img/tt/1069tt.jpg","",""
"null","<div style=""font-size:60px;""> </div>","null","fixation","html-keyboard-response","258","860363","0.0-6.0-0.36","2644940","co38404","norming","","","","","","",""
"null","../img/tt/1235tt.jpg","null","mooney1","image-keyboard-response","259","863378","0.0-6.0-1.36","2644940","co38404","norming","","","","","","",""
"3280.3000000000465","","","post_mooney1_questions","survey-likert","260","866664","0.0-6.0-2.36","2644940","co38404","norming","","","{""curiosity"":6,""confidence"":5}","[0,1]","../img/tt/1235tt.jpg","",""
"3127.8000000000465","","","recognition","survey-text","261","869797","0.0-6.0-3.36","2644940","co38404","norming","","","{""guess"":""snake""}","","../img/tt/1235tt.jpg","",""
"null","../img/gs/1235gs.jpg","null","reveal","image-keyboard-response","262","871805","0.0-6.0-4.36","2644940","co38404","norming","","","","","","",""
"null","../img/tt/1235tt.jpg","null","mooney2","image-keyboard-response","263","873804","0.0-6.0-5.36","2644940","co38404","norming","","","","","","",""
"2167.0999999999767","","","post_reveal_questions","survey-likert","264","875976","0.0-6.0-6.36","2644940","co38404","norming","","","{""aha"":1}","[0]","../img/tt/1235tt.jpg","",""
"null","<div style=""font-size:60px;""> </div>","null","fixation","html-keyboard-response","265","876183","0.0-6.0-0.37","2644940","co38404","norming","","","","","","",""
"null","../img/tt/096tt.jpg","null","mooney1","image-keyboard-response","266","879196","0.0-6.0-1.37","2644940","co38404","norming","","","","","","",""
"5008.599999999977","","","post_mooney1_questions","survey-likert","267","884210","0.0-6.0-2.37","2644940","co38404","norming","","","{""curiosity"":6,""confidence"":1}","[0,1]","../img/tt/096tt.jpg","",""
"13979.300000000046","","","recognition","survey-text","268","898195","0.0-6.0-3.37","2644940","co38404","norming","","","{""guess"":""strijkijzer ""}","","../img/tt/096tt.jpg","",""
"null","../img/gs/096gs.jpg","null","reveal","image-keyboard-response","269","900202","0.0-6.0-4.37","2644940","co38404","norming","","","","","","",""
"null","../img/tt/096tt.jpg","null","mooney2","image-keyboard-response","270","902201","0.0-6.0-5.37","2644940","co38404","norming","","","","","","",""
"1606.4000000000232","","","post_reveal_questions","survey-likert","271","903811","0.0-6.0-6.37","2644940","co38404","norming","","","{""aha"":1}","[0]","../img/tt/096tt.jpg","",""
"null","<div style=""font-size:60px;""> </div>","null","fixation","html-keyboard-response","272","904029","0.0-6.0-0.38","2644940","co38404","norming","","","","","","",""
"null","../img/tt/135tt.jpg","null","mooney1","image-keyboard-response","273","907060","0.0-6.0-1.38","2644940","co38404","norming","","","","","","",""
"2825.29999999993","","","post_mooney1_questions","survey-likert","274","909891","0.0-6.0-2.38","2644940","co38404","norming","","","{""curiosity"":6,""confidence"":5}","[0,1]","../img/tt/135tt.jpg","",""
"3330.9000000000233","","","recognition","survey-text","275","913226","0.0-6.0-3.38","2644940","co38404","norming","","","{""guess"":""eet bord""}","","../img/tt/135tt.jpg","",""
"null","../img/gs/135gs.jpg","null","reveal","image-keyboard-response","276","915235","0.0-6.0-4.38","2644940","co38404","norming","","","","","","",""
"null","../img/tt/135tt.jpg","null","mooney2","image-keyboard-response","277","917235","0.0-6.0-5.38","2644940","co38404","norming","","","","","","",""
"1595","","","post_reveal_questions","survey-likert","278","918834","0.0-6.0-6.38","2644940","co38404","norming","","","{""aha"":2}","[0]","../img/tt/135tt.jpg","",""
"null","<div style=""font-size:60px;""> </div>","null","fixation","html-keyboard-response","279","919047","0.0-6.0-0.39","2644940","co38404","norming","","","","","","",""
"null","../img/tt/1202tt.jpg","null","mooney1","image-keyboard-response","280","922052","0.0-6.0-1.39","2644940","co38404","norming","","","","","","",""
"5419.400000000023","","","post_mooney1_questions","survey-likert","281","927476","0.0-6.0-2.39","2644940","co38404","norming","","","{""curiosity"":6,""confidence"":2}","[0,1]","../img/tt/1202tt.jpg","",""
"3901.5","","","recognition","survey-text","282","931383","0.0-6.0-3.39","2644940","co38404","norming","","","{""guess"":""woman""}","","../img/tt/1202tt.jpg","",""
"null","../img/gs/1202gs.jpg","null","reveal","image-keyboard-response","283","933415","0.0-6.0-4.39","2644940","co38404","norming","","","","","","",""
"null","../img/tt/1202tt.jpg","null","mooney2","image-keyboard-response","284","935400","0.0-6.0-5.39","2644940","co38404","norming","","","","","","",""
"1757.5999999999767","","","post_reveal_questions","survey-likert","285","937162","0.0-6.0-6.39","2644940","co38404","norming","","","{""aha"":1}","[0]","../img/tt/1202tt.jpg","",""
"null","<div style=""font-size:60px;""> </div>","null","fixation","html-keyboard-response","286","937368","0.0-6.0-0.40","2644940","co38404","norming","","","","","","",""
"null","../img/tt/315tt.jpg","null","mooney1","image-keyboard-response","287","940400","0.0-6.0-1.40","2644940","co38404","norming","","","","","","",""
"3694.0999999999767","","","post_mooney1_questions","survey-likert","288","944100","0.0-6.0-2.40","2644940","co38404","norming","","","{""curiosity"":6,""confidence"":5}","[0,1]","../img/tt/315tt.jpg","",""
"7541","","","recognition","survey-text","289","951647","0.0-6.0-3.40","2644940","co38404","norming","","","{""guess"":""vogel""}","","../img/tt/315tt.jpg","",""
"null","../img/gs/315gs.jpg","null","reveal","image-keyboard-response","290","953655","0.0-6.0-4.40","2644940","co38404","norming","","","","","","",""
"null","../img/tt/315tt.jpg","null","mooney2","image-keyboard-response","291","955671","0.0-6.0-5.40","2644940","co38404","norming","","","","","","",""
"2620.6999999999534","","","post_reveal_questions","survey-likert","292","958296","0.0-6.0-6.40","2644940","co38404","norming","","","{""aha"":5}","[0]","../img/tt/315tt.jpg","",""
"null","<div style=""font-size:60px;""> </div>","null","fixation","html-keyboard-response","293","958500","0.0-6.0-0.41","2644940","co38404","norming","","","","","","",""
"null","../img/tt/1173tt.jpg","null","mooney1","image-keyboard-response","294","961516","0.0-6.0-1.41","2644940","co38404","norming","","","","","","",""
"3020.20000000007","","","post_mooney1_questions","survey-likert","295","964538","0.0-6.0-2.41","2644940","co38404","norming","","","{""curiosity"":6,""confidence"":5}","[0,1]","../img/tt/1173tt.jpg","",""
"4033.6999999999534","","","recognition","survey-text","296","968576","0.0-6.0-3.41","2644940","co38404","norming","","","{""guess"":""dragen""}","","../img/tt/1173tt.jpg","",""
"null","../img/gs/1173gs.jpg","null","reveal","image-keyboard-response","297","970596","0.0-6.0-4.41","2644940","co38404","norming","","","","","","",""
"null","../img/tt/1173tt.jpg","null","mooney2","image-keyboard-response","298","972580","0.0-6.0-5.41","2644940","co38404","norming","","","","","","",""
"1786.1999999999534","","","post_reveal_questions","survey-likert","299","974371","0.0-6.0-6.41","2644940","co38404","norming","","","{""aha"":1}","[0]","../img/tt/1173tt.jpg","",""
"null","<div style=""font-size:60px;""> </div>","null","fixation","html-keyboard-response","300","974581","0.0-6.0-0.42","2644940","co38404","norming","","","","","","",""
"null","../img/tt/1255tt.jpg","null","mooney1","image-keyboard-response","301","977612","0.0-6.0-1.42","2644940","co38404","norming","","","","","","",""
"2848.8000000000465","","","post_mooney1_questions","survey-likert","302","980466","0.0-6.0-2.42","2644940","co38404","norming","","","{""curiosity"":6,""confidence"":0}","[0,1]","../img/tt/1255tt.jpg","",""
"1206.7999999999301","","","recognition","survey-text","303","981679","0.0-6.0-3.42","2644940","co38404","norming","","","{""guess"":""""}","","../img/tt/1255tt.jpg","",""
"null","../img/gs/1255gs.jpg","null","reveal","image-keyboard-response","304","983702","0.0-6.0-4.42","2644940","co38404","norming","","","","","","",""
"null","../img/tt/1255tt.jpg","null","mooney2","image-keyboard-response","305","985692","0.0-6.0-5.42","2644940","co38404","norming","","","","","","",""
"1402.8000000000465","","","post_reveal_questions","survey-likert","306","987100","0.0-6.0-6.42","2644940","co38404","norming","","","{""aha"":0}","[0]","../img/tt/1255tt.jpg","",""
"null","<div style=""font-size:60px;""> </div>","null","fixation","html-keyboard-response","307","987348","0.0-6.0-0.43","2644940","co38404","norming","","","","","","",""
"null","../img/tt/405tt.jpg","null","mooney1","image-keyboard-response","308","990350","0.0-6.0-1.43","2644940","co38404","norming","","","","","","",""
"3642.79999999993","","","post_mooney1_questions","survey-likert","309","993998","0.0-6.0-2.43","2644940","co38404","norming","","","{""curiosity"":6,""confidence"":5}","[0,1]","../img/tt/405tt.jpg","",""
"2987.79999999993","","","recognition","survey-text","310","996991","0.0-6.0-3.43","2644940","co38404","norming","","","{""guess"":""koala""}","","../img/tt/405tt.jpg","",""
"null","../img/gs/405gs.jpg","null","reveal","image-keyboard-response","311","998993","0.0-6.0-4.43","2644940","co38404","norming","","","","","","",""
"null","../img/tt/405tt.jpg","null","mooney2","image-keyboard-response","312","1001008","0.0-6.0-5.43","2644940","co38404","norming","","","","","","",""
"4305","","","post_reveal_questions","survey-likert","313","1005318","0.0-6.0-6.43","2644940","co38404","norming","","","{""aha"":0}","[0]","../img/tt/405tt.jpg","",""
"null","<div style=""font-size:60px;""> </div>","null","fixation","html-keyboard-response","314","1005540","0.0-6.0-0.44","2644940","co38404","norming","","","","","","",""
"null","../img/tt/406tt.jpg","null","mooney1","image-keyboard-response","315","1008553","0.0-6.0-1.44","2644940","co38404","norming","","","","","","",""
"3115.1999999999534","","","post_mooney1_questions","survey-likert","316","1011671","0.0-6.0-2.44","2644940","co38404","norming","","","{""curiosity"":6,""confidence"":0}","[0,1]","../img/tt/406tt.jpg","",""
"868","","","recognition","survey-text","317","1012544","0.0-6.0-3.44","2644940","co38404","norming","","","{""guess"":""""}","","../img/tt/406tt.jpg","",""
"null","../img/gs/406gs.jpg","null","reveal","image-keyboard-response","318","1014557","0.0-6.0-4.44","2644940","co38404","norming","","","","","","",""
"null","../img/tt/406tt.jpg","null","mooney2","image-keyboard-response","319","1016544","0.0-6.0-5.44","2644940","co38404","norming","","","","","","",""
"1846.9000000000232","","","post_reveal_questions","survey-likert","320","1018396","0.0-6.0-6.44","2644940","co38404","norming","","","{""aha"":6}","[0]","../img/tt/406tt.jpg","",""
"null","<div style=""font-size:60px;""> </div>","null","fixation","html-keyboard-response","321","1018607","0.0-6.0-0.45","2644940","co38404","norming","","","","","","",""
"null","../img/tt/1123tt.jpg","null","mooney1","image-keyboard-response","322","1021623","0.0-6.0-1.45","2644940","co38404","norming","","","","","","",""
"3557.20000000007","","","post_mooney1_questions","survey-likert","323","1025186","0.0-6.0-2.45","2644940","co38404","norming","","","{""curiosity"":6,""confidence"":5}","[0,1]","../img/tt/1123tt.jpg","",""
"3251.9000000000233","","","recognition","survey-text","324","1028443","0.0-6.0-3.45","2644940","co38404","norming","","","{""guess"":""voetbal""}","","../img/tt/1123tt.jpg","",""
"null","../img/gs/1123gs.jpg","null","reveal","image-keyboard-response","325","1030469","0.0-6.0-4.45","2644940","co38404","norming","","","","","","",""
"null","../img/tt/1123tt.jpg","null","mooney2","image-keyboard-response","326","1032455","0.0-6.0-5.45","2644940","co38404","norming","","","","","","",""
"2965.5999999999767","","","post_reveal_questions","survey-likert","327","1035425","0.0-6.0-6.45","2644940","co38404","norming","","","{""aha"":5}","[0]","../img/tt/1123tt.jpg","",""
"null","<div style=""font-size:60px;""> </div>","null","fixation","html-keyboard-response","328","1035642","0.0-6.0-0.46","2644940","co38404","norming","","","","","","",""
"null","../img/tt/1063tt.jpg","null","mooney1","image-keyboard-response","329","1038654","0.0-6.0-1.46","2644940","co38404","norming","","","","","","",""
"3344.9000000000233","","","post_mooney1_questions","survey-likert","330","1042005","0.0-6.0-2.46","2644940","co38404","norming","","","{""curiosity"":6,""confidence"":4}","[0,1]","../img/tt/1063tt.jpg","",""
"3057","","","recognition","survey-text","331","1045067","0.0-6.0-3.46","2644940","co38404","norming","","","{""guess"":""paard""}","","../img/tt/1063tt.jpg","",""
"null","../img/gs/1063gs.jpg","null","reveal","image-keyboard-response","332","1047084","0.0-6.0-4.46","2644940","co38404","norming","","","","","","",""
"null","../img/tt/1063tt.jpg","null","mooney2","image-keyboard-response","333","1049073","0.0-6.0-5.46","2644940","co38404","norming","","","","","","",""
"1864.4000000001397","","","post_reveal_questions","survey-likert","334","1050942","0.0-6.0-6.46","2644940","co38404","norming","","","{""aha"":0}","[0]","../img/tt/1063tt.jpg","",""
"null","<div style=""font-size:60px;""> </div>","null","fixation","html-keyboard-response","335","1051147","0.0-6.0-0.47","2644940","co38404","norming","","","","","","",""
"null","../img/tt/1190tt.jpg","null","mooney1","image-keyboard-response","336","1054155","0.0-6.0-1.47","2644940","co38404","norming","","","","","","",""
"4188.299999999814","","","post_mooney1_questions","survey-likert","337","1058348","0.0-6.0-2.47","2644940","co38404","norming","","","{""curiosity"":6,""confidence"":2}","[0,1]","../img/tt/1190tt.jpg","",""
"3909.5","","","recognition","survey-text","338","1062263","0.0-6.0-3.47","2644940","co38404","norming","","","{""guess"":""mountains""}","","../img/tt/1190tt.jpg","",""
"null","../img/gs/1190gs.jpg","null","reveal","image-keyboard-response","339","1064273","0.0-6.0-4.47","2644940","co38404","norming","","","","","","",""
"null","../img/tt/1190tt.jpg","null","mooney2","image-keyboard-response","340","1066280","0.0-6.0-5.47","2644940","co38404","norming","","","","","","",""
"1469.2999999998137","","","post_reveal_questions","survey-likert","341","1067754","0.0-6.0-6.47","2644940","co38404","norming","","","{""aha"":4}","[0]","../img/tt/1190tt.jpg","",""
"null","<div style=""font-size:60px;""> </div>","null","fixation","html-keyboard-response","342","1067967","0.0-6.0-0.48","2644940","co38404","norming","","","","","","",""
"null","../img/tt/036tt.jpg","null","mooney1","image-keyboard-response","343","1070983","0.0-6.0-1.48","2644940","co38404","norming","","","","","","",""
"3460.8000000000465","","","post_mooney1_questions","survey-likert","344","1074450","0.0-6.0-2.48","2644940","co38404","norming","","","{""curiosity"":6,""confidence"":1}","[0,1]","../img/tt/036tt.jpg","",""
"3820.600000000093","","","recognition","survey-text","345","1078276","0.0-6.0-3.48","2644940","co38404","norming","","","{""guess"":""lightning ""}","","../img/tt/036tt.jpg","",""
"null","../img/gs/036gs.jpg","null","reveal","image-keyboard-response","346","1080283","0.0-6.0-4.48","2644940","co38404","norming","","","","","","",""
"null","../img/tt/036tt.jpg","null","mooney2","image-keyboard-response","347","1082284","0.0-6.0-5.48","2644940","co38404","norming","","","","","","",""
"1846.3999999999068","","","post_reveal_questions","survey-likert","348","1084136","0.0-6.0-6.48","2644940","co38404","norming","","","{""aha"":4}","[0]","../img/tt/036tt.jpg","",""
"null","<div style=""font-size:60px;""> </div>","null","fixation","html-keyboard-response","349","1084347","0.0-6.0-0.49","2644940","co38404","norming","","","","","","",""
"null","../img/tt/496tt.jpg","null","mooney1","image-keyboard-response","350","1087364","0.0-6.0-1.49","2644940","co38404","norming","","","","","","",""
"5626.5","","","post_mooney1_questions","survey-likert","351","1092996","0.0-6.0-2.49","2644940","co38404","norming","","","{""curiosity"":6,""confidence"":1}","[0,1]","../img/tt/496tt.jpg","",""
"3433.5","","","recognition","survey-text","352","1096434","0.0-6.0-3.49","2644940","co38404","norming","","","{""guess"":""varken""}","","../img/tt/496tt.jpg","",""
"null","../img/gs/496gs.jpg","null","reveal","image-keyboard-response","353","1098440","0.0-6.0-4.49","2644940","co38404","norming","","","","","","",""
"null","../img/tt/496tt.jpg","null","mooney2","image-keyboard-response","354","1100460","0.0-6.0-5.49","2644940","co38404","norming","","","","","","",""
"1880.3000000000465","","","post_reveal_questions","survey-likert","355","1102346","0.0-6.0-6.49","2644940","co38404","norming","","","{""aha"":1}","[0]","../img/tt/496tt.jpg","",""
"null","<div style=""font-size:60px;""> </div>","null","fixation","html-keyboard-response","356","1102554","0.0-6.0-0.50","2644940","co38404","norming","","","","","","",""
"null","../img/tt/1276tt.jpg","null","mooney1","image-keyboard-response","357","1105573","0.0-6.0-1.50","2644940","co38404","norming","","","","","","",""
"3143.899999999907","","","post_mooney1_questions","survey-likert","358","1108722","0.0-6.0-2.50","2644940","co38404","norming","","","{""curiosity"":6,""confidence"":1}","[0,1]","../img/tt/1276tt.jpg","",""
"4127.700000000186","","","recognition","survey-text","359","1112855","0.0-6.0-3.50","2644940","co38404","norming","","","{""guess"":""man""}","","../img/tt/1276tt.jpg","",""
"null","../img/gs/1276gs.jpg","null","reveal","image-keyboard-response","360","1114869","0.0-6.0-4.50","2644940","co38404","norming","","","","","","",""
"null","../img/tt/1276tt.jpg","null","mooney2","image-keyboard-response","361","1116856","0.0-6.0-5.50","2644940","co38404","norming","","","","","","",""
"1516.8000000000465","","","post_reveal_questions","survey-likert","362","1118377","0.0-6.0-6.50","2644940","co38404","norming","","","{""aha"":4}","[0]","../img/tt/1276tt.jpg","",""
"null","<div style=""font-size:60px;""> </div>","null","fixation","html-keyboard-response","363","1118608","0.0-6.0-0.51","2644940","co38404","norming","","","","","","",""
"null","../img/tt/1161tt.jpg","null","mooney1","image-keyboard-response","364","1121623","0.0-6.0-1.51","2644940","co38404","norming","","","","","","",""
"3110.100000000093","","","post_mooney1_questions","survey-likert","365","1124738","0.0-6.0-2.51","2644940","co38404","norming","","","{""curiosity"":6,""confidence"":5}","[0,1]","../img/tt/1161tt.jpg","",""
"3479","","","recognition","survey-text","366","1128223","0.0-6.0-3.51","2644940","co38404","norming","","","{""guess"":""klimen""}","","../img/tt/1161tt.jpg","",""
"null","../img/gs/1161gs.jpg","null","reveal","image-keyboard-response","367","1130232","0.0-6.0-4.51","2644940","co38404","norming","","","","","","",""
"null","../img/tt/1161tt.jpg","null","mooney2","image-keyboard-response","368","1132224","0.0-6.0-5.51","2644940","co38404","norming","","","","","","",""
"2007.7000000001862","","","post_reveal_questions","survey-likert","369","1134236","0.0-6.0-6.51","2644940","co38404","norming","","","{""aha"":1}","[0]","../img/tt/1161tt.jpg","",""
"null","<div style=""font-size:60px;""> </div>","null","fixation","html-keyboard-response","370","1134456","0.0-6.0-0.52","2644940","co38404","norming","","","","","","",""
"null","../img/tt/111tt.jpg","null","mooney1","image-keyboard-response","371","1137469","0.0-6.0-1.52","2644940","co38404","norming","","","","","","",""
"4043.3000000000465","","","post_mooney1_questions","survey-likert","372","1141520","0.0-6.0-2.52","2644940","co38404","norming","","","{""curiosity"":6,""confidence"":6}","[0,1]","../img/tt/111tt.jpg","",""
"4228.199999999953","","","recognition","survey-text","373","1145753","0.0-6.0-3.52","2644940","co38404","norming","","","{""guess"":""douche""}","","../img/tt/111tt.jpg","",""
"null","../img/gs/111gs.jpg","null","reveal","image-keyboard-response","374","1147757","0.0-6.0-4.52","2644940","co38404","norming","","","","","","",""
"null","../img/tt/111tt.jpg","null","mooney2","image-keyboard-response","375","1149757","0.0-6.0-5.52","2644940","co38404","norming","","","","","","",""
"1841.8999999999068","","","post_reveal_questions","survey-likert","376","1151604","0.0-6.0-6.52","2644940","co38404","norming","","","{""aha"":0}","[0]","../img/tt/111tt.jpg","",""
"null","<div style=""font-size:60px;""> </div>","null","fixation","html-keyboard-response","377","1151816","0.0-6.0-0.53","2644940","co38404","norming","","","","","","",""
"null","../img/tt/1070tt.jpg","null","mooney1","image-keyboard-response","378","1154832","0.0-6.0-1.53","2644940","co38404","norming","","","","","","",""
"3054.5999999998603","","","post_mooney1_questions","survey-likert","379","1157892","0.0-6.0-2.53","2644940","co38404","norming","","","{""curiosity"":6,""confidence"":2}","[0,1]","../img/tt/1070tt.jpg","",""
"3910.399999999907","","","recognition","survey-text","380","1161807","0.0-6.0-3.53","2644940","co38404","norming","","","{""guess"":""worst""}","","../img/tt/1070tt.jpg","",""
"null","../img/gs/1070gs.jpg","null","reveal","image-keyboard-response","381","1163818","0.0-6.0-4.53","2644940","co38404","norming","","","","","","",""
"null","../img/tt/1070tt.jpg","null","mooney2","image-keyboard-response","382","1165818","0.0-6.0-5.53","2644940","co38404","norming","","","","","","",""
"2616.5999999998603","","","post_reveal_questions","survey-likert","383","1168440","0.0-6.0-6.53","2644940","co38404","norming","","","{""aha"":4}","[0]","../img/tt/1070tt.jpg","",""
"null","<div style=""font-size:60px;""> </div>","null","fixation","html-keyboard-response","384","1168661","0.0-6.0-0.54","2644940","co38404","norming","","","","","","",""
"null","../img/tt/1125tt.jpg","null","mooney1","image-keyboard-response","385","1171674","0.0-6.0-1.54","2644940","co38404","norming","","","","","","",""
"10196.600000000093","","","post_mooney1_questions","survey-likert","386","1181876","0.0-6.0-2.54","2644940","co38404","norming","","","{""curiosity"":6,""confidence"":1}","[0,1]","../img/tt/1125tt.jpg","",""
"956.6999999999534","","","recognition","survey-text","387","1182838","0.0-6.0-3.54","2644940","co38404","norming","","","{""guess"":""""}","","../img/tt/1125tt.jpg","",""
"null","../img/gs/1125gs.jpg","null","reveal","image-keyboard-response","388","1184868","0.0-6.0-4.54","2644940","co38404","norming","","","","","","",""
"null","../img/tt/1125tt.jpg","null","mooney2","image-keyboard-response","389","1186858","0.0-6.0-5.54","2644940","co38404","norming","","","","","","",""
"2278.5","","","post_reveal_questions","survey-likert","390","1189142","0.0-6.0-6.54","2644940","co38404","norming","","","{""aha"":5}","[0]","../img/tt/1125tt.jpg","",""
"null","<div style=""font-size:60px;""> </div>","null","fixation","html-keyboard-response","391","1189352","0.0-6.0-0.55","2644940","co38404","norming","","","","","","",""
"null","../img/tt/1084tt.jpg","null","mooney1","image-keyboard-response","392","1192383","0.0-6.0-1.55","2644940","co38404","norming","","","","","","",""
"4957.399999999907","","","post_mooney1_questions","survey-likert","393","1197347","0.0-6.0-2.55","2644940","co38404","norming","","","{""curiosity"":6,""confidence"":2}","[0,1]","../img/tt/1084tt.jpg","",""
"8611.300000000046","","","recognition","survey-text","394","1205963","0.0-6.0-3.55","2644940","co38404","norming","","","{""guess"":""eten snijden""}","","../img/tt/1084tt.jpg","",""
"null","../img/gs/1084gs.jpg","null","reveal","image-keyboard-response","395","1207981","0.0-6.0-4.55","2644940","co38404","norming","","","","","","",""
"null","../img/tt/1084tt.jpg","null","mooney2","image-keyboard-response","396","1209965","0.0-6.0-5.55","2644940","co38404","norming","","","","","","",""
"1931.8999999999068","","","post_reveal_questions","survey-likert","397","1211901","0.0-6.0-6.55","2644940","co38404","norming","","","{""aha"":6}","[0]","../img/tt/1084tt.jpg","",""
"null","<div style=""font-size:60px;""> </div>","null","fixation","html-keyboard-response","398","1212106","0.0-6.0-0.56","2644940","co38404","norming","","","","","","",""
"null","../img/tt/098tt.jpg","null","mooney1","image-keyboard-response","399","1215108","0.0-6.0-1.56","2644940","co38404","norming","","","","","","",""
"3752.5","","","post_mooney1_questions","survey-likert","400","1218868","0.0-6.0-2.56","2644940","co38404","norming","","","{""curiosity"":6,""confidence"":0}","[0,1]","../img/tt/098tt.jpg","",""
"1142.3999999999068","","","recognition","survey-text","401","1220017","0.0-6.0-3.56","2644940","co38404","norming","","","{""guess"":""""}","","../img/tt/098tt.jpg","",""
"null","../img/gs/098gs.jpg","null","reveal","image-keyboard-response","402","1222046","0.0-6.0-4.56","2644940","co38404","norming","","","","","","",""
"null","../img/tt/098tt.jpg","null","mooney2","image-keyboard-response","403","1224033","0.0-6.0-5.56","2644940","co38404","norming","","","","","","",""
"1702.6999999999534","","","post_reveal_questions","survey-likert","404","1225742","0.0-6.0-6.56","2644940","co38404","norming","","","{""aha"":0}","[0]","../img/tt/098tt.jpg","",""
"null","<div style=""font-size:60px;""> </div>","null","fixation","html-keyboard-response","405","1225971","0.0-6.0-0.57","2644940","co38404","norming","","","","","","",""
"null","../img/tt/1091tt.jpg","null","mooney1","image-keyboard-response","406","1228977","0.0-6.0-1.57","2644940","co38404","norming","","","","","","",""
"2751.5999999998603","","","post_mooney1_questions","survey-likert","407","1231735","0.0-6.0-2.57","2644940","co38404","norming","","","{""curiosity"":6,""confidence"":2}","[0,1]","../img/tt/1091tt.jpg","",""
"7129.100000000093","","","recognition","survey-text","408","1238868","0.0-6.0-3.57","2644940","co38404","norming","","","{""guess"":""horse""}","","../img/tt/1091tt.jpg","",""
"null","../img/gs/1091gs.jpg","null","reveal","image-keyboard-response","409","1240871","0.0-6.0-4.57","2644940","co38404","norming","","","","","","",""
"null","../img/tt/1091tt.jpg","null","mooney2","image-keyboard-response","410","1242887","0.0-6.0-5.57","2644940","co38404","norming","","","","","","",""
"3115.8000000000465","","","post_reveal_questions","survey-likert","411","1246007","0.0-6.0-6.57","2644940","co38404","norming","","","{""aha"":0}","[0]","../img/tt/1091tt.jpg","",""
"null","<div style=""font-size:60px;""> </div>","null","fixation","html-keyboard-response","412","1246216","0.0-6.0-0.58","2644940","co38404","norming","","","","","","",""
"null","../img/tt/1199tt.jpg","null","mooney1","image-keyboard-response","413","1249231","0.0-6.0-1.58","2644940","co38404","norming","","","","","","",""
"3287.3000000000465","","","post_mooney1_questions","survey-likert","414","1252524","0.0-6.0-2.58","2644940","co38404","norming","","","{""curiosity"":6,""confidence"":4}","[0,1]","../img/tt/1199tt.jpg","",""
"2979.0999999998603","","","recognition","survey-text","415","1255509","0.0-6.0-3.58","2644940","co38404","norming","","","{""guess"":""car""}","","../img/tt/1199tt.jpg","",""
"null","../img/gs/1199gs.jpg","null","reveal","image-keyboard-response","416","1257529","0.0-6.0-4.58","2644940","co38404","norming","","","","","","",""
"null","../img/tt/1199tt.jpg","null","mooney2","image-keyboard-response","417","1259509","0.0-6.0-5.58","2644940","co38404","norming","","","","","","",""
"3275.0999999998603","","","post_reveal_questions","survey-likert","418","1262790","0.0-6.0-6.58","2644940","co38404","norming","","","{""aha"":2}","[0]","../img/tt/1199tt.jpg","",""
"null","<div style=""font-size:60px;""> </div>","null","fixation","html-keyboard-response","419","1263016","0.0-6.0-0.59","2644940","co38404","norming","","","","","","",""
"null","../img/tt/1262tt.jpg","null","mooney1","image-keyboard-response","420","1266032","0.0-6.0-1.59","2644940","co38404","norming","","","","","","",""
"3836.2000000001862","","","post_mooney1_questions","survey-likert","421","1269874","0.0-6.0-2.59","2644940","co38404","norming","","","{""curiosity"":6,""confidence"":0}","[0,1]","../img/tt/1262tt.jpg","",""
"1284.8000000000465","","","recognition","survey-text","422","1271164","0.0-6.0-3.59","2644940","co38404","norming","","","{""guess"":""""}","","../img/tt/1262tt.jpg","",""
"null","../img/gs/1262gs.jpg","null","reveal","image-keyboard-response","423","1273178","0.0-6.0-4.59","2644940","co38404","norming","","","","","","",""
"null","../img/tt/1262tt.jpg","null","mooney2","image-keyboard-response","424","1275177","0.0-6.0-5.59","2644940","co38404","norming","","","","","","",""
"2091.2999999998137","","","post_reveal_questions","survey-likert","425","1277274","0.0-6.0-6.59","2644940","co38404","norming","","","{""aha"":0}","[0]","../img/tt/1262tt.jpg","",""
"null","<div style=""font-size:60px;""> </div>","null","fixation","html-keyboard-response","426","1277522","0.0-6.0-0.60","2644940","co38404","norming","","","","","","",""
"null","../img/tt/1148tt.jpg","null","mooney1","image-keyboard-response","427","1280523","0.0-6.0-1.60","2644940","co38404","norming","","","","","","",""
"3165.100000000093","","","post_mooney1_questions","survey-likert","428","1283694","0.0-6.0-2.60","2644940","co38404","norming","","","{""curiosity"":6,""confidence"":2}","[0,1]","../img/tt/1148tt.jpg","",""
"2940.899999999907","","","recognition","survey-text","429","1286641","0.0-6.0-3.60","2644940","co38404","norming","","","{""guess"":""car""}","","../img/tt/1148tt.jpg","",""
"null","../img/gs/1148gs.jpg","null","reveal","image-keyboard-response","430","1288649","0.0-6.0-4.60","2644940","co38404","norming","","","","","","",""
"null","../img/tt/1148tt.jpg","null","mooney2","image-keyboard-response","431","1290650","0.0-6.0-5.60","2644940","co38404","norming","","","","","","",""
"1721.2999999998137","","","post_reveal_questions","survey-likert","432","1292376","0.0-6.0-6.60","2644940","co38404","norming","","","{""aha"":1}","[0]","../img/tt/1148tt.jpg","",""
"null","<div style=""font-size:60px;""> </div>","null","fixation","html-keyboard-response","433","1292588","0.0-6.0-0.61","2644940","co38404","norming","","","","","","",""
"null","../img/tt/063tt.jpg","null","mooney1","image-keyboard-response","434","1295606","0.0-6.0-1.61","2644940","co38404","norming","","","","","","",""
"2667.7000000001862","","","post_mooney1_questions","survey-likert","435","1298280","0.0-6.0-2.61","2644940","co38404","norming","","","{""curiosity"":6,""confidence"":0}","[0,1]","../img/tt/063tt.jpg","",""
"559.1000000000931","","","recognition","survey-text","436","1298844","0.0-6.0-3.61","2644940","co38404","norming","","","{""guess"":""""}","","../img/tt/063tt.jpg","",""
"null","../img/gs/063gs.jpg","null","reveal","image-keyboard-response","437","1300855","0.0-6.0-4.61","2644940","co38404","norming","","","","","","",""
"null","../img/tt/063tt.jpg","null","mooney2","image-keyboard-response","438","1302856","0.0-6.0-5.61","2644940","co38404","norming","","","","","","",""
"1480.8999999999068","","","post_reveal_questions","survey-likert","439","1304342","0.0-6.0-6.61","2644940","co38404","norming","","","{""aha"":0}","[0]","../img/tt/063tt.jpg","",""
"null","<div style=""font-size:60px;""> </div>","null","fixation","html-keyboard-response","440","1304547","0.0-6.0-0.62","2644940","co38404","norming","","","","","","",""
"null","../img/tt/1261tt.jpg","null","mooney1","image-keyboard-response","441","1307562","0.0-6.0-1.62","2644940","co38404","norming","","","","","","",""
"4323","","","post_mooney1_questions","survey-likert","442","1311890","0.0-6.0-2.62","2644940","co38404","norming","","","{""curiosity"":6,""confidence"":4}","[0,1]","../img/tt/1261tt.jpg","",""
"7839","","","recognition","survey-text","443","1319734","0.0-6.0-3.62","2644940","co38404","norming","","","{""guess"":""two people""}","","../img/tt/1261tt.jpg","",""
"null","../img/gs/1261gs.jpg","null","reveal","image-keyboard-response","444","1321735","0.0-6.0-4.62","2644940","co38404","norming","","","","","","",""
"null","../img/tt/1261tt.jpg","null","mooney2","image-keyboard-response","445","1323735","0.0-6.0-5.62","2644940","co38404","norming","","","","","","",""
"1694.7000000001862","","","post_reveal_questions","survey-likert","446","1325435","0.0-6.0-6.62","2644940","co38404","norming","","","{""aha"":1}","[0]","../img/tt/1261tt.jpg","",""
"null","<div style=""font-size:60px;""> </div>","null","fixation","html-keyboard-response","447","1325642","0.0-6.0-0.63","2644940","co38404","norming","","","","","","",""
"null","../img/tt/270tt.jpg","null","mooney1","image-keyboard-response","448","1328647","0.0-6.0-1.63","2644940","co38404","norming","","","","","","",""
"4017.6999999999534","","","post_mooney1_questions","survey-likert","449","1332671","0.0-6.0-2.63","2644940","co38404","norming","","","{""curiosity"":6,""confidence"":2}","[0,1]","../img/tt/270tt.jpg","",""
"2604.899999999907","","","recognition","survey-text","450","1335280","0.0-6.0-3.63","2644940","co38404","norming","","","{""guess"":""man""}","","../img/tt/270tt.jpg","",""
"null","../img/gs/270gs.jpg","null","reveal","image-keyboard-response","451","1337288","0.0-6.0-4.63","2644940","co38404","norming","","","","","","",""
"null","../img/tt/270tt.jpg","null","mooney2","image-keyboard-response","452","1339288","0.0-6.0-5.63","2644940","co38404","norming","","","","","","",""
"1408.6999999999534","","","post_reveal_questions","survey-likert","453","1340702","0.0-6.0-6.63","2644940","co38404","norming","","","{""aha"":0}","[0]","../img/tt/270tt.jpg","",""
"null","<div style=""font-size:60px;""> </div>","null","fixation","html-keyboard-response","454","1340928","0.0-6.0-0.64","2644940","co38404","norming","","","","","","",""
"null","../img/tt/1363tt.jpg","null","mooney1","image-keyboard-response","455","1343945","0.0-6.0-1.64","2644940","co38404","norming","","","","","","",""
"4258.5","","","post_mooney1_questions","survey-likert","456","1348210","0.0-6.0-2.64","2644940","co38404","norming","","","{""curiosity"":6,""confidence"":4}","[0,1]","../img/tt/1363tt.jpg","",""
"3369.3000000000465","","","recognition","survey-text","457","1351584","0.0-6.0-3.64","2644940","co38404","norming","","","{""guess"":""kom""}","","../img/tt/1363tt.jpg","",""
"null","../img/gs/1363gs.jpg","null","reveal","image-keyboard-response","458","1353596","0.0-6.0-4.64","2644940","co38404","norming","","","","","","",""
"null","../img/tt/1363tt.jpg","null","mooney2","image-keyboard-response","459","1355588","0.0-6.0-5.64","2644940","co38404","norming","","","","","","",""
"2498.2000000001862","","","post_reveal_questions","survey-likert","460","1358091","0.0-6.0-6.64","2644940","co38404","norming","","","{""aha"":0}","[0]","../img/tt/1363tt.jpg","",""
"null","<div style=""font-size:60px;""> </div>","null","fixation","html-keyboard-response","461","1358308","0.0-6.0-0.65","2644940","co38404","norming","","","","","","",""
"null","../img/tt/189tt.jpg","null","mooney1","image-keyboard-response","462","1361324","0.0-6.0-1.65","2644940","co38404","norming","","","","","","",""
"4176.600000000093","","","post_mooney1_questions","survey-likert","463","1365505","0.0-6.0-2.65","2644940","co38404","norming","","","{""curiosity"":6,""confidence"":5}","[0,1]","../img/tt/189tt.jpg","",""
"3532.3000000000465","","","recognition","survey-text","464","1369046","0.0-6.0-3.65","2644940","co38404","norming","","","{""guess"":""hangmat""}","","../img/tt/189tt.jpg","",""
"null","../img/gs/189gs.jpg","null","reveal","image-keyboard-response","465","1371045","0.0-6.0-4.65","2644940","co38404","norming","","","","","","",""
"null","../img/tt/189tt.jpg","null","mooney2","image-keyboard-response","466","1373061","0.0-6.0-5.65","2644940","co38404","norming","","","","","","",""
"1718.3000000000465","","","post_reveal_questions","survey-likert","467","1374786","0.0-6.0-6.65","2644940","co38404","norming","","","{""aha"":0}","[0]","../img/tt/189tt.jpg","",""
"null","<div style=""font-size:60px;""> </div>","null","fixation","html-keyboard-response","468","1375015","0.0-6.0-0.66","2644940","co38404","norming","","","","","","",""
"null","../img/tt/1046tt.jpg","null","mooney1","image-keyboard-response","469","1378031","0.0-6.0-1.66","2644940","co38404","norming","","","","","","",""
"3335.0999999998603","","","post_mooney1_questions","survey-likert","470","1381372","0.0-6.0-2.66","2644940","co38404","norming","","","{""curiosity"":6,""confidence"":2}","[0,1]","../img/tt/1046tt.jpg","",""
"3543","","","recognition","survey-text","471","1384920","0.0-6.0-3.66","2644940","co38404","norming","","","{""guess"":""table""}","","../img/tt/1046tt.jpg","",""
"null","../img/gs/1046gs.jpg","null","reveal","image-keyboard-response","472","1386924","0.0-6.0-4.66","2644940","co38404","norming","","","","","","",""
"null","../img/tt/1046tt.jpg","null","mooney2","image-keyboard-response","473","1388924","0.0-6.0-5.66","2644940","co38404","norming","","","","","","",""
"1984.8000000000465","","","post_reveal_questions","survey-likert","474","1390912","0.0-6.0-6.66","2644940","co38404","norming","","","{""aha"":4}","[0]","../img/tt/1046tt.jpg","",""
"null","<div style=""font-size:60px;""> </div>","null","fixation","html-keyboard-response","475","1391132","0.0-6.0-0.67","2644940","co38404","norming","","","","","","",""
"null","../img/tt/552tt.jpg","null","mooney1","image-keyboard-response","476","1394147","0.0-6.0-1.67","2644940","co38404","norming","","","","","","",""
"4017.899999999907","","","post_mooney1_questions","survey-likert","477","1398170","0.0-6.0-2.67","2644940","co38404","norming","","","{""curiosity"":6,""confidence"":0}","[0,1]","../img/tt/552tt.jpg","",""
"1134.5999999998603","","","recognition","survey-text","478","1399310","0.0-6.0-3.67","2644940","co38404","norming","","","{""guess"":""""}","","../img/tt/552tt.jpg","",""
"null","../img/gs/552gs.jpg","null","reveal","image-keyboard-response","479","1401313","0.0-6.0-4.67","2644940","co38404","norming","","","","","","",""
"null","../img/tt/552tt.jpg","null","mooney2","image-keyboard-response","480","1403313","0.0-6.0-5.67","2644940","co38404","norming","","","","","","",""
"1622.6000000000931","","","post_reveal_questions","survey-likert","481","1404942","0.0-6.0-6.67","2644940","co38404","norming","","","{""aha"":0}","[0]","../img/tt/552tt.jpg","",""
"null","<div style=""font-size:60px;""> </div>","null","fixation","html-keyboard-response","482","1405152","0.0-6.0-0.68","2644940","co38404","norming","","","","","","",""
"null","../img/tt/418tt.jpg","null","mooney1","image-keyboard-response","483","1408169","0.0-6.0-1.68","2644940","co38404","norming","","","","","","",""
"3283.5","","","post_mooney1_questions","survey-likert","484","1411458","0.0-6.0-2.68","2644940","co38404","norming","","","{""curiosity"":6,""confidence"":0}","[0,1]","../img/tt/418tt.jpg","",""
"712.0999999998603","","","recognition","survey-text","485","1412176","0.0-6.0-3.68","2644940","co38404","norming","","","{""guess"":""""}","","../img/tt/418tt.jpg","",""
"null","../img/gs/418gs.jpg","null","reveal","image-keyboard-response","486","1414186","0.0-6.0-4.68","2644940","co38404","norming","","","","","","",""
"null","../img/tt/418tt.jpg","null","mooney2","image-keyboard-response","487","1416180","0.0-6.0-5.68","2644940","co38404","norming","","","","","","",""
"2560.3000000000465","","","post_reveal_questions","survey-likert","488","1418746","0.0-6.0-6.68","2644940","co38404","norming","","","{""aha"":4}","[0]","../img/tt/418tt.jpg","",""
"null","<div style=""font-size:60px;""> </div>","null","fixation","html-keyboard-response","489","1418954","0.0-6.0-0.69","2644940","co38404","norming","","","","","","",""
"null","../img/tt/031tt.jpg","null","mooney1","image-keyboard-response","490","1421964","0.0-6.0-1.69","2644940","co38404","norming","","","","","","",""
"4667.800000000047","","","post_mooney1_questions","survey-likert","491","1426638","0.0-6.0-2.69","2644940","co38404","norming","","","{""curiosity"":6,""confidence"":2}","[0,1]","../img/tt/031tt.jpg","",""
"3594.2999999998137","","","recognition","survey-text","492","1430239","0.0-6.0-3.69","2644940","co38404","norming","","","{""guess"":""face""}","","../img/tt/031tt.jpg","",""
"null","../img/gs/031gs.jpg","null","reveal","image-keyboard-response","493","1432269","0.0-6.0-4.69","2644940","co38404","norming","","","","","","",""
"null","../img/tt/031tt.jpg","null","mooney2","image-keyboard-response","494","1434247","0.0-6.0-5.69","2644940","co38404","norming","","","","","","",""
"1704.3999999999068","","","post_reveal_questions","survey-likert","495","1435957","0.0-6.0-6.69","2644940","co38404","norming","","","{""aha"":5}","[0]","../img/tt/031tt.jpg","",""
"null","<div style=""font-size:60px;""> </div>","null","fixation","html-keyboard-response","496","1436176","0.0-6.0-0.70","2644940","co38404","norming","","","","","","",""
"null","../img/tt/049tt.jpg","null","mooney1","image-keyboard-response","497","1439181","0.0-6.0-1.70","2644940","co38404","norming","","","","","","",""
"2513.5999999998603","","","post_mooney1_questions","survey-likert","498","1441700","0.0-6.0-2.70","2644940","co38404","norming","","","{""curiosity"":6,""confidence"":2}","[0,1]","../img/tt/049tt.jpg","",""
"3252.3000000000465","","","recognition","survey-text","499","1444958","0.0-6.0-3.70","2644940","co38404","norming","","","{""guess"":""mouse""}","","../img/tt/049tt.jpg","",""
"null","../img/gs/049gs.jpg","null","reveal","image-keyboard-response","500","1446965","0.0-6.0-4.70","2644940","co38404","norming","","","","","","",""
"null","../img/tt/049tt.jpg","null","mooney2","image-keyboard-response","501","1448964","0.0-6.0-5.70","2644940","co38404","norming","","","","","","",""
"1284.3000000000465","","","post_reveal_questions","survey-likert","502","1450254","0.0-6.0-6.70","2644940","co38404","norming","","","{""aha"":2}","[0]","../img/tt/049tt.jpg","",""
"null","<div style=""font-size:60px;""> </div>","null","fixation","html-keyboard-response","503","1450463","0.0-6.0-0.71","2644940","co38404","norming","","","","","","",""
"null","../img/tt/1101tt.jpg","null","mooney1","image-keyboard-response","504","1453482","0.0-6.0-1.71","2644940","co38404","norming","","","","","","",""
"4000.600000000093","","","post_mooney1_questions","survey-likert","505","1457489","0.0-6.0-2.71","2644940","co38404","norming","","","{""curiosity"":6,""confidence"":5}","[0,1]","../img/tt/1101tt.jpg","",""
"3043.5","","","recognition","survey-text","506","1460537","0.0-6.0-3.71","2644940","co38404","norming","","","{""guess"":""voetballer""}","","../img/tt/1101tt.jpg","",""
"null","../img/gs/1101gs.jpg","null","reveal","image-keyboard-response","507","1462540","0.0-6.0-4.71","2644940","co38404","norming","","","","","","",""
"null","../img/tt/1101tt.jpg","null","mooney2","image-keyboard-response","508","1464541","0.0-6.0-5.71","2644940","co38404","norming","","","","","","",""
"1543","","","post_reveal_questions","survey-likert","509","1466089","0.0-6.0-6.71","2644940","co38404","norming","","","{""aha"":0}","[0]","../img/tt/1101tt.jpg","",""
"null","<div style=""font-size:60px;""> </div>","null","fixation","html-keyboard-response","510","1466307","0.0-6.0-0.72","2644940","co38404","norming","","","","","","",""
"null","../img/tt/515tt.jpg","null","mooney1","image-keyboard-response","511","1469315","0.0-6.0-1.72","2644940","co38404","norming","","","","","","",""
"3918.5","","","post_mooney1_questions","survey-likert","512","1473240","0.0-6.0-2.72","2644940","co38404","norming","","","{""curiosity"":6,""confidence"":0}","[0,1]","../img/tt/515tt.jpg","",""
"1149.5","","","recognition","survey-text","513","1474394","0.0-6.0-3.72","2644940","co38404","norming","","","{""guess"":""""}","","../img/tt/515tt.jpg","",""
"null","../img/gs/515gs.jpg","null","reveal","image-keyboard-response","514","1476399","0.0-6.0-4.72","2644940","co38404","norming","","","","","","",""
"null","../img/tt/515tt.jpg","null","mooney2","image-keyboard-response","515","1478394","0.0-6.0-5.72","2644940","co38404","norming","","","","","","",""
"1792.0999999998603","","","post_reveal_questions","survey-likert","516","1480191","0.0-6.0-6.72","2644940","co38404","norming","","","{""aha"":0}","[0]","../img/tt/515tt.jpg","",""
"null","<div style=""font-size:60px;""> </div>","null","fixation","html-keyboard-response","517","1480409","0.0-6.0-0.73","2644940","co38404","norming","","","","","","",""
"null","../img/tt/1272tt.jpg","null","mooney1","image-keyboard-response","518","1483425","0.0-6.0-1.73","2644940","co38404","norming","","","","","","",""
"6258.5","","","post_mooney1_questions","survey-likert","519","1489691","0.0-6.0-2.73","2644940","co38404","norming","","","{""curiosity"":6,""confidence"":1}","[0,1]","../img/tt/1272tt.jpg","",""
"2444.600000000093","","","recognition","survey-text","520","1492145","0.0-6.0-3.73","2644940","co38404","norming","","","{""guess"":""molen""}","","../img/tt/1272tt.jpg","",""
"null","../img/gs/1272gs.jpg","null","reveal","image-keyboard-response","521","1494149","0.0-6.0-4.73","2644940","co38404","norming","","","","","","",""
"null","../img/tt/1272tt.jpg","null","mooney2","image-keyboard-response","522","1496146","0.0-6.0-5.73","2644940","co38404","norming","","","","","","",""
"3234.6999999999534","","","post_reveal_questions","survey-likert","523","1499387","0.0-6.0-6.73","2644940","co38404","norming","","","{""aha"":2}","[0]","../img/tt/1272tt.jpg","",""
"null","<div style=""font-size:60px;""> </div>","null","fixation","html-keyboard-response","524","1499600","0.0-6.0-0.74","2644940","co38404","norming","","","","","","",""
"null","../img/tt/1055tt.jpg","null","mooney1","image-keyboard-response","525","1502616","0.0-6.0-1.74","2644940","co38404","norming","","","","","","",""
"4325.600000000093","","","post_mooney1_questions","survey-likert","526","1506948","0.0-6.0-2.74","2644940","co38404","norming","","","{""curiosity"":6,""confidence"":2}","[0,1]","../img/tt/1055tt.jpg","",""
"2994.9000000001397","","","recognition","survey-text","527","1509948","0.0-6.0-3.74","2644940","co38404","norming","","","{""guess"":""water""}","","../img/tt/1055tt.jpg","",""
"null","../img/gs/1055gs.jpg","null","reveal","image-keyboard-response","528","1511978","0.0-6.0-4.74","2644940","co38404","norming","","","","","","",""
"null","../img/tt/1055tt.jpg","null","mooney2","image-keyboard-response","529","1513980","0.0-6.0-5.74","2644940","co38404","norming","","","","","","",""
"2838","","","post_reveal_questions","survey-likert","530","1516823","0.0-6.0-6.74","2644940","co38404","norming","","","{""aha"":5}","[0]","../img/tt/1055tt.jpg","",""
"null","<div style=""font-size:60px;""> </div>","null","fixation","html-keyboard-response","531","1517028","0.0-6.0-0.75","2644940","co38404","norming","","","","","","",""
"null","../img/tt/378tt.jpg","null","mooney1","image-keyboard-response","532","1520048","0.0-6.0-1.75","2644940","co38404","norming","","","","","","",""
"3238.5","","","post_mooney1_questions","survey-likert","533","1523291","0.0-6.0-2.75","2644940","co38404","norming","","","{""curiosity"":6,""confidence"":0}","[0,1]","../img/tt/378tt.jpg","",""
"868.6000000000931","","","recognition","survey-text","534","1524166","0.0-6.0-3.75","2644940","co38404","norming","","","{""guess"":""""}","","../img/tt/378tt.jpg","",""
"null","../img/gs/378gs.jpg","null","reveal","image-keyboard-response","535","1526176","0.0-6.0-4.75","2644940","co38404","norming","","","","","","",""
"null","../img/tt/378tt.jpg","null","mooney2","image-keyboard-response","536","1528175","0.0-6.0-5.75","2644940","co38404","norming","","","","","","",""
"2041","","","post_reveal_questions","survey-likert","537","1530222","0.0-6.0-6.75","2644940","co38404","norming","","","{""aha"":4}","[0]","../img/tt/378tt.jpg","",""
"null","<div style=""font-size:60px;""> </div>","null","fixation","html-keyboard-response","538","1530426","0.0-6.0-0.76","2644940","co38404","norming","","","","","","",""
"null","../img/tt/273tt.jpg","null","mooney1","image-keyboard-response","539","1533442","0.0-6.0-1.76","2644940","co38404","norming","","","","","","",""
"2944","","","post_mooney1_questions","survey-likert","540","1536392","0.0-6.0-2.76","2644940","co38404","norming","","","{""curiosity"":6,""confidence"":1}","[0,1]","../img/tt/273tt.jpg","",""
"2046.8000000000465","","","recognition","survey-text","541","1538445","0.0-6.0-3.76","2644940","co38404","norming","","","{""guess"":""hand""}","","../img/tt/273tt.jpg","",""
"null","../img/gs/273gs.jpg","null","reveal","image-keyboard-response","542","1540460","0.0-6.0-4.76","2644940","co38404","norming","","","","","","",""
"null","../img/tt/273tt.jpg","null","mooney2","image-keyboard-response","543","1542459","0.0-6.0-5.76","2644940","co38404","norming","","","","","","",""
"1364.3000000000465","","","post_reveal_questions","survey-likert","544","1543829","0.0-6.0-6.76","2644940","co38404","norming","","","{""aha"":5}","[0]","../img/tt/273tt.jpg","",""
"null","<div style=""font-size:60px;""> </div>","null","fixation","html-keyboard-response","545","1544039","0.0-6.0-0.77","2644940","co38404","norming","","","","","","",""
"null","../img/tt/1269tt.jpg","null","mooney1","image-keyboard-response","546","1547054","0.0-6.0-1.77","2644940","co38404","norming","","","","","","",""
"3753.100000000093","","","post_mooney1_questions","survey-likert","547","1550814","0.0-6.0-2.77","2644940","co38404","norming","","","{""curiosity"":6,""confidence"":4}","[0,1]","../img/tt/1269tt.jpg","",""
"4276.800000000047","","","recognition","survey-text","548","1555096","0.0-6.0-3.77","2644940","co38404","norming","","","{""guess"":""wilde kat""}","","../img/tt/1269tt.jpg","",""
"null","../img/gs/1269gs.jpg","null","reveal","image-keyboard-response","549","1557104","0.0-6.0-4.77","2644940","co38404","norming","","","","","","",""
"null","../img/tt/1269tt.jpg","null","mooney2","image-keyboard-response","550","1559105","0.0-6.0-5.77","2644940","co38404","norming","","","","","","",""
"1984.2999999998137","","","post_reveal_questions","survey-likert","551","1561095","0.0-6.0-6.77","2644940","co38404","norming","","","{""aha"":4}","[0]","../img/tt/1269tt.jpg","",""
"null","<div style=""font-size:60px;""> </div>","null","fixation","html-keyboard-response","552","1561308","0.0-6.0-0.78","2644940","co38404","norming","","","","","","",""
"null","../img/tt/1102tt.jpg","null","mooney1","image-keyboard-response","553","1564325","0.0-6.0-1.78","2644940","co38404","norming","","","","","","",""
"4241.699999999953","","","post_mooney1_questions","survey-likert","554","1568572","0.0-6.0-2.78","2644940","co38404","norming","","","{""curiosity"":6,""confidence"":1}","[0,1]","../img/tt/1102tt.jpg","",""
"7383.200000000186","","","recognition","survey-text","555","1575961","0.0-6.0-3.78","2644940","co38404","norming","","","{""guess"":""eekhoorn""}","","../img/tt/1102tt.jpg","",""
