"rt","stimulus","key_press","test_part","trial_type","trial_index","time_elapsed","internal_node_id","totalTime","subject","experiment_name","button_pressed","success","responses","question_order","currentStim","old","correct"
"12806.464999999662","Welcome to the experiment. This is an online experiment so please don't close the tab/window until we say goodbye.  Press any key to begin.","32","instructions","html-keyboard-response","0","12820","0.0-0.0","2974374","co38569","norming","","","","","","",""
"9250","<div style='word-wrap: break-word; width: 900px'><h3>Please consider this information carefully before deciding whether to participate in this research</h3><ul style='text-align: left; font-size: .8em;'><li><b>Purpose of the research</b>: To examine how people process images.</li><li><b>What you will do in this research</b>:  Stimuli (images) will be presented on the computer and you will be asked different questions about them.</li><li><b>Time required</b>: Participation will take between 45 and 60 minutes to complete.</li><li><b>Risks</b>:  There are no anticipated risks associated with participating in this study. The effects of participating should be comparable to those you would experience from viewing a computer monitor for 30 minutes and using a mouse or keyboard.</li><li><b>Benefits</b>:  This study provides no benefits to you individually except for the credit. The study provides important information about the nature of perception and learning.</li><li><b>Confidentiality</b>:  Your participation in this study will remain confidential. No personally identifiable information will be associated with your data. Your de-identified data may be shared with other researchers and used in future projects.</li><li><b>Participation and withdrawal</b>:  Your participation in this study is completely voluntary and you may refuse to participate or you may choose to withdraw at any time without penalty.</li><li><b>How to contact the researchers</b>: If you have questions or concerns about your participation or payment, or want to request a summary of research findings, please contact Sander Van de Cruys (KU Leuven), at sander.vandecruys@kuleuven.be.</li></ul><p>The nature and purpose of this research have been sufficiently explained and I agree to participate in this study.  I understand that I am free to withdraw at any time without incurring any penalty.</p><p>Please consent by clicking the button below to continue. Otherwise, please exit the study at this time.</p></div>","","instructions","html-button-response","1","22073","0.0-1.0","2974374","co38569","norming","0","","","","","",""
"","","","instructions","fullscreen","2","27903","0.0-2.0","2974374","co38569","norming","","true","","","","",""
"25430.414999998902","","","sona","survey-html-form","3","53338","0.0-3.0","2974374","co38569","norming","","","[{""name"":""sonaid"",""value"":""38569""},{""name"":""debrief"",""value"":""yes""},{""name"":""datajoin"",""value"":""yes""}]","","","",""
"84627.88999999977","<div style='word-wrap: break-word; width: 900px'><h3>Instructions</h3><p>This experiment will have 3 parts. In the first part you will see a series of distorted images like the one below on the left. As you can see in the righthand image, the distorted images are derived from actual photographs. In what follows, you will <strong>briefly</strong> be presented with <strong>only</strong> the distorted image.</p> <div style='float: left; margin-right: 20px;'><img src='../img/018tt.jpg' height='250' width='250'></img></div><div style='float: right; margin-left: 20px;'><img src='../img/018gs.jpg' height='250' width='250'></img></div><p>Subsequently you will be asked a few questions about the image: One question on how <strong>curious</strong> you are about the solution and one on how <strong>confident</strong> you are that you know the solution.</p>Next, we ask you to make a guess on what is in the image. Note that it is OK to name just the <strong>basic level category</strong>. For example when you see a parrot in the image, 'parrot' will obviously be a correct answer but also correct is 'bird'. However, 'animal' will <strong>not</strong> be counted as a correct response. For the example above, 'rose' would be correct or 'flower', but not 'plant'. When soccer players are depicted, 'soccer', 'football', 'soccer players' will be correct, but not 'humans', 'outdoors', or 'sports'. You do not need to describe the image in full, just name the main object in it <strong>in one or two words</strong>. All images depict objects from one of the following broad level categories: animals, inanimate objects, plants, sports, vehicles, and food. Recognizing means knowing <strong>more</strong> than these broad labels for a given image. But we always encourage you to <strong>make a guess</strong> if you can. Note that you are allowed to use <strong>Dutch and English</strong> in your answers, whatever comes easiest for you.</p><p>Press any key to continue.</p></div>","32","instructions","html-keyboard-response","4","137967","0.0-4.0","2974374","co38569","norming","","","","","","",""
"11805.940000000177","<div style='word-wrap: break-word; width: 900px'><h3>Instructions</h3> <p>Next, the solution image will be revealed to you and you'll be asked to indicate how strong your <strong>aha-experience</strong> was after seeing the solution. This describes the positive feeling of the 'click' you sometimes experience, when the pieces of the 'puzzle' fall together and you suddenly have 'insight' in the image.</p><img src='aha.jpg' height='188' width='250'></img><p>Note that there are no right or wrong answers. We are interested in what <strong>you</strong> see in the image and how <strong>you</strong> feel about it.</p><p>Press any key to start the experiment.</p></div>","32","instructions","html-keyboard-response","5","149775","0.0-5.0","2974374","co38569","norming","","","","","","",""
"null","<div style=""font-size:60px;""> </div>","null","fixation","html-keyboard-response","6","149983","0.0-6.0-0.0","2974374","co38569","norming","","","","","","",""
"null","../img/tt/1024tt.jpg","null","mooney1","image-keyboard-response","7","152989","0.0-6.0-1.0","2974374","co38569","norming","","","","","","",""
"8493.13500000062","","","post_mooney1_questions","survey-likert","8","161486","0.0-6.0-2.0","2974374","co38569","norming","","","{""curiosity"":1,""confidence"":0}","[0,1]","../img/tt/1024tt.jpg","",""
"7941.7150000008405","","","recognition","survey-text","9","169430","0.0-6.0-3.0","2974374","co38569","norming","","","{""guess"":""kikker""}","","../img/tt/1024tt.jpg","",""
"null","../img/gs/1024gs.jpg","null","reveal","image-keyboard-response","10","171432","0.0-6.0-4.0","2974374","co38569","norming","","","","","","",""
"null","../img/tt/1024tt.jpg","null","mooney2","image-keyboard-response","11","173434","0.0-6.0-5.0","2974374","co38569","norming","","","","","","",""
"7409.9100000002945","","","post_reveal_questions","survey-likert","12","180846","0.0-6.0-6.0","2974374","co38569","norming","","","{""aha"":1}","[0]","../img/tt/1024tt.jpg","",""
"null","<div style=""font-size:60px;""> </div>","null","fixation","html-keyboard-response","13","181048","0.0-6.0-0.1","2974374","co38569","norming","","","","","","",""
"null","../img/tt/1142tt.jpg","null","mooney1","image-keyboard-response","14","184055","0.0-6.0-1.1","2974374","co38569","norming","","","","","","",""
"6092.914999999281","","","post_mooney1_questions","survey-likert","15","190150","0.0-6.0-2.1","2974374","co38569","norming","","","{""curiosity"":2,""confidence"":0}","[0,1]","../img/tt/1142tt.jpg","",""
"2429.9650000011607","","","recognition","survey-text","16","192582","0.0-6.0-3.1","2974374","co38569","norming","","","{""guess"":""""}","","../img/tt/1142tt.jpg","",""
"null","../img/gs/1142gs.jpg","null","reveal","image-keyboard-response","17","194584","0.0-6.0-4.1","2974374","co38569","norming","","","","","","",""
"null","../img/tt/1142tt.jpg","null","mooney2","image-keyboard-response","18","196589","0.0-6.0-5.1","2974374","co38569","norming","","","","","","",""
"5128.244999999879","","","post_reveal_questions","survey-likert","19","201716","0.0-6.0-6.1","2974374","co38569","norming","","","{""aha"":1}","[0]","../img/tt/1142tt.jpg","",""
"null","<div style=""font-size:60px;""> </div>","null","fixation","html-keyboard-response","20","201918","0.0-6.0-0.2","2974374","co38569","norming","","","","","","",""
"null","../img/tt/060tt.jpg","null","mooney1","image-keyboard-response","21","204920","0.0-6.0-1.2","2974374","co38569","norming","","","","","","",""
"8666.664999998815","","","post_mooney1_questions","survey-likert","22","213588","0.0-6.0-2.2","2974374","co38569","norming","","","{""curiosity"":2,""confidence"":0}","[0,1]","../img/tt/060tt.jpg","",""
"2214.364999999816","","","recognition","survey-text","23","215804","0.0-6.0-3.2","2974374","co38569","norming","","","{""guess"":""auto""}","","../img/tt/060tt.jpg","",""
"null","../img/gs/060gs.jpg","null","reveal","image-keyboard-response","24","217812","0.0-6.0-4.2","2974374","co38569","norming","","","","","","",""
"null","../img/tt/060tt.jpg","null","mooney2","image-keyboard-response","25","219822","0.0-6.0-5.2","2974374","co38569","norming","","","","","","",""
"2987.584999998944","","","post_reveal_questions","survey-likert","26","222812","0.0-6.0-6.2","2974374","co38569","norming","","","{""aha"":3}","[0]","../img/tt/060tt.jpg","",""
"null","<div style=""font-size:60px;""> </div>","null","fixation","html-keyboard-response","27","223013","0.0-6.0-0.3","2974374","co38569","norming","","","","","","",""
"null","../img/tt/358tt.jpg","null","mooney1","image-keyboard-response","28","226024","0.0-6.0-1.3","2974374","co38569","norming","","","","","","",""
"6465.589999999793","","","post_mooney1_questions","survey-likert","29","232492","0.0-6.0-2.3","2974374","co38569","norming","","","{""curiosity"":4,""confidence"":0}","[0,1]","../img/tt/358tt.jpg","",""
"2926.294999999285","","","recognition","survey-text","30","235420","0.0-6.0-3.3","2974374","co38569","norming","","","{""guess"":""koe""}","","../img/tt/358tt.jpg","",""
"null","../img/gs/358gs.jpg","null","reveal","image-keyboard-response","31","237425","0.0-6.0-4.3","2974374","co38569","norming","","","","","","",""
"null","../img/tt/358tt.jpg","null","mooney2","image-keyboard-response","32","239427","0.0-6.0-5.3","2974374","co38569","norming","","","","","","",""
"3384.0149999996356","","","post_reveal_questions","survey-likert","33","242812","0.0-6.0-6.3","2974374","co38569","norming","","","{""aha"":2}","[0]","../img/tt/358tt.jpg","",""
"null","<div style=""font-size:60px;""> </div>","null","fixation","html-keyboard-response","34","243013","0.0-6.0-0.4","2974374","co38569","norming","","","","","","",""
"null","../img/tt/1171tt.jpg","null","mooney1","image-keyboard-response","35","246021","0.0-6.0-1.4","2974374","co38569","norming","","","","","","",""
"7468.554999999469","","","post_mooney1_questions","survey-likert","36","253492","0.0-6.0-2.4","2974374","co38569","norming","","","{""curiosity"":3,""confidence"":0}","[0,1]","../img/tt/1171tt.jpg","",""
"734.1599999999744","","","recognition","survey-text","37","254228","0.0-6.0-3.4","2974374","co38569","norming","","","{""guess"":""""}","","../img/tt/1171tt.jpg","",""
"null","../img/gs/1171gs.jpg","null","reveal","image-keyboard-response","38","256237","0.0-6.0-4.4","2974374","co38569","norming","","","","","","",""
"null","../img/tt/1171tt.jpg","null","mooney2","image-keyboard-response","39","258241","0.0-6.0-5.4","2974374","co38569","norming","","","","","","",""
"1624.680000000808","","","post_reveal_questions","survey-likert","40","259875","0.0-6.0-6.4","2974374","co38569","norming","","","{""aha"":0}","[0]","../img/tt/1171tt.jpg","",""
"null","<div style=""font-size:60px;""> </div>","null","fixation","html-keyboard-response","41","260077","0.0-6.0-0.5","2974374","co38569","norming","","","","","","",""
"null","../img/tt/080tt.jpg","null","mooney1","image-keyboard-response","42","263082","0.0-6.0-1.5","2974374","co38569","norming","","","","","","",""
"4607.140000000072","","","post_mooney1_questions","survey-likert","43","267691","0.0-6.0-2.5","2974374","co38569","norming","","","{""curiosity"":0,""confidence"":0}","[0,1]","../img/tt/080tt.jpg","",""
"694.1399999996065","","","recognition","survey-text","44","268387","0.0-6.0-3.5","2974374","co38569","norming","","","{""guess"":""""}","","../img/tt/080tt.jpg","",""
"null","../img/gs/080gs.jpg","null","reveal","image-keyboard-response","45","270394","0.0-6.0-4.5","2974374","co38569","norming","","","","","","",""
"null","../img/tt/080tt.jpg","null","mooney2","image-keyboard-response","46","272395","0.0-6.0-5.5","2974374","co38569","norming","","","","","","",""
"3126.1749999994063","","","post_reveal_questions","survey-likert","47","275523","0.0-6.0-6.5","2974374","co38569","norming","","","{""aha"":0}","[0]","../img/tt/080tt.jpg","",""
"null","<div style=""font-size:60px;""> </div>","null","fixation","html-keyboard-response","48","275724","0.0-6.0-0.6","2974374","co38569","norming","","","","","","",""
"null","../img/tt/436tt.jpg","null","mooney1","image-keyboard-response","49","278727","0.0-6.0-1.6","2974374","co38569","norming","","","","","","",""
"33417.740000000806","","","post_mooney1_questions","survey-likert","50","312147","0.0-6.0-2.6","2974374","co38569","norming","","","{""curiosity"":4,""confidence"":1}","[0,1]","../img/tt/436tt.jpg","",""
"10022.220000000729","","","recognition","survey-text","51","322163","0.0-6.0-3.6","2974374","co38569","norming","","","{""guess"":""dinosaurus""}","","../img/tt/436tt.jpg","",""
"null","../img/gs/436gs.jpg","null","reveal","image-keyboard-response","52","324165","0.0-6.0-4.6","2974374","co38569","norming","","","","","","",""
"null","../img/tt/436tt.jpg","null","mooney2","image-keyboard-response","53","326176","0.0-6.0-5.6","2974374","co38569","norming","","","","","","",""
"2104.9249999996973","","","post_reveal_questions","survey-likert","54","328283","0.0-6.0-6.6","2974374","co38569","norming","","","{""aha"":4}","[0]","../img/tt/436tt.jpg","",""
"null","<div style=""font-size:60px;""> </div>","null","fixation","html-keyboard-response","55","328485","0.0-6.0-0.7","2974374","co38569","norming","","","","","","",""
"null","../img/tt/1175tt.jpg","null","mooney1","image-keyboard-response","56","331491","0.0-6.0-1.7","2974374","co38569","norming","","","","","","",""
"10359.255000001227","","","post_mooney1_questions","survey-likert","57","341851","0.0-6.0-2.7","2974374","co38569","norming","","","{""curiosity"":1,""confidence"":0}","[0,1]","../img/tt/1175tt.jpg","",""
"2750.0099999997183","","","recognition","survey-text","58","344603","0.0-6.0-3.7","2974374","co38569","norming","","","{""guess"":""""}","","../img/tt/1175tt.jpg","",""
"null","../img/gs/1175gs.jpg","null","reveal","image-keyboard-response","59","346614","0.0-6.0-4.7","2974374","co38569","norming","","","","","","",""
"null","../img/tt/1175tt.jpg","null","mooney2","image-keyboard-response","60","348615","0.0-6.0-5.7","2974374","co38569","norming","","","","","","",""
"2283.2849999995087","","","post_reveal_questions","survey-likert","61","350899","0.0-6.0-6.7","2974374","co38569","norming","","","{""aha"":0}","[0]","../img/tt/1175tt.jpg","",""
"null","<div style=""font-size:60px;""> </div>","null","fixation","html-keyboard-response","62","351101","0.0-6.0-0.8","2974374","co38569","norming","","","","","","",""
"null","../img/tt/418tt.jpg","null","mooney1","image-keyboard-response","63","354109","0.0-6.0-1.8","2974374","co38569","norming","","","","","","",""
"6596.305000000924","","","post_mooney1_questions","survey-likert","64","360708","0.0-6.0-2.8","2974374","co38569","norming","","","{""curiosity"":1,""confidence"":0}","[0,1]","../img/tt/418tt.jpg","",""
"6173.934999998892","","","recognition","survey-text","65","366883","0.0-6.0-3.8","2974374","co38569","norming","","","{""guess"":""boom""}","","../img/tt/418tt.jpg","",""
"null","../img/gs/418gs.jpg","null","reveal","image-keyboard-response","66","368892","0.0-6.0-4.8","2974374","co38569","norming","","","","","","",""
"null","../img/tt/418tt.jpg","null","mooney2","image-keyboard-response","67","370904","0.0-6.0-5.8","2974374","co38569","norming","","","","","","",""
"2649.4399999992456","","","post_reveal_questions","survey-likert","68","373555","0.0-6.0-6.8","2974374","co38569","norming","","","{""aha"":1}","[0]","../img/tt/418tt.jpg","",""
"null","<div style=""font-size:60px;""> </div>","null","fixation","html-keyboard-response","69","373759","0.0-6.0-0.9","2974374","co38569","norming","","","","","","",""
"null","../img/tt/1118tt.jpg","null","mooney1","image-keyboard-response","70","376764","0.0-6.0-1.9","2974374","co38569","norming","","","","","","",""
"6500.659999999683","","","post_mooney1_questions","survey-likert","71","383267","0.0-6.0-2.9","2974374","co38569","norming","","","{""curiosity"":1,""confidence"":0}","[0,1]","../img/tt/1118tt.jpg","",""
"2270.239999999816","","","recognition","survey-text","72","385539","0.0-6.0-3.9","2974374","co38569","norming","","","{""guess"":""""}","","../img/tt/1118tt.jpg","",""
"null","../img/gs/1118gs.jpg","null","reveal","image-keyboard-response","73","387540","0.0-6.0-4.9","2974374","co38569","norming","","","","","","",""
"null","../img/tt/1118tt.jpg","null","mooney2","image-keyboard-response","74","389544","0.0-6.0-5.9","2974374","co38569","norming","","","","","","",""
"2808.290000000852","","","post_reveal_questions","survey-likert","75","392355","0.0-6.0-6.9","2974374","co38569","norming","","","{""aha"":1}","[0]","../img/tt/1118tt.jpg","",""
"null","<div style=""font-size:60px;""> </div>","null","fixation","html-keyboard-response","76","392557","0.0-6.0-0.10","2974374","co38569","norming","","","","","","",""
"null","../img/tt/1276tt.jpg","null","mooney1","image-keyboard-response","77","395562","0.0-6.0-1.10","2974374","co38569","norming","","","","","","",""
"6854.320000000356","","","post_mooney1_questions","survey-likert","78","402419","0.0-6.0-2.10","2974374","co38569","norming","","","{""curiosity"":1,""confidence"":0}","[0,1]","../img/tt/1276tt.jpg","",""
"1341.810000001744","","","recognition","survey-text","79","403762","0.0-6.0-3.10","2974374","co38569","norming","","","{""guess"":""""}","","../img/tt/1276tt.jpg","",""
"null","../img/gs/1276gs.jpg","null","reveal","image-keyboard-response","80","405770","0.0-6.0-4.10","2974374","co38569","norming","","","","","","",""
"null","../img/tt/1276tt.jpg","null","mooney2","image-keyboard-response","81","407778","0.0-6.0-5.10","2974374","co38569","norming","","","","","","",""
"2870.8700000006356","","","post_reveal_questions","survey-likert","82","410651","0.0-6.0-6.10","2974374","co38569","norming","","","{""aha"":0}","[0]","../img/tt/1276tt.jpg","",""
"null","<div style=""font-size:60px;""> </div>","null","fixation","html-keyboard-response","83","410861","0.0-6.0-0.11","2974374","co38569","norming","","","","","","",""
"null","../img/tt/1269tt.jpg","null","mooney1","image-keyboard-response","84","413872","0.0-6.0-1.11","2974374","co38569","norming","","","","","","",""
"6023.714999999385","","","post_mooney1_questions","survey-likert","85","419899","0.0-6.0-2.11","2974374","co38569","norming","","","{""curiosity"":4,""confidence"":1}","[0,1]","../img/tt/1269tt.jpg","",""
"3462.379999999015","","","recognition","survey-text","86","423363","0.0-6.0-3.11","2974374","co38569","norming","","","{""guess"":""kat""}","","../img/tt/1269tt.jpg","",""
"null","../img/gs/1269gs.jpg","null","reveal","image-keyboard-response","87","425372","0.0-6.0-4.11","2974374","co38569","norming","","","","","","",""
"null","../img/tt/1269tt.jpg","null","mooney2","image-keyboard-response","88","427374","0.0-6.0-5.11","2974374","co38569","norming","","","","","","",""
"2938.0700000001816","","","post_reveal_questions","survey-likert","89","430315","0.0-6.0-6.11","2974374","co38569","norming","","","{""aha"":3}","[0]","../img/tt/1269tt.jpg","",""
"null","<div style=""font-size:60px;""> </div>","null","fixation","html-keyboard-response","90","430516","0.0-6.0-0.12","2974374","co38569","norming","","","","","","",""
"null","../img/tt/1268tt.jpg","null","mooney1","image-keyboard-response","91","433523","0.0-6.0-1.12","2974374","co38569","norming","","","","","","",""
"9301.120000000054","","","post_mooney1_questions","survey-likert","92","442827","0.0-6.0-2.12","2974374","co38569","norming","","","{""curiosity"":4,""confidence"":0}","[0,1]","../img/tt/1268tt.jpg","",""
"2190.0699999987264","","","recognition","survey-text","93","445019","0.0-6.0-3.12","2974374","co38569","norming","","","{""guess"":""""}","","../img/tt/1268tt.jpg","",""
"null","../img/gs/1268gs.jpg","null","reveal","image-keyboard-response","94","447028","0.0-6.0-4.12","2974374","co38569","norming","","","","","","",""
"null","../img/tt/1268tt.jpg","null","mooney2","image-keyboard-response","95","449029","0.0-6.0-5.12","2974374","co38569","norming","","","","","","",""
"13508.68999999878","","","post_reveal_questions","survey-likert","96","462539","0.0-6.0-6.12","2974374","co38569","norming","","","{""aha"":1}","[0]","../img/tt/1268tt.jpg","",""
"null","<div style=""font-size:60px;""> </div>","null","fixation","html-keyboard-response","97","462740","0.0-6.0-0.13","2974374","co38569","norming","","","","","","",""
"null","../img/tt/412tt.jpg","null","mooney1","image-keyboard-response","98","465744","0.0-6.0-1.13","2974374","co38569","norming","","","","","","",""
"4464.715000000084","","","post_mooney1_questions","survey-likert","99","470211","0.0-6.0-2.13","2974374","co38569","norming","","","{""curiosity"":4,""confidence"":0}","[0,1]","../img/tt/412tt.jpg","",""
"1782.1000000003842","","","recognition","survey-text","100","471995","0.0-6.0-3.13","2974374","co38569","norming","","","{""guess"":""""}","","../img/tt/412tt.jpg","",""
"null","../img/gs/412gs.jpg","null","reveal","image-keyboard-response","101","473999","0.0-6.0-4.13","2974374","co38569","norming","","","","","","",""
"null","../img/tt/412tt.jpg","null","mooney2","image-keyboard-response","102","476007","0.0-6.0-5.13","2974374","co38569","norming","","","","","","",""
"2130.240000000398","","","post_reveal_questions","survey-likert","103","478139","0.0-6.0-6.13","2974374","co38569","norming","","","{""aha"":0}","[0]","../img/tt/412tt.jpg","",""
"null","<div style=""font-size:60px;""> </div>","null","fixation","html-keyboard-response","104","478341","0.0-6.0-0.14","2974374","co38569","norming","","","","","","",""
"null","../img/tt/567tt.jpg","null","mooney1","image-keyboard-response","105","481349","0.0-6.0-1.14","2974374","co38569","norming","","","","","","",""
"6539.57500000071","","","post_mooney1_questions","survey-likert","106","487891","0.0-6.0-2.14","2974374","co38569","norming","","","{""curiosity"":5,""confidence"":0}","[0,1]","../img/tt/567tt.jpg","",""
"1077.8950000003679","","","recognition","survey-text","107","488971","0.0-6.0-3.14","2974374","co38569","norming","","","{""guess"":""""}","","../img/tt/567tt.jpg","",""
"null","../img/gs/567gs.jpg","null","reveal","image-keyboard-response","108","490973","0.0-6.0-4.14","2974374","co38569","norming","","","","","","",""
"null","../img/tt/567tt.jpg","null","mooney2","image-keyboard-response","109","492980","0.0-6.0-5.14","2974374","co38569","norming","","","","","","",""
"2765.4149999998626","","","post_reveal_questions","survey-likert","110","495747","0.0-6.0-6.14","2974374","co38569","norming","","","{""aha"":4}","[0]","../img/tt/567tt.jpg","",""
"null","<div style=""font-size:60px;""> </div>","null","fixation","html-keyboard-response","111","495949","0.0-6.0-0.15","2974374","co38569","norming","","","","","","",""
"null","../img/tt/524tt.jpg","null","mooney1","image-keyboard-response","112","498957","0.0-6.0-1.15","2974374","co38569","norming","","","","","","",""
"7419.610000000801","","","post_mooney1_questions","survey-likert","113","506387","0.0-6.0-2.15","2974374","co38569","norming","","","{""curiosity"":5,""confidence"":3}","[0,1]","../img/tt/524tt.jpg","",""
"3534.0949999990407","","","recognition","survey-text","114","509922","0.0-6.0-3.15","2974374","co38569","norming","","","{""guess"":""olifant""}","","../img/tt/524tt.jpg","",""
"null","../img/gs/524gs.jpg","null","reveal","image-keyboard-response","115","511928","0.0-6.0-4.15","2974374","co38569","norming","","","","","","",""
"null","../img/tt/524tt.jpg","null","mooney2","image-keyboard-response","116","513940","0.0-6.0-5.15","2974374","co38569","norming","","","","","","",""
"3060.2500000004657","","","post_reveal_questions","survey-likert","117","517002","0.0-6.0-6.15","2974374","co38569","norming","","","{""aha"":4}","[0]","../img/tt/524tt.jpg","",""
"null","<div style=""font-size:60px;""> </div>","null","fixation","html-keyboard-response","118","517204","0.0-6.0-0.16","2974374","co38569","norming","","","","","","",""
"null","../img/tt/440tt.jpg","null","mooney1","image-keyboard-response","119","520209","0.0-6.0-1.16","2974374","co38569","norming","","","","","","",""
"5614.989999999991","","","post_mooney1_questions","survey-likert","120","525827","0.0-6.0-2.16","2974374","co38569","norming","","","{""curiosity"":4,""confidence"":0}","[0,1]","../img/tt/440tt.jpg","",""
"2093.584999998682","","","recognition","survey-text","121","527922","0.0-6.0-3.16","2974374","co38569","norming","","","{""guess"":""""}","","../img/tt/440tt.jpg","",""
"null","../img/gs/440gs.jpg","null","reveal","image-keyboard-response","122","529930","0.0-6.0-4.16","2974374","co38569","norming","","","","","","",""
"null","../img/tt/440tt.jpg","null","mooney2","image-keyboard-response","123","531933","0.0-6.0-5.16","2974374","co38569","norming","","","","","","",""
"2850.634999998845","","","post_reveal_questions","survey-likert","124","534786","0.0-6.0-6.16","2974374","co38569","norming","","","{""aha"":0}","[0]","../img/tt/440tt.jpg","",""
"null","<div style=""font-size:60px;""> </div>","null","fixation","html-keyboard-response","125","534988","0.0-6.0-0.17","2974374","co38569","norming","","","","","","",""
"null","../img/tt/1116tt.jpg","null","mooney1","image-keyboard-response","126","537999","0.0-6.0-1.17","2974374","co38569","norming","","","","","","",""
"5312.54500000074","","","post_mooney1_questions","survey-likert","127","543315","0.0-6.0-2.17","2974374","co38569","norming","","","{""curiosity"":5,""confidence"":1}","[0,1]","../img/tt/1116tt.jpg","",""
"2926.3049999990035","","","recognition","survey-text","128","546242","0.0-6.0-3.17","2974374","co38569","norming","","","{""guess"":""vliegtuig""}","","../img/tt/1116tt.jpg","",""
"null","../img/gs/1116gs.jpg","null","reveal","image-keyboard-response","129","548245","0.0-6.0-4.17","2974374","co38569","norming","","","","","","",""
"null","../img/tt/1116tt.jpg","null","mooney2","image-keyboard-response","130","550247","0.0-6.0-5.17","2974374","co38569","norming","","","","","","",""
"4241.240000001271","","","post_reveal_questions","survey-likert","131","554490","0.0-6.0-6.17","2974374","co38569","norming","","","{""aha"":4}","[0]","../img/tt/1116tt.jpg","",""
"null","<div style=""font-size:60px;""> </div>","null","fixation","html-keyboard-response","132","554691","0.0-6.0-0.18","2974374","co38569","norming","","","","","","",""
"null","../img/tt/1122tt.jpg","null","mooney1","image-keyboard-response","133","557699","0.0-6.0-1.18","2974374","co38569","norming","","","","","","",""
"4093.3850000001257","","","post_mooney1_questions","survey-likert","134","561795","0.0-6.0-2.18","2974374","co38569","norming","","","{""curiosity"":4,""confidence"":2}","[0,1]","../img/tt/1122tt.jpg","",""
"1918.2150000015972","","","recognition","survey-text","135","563709","0.0-6.0-3.18","2974374","co38569","norming","","","{""guess"":""boot""}","","../img/tt/1122tt.jpg","",""
"null","../img/gs/1122gs.jpg","null","reveal","image-keyboard-response","136","565717","0.0-6.0-4.18","2974374","co38569","norming","","","","","","",""
"null","../img/tt/1122tt.jpg","null","mooney2","image-keyboard-response","137","567719","0.0-6.0-5.18","2974374","co38569","norming","","","","","","",""
"3195.214999999618","","","post_reveal_questions","survey-likert","138","570917","0.0-6.0-6.18","2974374","co38569","norming","","","{""aha"":3}","[0]","../img/tt/1122tt.jpg","",""
"null","<div style=""font-size:60px;""> </div>","null","fixation","html-keyboard-response","139","571118","0.0-6.0-0.19","2974374","co38569","norming","","","","","","",""
"null","../img/tt/1040tt.jpg","null","mooney1","image-keyboard-response","140","574129","0.0-6.0-1.19","2974374","co38569","norming","","","","","","",""
"5681.50500000047","","","post_mooney1_questions","survey-likert","141","579813","0.0-6.0-2.19","2974374","co38569","norming","","","{""curiosity"":4,""confidence"":1}","[0,1]","../img/tt/1040tt.jpg","",""
"1846.085000001127","","","recognition","survey-text","142","581661","0.0-6.0-3.19","2974374","co38569","norming","","","{""guess"":""kraan""}","","../img/tt/1040tt.jpg","",""
"null","../img/gs/1040gs.jpg","null","reveal","image-keyboard-response","143","583669","0.0-6.0-4.19","2974374","co38569","norming","","","","","","",""
"null","../img/tt/1040tt.jpg","null","mooney2","image-keyboard-response","144","585671","0.0-6.0-5.19","2974374","co38569","norming","","","","","","",""
"2580.0600000002887","","","post_reveal_questions","survey-likert","145","588253","0.0-6.0-6.19","2974374","co38569","norming","","","{""aha"":5}","[0]","../img/tt/1040tt.jpg","",""
"null","<div style=""font-size:60px;""> </div>","null","fixation","html-keyboard-response","146","588454","0.0-6.0-0.20","2974374","co38569","norming","","","","","","",""
"null","../img/tt/1048tt.jpg","null","mooney1","image-keyboard-response","147","591465","0.0-6.0-1.20","2974374","co38569","norming","","","","","","",""
"6712.70000000007","","","post_mooney1_questions","survey-likert","148","598181","0.0-6.0-2.20","2974374","co38569","norming","","","{""curiosity"":3,""confidence"":1}","[0,1]","../img/tt/1048tt.jpg","",""
"2246.1499999989755","","","recognition","survey-text","149","600429","0.0-6.0-3.20","2974374","co38569","norming","","","{""guess"":""boom""}","","../img/tt/1048tt.jpg","",""
"null","../img/gs/1048gs.jpg","null","reveal","image-keyboard-response","150","602434","0.0-6.0-4.20","2974374","co38569","norming","","","","","","",""
"null","../img/tt/1048tt.jpg","null","mooney2","image-keyboard-response","151","604445","0.0-6.0-5.20","2974374","co38569","norming","","","","","","",""
"3117.365000000107","","","post_reveal_questions","survey-likert","152","607565","0.0-6.0-6.20","2974374","co38569","norming","","","{""aha"":2}","[0]","../img/tt/1048tt.jpg","",""
"null","<div style=""font-size:60px;""> </div>","null","fixation","html-keyboard-response","153","607766","0.0-6.0-0.21","2974374","co38569","norming","","","","","","",""
"null","../img/tt/1086tt.jpg","null","mooney1","image-keyboard-response","154","610776","0.0-6.0-1.21","2974374","co38569","norming","","","","","","",""
"5801.460000000545","","","post_mooney1_questions","survey-likert","155","616581","0.0-6.0-2.21","2974374","co38569","norming","","","{""curiosity"":5,""confidence"":1}","[0,1]","../img/tt/1086tt.jpg","",""
"1590.5550000006333","","","recognition","survey-text","156","618173","0.0-6.0-3.21","2974374","co38569","norming","","","{""guess"":""wolf""}","","../img/tt/1086tt.jpg","",""
"null","../img/gs/1086gs.jpg","null","reveal","image-keyboard-response","157","620181","0.0-6.0-4.21","2974374","co38569","norming","","","","","","",""
"null","../img/tt/1086tt.jpg","null","mooney2","image-keyboard-response","158","622184","0.0-6.0-5.21","2974374","co38569","norming","","","","","","",""
"2858.785000000382","","","post_reveal_questions","survey-likert","159","625049","0.0-6.0-6.21","2974374","co38569","norming","","","{""aha"":5}","[0]","../img/tt/1086tt.jpg","",""
"null","<div style=""font-size:60px;""> </div>","null","fixation","html-keyboard-response","160","625250","0.0-6.0-0.22","2974374","co38569","norming","","","","","","",""
"null","../img/tt/1234tt.jpg","null","mooney1","image-keyboard-response","161","628261","0.0-6.0-1.22","2974374","co38569","norming","","","","","","",""
"9066.235000000335","","","post_mooney1_questions","survey-likert","162","637329","0.0-6.0-2.22","2974374","co38569","norming","","","{""curiosity"":5,""confidence"":4}","[0,1]","../img/tt/1234tt.jpg","",""
"7806.090000000084","","","recognition","survey-text","163","645137","0.0-6.0-3.22","2974374","co38569","norming","","","{""guess"":""vissersbootje ""}","","../img/tt/1234tt.jpg","",""
"null","../img/gs/1234gs.jpg","null","reveal","image-keyboard-response","164","647142","0.0-6.0-4.22","2974374","co38569","norming","","","","","","",""
"null","../img/tt/1234tt.jpg","null","mooney2","image-keyboard-response","165","649146","0.0-6.0-5.22","2974374","co38569","norming","","","","","","",""
"3460.7750000014203","","","post_reveal_questions","survey-likert","166","652609","0.0-6.0-6.22","2974374","co38569","norming","","","{""aha"":4}","[0]","../img/tt/1234tt.jpg","",""
"null","<div style=""font-size:60px;""> </div>","null","fixation","html-keyboard-response","167","652814","0.0-6.0-0.23","2974374","co38569","norming","","","","","","",""
"null","../img/tt/1279tt.jpg","null","mooney1","image-keyboard-response","168","655821","0.0-6.0-1.23","2974374","co38569","norming","","","","","","",""
"4659.184999998659","","","post_mooney1_questions","survey-likert","169","660481","0.0-6.0-2.23","2974374","co38569","norming","","","{""curiosity"":4,""confidence"":0}","[0,1]","../img/tt/1279tt.jpg","",""
"926.4050000002608","","","recognition","survey-text","170","661409","0.0-6.0-3.23","2974374","co38569","norming","","","{""guess"":""""}","","../img/tt/1279tt.jpg","",""
"null","../img/gs/1279gs.jpg","null","reveal","image-keyboard-response","171","663415","0.0-6.0-4.23","2974374","co38569","norming","","","","","","",""
"null","../img/tt/1279tt.jpg","null","mooney2","image-keyboard-response","172","665423","0.0-6.0-5.23","2974374","co38569","norming","","","","","","",""
"2583.9599999998463","","","post_reveal_questions","survey-likert","173","668009","0.0-6.0-6.23","2974374","co38569","norming","","","{""aha"":1}","[0]","../img/tt/1279tt.jpg","",""
"null","<div style=""font-size:60px;""> </div>","null","fixation","html-keyboard-response","174","668210","0.0-6.0-0.24","2974374","co38569","norming","","","","","","",""
"null","../img/tt/052tt.jpg","null","mooney1","image-keyboard-response","175","671216","0.0-6.0-1.24","2974374","co38569","norming","","","","","","",""
"5575.144999998971","","","post_mooney1_questions","survey-likert","176","676793","0.0-6.0-2.24","2974374","co38569","norming","","","{""curiosity"":4,""confidence"":0}","[0,1]","../img/tt/052tt.jpg","",""
"1269.8999999993248","","","recognition","survey-text","177","678065","0.0-6.0-3.24","2974374","co38569","norming","","","{""guess"":""""}","","../img/tt/052tt.jpg","",""
"null","../img/gs/052gs.jpg","null","reveal","image-keyboard-response","178","680072","0.0-6.0-4.24","2974374","co38569","norming","","","","","","",""
"null","../img/tt/052tt.jpg","null","mooney2","image-keyboard-response","179","682080","0.0-6.0-5.24","2974374","co38569","norming","","","","","","",""
"5870.684999999823","","","post_reveal_questions","survey-likert","180","687948","0.0-6.0-6.24","2974374","co38569","norming","","","{""aha"":2}","[0]","../img/tt/052tt.jpg","",""
"null","<div style=""font-size:60px;""> </div>","null","fixation","html-keyboard-response","181","688156","0.0-6.0-0.25","2974374","co38569","norming","","","","","","",""
"null","../img/tt/081tt.jpg","null","mooney1","image-keyboard-response","182","691167","0.0-6.0-1.25","2974374","co38569","norming","","","","","","",""
"6906.030000000144","","","post_mooney1_questions","survey-likert","183","698076","0.0-6.0-2.25","2974374","co38569","norming","","","{""curiosity"":4,""confidence"":1}","[0,1]","../img/tt/081tt.jpg","",""
"1678.0999999991618","","","recognition","survey-text","184","699756","0.0-6.0-3.25","2974374","co38569","norming","","","{""guess"":""pad""}","","../img/tt/081tt.jpg","",""
"null","../img/gs/081gs.jpg","null","reveal","image-keyboard-response","185","701760","0.0-6.0-4.25","2974374","co38569","norming","","","","","","",""
"null","../img/tt/081tt.jpg","null","mooney2","image-keyboard-response","186","703762","0.0-6.0-5.25","2974374","co38569","norming","","","","","","",""
"3143.4549999994924","","","post_reveal_questions","survey-likert","187","706908","0.0-6.0-6.25","2974374","co38569","norming","","","{""aha"":3}","[0]","../img/tt/081tt.jpg","",""
"null","<div style=""font-size:60px;""> </div>","null","fixation","html-keyboard-response","188","707109","0.0-6.0-0.26","2974374","co38569","norming","","","","","","",""
"null","../img/tt/1242tt.jpg","null","mooney1","image-keyboard-response","189","710114","0.0-6.0-1.26","2974374","co38569","norming","","","","","","",""
"7311.110000000568","","","post_mooney1_questions","survey-likert","190","717428","0.0-6.0-2.26","2974374","co38569","norming","","","{""curiosity"":4,""confidence"":0}","[0,1]","../img/tt/1242tt.jpg","",""
"1861.83499999973","","","recognition","survey-text","191","719291","0.0-6.0-3.26","2974374","co38569","norming","","","{""guess"":""""}","","../img/tt/1242tt.jpg","",""
"null","../img/gs/1242gs.jpg","null","reveal","image-keyboard-response","192","721295","0.0-6.0-4.26","2974374","co38569","norming","","","","","","",""
"null","../img/tt/1242tt.jpg","null","mooney2","image-keyboard-response","193","723306","0.0-6.0-5.26","2974374","co38569","norming","","","","","","",""
"3911.4900000004563","","","post_reveal_questions","survey-likert","194","727220","0.0-6.0-6.26","2974374","co38569","norming","","","{""aha"":0}","[0]","../img/tt/1242tt.jpg","",""
"null","<div style=""font-size:60px;""> </div>","null","fixation","html-keyboard-response","195","727421","0.0-6.0-0.27","2974374","co38569","norming","","","","","","",""
"null","../img/tt/1232tt.jpg","null","mooney1","image-keyboard-response","196","730425","0.0-6.0-1.27","2974374","co38569","norming","","","","","","",""
"6056.194999999134","","","post_mooney1_questions","survey-likert","197","736484","0.0-6.0-2.27","2974374","co38569","norming","","","{""curiosity"":6,""confidence"":0}","[0,1]","../img/tt/1232tt.jpg","",""
"1085.669999998645","","","recognition","survey-text","198","737571","0.0-6.0-3.27","2974374","co38569","norming","","","{""guess"":""""}","","../img/tt/1232tt.jpg","",""
"null","../img/gs/1232gs.jpg","null","reveal","image-keyboard-response","199","739578","0.0-6.0-4.27","2974374","co38569","norming","","","","","","",""
"null","../img/tt/1232tt.jpg","null","mooney2","image-keyboard-response","200","741586","0.0-6.0-5.27","2974374","co38569","norming","","","","","","",""
"1687.765000000596","","","post_reveal_questions","survey-likert","201","743276","0.0-6.0-6.27","2974374","co38569","norming","","","{""aha"":2}","[0]","../img/tt/1232tt.jpg","",""
"null","<div style=""font-size:60px;""> </div>","null","fixation","html-keyboard-response","202","743477","0.0-6.0-0.28","2974374","co38569","norming","","","","","","",""
"null","../img/tt/001tt.jpg","null","mooney1","image-keyboard-response","203","746497","0.0-6.0-1.28","2974374","co38569","norming","","","","","","",""
"3969.494999999297","","","post_mooney1_questions","survey-likert","204","750469","0.0-6.0-2.28","2974374","co38569","norming","","","{""curiosity"":5,""confidence"":1}","[0,1]","../img/tt/001tt.jpg","",""
"1709.9449999986682","","","recognition","survey-text","205","752181","0.0-6.0-3.28","2974374","co38569","norming","","","{""guess"":""stier""}","","../img/tt/001tt.jpg","",""
"null","../img/gs/001gs.jpg","null","reveal","image-keyboard-response","206","754188","0.0-6.0-4.28","2974374","co38569","norming","","","","","","",""
"null","../img/tt/001tt.jpg","null","mooney2","image-keyboard-response","207","756192","0.0-6.0-5.28","2974374","co38569","norming","","","","","","",""
"1794.5799999997253","","","post_reveal_questions","survey-likert","208","757989","0.0-6.0-6.28","2974374","co38569","norming","","","{""aha"":1}","[0]","../img/tt/001tt.jpg","",""
"null","<div style=""font-size:60px;""> </div>","null","fixation","html-keyboard-response","209","758192","0.0-6.0-0.29","2974374","co38569","norming","","","","","","",""
"null","../img/tt/1004tt.jpg","null","mooney1","image-keyboard-response","210","761201","0.0-6.0-1.29","2974374","co38569","norming","","","","","","",""
"6344.614999999991","","","post_mooney1_questions","survey-likert","211","767549","0.0-6.0-2.29","2974374","co38569","norming","","","{""curiosity"":2,""confidence"":0}","[0,1]","../img/tt/1004tt.jpg","",""
"806.065000000759","","","recognition","survey-text","212","768357","0.0-6.0-3.29","2974374","co38569","norming","","","{""guess"":""""}","","../img/tt/1004tt.jpg","",""
"null","../img/gs/1004gs.jpg","null","reveal","image-keyboard-response","213","770358","0.0-6.0-4.29","2974374","co38569","norming","","","","","","",""
"null","../img/tt/1004tt.jpg","null","mooney2","image-keyboard-response","214","772362","0.0-6.0-5.29","2974374","co38569","norming","","","","","","",""
"3152.6599999997998","","","post_reveal_questions","survey-likert","215","775517","0.0-6.0-6.29","2974374","co38569","norming","","","{""aha"":0}","[0]","../img/tt/1004tt.jpg","",""
"null","<div style=""font-size:60px;""> </div>","null","fixation","html-keyboard-response","216","775719","0.0-6.0-0.30","2974374","co38569","norming","","","","","","",""
"null","../img/tt/1217tt.jpg","null","mooney1","image-keyboard-response","217","778729","0.0-6.0-1.30","2974374","co38569","norming","","","","","","",""
"9273.54999999993","","","post_mooney1_questions","survey-likert","218","788005","0.0-6.0-2.30","2974374","co38569","norming","","","{""curiosity"":1,""confidence"":0}","[0,1]","../img/tt/1217tt.jpg","",""
"894.115000000922","","","recognition","survey-text","219","788901","0.0-6.0-3.30","2974374","co38569","norming","","","{""guess"":""""}","","../img/tt/1217tt.jpg","",""
"null","../img/gs/1217gs.jpg","null","reveal","image-keyboard-response","220","790910","0.0-6.0-4.30","2974374","co38569","norming","","","","","","",""
"null","../img/tt/1217tt.jpg","null","mooney2","image-keyboard-response","221","792919","0.0-6.0-5.30","2974374","co38569","norming","","","","","","",""
"2012.2350000001024","","","post_reveal_questions","survey-likert","222","794933","0.0-6.0-6.30","2974374","co38569","norming","","","{""aha"":0}","[0]","../img/tt/1217tt.jpg","",""
"null","<div style=""font-size:60px;""> </div>","null","fixation","html-keyboard-response","223","795134","0.0-6.0-0.31","2974374","co38569","norming","","","","","","",""
"null","../img/tt/496tt.jpg","null","mooney1","image-keyboard-response","224","798137","0.0-6.0-1.31","2974374","co38569","norming","","","","","","",""
"6889.310000000405","","","post_mooney1_questions","survey-likert","225","805029","0.0-6.0-2.31","2974374","co38569","norming","","","{""curiosity"":3,""confidence"":0}","[0,1]","../img/tt/496tt.jpg","",""
"3374.2149999997346","","","recognition","survey-text","226","808405","0.0-6.0-3.31","2974374","co38569","norming","","","{""guess"":""""}","","../img/tt/496tt.jpg","",""
"null","../img/gs/496gs.jpg","null","reveal","image-keyboard-response","227","810408","0.0-6.0-4.31","2974374","co38569","norming","","","","","","",""
"null","../img/tt/496tt.jpg","null","mooney2","image-keyboard-response","228","812417","0.0-6.0-5.31","2974374","co38569","norming","","","","","","",""
"2073.430000000284","","","post_reveal_questions","survey-likert","229","814493","0.0-6.0-6.31","2974374","co38569","norming","","","{""aha"":4}","[0]","../img/tt/496tt.jpg","",""
"null","<div style=""font-size:60px;""> </div>","null","fixation","html-keyboard-response","230","814695","0.0-6.0-0.32","2974374","co38569","norming","","","","","","",""
"null","../img/tt/584tt.jpg","null","mooney1","image-keyboard-response","231","817703","0.0-6.0-1.32","2974374","co38569","norming","","","","","","",""
"7442.445000000531","","","post_mooney1_questions","survey-likert","232","825149","0.0-6.0-2.32","2974374","co38569","norming","","","{""curiosity"":5,""confidence"":0}","[0,1]","../img/tt/584tt.jpg","",""
"765.9100000000326","","","recognition","survey-text","233","825917","0.0-6.0-3.32","2974374","co38569","norming","","","{""guess"":""""}","","../img/tt/584tt.jpg","",""
"null","../img/gs/584gs.jpg","null","reveal","image-keyboard-response","234","827918","0.0-6.0-4.32","2974374","co38569","norming","","","","","","",""
"null","../img/tt/584tt.jpg","null","mooney2","image-keyboard-response","235","829928","0.0-6.0-5.32","2974374","co38569","norming","","","","","","",""
"2987.590000000666","","","post_reveal_questions","survey-likert","236","832917","0.0-6.0-6.32","2974374","co38569","norming","","","{""aha"":1}","[0]","../img/tt/584tt.jpg","",""
"null","<div style=""font-size:60px;""> </div>","null","fixation","html-keyboard-response","237","833124","0.0-6.0-0.33","2974374","co38569","norming","","","","","","",""
"null","../img/tt/1128tt.jpg","null","mooney1","image-keyboard-response","238","836128","0.0-6.0-1.33","2974374","co38569","norming","","","","","","",""
"11345.919999999693","","","post_mooney1_questions","survey-likert","239","847477","0.0-6.0-2.33","2974374","co38569","norming","","","{""curiosity"":5,""confidence"":0}","[0,1]","../img/tt/1128tt.jpg","",""
"838.0600000000559","","","recognition","survey-text","240","848317","0.0-6.0-3.33","2974374","co38569","norming","","","{""guess"":""""}","","../img/tt/1128tt.jpg","",""
"null","../img/gs/1128gs.jpg","null","reveal","image-keyboard-response","241","850318","0.0-6.0-4.33","2974374","co38569","norming","","","","","","",""
"null","../img/tt/1128tt.jpg","null","mooney2","image-keyboard-response","242","852325","0.0-6.0-5.33","2974374","co38569","norming","","","","","","",""
"2501.459999999497","","","post_reveal_questions","survey-likert","243","854829","0.0-6.0-6.33","2974374","co38569","norming","","","{""aha"":5}","[0]","../img/tt/1128tt.jpg","",""
"null","<div style=""font-size:60px;""> </div>","null","fixation","html-keyboard-response","244","855030","0.0-6.0-0.34","2974374","co38569","norming","","","","","","",""
"null","../img/tt/1089tt.jpg","null","mooney1","image-keyboard-response","245","858036","0.0-6.0-1.34","2974374","co38569","norming","","","","","","",""
"5766.320000000647","","","post_mooney1_questions","survey-likert","246","863805","0.0-6.0-2.34","2974374","co38569","norming","","","{""curiosity"":5,""confidence"":1}","[0,1]","../img/tt/1089tt.jpg","",""
"1910.2449999991804","","","recognition","survey-text","247","865717","0.0-6.0-3.34","2974374","co38569","norming","","","{""guess"":""honden""}","","../img/tt/1089tt.jpg","",""
"null","../img/gs/1089gs.jpg","null","reveal","image-keyboard-response","248","867728","0.0-6.0-4.34","2974374","co38569","norming","","","","","","",""
"null","../img/tt/1089tt.jpg","null","mooney2","image-keyboard-response","249","869732","0.0-6.0-5.34","2974374","co38569","norming","","","","","","",""
"2063.8500000004424","","","post_reveal_questions","survey-likert","250","871798","0.0-6.0-6.34","2974374","co38569","norming","","","{""aha"":5}","[0]","../img/tt/1089tt.jpg","",""
"null","<div style=""font-size:60px;""> </div>","null","fixation","html-keyboard-response","251","871999","0.0-6.0-0.35","2974374","co38569","norming","","","","","","",""
"null","../img/tt/091tt.jpg","null","mooney1","image-keyboard-response","252","875002","0.0-6.0-1.35","2974374","co38569","norming","","","","","","",""
"11121.629999999655","","","post_mooney1_questions","survey-likert","253","886127","0.0-6.0-2.35","2974374","co38569","norming","","","{""curiosity"":1,""confidence"":0}","[0,1]","../img/tt/091tt.jpg","",""
"845.9400000009919","","","recognition","survey-text","254","886974","0.0-6.0-3.35","2974374","co38569","norming","","","{""guess"":""""}","","../img/tt/091tt.jpg","",""
"null","../img/gs/091gs.jpg","null","reveal","image-keyboard-response","255","888979","0.0-6.0-4.35","2974374","co38569","norming","","","","","","",""
"null","../img/tt/091tt.jpg","null","mooney2","image-keyboard-response","256","890988","0.0-6.0-5.35","2974374","co38569","norming","","","","","","",""
"1895.8400000010151","","","post_reveal_questions","survey-likert","257","892886","0.0-6.0-6.35","2974374","co38569","norming","","","{""aha"":1}","[0]","../img/tt/091tt.jpg","",""
"null","<div style=""font-size:60px;""> </div>","null","fixation","html-keyboard-response","258","893088","0.0-6.0-0.36","2974374","co38569","norming","","","","","","",""
"null","../img/tt/319tt.jpg","null","mooney1","image-keyboard-response","259","896098","0.0-6.0-1.36","2974374","co38569","norming","","","","","","",""
"6481.690000000526","","","post_mooney1_questions","survey-likert","260","902582","0.0-6.0-2.36","2974374","co38569","norming","","","{""curiosity"":5,""confidence"":0}","[0,1]","../img/tt/319tt.jpg","",""
"893.8000000016764","","","recognition","survey-text","261","903478","0.0-6.0-3.36","2974374","co38569","norming","","","{""guess"":""""}","","../img/tt/319tt.jpg","",""
"null","../img/gs/319gs.jpg","null","reveal","image-keyboard-response","262","905486","0.0-6.0-4.36","2974374","co38569","norming","","","","","","",""
"null","../img/tt/319tt.jpg","null","mooney2","image-keyboard-response","263","907487","0.0-6.0-5.36","2974374","co38569","norming","","","","","","",""
"2517.5399999989895","","","post_reveal_questions","survey-likert","264","910006","0.0-6.0-6.36","2974374","co38569","norming","","","{""aha"":4}","[0]","../img/tt/319tt.jpg","",""
"null","<div style=""font-size:60px;""> </div>","null","fixation","html-keyboard-response","265","910208","0.0-6.0-0.37","2974374","co38569","norming","","","","","","",""
"null","../img/tt/1173tt.jpg","null","mooney1","image-keyboard-response","266","913216","0.0-6.0-1.37","2974374","co38569","norming","","","","","","",""
"6044.929999998189","","","post_mooney1_questions","survey-likert","267","919262","0.0-6.0-2.37","2974374","co38569","norming","","","{""curiosity"":5,""confidence"":2}","[0,1]","../img/tt/1173tt.jpg","",""
"10814.075000000186","","","recognition","survey-text","268","930070","0.0-6.0-3.37","2974374","co38569","norming","","","{""guess"":""hockeyspelers""}","","../img/tt/1173tt.jpg","",""
"null","../img/gs/1173gs.jpg","null","reveal","image-keyboard-response","269","932079","0.0-6.0-4.37","2974374","co38569","norming","","","","","","",""
"null","../img/tt/1173tt.jpg","null","mooney2","image-keyboard-response","270","934090","0.0-6.0-5.37","2974374","co38569","norming","","","","","","",""
"2418.180000000517","","","post_reveal_questions","survey-likert","271","936510","0.0-6.0-6.37","2974374","co38569","norming","","","{""aha"":4}","[0]","../img/tt/1173tt.jpg","",""
"null","<div style=""font-size:60px;""> </div>","null","fixation","html-keyboard-response","272","936711","0.0-6.0-0.38","2974374","co38569","norming","","","","","","",""
"null","../img/tt/300tt.jpg","null","mooney1","image-keyboard-response","273","939719","0.0-6.0-1.38","2974374","co38569","norming","","","","","","",""
"7796.360000000335","","","post_mooney1_questions","survey-likert","274","947518","0.0-6.0-2.38","2974374","co38569","norming","","","{""curiosity"":4,""confidence"":0}","[0,1]","../img/tt/300tt.jpg","",""
"773.8499999996275","","","recognition","survey-text","275","948294","0.0-6.0-3.38","2974374","co38569","norming","","","{""guess"":""""}","","../img/tt/300tt.jpg","",""
"null","../img/gs/300gs.jpg","null","reveal","image-keyboard-response","276","950303","0.0-6.0-4.38","2974374","co38569","norming","","","","","","",""
"null","../img/tt/300tt.jpg","null","mooney2","image-keyboard-response","277","952313","0.0-6.0-5.38","2974374","co38569","norming","","","","","","",""
"2051.0699999995995","","","post_reveal_questions","survey-likert","278","954366","0.0-6.0-6.38","2974374","co38569","norming","","","{""aha"":0}","[0]","../img/tt/300tt.jpg","",""
"null","<div style=""font-size:60px;""> </div>","null","fixation","html-keyboard-response","279","954569","0.0-6.0-0.39","2974374","co38569","norming","","","","","","",""
"null","../img/tt/140tt.jpg","null","mooney1","image-keyboard-response","280","957572","0.0-6.0-1.39","2974374","co38569","norming","","","","","","",""
"6863.479999999981","","","post_mooney1_questions","survey-likert","281","964438","0.0-6.0-2.39","2974374","co38569","norming","","","{""curiosity"":4,""confidence"":0}","[0,1]","../img/tt/140tt.jpg","",""
"893.9699999991572","","","recognition","survey-text","282","965334","0.0-6.0-3.39","2974374","co38569","norming","","","{""guess"":""""}","","../img/tt/140tt.jpg","",""
"null","../img/gs/140gs.jpg","null","reveal","image-keyboard-response","283","967344","0.0-6.0-4.39","2974374","co38569","norming","","","","","","",""
"null","../img/tt/140tt.jpg","null","mooney2","image-keyboard-response","284","969346","0.0-6.0-5.39","2974374","co38569","norming","","","","","","",""
"1657.444999998901","","","post_reveal_questions","survey-likert","285","971006","0.0-6.0-6.39","2974374","co38569","norming","","","{""aha"":4}","[0]","../img/tt/140tt.jpg","",""
"null","<div style=""font-size:60px;""> </div>","null","fixation","html-keyboard-response","286","971208","0.0-6.0-0.40","2974374","co38569","norming","","","","","","",""
"null","../img/tt/1148tt.jpg","null","mooney1","image-keyboard-response","287","974211","0.0-6.0-1.40","2974374","co38569","norming","","","","","","",""
"4889.905000000028","","","post_mooney1_questions","survey-likert","288","979102","0.0-6.0-2.40","2974374","co38569","norming","","","{""curiosity"":0,""confidence"":0}","[0,1]","../img/tt/1148tt.jpg","",""
"1126.0100000000093","","","recognition","survey-text","289","980230","0.0-6.0-3.40","2974374","co38569","norming","","","{""guess"":""""}","","../img/tt/1148tt.jpg","",""
"null","../img/gs/1148gs.jpg","null","reveal","image-keyboard-response","290","982234","0.0-6.0-4.40","2974374","co38569","norming","","","","","","",""
"null","../img/tt/1148tt.jpg","null","mooney2","image-keyboard-response","291","984238","0.0-6.0-5.40","2974374","co38569","norming","","","","","","",""
"2821.275000000256","","","post_reveal_questions","survey-likert","292","987062","0.0-6.0-6.40","2974374","co38569","norming","","","{""aha"":3}","[0]","../img/tt/1148tt.jpg","",""
"null","<div style=""font-size:60px;""> </div>","null","fixation","html-keyboard-response","293","987265","0.0-6.0-0.41","2974374","co38569","norming","","","","","","",""
"null","../img/tt/1101tt.jpg","null","mooney1","image-keyboard-response","294","990279","0.0-6.0-1.41","2974374","co38569","norming","","","","","","",""
"4902.840000000666","","","post_mooney1_questions","survey-likert","295","995185","0.0-6.0-2.41","2974374","co38569","norming","","","{""curiosity"":6,""confidence"":2}","[0,1]","../img/tt/1101tt.jpg","",""
"2621.8300000000745","","","recognition","survey-text","296","997808","0.0-6.0-3.41","2974374","co38569","norming","","","{""guess"":""keeper""}","","../img/tt/1101tt.jpg","",""
"null","../img/gs/1101gs.jpg","null","reveal","image-keyboard-response","297","999811","0.0-6.0-4.41","2974374","co38569","norming","","","","","","",""
"null","../img/tt/1101tt.jpg","null","mooney2","image-keyboard-response","298","1001813","0.0-6.0-5.41","2974374","co38569","norming","","","","","","",""
"3041.4099999997998","","","post_reveal_questions","survey-likert","299","1004856","0.0-6.0-6.41","2974374","co38569","norming","","","{""aha"":2}","[0]","../img/tt/1101tt.jpg","",""
"null","<div style=""font-size:60px;""> </div>","null","fixation","html-keyboard-response","300","1005058","0.0-6.0-0.42","2974374","co38569","norming","","","","","","",""
"null","../img/tt/273tt.jpg","null","mooney1","image-keyboard-response","301","1008068","0.0-6.0-1.42","2974374","co38569","norming","","","","","","",""
"5569.4949999997625","","","post_mooney1_questions","survey-likert","302","1013641","0.0-6.0-2.42","2974374","co38569","norming","","","{""curiosity"":4,""confidence"":0}","[0,1]","../img/tt/273tt.jpg","",""
"1014.0400000000373","","","recognition","survey-text","303","1014656","0.0-6.0-3.42","2974374","co38569","norming","","","{""guess"":""""}","","../img/tt/273tt.jpg","",""
"null","../img/gs/273gs.jpg","null","reveal","image-keyboard-response","304","1016661","0.0-6.0-4.42","2974374","co38569","norming","","","","","","",""
"null","../img/tt/273tt.jpg","null","mooney2","image-keyboard-response","305","1018662","0.0-6.0-5.42","2974374","co38569","norming","","","","","","",""
"1696.7700000004843","","","post_reveal_questions","survey-likert","306","1020361","0.0-6.0-6.42","2974374","co38569","norming","","","{""aha"":5}","[0]","../img/tt/273tt.jpg","",""
"null","<div style=""font-size:60px;""> </div>","null","fixation","html-keyboard-response","307","1020563","0.0-6.0-0.43","2974374","co38569","norming","","","","","","",""
"null","../img/tt/1146tt.jpg","null","mooney1","image-keyboard-response","308","1023573","0.0-6.0-1.43","2974374","co38569","norming","","","","","","",""
"6288.959999999846","","","post_mooney1_questions","survey-likert","309","1029865","0.0-6.0-2.43","2974374","co38569","norming","","","{""curiosity"":5,""confidence"":0}","[0,1]","../img/tt/1146tt.jpg","",""
"846.125","","","recognition","survey-text","310","1030712","0.0-6.0-3.43","2974374","co38569","norming","","","{""guess"":""""}","","../img/tt/1146tt.jpg","",""
"null","../img/gs/1146gs.jpg","null","reveal","image-keyboard-response","311","1032714","0.0-6.0-4.43","2974374","co38569","norming","","","","","","",""
"null","../img/tt/1146tt.jpg","null","mooney2","image-keyboard-response","312","1034721","0.0-6.0-5.43","2974374","co38569","norming","","","","","","",""
"2612.8799999988405","","","post_reveal_questions","survey-likert","313","1037336","0.0-6.0-6.43","2974374","co38569","norming","","","{""aha"":1}","[0]","../img/tt/1146tt.jpg","",""
"null","<div style=""font-size:60px;""> </div>","null","fixation","html-keyboard-response","314","1037538","0.0-6.0-0.44","2974374","co38569","norming","","","","","","",""
"null","../img/tt/1130tt.jpg","null","mooney1","image-keyboard-response","315","1040547","0.0-6.0-1.44","2974374","co38569","norming","","","","","","",""
"10010.350000000559","","","post_mooney1_questions","survey-likert","316","1050555","0.0-6.0-2.44","2974374","co38569","norming","","","{""curiosity"":4,""confidence"":1}","[0,1]","../img/tt/1130tt.jpg","",""
"4934.354999999283","","","recognition","survey-text","317","1055491","0.0-6.0-3.44","2974374","co38569","norming","","","{""guess"":""basketbalspeler""}","","../img/tt/1130tt.jpg","",""
"null","../img/gs/1130gs.jpg","null","reveal","image-keyboard-response","318","1057500","0.0-6.0-4.44","2974374","co38569","norming","","","","","","",""
"null","../img/tt/1130tt.jpg","null","mooney2","image-keyboard-response","319","1059503","0.0-6.0-5.44","2974374","co38569","norming","","","","","","",""
"3200.995000001043","","","post_reveal_questions","survey-likert","320","1062707","0.0-6.0-6.44","2974374","co38569","norming","","","{""aha"":2}","[0]","../img/tt/1130tt.jpg","",""
"null","<div style=""font-size:60px;""> </div>","null","fixation","html-keyboard-response","321","1062909","0.0-6.0-0.45","2974374","co38569","norming","","","","","","",""
"null","../img/tt/329tt.jpg","null","mooney1","image-keyboard-response","322","1065920","0.0-6.0-1.45","2974374","co38569","norming","","","","","","",""
"7378.544999999693","","","post_mooney1_questions","survey-likert","323","1073300","0.0-6.0-2.45","2974374","co38569","norming","","","{""curiosity"":1,""confidence"":0}","[0,1]","../img/tt/329tt.jpg","",""
"1109.9200000008568","","","recognition","survey-text","324","1074411","0.0-6.0-3.45","2974374","co38569","norming","","","{""guess"":""""}","","../img/tt/329tt.jpg","",""
"null","../img/gs/329gs.jpg","null","reveal","image-keyboard-response","325","1076415","0.0-6.0-4.45","2974374","co38569","norming","","","","","","",""
"null","../img/tt/329tt.jpg","null","mooney2","image-keyboard-response","326","1078425","0.0-6.0-5.45","2974374","co38569","norming","","","","","","",""
"2089.0099999995437","","","post_reveal_questions","survey-likert","327","1080515","0.0-6.0-6.45","2974374","co38569","norming","","","{""aha"":0}","[0]","../img/tt/329tt.jpg","",""
"null","<div style=""font-size:60px;""> </div>","null","fixation","html-keyboard-response","328","1080717","0.0-6.0-0.46","2974374","co38569","norming","","","","","","",""
"null","../img/tt/079tt.jpg","null","mooney1","image-keyboard-response","329","1083726","0.0-6.0-1.46","2974374","co38569","norming","","","","","","",""
"6594.399999999907","","","post_mooney1_questions","survey-likert","330","1090323","0.0-6.0-2.46","2974374","co38569","norming","","","{""curiosity"":4,""confidence"":0}","[0,1]","../img/tt/079tt.jpg","",""
"1182.049999999348","","","recognition","survey-text","331","1091507","0.0-6.0-3.46","2974374","co38569","norming","","","{""guess"":""""}","","../img/tt/079tt.jpg","",""
"null","../img/gs/079gs.jpg","null","reveal","image-keyboard-response","332","1093513","0.0-6.0-4.46","2974374","co38569","norming","","","","","","",""
"null","../img/tt/079tt.jpg","null","mooney2","image-keyboard-response","333","1095516","0.0-6.0-5.46","2974374","co38569","norming","","","","","","",""
"2461.0849999990314","","","post_reveal_questions","survey-likert","334","1097979","0.0-6.0-6.46","2974374","co38569","norming","","","{""aha"":4}","[0]","../img/tt/079tt.jpg","",""
"null","<div style=""font-size:60px;""> </div>","null","fixation","html-keyboard-response","335","1098181","0.0-6.0-0.47","2974374","co38569","norming","","","","","","",""
"null","../img/tt/1186tt.jpg","null","mooney1","image-keyboard-response","336","1101185","0.0-6.0-1.47","2974374","co38569","norming","","","","","","",""
"10311.035000000615","","","post_mooney1_questions","survey-likert","337","1111505","0.0-6.0-2.47","2974374","co38569","norming","","","{""curiosity"":3,""confidence"":0}","[0,1]","../img/tt/1186tt.jpg","",""
"1197.7700000007171","","","recognition","survey-text","338","1112705","0.0-6.0-3.47","2974374","co38569","norming","","","{""guess"":""""}","","../img/tt/1186tt.jpg","",""
"null","../img/gs/1186gs.jpg","null","reveal","image-keyboard-response","339","1114713","0.0-6.0-4.47","2974374","co38569","norming","","","","","","",""
"null","../img/tt/1186tt.jpg","null","mooney2","image-keyboard-response","340","1116721","0.0-6.0-5.47","2974374","co38569","norming","","","","","","",""
"2447.08499999973","","","post_reveal_questions","survey-likert","341","1119169","0.0-6.0-6.47","2974374","co38569","norming","","","{""aha"":4}","[0]","../img/tt/1186tt.jpg","",""
"null","<div style=""font-size:60px;""> </div>","null","fixation","html-keyboard-response","342","1119371","0.0-6.0-0.48","2974374","co38569","norming","","","","","","",""
"null","../img/tt/1125tt.jpg","null","mooney1","image-keyboard-response","343","1122375","0.0-6.0-1.48","2974374","co38569","norming","","","","","","",""
"9479.545000000158","","","post_mooney1_questions","survey-likert","344","1131857","0.0-6.0-2.48","2974374","co38569","norming","","","{""curiosity"":5,""confidence"":1}","[0,1]","../img/tt/1125tt.jpg","",""
"6141.970000000671","","","recognition","survey-text","345","1138001","0.0-6.0-3.48","2974374","co38569","norming","","","{""guess"":""roeier""}","","../img/tt/1125tt.jpg","",""
"null","../img/gs/1125gs.jpg","null","reveal","image-keyboard-response","346","1140009","0.0-6.0-4.48","2974374","co38569","norming","","","","","","",""
"null","../img/tt/1125tt.jpg","null","mooney2","image-keyboard-response","347","1142020","0.0-6.0-5.48","2974374","co38569","norming","","","","","","",""
"2666.3550000011455","","","post_reveal_questions","survey-likert","348","1144689","0.0-6.0-6.48","2974374","co38569","norming","","","{""aha"":1}","[0]","../img/tt/1125tt.jpg","",""
"null","<div style=""font-size:60px;""> </div>","null","fixation","html-keyboard-response","349","1144891","0.0-6.0-0.49","2974374","co38569","norming","","","","","","",""
"null","../img/tt/1123tt.jpg","null","mooney1","image-keyboard-response","350","1147895","0.0-6.0-1.49","2974374","co38569","norming","","","","","","",""
"6375.489999998594","","","post_mooney1_questions","survey-likert","351","1154273","0.0-6.0-2.49","2974374","co38569","norming","","","{""curiosity"":5,""confidence"":1}","[0,1]","../img/tt/1123tt.jpg","",""
"7246.239999998594","","","recognition","survey-text","352","1161521","0.0-6.0-3.49","2974374","co38569","norming","","","{""guess"":""Volleybalspeler""}","","../img/tt/1123tt.jpg","",""
"null","../img/gs/1123gs.jpg","null","reveal","image-keyboard-response","353","1163529","0.0-6.0-4.49","2974374","co38569","norming","","","","","","",""
"null","../img/tt/1123tt.jpg","null","mooney2","image-keyboard-response","354","1165532","0.0-6.0-5.49","2974374","co38569","norming","","","","","","",""
"1905.9599999999627","","","post_reveal_questions","survey-likert","355","1167441","0.0-6.0-6.49","2974374","co38569","norming","","","{""aha"":3}","[0]","../img/tt/1123tt.jpg","",""
"null","<div style=""font-size:60px;""> </div>","null","fixation","html-keyboard-response","356","1167643","0.0-6.0-0.50","2974374","co38569","norming","","","","","","",""
"null","../img/tt/032tt.jpg","null","mooney1","image-keyboard-response","357","1170650","0.0-6.0-1.50","2974374","co38569","norming","","","","","","",""
"4733.584999999963","","","post_mooney1_questions","survey-likert","358","1175387","0.0-6.0-2.50","2974374","co38569","norming","","","{""curiosity"":5,""confidence"":1}","[0,1]","../img/tt/032tt.jpg","",""
"2318.119999999879","","","recognition","survey-text","359","1177706","0.0-6.0-3.50","2974374","co38569","norming","","","{""guess"":""ijsbeer""}","","../img/tt/032tt.jpg","",""
"null","../img/gs/032gs.jpg","null","reveal","image-keyboard-response","360","1179711","0.0-6.0-4.50","2974374","co38569","norming","","","","","","",""
"null","../img/tt/032tt.jpg","null","mooney2","image-keyboard-response","361","1181721","0.0-6.0-5.50","2974374","co38569","norming","","","","","","",""
"2367.185000000987","","","post_reveal_questions","survey-likert","362","1184090","0.0-6.0-6.50","2974374","co38569","norming","","","{""aha"":0}","[0]","../img/tt/032tt.jpg","",""
"null","<div style=""font-size:60px;""> </div>","null","fixation","html-keyboard-response","363","1184292","0.0-6.0-0.51","2974374","co38569","norming","","","","","","",""
"null","../img/tt/078tt.jpg","null","mooney1","image-keyboard-response","364","1187296","0.0-6.0-1.51","2974374","co38569","norming","","","","","","",""
"4734.934999998659","","","post_mooney1_questions","survey-likert","365","1192034","0.0-6.0-2.51","2974374","co38569","norming","","","{""curiosity"":5,""confidence"":0}","[0,1]","../img/tt/078tt.jpg","",""
"878.1950000012293","","","recognition","survey-text","366","1192914","0.0-6.0-3.51","2974374","co38569","norming","","","{""guess"":""""}","","../img/tt/078tt.jpg","",""
"null","../img/gs/078gs.jpg","null","reveal","image-keyboard-response","367","1194918","0.0-6.0-4.51","2974374","co38569","norming","","","","","","",""
"null","../img/tt/078tt.jpg","null","mooney2","image-keyboard-response","368","1196930","0.0-6.0-5.51","2974374","co38569","norming","","","","","","",""
"2493.634999998845","","","post_reveal_questions","survey-likert","369","1199426","0.0-6.0-6.51","2974374","co38569","norming","","","{""aha"":5}","[0]","../img/tt/078tt.jpg","",""
"null","<div style=""font-size:60px;""> </div>","null","fixation","html-keyboard-response","370","1199628","0.0-6.0-0.52","2974374","co38569","norming","","","","","","",""
"null","../img/tt/1143tt.jpg","null","mooney1","image-keyboard-response","371","1202639","0.0-6.0-1.52","2974374","co38569","norming","","","","","","",""
"6290.049999999581","","","post_mooney1_questions","survey-likert","372","1208931","0.0-6.0-2.52","2974374","co38569","norming","","","{""curiosity"":4,""confidence"":0}","[0,1]","../img/tt/1143tt.jpg","",""
"630.2100000011269","","","recognition","survey-text","373","1209562","0.0-6.0-3.52","2974374","co38569","norming","","","{""guess"":""""}","","../img/tt/1143tt.jpg","",""
"null","../img/gs/1143gs.jpg","null","reveal","image-keyboard-response","374","1211571","0.0-6.0-4.52","2974374","co38569","norming","","","","","","",""
"null","../img/tt/1143tt.jpg","null","mooney2","image-keyboard-response","375","1213581","0.0-6.0-5.52","2974374","co38569","norming","","","","","","",""
"1722.7550000008196","","","post_reveal_questions","survey-likert","376","1215306","0.0-6.0-6.52","2974374","co38569","norming","","","{""aha"":0}","[0]","../img/tt/1143tt.jpg","",""
"null","<div style=""font-size:60px;""> </div>","null","fixation","html-keyboard-response","377","1215508","0.0-6.0-0.53","2974374","co38569","norming","","","","","","",""
"null","../img/tt/094tt.jpg","null","mooney1","image-keyboard-response","378","1218519","0.0-6.0-1.53","2974374","co38569","norming","","","","","","",""
"4487.760000000009","","","post_mooney1_questions","survey-likert","379","1223011","0.0-6.0-2.53","2974374","co38569","norming","","","{""curiosity"":1,""confidence"":0}","[0,1]","../img/tt/094tt.jpg","",""
"901.9949999982491","","","recognition","survey-text","380","1223914","0.0-6.0-3.53","2974374","co38569","norming","","","{""guess"":""""}","","../img/tt/094tt.jpg","",""
"null","../img/gs/094gs.jpg","null","reveal","image-keyboard-response","381","1225922","0.0-6.0-4.53","2974374","co38569","norming","","","","","","",""
"null","../img/tt/094tt.jpg","null","mooney2","image-keyboard-response","382","1227932","0.0-6.0-5.53","2974374","co38569","norming","","","","","","",""
"1803.6550000016578","","","post_reveal_questions","survey-likert","383","1229738","0.0-6.0-6.53","2974374","co38569","norming","","","{""aha"":0}","[0]","../img/tt/094tt.jpg","",""
"null","<div style=""font-size:60px;""> </div>","null","fixation","html-keyboard-response","384","1229939","0.0-6.0-0.54","2974374","co38569","norming","","","","","","",""
"null","../img/tt/515tt.jpg","null","mooney1","image-keyboard-response","385","1232944","0.0-6.0-1.54","2974374","co38569","norming","","","","","","",""
"5687.0099999997765","","","post_mooney1_questions","survey-likert","386","1238632","0.0-6.0-2.54","2974374","co38569","norming","","","{""curiosity"":2,""confidence"":0}","[0,1]","../img/tt/515tt.jpg","",""
"1766.1150000004563","","","recognition","survey-text","387","1240400","0.0-6.0-3.54","2974374","co38569","norming","","","{""guess"":""""}","","../img/tt/515tt.jpg","",""
"null","../img/gs/515gs.jpg","null","reveal","image-keyboard-response","388","1242402","0.0-6.0-4.54","2974374","co38569","norming","","","","","","",""
"null","../img/tt/515tt.jpg","null","mooney2","image-keyboard-response","389","1244413","0.0-6.0-5.54","2974374","co38569","norming","","","","","","",""
"2304.2649999989662","","","post_reveal_questions","survey-likert","390","1246720","0.0-6.0-6.54","2974374","co38569","norming","","","{""aha"":4}","[0]","../img/tt/515tt.jpg","",""
"null","<div style=""font-size:60px;""> </div>","null","fixation","html-keyboard-response","391","1246922","0.0-6.0-0.55","2974374","co38569","norming","","","","","","",""
"null","../img/tt/189tt.jpg","null","mooney1","image-keyboard-response","392","1249931","0.0-6.0-1.55","2974374","co38569","norming","","","","","","",""
"8320.794999999693","","","post_mooney1_questions","survey-likert","393","1258257","0.0-6.0-2.55","2974374","co38569","norming","","","{""curiosity"":5,""confidence"":0}","[0,1]","../img/tt/189tt.jpg","",""
"2694.1100000003353","","","recognition","survey-text","394","1260953","0.0-6.0-3.55","2974374","co38569","norming","","","{""guess"":""surfen""}","","../img/tt/189tt.jpg","",""
"null","../img/gs/189gs.jpg","null","reveal","image-keyboard-response","395","1262963","0.0-6.0-4.55","2974374","co38569","norming","","","","","","",""
"null","../img/tt/189tt.jpg","null","mooney2","image-keyboard-response","396","1264974","0.0-6.0-5.55","2974374","co38569","norming","","","","","","",""
"2816.334999999497","","","post_reveal_questions","survey-likert","397","1267792","0.0-6.0-6.55","2974374","co38569","norming","","","{""aha"":1}","[0]","../img/tt/189tt.jpg","",""
"null","<div style=""font-size:60px;""> </div>","null","fixation","html-keyboard-response","398","1267994","0.0-6.0-0.56","2974374","co38569","norming","","","","","","",""
"null","../img/tt/008tt.jpg","null","mooney1","image-keyboard-response","399","1271000","0.0-6.0-1.56","2974374","co38569","norming","","","","","","",""
"7956.719999998342","","","post_mooney1_questions","survey-likert","400","1278960","0.0-6.0-2.56","2974374","co38569","norming","","","{""curiosity"":2,""confidence"":0}","[0,1]","../img/tt/008tt.jpg","",""
"806.0449999994598","","","recognition","survey-text","401","1279768","0.0-6.0-3.56","2974374","co38569","norming","","","{""guess"":""""}","","../img/tt/008tt.jpg","",""
"null","../img/gs/008gs.jpg","null","reveal","image-keyboard-response","402","1281773","0.0-6.0-4.56","2974374","co38569","norming","","","","","","",""
"null","../img/tt/008tt.jpg","null","mooney2","image-keyboard-response","403","1283781","0.0-6.0-5.56","2974374","co38569","norming","","","","","","",""
"2937.39500000095","","","post_reveal_questions","survey-likert","404","1286720","0.0-6.0-6.56","2974374","co38569","norming","","","{""aha"":5}","[0]","../img/tt/008tt.jpg","",""
"null","<div style=""font-size:60px;""> </div>","null","fixation","html-keyboard-response","405","1286922","0.0-6.0-0.57","2974374","co38569","norming","","","","","","",""
"null","../img/tt/380tt.jpg","null","mooney1","image-keyboard-response","406","1289930","0.0-6.0-1.57","2974374","co38569","norming","","","","","","",""
"8650.994999999879","","","post_mooney1_questions","survey-likert","407","1298584","0.0-6.0-2.57","2974374","co38569","norming","","","{""curiosity"":5,""confidence"":1}","[0,1]","../img/tt/380tt.jpg","",""
"2782.3049999990035","","","recognition","survey-text","408","1301368","0.0-6.0-3.57","2974374","co38569","norming","","","{""guess"":""bloem""}","","../img/tt/380tt.jpg","",""
"null","../img/gs/380gs.jpg","null","reveal","image-keyboard-response","409","1303378","0.0-6.0-4.57","2974374","co38569","norming","","","","","","",""
"null","../img/tt/380tt.jpg","null","mooney2","image-keyboard-response","410","1305380","0.0-6.0-5.57","2974374","co38569","norming","","","","","","",""
"1858.0399999993388","","","post_reveal_questions","survey-likert","411","1307240","0.0-6.0-6.57","2974374","co38569","norming","","","{""aha"":0}","[0]","../img/tt/380tt.jpg","",""
"null","<div style=""font-size:60px;""> </div>","null","fixation","html-keyboard-response","412","1307450","0.0-6.0-0.58","2974374","co38569","norming","","","","","","",""
"null","../img/tt/124tt.jpg","null","mooney1","image-keyboard-response","413","1310459","0.0-6.0-1.58","2974374","co38569","norming","","","","","","",""
"6195.050000000279","","","post_mooney1_questions","survey-likert","414","1316656","0.0-6.0-2.58","2974374","co38569","norming","","","{""curiosity"":4,""confidence"":0}","[0,1]","../img/tt/124tt.jpg","",""
"1205.889999999199","","","recognition","survey-text","415","1317864","0.0-6.0-3.58","2974374","co38569","norming","","","{""guess"":""""}","","../img/tt/124tt.jpg","",""
"null","../img/gs/124gs.jpg","null","reveal","image-keyboard-response","416","1319872","0.0-6.0-4.58","2974374","co38569","norming","","","","","","",""
"null","../img/tt/124tt.jpg","null","mooney2","image-keyboard-response","417","1321882","0.0-6.0-5.58","2974374","co38569","norming","","","","","","",""
"1859.2849999985192","","","post_reveal_questions","survey-likert","418","1323744","0.0-6.0-6.58","2974374","co38569","norming","","","{""aha"":4}","[0]","../img/tt/124tt.jpg","",""
"null","<div style=""font-size:60px;""> </div>","null","fixation","html-keyboard-response","419","1323946","0.0-6.0-0.59","2974374","co38569","norming","","","","","","",""
"null","../img/tt/096tt.jpg","null","mooney1","image-keyboard-response","420","1326953","0.0-6.0-1.59","2974374","co38569","norming","","","","","","",""
"7484.584999998333","","","post_mooney1_questions","survey-likert","421","1334440","0.0-6.0-2.59","2974374","co38569","norming","","","{""curiosity"":5,""confidence"":0}","[0,1]","../img/tt/096tt.jpg","",""
"2846.1100000003353","","","recognition","survey-text","422","1337288","0.0-6.0-3.59","2974374","co38569","norming","","","{""guess"":""vliegtuig""}","","../img/tt/096tt.jpg","",""
"null","../img/gs/096gs.jpg","null","reveal","image-keyboard-response","423","1339296","0.0-6.0-4.59","2974374","co38569","norming","","","","","","",""
"null","../img/tt/096tt.jpg","null","mooney2","image-keyboard-response","424","1341305","0.0-6.0-5.59","2974374","co38569","norming","","","","","","",""
"2196.8549999999814","","","post_reveal_questions","survey-likert","425","1343504","0.0-6.0-6.59","2974374","co38569","norming","","","{""aha"":3}","[0]","../img/tt/096tt.jpg","",""
"null","<div style=""font-size:60px;""> </div>","null","fixation","html-keyboard-response","426","1343706","0.0-6.0-0.60","2974374","co38569","norming","","","","","","",""
"null","../img/tt/1262tt.jpg","null","mooney1","image-keyboard-response","427","1346717","0.0-6.0-1.60","2974374","co38569","norming","","","","","","",""
"4249.714999999851","","","post_mooney1_questions","survey-likert","428","1350968","0.0-6.0-2.60","2974374","co38569","norming","","","{""curiosity"":2,""confidence"":0}","[0,1]","../img/tt/1262tt.jpg","",""
"718.3349999994971","","","recognition","survey-text","429","1351688","0.0-6.0-3.60","2974374","co38569","norming","","","{""guess"":""""}","","../img/tt/1262tt.jpg","",""
"null","../img/gs/1262gs.jpg","null","reveal","image-keyboard-response","430","1353694","0.0-6.0-4.60","2974374","co38569","norming","","","","","","",""
"null","../img/tt/1262tt.jpg","null","mooney2","image-keyboard-response","431","1355701","0.0-6.0-5.60","2974374","co38569","norming","","","","","","",""
"2720.714999999618","","","post_reveal_questions","survey-likert","432","1358427","0.0-6.0-6.60","2974374","co38569","norming","","","{""aha"":5}","[0]","../img/tt/1262tt.jpg","",""
"null","<div style=""font-size:60px;""> </div>","null","fixation","html-keyboard-response","433","1358630","0.0-6.0-0.61","2974374","co38569","norming","","","","","","",""
"null","../img/tt/1107tt.jpg","null","mooney1","image-keyboard-response","434","1361636","0.0-6.0-1.61","2974374","co38569","norming","","","","","","",""
"6349.655000000028","","","post_mooney1_questions","survey-likert","435","1367987","0.0-6.0-2.61","2974374","co38569","norming","","","{""curiosity"":4,""confidence"":0}","[0,1]","../img/tt/1107tt.jpg","",""
"1405.9949999991804","","","recognition","survey-text","436","1369395","0.0-6.0-3.61","2974374","co38569","norming","","","{""guess"":""""}","","../img/tt/1107tt.jpg","",""
"null","../img/gs/1107gs.jpg","null","reveal","image-keyboard-response","437","1371399","0.0-6.0-4.61","2974374","co38569","norming","","","","","","",""
"null","../img/tt/1107tt.jpg","null","mooney2","image-keyboard-response","438","1373400","0.0-6.0-5.61","2974374","co38569","norming","","","","","","",""
"1752.2250000000931","","","post_reveal_questions","survey-likert","439","1375155","0.0-6.0-6.61","2974374","co38569","norming","","","{""aha"":0}","[0]","../img/tt/1107tt.jpg","",""
"null","<div style=""font-size:60px;""> </div>","null","fixation","html-keyboard-response","440","1375357","0.0-6.0-0.62","2974374","co38569","norming","","","","","","",""
"null","../img/tt/046tt.jpg","null","mooney1","image-keyboard-response","441","1378360","0.0-6.0-1.62","2974374","co38569","norming","","","","","","",""
"5479.170000000624","","","post_mooney1_questions","survey-likert","442","1383843","0.0-6.0-2.62","2974374","co38569","norming","","","{""curiosity"":4,""confidence"":1}","[0,1]","../img/tt/046tt.jpg","",""
"2134.2900000000373","","","recognition","survey-text","443","1385979","0.0-6.0-3.62","2974374","co38569","norming","","","{""guess"":""krokodil""}","","../img/tt/046tt.jpg","",""
"null","../img/gs/046gs.jpg","null","reveal","image-keyboard-response","444","1387989","0.0-6.0-4.62","2974374","co38569","norming","","","","","","",""
"null","../img/tt/046tt.jpg","null","mooney2","image-keyboard-response","445","1389998","0.0-6.0-5.62","2974374","co38569","norming","","","","","","",""
"2722.1649999993388","","","post_reveal_questions","survey-likert","446","1392723","0.0-6.0-6.62","2974374","co38569","norming","","","{""aha"":1}","[0]","../img/tt/046tt.jpg","",""
"null","<div style=""font-size:60px;""> </div>","null","fixation","html-keyboard-response","447","1392925","0.0-6.0-0.63","2974374","co38569","norming","","","","","","",""
"null","../img/tt/1080tt.jpg","null","mooney1","image-keyboard-response","448","1395933","0.0-6.0-1.63","2974374","co38569","norming","","","","","","",""
"5339.145000000019","","","post_mooney1_questions","survey-likert","449","1401275","0.0-6.0-2.63","2974374","co38569","norming","","","{""curiosity"":4,""confidence"":0}","[0,1]","../img/tt/1080tt.jpg","",""
"821.9350000000559","","","recognition","survey-text","450","1402099","0.0-6.0-3.63","2974374","co38569","norming","","","{""guess"":""""}","","../img/tt/1080tt.jpg","",""
"null","../img/gs/1080gs.jpg","null","reveal","image-keyboard-response","451","1404103","0.0-6.0-4.63","2974374","co38569","norming","","","","","","",""
"null","../img/tt/1080tt.jpg","null","mooney2","image-keyboard-response","452","1406114","0.0-6.0-5.63","2974374","co38569","norming","","","","","","",""
"2397.9349999991246","","","post_reveal_questions","survey-likert","453","1408515","0.0-6.0-6.63","2974374","co38569","norming","","","{""aha"":5}","[0]","../img/tt/1080tt.jpg","",""
"null","<div style=""font-size:60px;""> </div>","null","fixation","html-keyboard-response","454","1408720","0.0-6.0-0.64","2974374","co38569","norming","","","","","","",""
"null","../img/tt/108tt.jpg","null","mooney1","image-keyboard-response","455","1411727","0.0-6.0-1.64","2974374","co38569","norming","","","","","","",""
"6946.514999999665","","","post_mooney1_questions","survey-likert","456","1418677","0.0-6.0-2.64","2974374","co38569","norming","","","{""curiosity"":2,""confidence"":0}","[0,1]","../img/tt/108tt.jpg","",""
"694.0200000007171","","","recognition","survey-text","457","1419372","0.0-6.0-3.64","2974374","co38569","norming","","","{""guess"":""""}","","../img/tt/108tt.jpg","",""
"null","../img/gs/108gs.jpg","null","reveal","image-keyboard-response","458","1421378","0.0-6.0-4.64","2974374","co38569","norming","","","","","","",""
"null","../img/tt/108tt.jpg","null","mooney2","image-keyboard-response","459","1423382","0.0-6.0-5.64","2974374","co38569","norming","","","","","","",""
"7163.964999999618","","","post_reveal_questions","survey-likert","460","1430548","0.0-6.0-6.64","2974374","co38569","norming","","","{""aha"":0}","[0]","../img/tt/108tt.jpg","",""
"null","<div style=""font-size:60px;""> </div>","null","fixation","html-keyboard-response","461","1430758","0.0-6.0-0.65","2974374","co38569","norming","","","","","","",""
"null","../img/tt/1241tt.jpg","null","mooney1","image-keyboard-response","462","1433764","0.0-6.0-1.65","2974374","co38569","norming","","","","","","",""
"7829.544999998761","","","post_mooney1_questions","survey-likert","463","1441597","0.0-6.0-2.65","2974374","co38569","norming","","","{""curiosity"":0,""confidence"":0}","[0,1]","../img/tt/1241tt.jpg","",""
"878.0249999999069","","","recognition","survey-text","464","1442476","0.0-6.0-3.65","2974374","co38569","norming","","","{""guess"":""""}","","../img/tt/1241tt.jpg","",""
"null","../img/gs/1241gs.jpg","null","reveal","image-keyboard-response","465","1444479","0.0-6.0-4.65","2974374","co38569","norming","","","","","","",""
"null","../img/tt/1241tt.jpg","null","mooney2","image-keyboard-response","466","1446488","0.0-6.0-5.65","2974374","co38569","norming","","","","","","",""
"2338.0849999992643","","","post_reveal_questions","survey-likert","467","1448828","0.0-6.0-6.65","2974374","co38569","norming","","","{""aha"":0}","[0]","../img/tt/1241tt.jpg","",""
"null","<div style=""font-size:60px;""> </div>","null","fixation","html-keyboard-response","468","1449030","0.0-6.0-0.66","2974374","co38569","norming","","","","","","",""
"null","../img/tt/378tt.jpg","null","mooney1","image-keyboard-response","469","1452039","0.0-6.0-1.66","2974374","co38569","norming","","","","","","",""
"8090.770000000484","","","post_mooney1_questions","survey-likert","470","1460133","0.0-6.0-2.66","2974374","co38569","norming","","","{""curiosity"":5,""confidence"":1}","[0,1]","../img/tt/378tt.jpg","",""
"1478.0900000005495","","","recognition","survey-text","471","1461613","0.0-6.0-3.66","2974374","co38569","norming","","","{""guess"":""vos""}","","../img/tt/378tt.jpg","",""
"null","../img/gs/378gs.jpg","null","reveal","image-keyboard-response","472","1463621","0.0-6.0-4.66","2974374","co38569","norming","","","","","","",""
"null","../img/tt/378tt.jpg","null","mooney2","image-keyboard-response","473","1465631","0.0-6.0-5.66","2974374","co38569","norming","","","","","","",""
"3763.41999999946","","","post_reveal_questions","survey-likert","474","1469397","0.0-6.0-6.66","2974374","co38569","norming","","","{""aha"":4}","[0]","../img/tt/378tt.jpg","",""
"null","<div style=""font-size:60px;""> </div>","null","fixation","html-keyboard-response","475","1469597","0.0-6.0-0.67","2974374","co38569","norming","","","","","","",""
"null","../img/tt/1227tt.jpg","null","mooney1","image-keyboard-response","476","1472608","0.0-6.0-1.67","2974374","co38569","norming","","","","","","",""
"6467.564999999013","","","post_mooney1_questions","survey-likert","477","1479071","0.0-6.0-2.67","2974374","co38569","norming","","","{""curiosity"":1,""confidence"":0}","[0,1]","../img/tt/1227tt.jpg","",""
"989.9000000006054","","","recognition","survey-text","478","1480063","0.0-6.0-3.67","2974374","co38569","norming","","","{""guess"":""""}","","../img/tt/1227tt.jpg","",""
"null","../img/gs/1227gs.jpg","null","reveal","image-keyboard-response","479","1482068","0.0-6.0-4.67","2974374","co38569","norming","","","","","","",""
"null","../img/tt/1227tt.jpg","null","mooney2","image-keyboard-response","480","1484077","0.0-6.0-5.67","2974374","co38569","norming","","","","","","",""
"2136.094999999972","","","post_reveal_questions","survey-likert","481","1486215","0.0-6.0-6.67","2974374","co38569","norming","","","{""aha"":0}","[0]","../img/tt/1227tt.jpg","",""
"null","<div style=""font-size:60px;""> </div>","null","fixation","html-keyboard-response","482","1486416","0.0-6.0-0.68","2974374","co38569","norming","","","","","","",""
"null","../img/tt/1254tt.jpg","null","mooney1","image-keyboard-response","483","1489421","0.0-6.0-1.68","2974374","co38569","norming","","","","","","",""
"8878.809999998193","","","post_mooney1_questions","survey-likert","484","1498303","0.0-6.0-2.68","2974374","co38569","norming","","","{""curiosity"":5,""confidence"":1}","[0,1]","../img/tt/1254tt.jpg","",""
"2198.1649999998044","","","recognition","survey-text","485","1500503","0.0-6.0-3.68","2974374","co38569","norming","","","{""guess"":""ezel""}","","../img/tt/1254tt.jpg","",""
"null","../img/gs/1254gs.jpg","null","reveal","image-keyboard-response","486","1502514","0.0-6.0-4.68","2974374","co38569","norming","","","","","","",""
"null","../img/tt/1254tt.jpg","null","mooney2","image-keyboard-response","487","1504515","0.0-6.0-5.68","2974374","co38569","norming","","","","","","",""
"2712.6150000002235","","","post_reveal_questions","survey-likert","488","1507231","0.0-6.0-6.68","2974374","co38569","norming","","","{""aha"":6}","[0]","../img/tt/1254tt.jpg","",""
"null","<div style=""font-size:60px;""> </div>","null","fixation","html-keyboard-response","489","1507433","0.0-6.0-0.69","2974374","co38569","norming","","","","","","",""
"null","../img/tt/085tt.jpg","null","mooney1","image-keyboard-response","490","1510438","0.0-6.0-1.69","2974374","co38569","norming","","","","","","",""
"4541.5649999994785","","","post_mooney1_questions","survey-likert","491","1514983","0.0-6.0-2.69","2974374","co38569","norming","","","{""curiosity"":5,""confidence"":0}","[0,1]","../img/tt/085tt.jpg","",""
"917.8800000010524","","","recognition","survey-text","492","1515903","0.0-6.0-3.69","2974374","co38569","norming","","","{""guess"":""""}","","../img/tt/085tt.jpg","",""
"null","../img/gs/085gs.jpg","null","reveal","image-keyboard-response","493","1517909","0.0-6.0-4.69","2974374","co38569","norming","","","","","","",""
"null","../img/tt/085tt.jpg","null","mooney2","image-keyboard-response","494","1519912","0.0-6.0-5.69","2974374","co38569","norming","","","","","","",""
"2524.5900000007823","","","post_reveal_questions","survey-likert","495","1522440","0.0-6.0-6.69","2974374","co38569","norming","","","{""aha"":1}","[0]","../img/tt/085tt.jpg","",""
"null","<div style=""font-size:60px;""> </div>","null","fixation","html-keyboard-response","496","1522641","0.0-6.0-0.70","2974374","co38569","norming","","","","","","",""
"null","../img/tt/1199tt.jpg","null","mooney1","image-keyboard-response","497","1525646","0.0-6.0-1.70","2974374","co38569","norming","","","","","","",""
"4126.375","","","post_mooney1_questions","survey-likert","498","1529775","0.0-6.0-2.70","2974374","co38569","norming","","","{""curiosity"":5,""confidence"":2}","[0,1]","../img/tt/1199tt.jpg","",""
"2774.0050000010524","","","recognition","survey-text","499","1532551","0.0-6.0-3.70","2974374","co38569","norming","","","{""guess"":""turnster""}","","../img/tt/1199tt.jpg","",""
"null","../img/gs/1199gs.jpg","null","reveal","image-keyboard-response","500","1534552","0.0-6.0-4.70","2974374","co38569","norming","","","","","","",""
"null","../img/tt/1199tt.jpg","null","mooney2","image-keyboard-response","501","1536563","0.0-6.0-5.70","2974374","co38569","norming","","","","","","",""
"3561.560000000056","","","post_reveal_questions","survey-likert","502","1540132","0.0-6.0-6.70","2974374","co38569","norming","","","{""aha"":5}","[0]","../img/tt/1199tt.jpg","",""
"null","<div style=""font-size:60px;""> </div>","null","fixation","html-keyboard-response","503","1540342","0.0-6.0-0.71","2974374","co38569","norming","","","","","","",""
"null","../img/tt/1211tt.jpg","null","mooney1","image-keyboard-response","504","1543348","0.0-6.0-1.71","2974374","co38569","norming","","","","","","",""
"5420.685000000987","","","post_mooney1_questions","survey-likert","505","1548772","0.0-6.0-2.71","2974374","co38569","norming","","","{""curiosity"":4,""confidence"":0}","[0,1]","../img/tt/1211tt.jpg","",""
"742.0750000001863","","","recognition","survey-text","506","1549516","0.0-6.0-3.71","2974374","co38569","norming","","","{""guess"":""""}","","../img/tt/1211tt.jpg","",""
"null","../img/gs/1211gs.jpg","null","reveal","image-keyboard-response","507","1551523","0.0-6.0-4.71","2974374","co38569","norming","","","","","","",""
"null","../img/tt/1211tt.jpg","null","mooney2","image-keyboard-response","508","1553532","0.0-6.0-5.71","2974374","co38569","norming","","","","","","",""
"2933.7900000009686","","","post_reveal_questions","survey-likert","509","1556468","0.0-6.0-6.71","2974374","co38569","norming","","","{""aha"":2}","[0]","../img/tt/1211tt.jpg","",""
"null","<div style=""font-size:60px;""> </div>","null","fixation","html-keyboard-response","510","1556669","0.0-6.0-0.72","2974374","co38569","norming","","","","","","",""
"null","../img/tt/121tt.jpg","null","mooney1","image-keyboard-response","511","1559677","0.0-6.0-1.72","2974374","co38569","norming","","","","","","",""
"5204.520000001183","","","post_mooney1_questions","survey-likert","512","1564885","0.0-6.0-2.72","2974374","co38569","norming","","","{""curiosity"":5,""confidence"":1}","[0,1]","../img/tt/121tt.jpg","",""
"1910.0400000007357","","","recognition","survey-text","513","1566796","0.0-6.0-3.72","2974374","co38569","norming","","","{""guess"":""dolfijn""}","","../img/tt/121tt.jpg","",""
"null","../img/gs/121gs.jpg","null","reveal","image-keyboard-response","514","1568807","0.0-6.0-4.72","2974374","co38569","norming","","","","","","",""
"null","../img/tt/121tt.jpg","null","mooney2","image-keyboard-response","515","1570816","0.0-6.0-5.72","2974374","co38569","norming","","","","","","",""
"2545.3799999994226","","","post_reveal_questions","survey-likert","516","1573364","0.0-6.0-6.72","2974374","co38569","norming","","","{""aha"":1}","[0]","../img/tt/121tt.jpg","",""
"null","<div style=""font-size:60px;""> </div>","null","fixation","html-keyboard-response","517","1573566","0.0-6.0-0.73","2974374","co38569","norming","","","","","","",""
"null","../img/tt/036tt.jpg","null","mooney1","image-keyboard-response","518","1576570","0.0-6.0-1.73","2974374","co38569","norming","","","","","","",""
"8439.274999998743","","","post_mooney1_questions","survey-likert","519","1585012","0.0-6.0-2.73","2974374","co38569","norming","","","{""curiosity"":5,""confidence"":1}","[0,1]","../img/tt/036tt.jpg","",""
"1814.2150000003166","","","recognition","survey-text","520","1586828","0.0-6.0-3.73","2974374","co38569","norming","","","{""guess"":""takken""}","","../img/tt/036tt.jpg","",""
"null","../img/gs/036gs.jpg","null","reveal","image-keyboard-response","521","1588834","0.0-6.0-4.73","2974374","co38569","norming","","","","","","",""
"null","../img/tt/036tt.jpg","null","mooney2","image-keyboard-response","522","1590845","0.0-6.0-5.73","2974374","co38569","norming","","","","","","",""
"3572.550000000745","","","post_reveal_questions","survey-likert","523","1594420","0.0-6.0-6.73","2974374","co38569","norming","","","{""aha"":5}","[0]","../img/tt/036tt.jpg","",""
"null","<div style=""font-size:60px;""> </div>","null","fixation","html-keyboard-response","524","1594622","0.0-6.0-0.74","2974374","co38569","norming","","","","","","",""
"null","../img/tt/118tt.jpg","null","mooney1","image-keyboard-response","525","1597628","0.0-6.0-1.74","2974374","co38569","norming","","","","","","",""
"7197.304999999702","","","post_mooney1_questions","survey-likert","526","1604825","0.0-6.0-2.74","2974374","co38569","norming","","","{""curiosity"":5,""confidence"":2}","[0,1]","../img/tt/118tt.jpg","",""
"1917.8899999987334","","","recognition","survey-text","527","1606744","0.0-6.0-3.74","2974374","co38569","norming","","","{""guess"":""bank""}","","../img/tt/118tt.jpg","",""
"null","../img/gs/118gs.jpg","null","reveal","image-keyboard-response","528","1608749","0.0-6.0-4.74","2974374","co38569","norming","","","","","","",""
"null","../img/tt/118tt.jpg","null","mooney2","image-keyboard-response","529","1610751","0.0-6.0-5.74","2974374","co38569","norming","","","","","","",""
"2207.519999999786","","","post_reveal_questions","survey-likert","530","1612961","0.0-6.0-6.74","2974374","co38569","norming","","","{""aha"":5}","[0]","../img/tt/118tt.jpg","",""
"null","<div style=""font-size:60px;""> </div>","null","fixation","html-keyboard-response","531","1613162","0.0-6.0-0.75","2974374","co38569","norming","","","","","","",""
"null","../img/tt/517tt.jpg","null","mooney1","image-keyboard-response","532","1616169","0.0-6.0-1.75","2974374","co38569","norming","","","","","","",""
"5436.175000000745","","","post_mooney1_questions","survey-likert","533","1621609","0.0-6.0-2.75","2974374","co38569","norming","","","{""curiosity"":5,""confidence"":1}","[0,1]","../img/tt/517tt.jpg","",""
"1502.050000000978","","","recognition","survey-text","534","1623112","0.0-6.0-3.75","2974374","co38569","norming","","","{""guess"":""beer""}","","../img/tt/517tt.jpg","",""
"null","../img/gs/517gs.jpg","null","reveal","image-keyboard-response","535","1625115","0.0-6.0-4.75","2974374","co38569","norming","","","","","","",""
"null","../img/tt/517tt.jpg","null","mooney2","image-keyboard-response","536","1627117","0.0-6.0-5.75","2974374","co38569","norming","","","","","","",""
"2178.175000000978","","","post_reveal_questions","survey-likert","537","1629296","0.0-6.0-6.75","2974374","co38569","norming","","","{""aha"":4}","[0]","../img/tt/517tt.jpg","",""
"null","<div style=""font-size:60px;""> </div>","null","fixation","html-keyboard-response","538","1629498","0.0-6.0-0.76","2974374","co38569","norming","","","","","","",""
"null","../img/tt/1084tt.jpg","null","mooney1","image-keyboard-response","539","1632504","0.0-6.0-1.76","2974374","co38569","norming","","","","","","",""
"7837.04000000027","","","post_mooney1_questions","survey-likert","540","1640345","0.0-6.0-2.76","2974374","co38569","norming","","","{""curiosity"":4,""confidence"":0}","[0,1]","../img/tt/1084tt.jpg","",""
"861.8750000004657","","","recognition","survey-text","541","1641208","0.0-6.0-3.76","2974374","co38569","norming","","","{""guess"":""""}","","../img/tt/1084tt.jpg","",""
"null","../img/gs/1084gs.jpg","null","reveal","image-keyboard-response","542","1643217","0.0-6.0-4.76","2974374","co38569","norming","","","","","","",""
"null","../img/tt/1084tt.jpg","null","mooney2","image-keyboard-response","543","1645219","0.0-6.0-5.76","2974374","co38569","norming","","","","","","",""
"2393.350000000326","","","post_reveal_questions","survey-likert","544","1647617","0.0-6.0-6.76","2974374","co38569","norming","","","{""aha"":0}","[0]","../img/tt/1084tt.jpg","",""
"null","<div style=""font-size:60px;""> </div>","null","fixation","html-keyboard-response","545","1647818","0.0-6.0-0.77","2974374","co38569","norming","","","","","","",""
"null","../img/tt/123tt.jpg","null","mooney1","image-keyboard-response","546","1650826","0.0-6.0-1.77","2974374","co38569","norming","","","","","","",""
"8316.984999999404","","","post_mooney1_questions","survey-likert","547","1659145","0.0-6.0-2.77","2974374","co38569","norming","","","{""curiosity"":4,""confidence"":1}","[0,1]","../img/tt/123tt.jpg","",""
"1501.7250000000931","","","recognition","survey-text","548","1660648","0.0-6.0-3.77","2974374","co38569","norming","","","{""guess"":""boot""}","","../img/tt/123tt.jpg","",""
"null","../img/gs/123gs.jpg","null","reveal","image-keyboard-response","549","1662655","0.0-6.0-4.77","2974374","co38569","norming","","","","","","",""
"null","../img/tt/123tt.jpg","null","mooney2","image-keyboard-response","550","1664669","0.0-6.0-5.77","2974374","co38569","norming","","","","","","",""
"2079.9850000003353","","","post_reveal_questions","survey-likert","551","1666750","0.0-6.0-6.77","2974374","co38569","norming","","","{""aha"":5}","[0]","../img/tt/123tt.jpg","",""
"null","<div style=""font-size:60px;""> </div>","null","fixation","html-keyboard-response","552","1666951","0.0-6.0-0.78","2974374","co38569","norming","","","","","","",""
"null","../img/tt/1250tt.jpg","null","mooney1","image-keyboard-response","553","1669956","0.0-6.0-1.78","2974374","co38569","norming","","","","","","",""
