"rt","stimulus","key_press","test_part","trial_type","trial_index","time_elapsed","internal_node_id","totalTime","subject","experiment_name","button_pressed","success","responses","question_order","currentStim","old","correct"
"31803.985000000466","Welcome to the experiment. This is an online experiment so please don't close the tab/window until we say goodbye.  Press any key to begin.","100","instructions","html-keyboard-response","0","31859","0.0-0.0","3682859","co38317","norming","","","","","","",""
"67496.11000000004","<div style='word-wrap: break-word; width: 900px'><h3>Please consider this information carefully before deciding whether to participate in this research</h3><ul style='text-align: left; font-size: .8em;'><li><b>Purpose of the research</b>: To examine how people process images.</li><li><b>What you will do in this research</b>:  Stimuli (images) will be presented on the computer and you will be asked different questions about them.</li><li><b>Time required</b>: Participation will take between 45 and 60 minutes to complete.</li><li><b>Risks</b>:  There are no anticipated risks associated with participating in this study. The effects of participating should be comparable to those you would experience from viewing a computer monitor for 30 minutes and using a mouse or keyboard.</li><li><b>Benefits</b>:  This study provides no benefits to you individually except for the credit. The study provides important information about the nature of perception and learning.</li><li><b>Confidentiality</b>:  Your participation in this study will remain confidential. No personally identifiable information will be associated with your data. Your de-identified data may be shared with other researchers and used in future projects.</li><li><b>Participation and withdrawal</b>:  Your participation in this study is completely voluntary and you may refuse to participate or you may choose to withdraw at any time without penalty.</li><li><b>How to contact the researchers</b>: If you have questions or concerns about your participation or payment, or want to request a summary of research findings, please contact Sander Van de Cruys (KU Leuven), at sander.vandecruys@kuleuven.be.</li></ul><p>The nature and purpose of this research have been sufficiently explained and I agree to participate in this study.  I understand that I am free to withdraw at any time without incurring any penalty.</p><p>Please consent by clicking the button below to continue. Otherwise, please exit the study at this time.</p></div>","","instructions","html-button-response","1","99359","0.0-1.0","3682859","co38317","norming","0","","","","","",""
"","","","instructions","fullscreen","2","107233","0.0-2.0","3682859","co38317","norming","","true","","","","",""
"36997.17999999848","","","sona","survey-html-form","3","144232","0.0-3.0","3682859","co38317","norming","","","[{""name"":""sonaid"",""value"":""38317""},{""name"":""debrief"",""value"":""no""},{""name"":""datajoin"",""value"":""yes""}]","","","",""
"87683.77499999953","<div style='word-wrap: break-word; width: 900px'><h3>Instructions</h3><p>This experiment will have 3 parts. In the first part you will see a series of distorted images like the one below on the left. As you can see in the righthand image, the distorted images are derived from actual photographs. In what follows, you will <strong>briefly</strong> be presented with <strong>only</strong> the distorted image.</p> <div style='float: left; margin-right: 20px;'><img src='../img/018tt.jpg' height='250' width='250'></img></div><div style='float: right; margin-left: 20px;'><img src='../img/018gs.jpg' height='250' width='250'></img></div><p>Subsequently you will be asked a few questions about the image: One question on how <strong>curious</strong> you are about the solution and one on how <strong>confident</strong> you are that you know the solution.</p>Next, we ask you to make a guess on what is in the image. Note that it is OK to name just the <strong>basic level category</strong>. For example when you see a parrot in the image, 'parrot' will obviously be a correct answer but also correct is 'bird'. However, 'animal' will <strong>not</strong> be counted as a correct response. For the example above, 'rose' would be correct or 'flower', but not 'plant'. When soccer players are depicted, 'soccer', 'football', 'soccer players' will be correct, but not 'humans', 'outdoors', or 'sports'. You do not need to describe the image in full, just name the main object in it <strong>in one or two words</strong>. All images depict objects from one of the following broad level categories: animals, inanimate objects, plants, sports, vehicles, and food. Recognizing means knowing <strong>more</strong> than these broad labels for a given image. But we always encourage you to <strong>make a guess</strong> if you can. Note that you are allowed to use <strong>Dutch and English</strong> in your answers, whatever comes easiest for you.</p><p>Press any key to continue.</p></div>","105","instructions","html-keyboard-response","4","231920","0.0-4.0","3682859","co38317","norming","","","","","","",""
"120876.84499999887","<div style='word-wrap: break-word; width: 900px'><h3>Instructions</h3> <p>Next, the solution image will be revealed to you and you'll be asked to indicate how strong your <strong>aha-experience</strong> was after seeing the solution. This describes the positive feeling of the 'click' you sometimes experience, when the pieces of the 'puzzle' fall together and you suddenly have 'insight' in the image.</p><img src='aha.jpg' height='188' width='250'></img><p>Note that there are no right or wrong answers. We are interested in what <strong>you</strong> see in the image and how <strong>you</strong> feel about it.</p><p>Press any key to start the experiment.</p></div>","103","instructions","html-keyboard-response","5","352799","0.0-5.0","3682859","co38317","norming","","","","","","",""
"null","<div style=""font-size:60px;""> </div>","null","fixation","html-keyboard-response","6","353001","0.0-6.0-0.0","3682859","co38317","norming","","","","","","",""
"null","../img/tt/1070tt.jpg","null","mooney1","image-keyboard-response","7","356005","0.0-6.0-1.0","3682859","co38317","norming","","","","","","",""
"15449.05499999912","","","post_mooney1_questions","survey-likert","8","371455","0.0-6.0-2.0","3682859","co38317","norming","","","{""curiosity"":5,""confidence"":0}","[0,1]","../img/tt/1070tt.jpg","",""
"18901.56999999995","","","recognition","survey-text","9","390359","0.0-6.0-3.0","3682859","co38317","norming","","","{""guess"":""bloem""}","","../img/tt/1070tt.jpg","",""
"null","../img/gs/1070gs.jpg","null","reveal","image-keyboard-response","10","392360","0.0-6.0-4.0","3682859","co38317","norming","","","","","","",""
"null","../img/tt/1070tt.jpg","null","mooney2","image-keyboard-response","11","394363","0.0-6.0-5.0","3682859","co38317","norming","","","","","","",""
"9801.874999999185","","","post_reveal_questions","survey-likert","12","404167","0.0-6.0-6.0","3682859","co38317","norming","","","{""aha"":2}","[0]","../img/tt/1070tt.jpg","",""
"null","<div style=""font-size:60px;""> </div>","null","fixation","html-keyboard-response","13","404369","0.0-6.0-0.1","3682859","co38317","norming","","","","","","",""
"null","../img/tt/1084tt.jpg","null","mooney1","image-keyboard-response","14","407372","0.0-6.0-1.1","3682859","co38317","norming","","","","","","",""
"8298.29000000062","","","post_mooney1_questions","survey-likert","15","415672","0.0-6.0-2.1","3682859","co38317","norming","","","{""curiosity"":4,""confidence"":1}","[0,1]","../img/tt/1084tt.jpg","",""
"37533.89499999868","","","recognition","survey-text","16","453207","0.0-6.0-3.1","3682859","co38317","norming","","","{""guess"":""bord voedsel""}","","../img/tt/1084tt.jpg","",""
"null","../img/gs/1084gs.jpg","null","reveal","image-keyboard-response","17","455209","0.0-6.0-4.1","3682859","co38317","norming","","","","","","",""
"null","../img/tt/1084tt.jpg","null","mooney2","image-keyboard-response","18","457211","0.0-6.0-5.1","3682859","co38317","norming","","","","","","",""
"4025.8199999989592","","","post_reveal_questions","survey-likert","19","461239","0.0-6.0-6.1","3682859","co38317","norming","","","{""aha"":4}","[0]","../img/tt/1084tt.jpg","",""
"null","<div style=""font-size:60px;""> </div>","null","fixation","html-keyboard-response","20","461440","0.0-6.0-0.2","3682859","co38317","norming","","","","","","",""
"null","../img/tt/1089tt.jpg","null","mooney1","image-keyboard-response","21","464443","0.0-6.0-1.2","3682859","co38317","norming","","","","","","",""
"9081.65499999997","","","post_mooney1_questions","survey-likert","22","473527","0.0-6.0-2.2","3682859","co38317","norming","","","{""curiosity"":4,""confidence"":1}","[0,1]","../img/tt/1089tt.jpg","",""
"13125.92500000028","","","recognition","survey-text","23","486655","0.0-6.0-3.2","3682859","co38317","norming","","","{""guess"":""""}","","../img/tt/1089tt.jpg","",""
"null","../img/gs/1089gs.jpg","null","reveal","image-keyboard-response","24","488657","0.0-6.0-4.2","3682859","co38317","norming","","","","","","",""
"null","../img/tt/1089tt.jpg","null","mooney2","image-keyboard-response","25","490659","0.0-6.0-5.2","3682859","co38317","norming","","","","","","",""
"2961.864999999292","","","post_reveal_questions","survey-likert","26","493623","0.0-6.0-6.2","3682859","co38317","norming","","","{""aha"":4}","[0]","../img/tt/1089tt.jpg","",""
"null","<div style=""font-size:60px;""> </div>","null","fixation","html-keyboard-response","27","493826","0.0-6.0-0.3","3682859","co38317","norming","","","","","","",""
"null","../img/tt/1066tt.jpg","null","mooney1","image-keyboard-response","28","496830","0.0-6.0-1.3","3682859","co38317","norming","","","","","","",""
"7456.095000001369","","","post_mooney1_questions","survey-likert","29","504287","0.0-6.0-2.3","3682859","co38317","norming","","","{""curiosity"":4,""confidence"":2}","[0,1]","../img/tt/1066tt.jpg","",""
"5510.094999999623","","","recognition","survey-text","30","509799","0.0-6.0-3.3","3682859","co38317","norming","","","{""guess"":""tram""}","","../img/tt/1066tt.jpg","",""
"null","../img/gs/1066gs.jpg","null","reveal","image-keyboard-response","31","511800","0.0-6.0-4.3","3682859","co38317","norming","","","","","","",""
"null","../img/tt/1066tt.jpg","null","mooney2","image-keyboard-response","32","513803","0.0-6.0-5.3","3682859","co38317","norming","","","","","","",""
"6610.375000000233","","","post_reveal_questions","survey-likert","33","520415","0.0-6.0-6.3","3682859","co38317","norming","","","{""aha"":1}","[0]","../img/tt/1066tt.jpg","",""
"null","<div style=""font-size:60px;""> </div>","null","fixation","html-keyboard-response","34","520616","0.0-6.0-0.4","3682859","co38317","norming","","","","","","",""
"null","../img/tt/507tt.jpg","null","mooney1","image-keyboard-response","35","523620","0.0-6.0-1.4","3682859","co38317","norming","","","","","","",""
"7416.7550000002375","","","post_mooney1_questions","survey-likert","36","531039","0.0-6.0-2.4","3682859","co38317","norming","","","{""curiosity"":4,""confidence"":1}","[0,1]","../img/tt/507tt.jpg","",""
"9430.155000000028","","","recognition","survey-text","37","540471","0.0-6.0-3.4","3682859","co38317","norming","","","{""guess"":""dansende vrouw""}","","../img/tt/507tt.jpg","",""
"null","../img/gs/507gs.jpg","null","reveal","image-keyboard-response","38","542472","0.0-6.0-4.4","3682859","co38317","norming","","","","","","",""
"null","../img/tt/507tt.jpg","null","mooney2","image-keyboard-response","39","544477","0.0-6.0-5.4","3682859","co38317","norming","","","","","","",""
"4928.814999999362","","","post_reveal_questions","survey-likert","40","549407","0.0-6.0-6.4","3682859","co38317","norming","","","{""aha"":1}","[0]","../img/tt/507tt.jpg","",""
"null","<div style=""font-size:60px;""> </div>","null","fixation","html-keyboard-response","41","549609","0.0-6.0-0.5","3682859","co38317","norming","","","","","","",""
"null","../img/tt/1236tt.jpg","null","mooney1","image-keyboard-response","42","552612","0.0-6.0-1.5","3682859","co38317","norming","","","","","","",""
"11360.439999998547","","","post_mooney1_questions","survey-likert","43","563975","0.0-6.0-2.5","3682859","co38317","norming","","","{""curiosity"":5,""confidence"":0}","[0,1]","../img/tt/1236tt.jpg","",""
"5982.444999999716","","","recognition","survey-text","44","569959","0.0-6.0-3.5","3682859","co38317","norming","","","{""guess"":""standbeeld""}","","../img/tt/1236tt.jpg","",""
"null","../img/gs/1236gs.jpg","null","reveal","image-keyboard-response","45","571965","0.0-6.0-4.5","3682859","co38317","norming","","","","","","",""
"null","../img/tt/1236tt.jpg","null","mooney2","image-keyboard-response","46","573968","0.0-6.0-5.5","3682859","co38317","norming","","","","","","",""
"2724.895000001183","","","post_reveal_questions","survey-likert","47","576695","0.0-6.0-6.5","3682859","co38317","norming","","","{""aha"":5}","[0]","../img/tt/1236tt.jpg","",""
"null","<div style=""font-size:60px;""> </div>","null","fixation","html-keyboard-response","48","576896","0.0-6.0-0.6","3682859","co38317","norming","","","","","","",""
"null","../img/tt/184tt.jpg","null","mooney1","image-keyboard-response","49","579905","0.0-6.0-1.6","3682859","co38317","norming","","","","","","",""
"8642.85000000021","","","post_mooney1_questions","survey-likert","50","588551","0.0-6.0-2.6","3682859","co38317","norming","","","{""curiosity"":5,""confidence"":0}","[0,1]","../img/tt/184tt.jpg","",""
"19550.11999999988","","","recognition","survey-text","51","608102","0.0-6.0-3.6","3682859","co38317","norming","","","{""guess"":""""}","","../img/tt/184tt.jpg","",""
"null","../img/gs/184gs.jpg","null","reveal","image-keyboard-response","52","610104","0.0-6.0-4.6","3682859","co38317","norming","","","","","","",""
"null","../img/tt/184tt.jpg","null","mooney2","image-keyboard-response","53","612107","0.0-6.0-5.6","3682859","co38317","norming","","","","","","",""
"2593.5800000006566","","","post_reveal_questions","survey-likert","54","614703","0.0-6.0-6.6","3682859","co38317","norming","","","{""aha"":5}","[0]","../img/tt/184tt.jpg","",""
"null","<div style=""font-size:60px;""> </div>","null","fixation","html-keyboard-response","55","614904","0.0-6.0-0.7","3682859","co38317","norming","","","","","","",""
"null","../img/tt/008tt.jpg","null","mooney1","image-keyboard-response","56","617907","0.0-6.0-1.7","3682859","co38317","norming","","","","","","",""
"8850.08500000008","","","post_mooney1_questions","survey-likert","57","626759","0.0-6.0-2.7","3682859","co38317","norming","","","{""curiosity"":4,""confidence"":1}","[0,1]","../img/tt/008tt.jpg","",""
"4182.220000000554","","","recognition","survey-text","58","630943","0.0-6.0-3.7","3682859","co38317","norming","","","{""guess"":""schaar""}","","../img/tt/008tt.jpg","",""
"null","../img/gs/008gs.jpg","null","reveal","image-keyboard-response","59","632945","0.0-6.0-4.7","3682859","co38317","norming","","","","","","",""
"null","../img/tt/008tt.jpg","null","mooney2","image-keyboard-response","60","634948","0.0-6.0-5.7","3682859","co38317","norming","","","","","","",""
"2296.964999999618","","","post_reveal_questions","survey-likert","61","637247","0.0-6.0-6.7","3682859","co38317","norming","","","{""aha"":4}","[0]","../img/tt/008tt.jpg","",""
"null","<div style=""font-size:60px;""> </div>","null","fixation","html-keyboard-response","62","637448","0.0-6.0-0.8","3682859","co38317","norming","","","","","","",""
"null","../img/tt/046tt.jpg","null","mooney1","image-keyboard-response","63","640452","0.0-6.0-1.8","3682859","co38317","norming","","","","","","",""
"6864.489999999991","","","post_mooney1_questions","survey-likert","64","647319","0.0-6.0-2.8","3682859","co38317","norming","","","{""curiosity"":4,""confidence"":1}","[0,1]","../img/tt/046tt.jpg","",""
"13573.9300000004","","","recognition","survey-text","65","660895","0.0-6.0-3.8","3682859","co38317","norming","","","{""guess"":""spons""}","","../img/tt/046tt.jpg","",""
"null","../img/gs/046gs.jpg","null","reveal","image-keyboard-response","66","662898","0.0-6.0-4.8","3682859","co38317","norming","","","","","","",""
"null","../img/tt/046tt.jpg","null","mooney2","image-keyboard-response","67","664900","0.0-6.0-5.8","3682859","co38317","norming","","","","","","",""
"3561.3600000014994","","","post_reveal_questions","survey-likert","68","668463","0.0-6.0-6.8","3682859","co38317","norming","","","{""aha"":5}","[0]","../img/tt/046tt.jpg","",""
"null","<div style=""font-size:60px;""> </div>","null","fixation","html-keyboard-response","69","668666","0.0-6.0-0.9","3682859","co38317","norming","","","","","","",""
"null","../img/tt/1196tt.jpg","null","mooney1","image-keyboard-response","70","671670","0.0-6.0-1.9","3682859","co38317","norming","","","","","","",""
"6046.229999999981","","","post_mooney1_questions","survey-likert","71","677719","0.0-6.0-2.9","3682859","co38317","norming","","","{""curiosity"":4,""confidence"":0}","[0,1]","../img/tt/1196tt.jpg","",""
"934.1449999993201","","","recognition","survey-text","72","678655","0.0-6.0-3.9","3682859","co38317","norming","","","{""guess"":""""}","","../img/tt/1196tt.jpg","",""
"null","../img/gs/1196gs.jpg","null","reveal","image-keyboard-response","73","680656","0.0-6.0-4.9","3682859","co38317","norming","","","","","","",""
"null","../img/tt/1196tt.jpg","null","mooney2","image-keyboard-response","74","682658","0.0-6.0-5.9","3682859","co38317","norming","","","","","","",""
"5050.8499999996275","","","post_reveal_questions","survey-likert","75","687711","0.0-6.0-6.9","3682859","co38317","norming","","","{""aha"":6}","[0]","../img/tt/1196tt.jpg","",""
"null","<div style=""font-size:60px;""> </div>","null","fixation","html-keyboard-response","76","687913","0.0-6.0-0.10","3682859","co38317","norming","","","","","","",""
"null","../img/tt/126tt.jpg","null","mooney1","image-keyboard-response","77","690915","0.0-6.0-1.10","3682859","co38317","norming","","","","","","",""
"11073.005000000237","","","post_mooney1_questions","survey-likert","78","701991","0.0-6.0-2.10","3682859","co38317","norming","","","{""curiosity"":4,""confidence"":1}","[0,1]","../img/tt/126tt.jpg","",""
"6806.275000000838","","","recognition","survey-text","79","708799","0.0-6.0-3.10","3682859","co38317","norming","","","{""guess"":""revolver""}","","../img/tt/126tt.jpg","",""
"null","../img/gs/126gs.jpg","null","reveal","image-keyboard-response","80","710800","0.0-6.0-4.10","3682859","co38317","norming","","","","","","",""
"null","../img/tt/126tt.jpg","null","mooney2","image-keyboard-response","81","712802","0.0-6.0-5.10","3682859","co38317","norming","","","","","","",""
"2675.0799999990268","","","post_reveal_questions","survey-likert","82","715479","0.0-6.0-6.10","3682859","co38317","norming","","","{""aha"":5}","[0]","../img/tt/126tt.jpg","",""
"null","<div style=""font-size:60px;""> </div>","null","fixation","html-keyboard-response","83","715681","0.0-6.0-0.11","3682859","co38317","norming","","","","","","",""
"null","../img/tt/1127tt.jpg","null","mooney1","image-keyboard-response","84","718684","0.0-6.0-1.11","3682859","co38317","norming","","","","","","",""
"6048.66500000027","","","post_mooney1_questions","survey-likert","85","724735","0.0-6.0-2.11","3682859","co38317","norming","","","{""curiosity"":4,""confidence"":2}","[0,1]","../img/tt/1127tt.jpg","",""
"4645.8099999999395","","","recognition","survey-text","86","729383","0.0-6.0-3.11","3682859","co38317","norming","","","{""guess"":""judo""}","","../img/tt/1127tt.jpg","",""
"null","../img/gs/1127gs.jpg","null","reveal","image-keyboard-response","87","731384","0.0-6.0-4.11","3682859","co38317","norming","","","","","","",""
"null","../img/tt/1127tt.jpg","null","mooney2","image-keyboard-response","88","733386","0.0-6.0-5.11","3682859","co38317","norming","","","","","","",""
"3787.9350000002887","","","post_reveal_questions","survey-likert","89","737175","0.0-6.0-6.11","3682859","co38317","norming","","","{""aha"":3}","[0]","../img/tt/1127tt.jpg","",""
"null","<div style=""font-size:60px;""> </div>","null","fixation","html-keyboard-response","90","737376","0.0-6.0-0.12","3682859","co38317","norming","","","","","","",""
"null","../img/tt/1309tt.jpg","null","mooney1","image-keyboard-response","91","740377","0.0-6.0-1.12","3682859","co38317","norming","","","","","","",""
"4179.3699999997625","","","post_mooney1_questions","survey-likert","92","744560","0.0-6.0-2.12","3682859","co38317","norming","","","{""curiosity"":3,""confidence"":1}","[0,1]","../img/tt/1309tt.jpg","",""
"2957.995000000694","","","recognition","survey-text","93","747519","0.0-6.0-3.12","3682859","co38317","norming","","","{""guess"":""auto""}","","../img/tt/1309tt.jpg","",""
"null","../img/gs/1309gs.jpg","null","reveal","image-keyboard-response","94","749522","0.0-6.0-4.12","3682859","co38317","norming","","","","","","",""
"null","../img/tt/1309tt.jpg","null","mooney2","image-keyboard-response","95","751523","0.0-6.0-5.12","3682859","co38317","norming","","","","","","",""
"3249.7800000001444","","","post_reveal_questions","survey-likert","96","754775","0.0-6.0-6.12","3682859","co38317","norming","","","{""aha"":2}","[0]","../img/tt/1309tt.jpg","",""
"null","<div style=""font-size:60px;""> </div>","null","fixation","html-keyboard-response","97","754976","0.0-6.0-0.13","3682859","co38317","norming","","","","","","",""
"null","../img/tt/1228tt.jpg","null","mooney1","image-keyboard-response","98","757981","0.0-6.0-1.13","3682859","co38317","norming","","","","","","",""
"4656.39999999979","","","post_mooney1_questions","survey-likert","99","762640","0.0-6.0-2.13","3682859","co38317","norming","","","{""curiosity"":3,""confidence"":1}","[0,1]","../img/tt/1228tt.jpg","",""
"2997.5300000004936","","","recognition","survey-text","100","765639","0.0-6.0-3.13","3682859","co38317","norming","","","{""guess"":""zwaan""}","","../img/tt/1228tt.jpg","",""
"null","../img/gs/1228gs.jpg","null","reveal","image-keyboard-response","101","767642","0.0-6.0-4.13","3682859","co38317","norming","","","","","","",""
"null","../img/tt/1228tt.jpg","null","mooney2","image-keyboard-response","102","769644","0.0-6.0-5.13","3682859","co38317","norming","","","","","","",""
"3488.625","","","post_reveal_questions","survey-likert","103","773135","0.0-6.0-6.13","3682859","co38317","norming","","","{""aha"":5}","[0]","../img/tt/1228tt.jpg","",""
"null","<div style=""font-size:60px;""> </div>","null","fixation","html-keyboard-response","104","773337","0.0-6.0-0.14","3682859","co38317","norming","","","","","","",""
"null","../img/tt/380tt.jpg","null","mooney1","image-keyboard-response","105","776339","0.0-6.0-1.14","3682859","co38317","norming","","","","","","",""
"6001.82999999926","","","post_mooney1_questions","survey-likert","106","782343","0.0-6.0-2.14","3682859","co38317","norming","","","{""curiosity"":5,""confidence"":0}","[0,1]","../img/tt/380tt.jpg","",""
"8918.074999999604","","","recognition","survey-text","107","791263","0.0-6.0-3.14","3682859","co38317","norming","","","{""guess"":""verfvlek""}","","../img/tt/380tt.jpg","",""
"null","../img/gs/380gs.jpg","null","reveal","image-keyboard-response","108","793264","0.0-6.0-4.14","3682859","co38317","norming","","","","","","",""
"null","../img/tt/380tt.jpg","null","mooney2","image-keyboard-response","109","795267","0.0-6.0-5.14","3682859","co38317","norming","","","","","","",""
"2755.7300000007963","","","post_reveal_questions","survey-likert","110","798023","0.0-6.0-6.14","3682859","co38317","norming","","","{""aha"":6}","[0]","../img/tt/380tt.jpg","",""
"null","<div style=""font-size:60px;""> </div>","null","fixation","html-keyboard-response","111","798225","0.0-6.0-0.15","3682859","co38317","norming","","","","","","",""
"null","../img/tt/112tt.jpg","null","mooney1","image-keyboard-response","112","801228","0.0-6.0-1.15","3682859","co38317","norming","","","","","","",""
"8025.035000000615","","","post_mooney1_questions","survey-likert","113","809256","0.0-6.0-2.15","3682859","co38317","norming","","","{""curiosity"":5,""confidence"":1}","[0,1]","../img/tt/112tt.jpg","",""
"3366.340000000433","","","recognition","survey-text","114","812624","0.0-6.0-3.15","3682859","co38317","norming","","","{""guess"":""zadel""}","","../img/tt/112tt.jpg","",""
"null","../img/gs/112gs.jpg","null","reveal","image-keyboard-response","115","814626","0.0-6.0-4.15","3682859","co38317","norming","","","","","","",""
"null","../img/tt/112tt.jpg","null","mooney2","image-keyboard-response","116","816629","0.0-6.0-5.15","3682859","co38317","norming","","","","","","",""
"1776.4100000003818","","","post_reveal_questions","survey-likert","117","818408","0.0-6.0-6.15","3682859","co38317","norming","","","{""aha"":5}","[0]","../img/tt/112tt.jpg","",""
"null","<div style=""font-size:60px;""> </div>","null","fixation","html-keyboard-response","118","818608","0.0-6.0-0.16","3682859","co38317","norming","","","","","","",""
"null","../img/tt/1241tt.jpg","null","mooney1","image-keyboard-response","119","821612","0.0-6.0-1.16","3682859","co38317","norming","","","","","","",""
"3911.6300000004703","","","post_mooney1_questions","survey-likert","120","825528","0.0-6.0-2.16","3682859","co38317","norming","","","{""curiosity"":5,""confidence"":0}","[0,1]","../img/tt/1241tt.jpg","",""
"878.0449999994598","","","recognition","survey-text","121","826407","0.0-6.0-3.16","3682859","co38317","norming","","","{""guess"":""""}","","../img/tt/1241tt.jpg","",""
"null","../img/gs/1241gs.jpg","null","reveal","image-keyboard-response","122","828409","0.0-6.0-4.16","3682859","co38317","norming","","","","","","",""
"null","../img/tt/1241tt.jpg","null","mooney2","image-keyboard-response","123","830412","0.0-6.0-5.16","3682859","co38317","norming","","","","","","",""
"4481.165000001085","","","post_reveal_questions","survey-likert","124","834895","0.0-6.0-6.16","3682859","co38317","norming","","","{""aha"":5}","[0]","../img/tt/1241tt.jpg","",""
"null","<div style=""font-size:60px;""> </div>","null","fixation","html-keyboard-response","125","835098","0.0-6.0-0.17","3682859","co38317","norming","","","","","","",""
"null","../img/tt/1063tt.jpg","null","mooney1","image-keyboard-response","126","838100","0.0-6.0-1.17","3682859","co38317","norming","","","","","","",""
"7216.889999999665","","","post_mooney1_questions","survey-likert","127","845320","0.0-6.0-2.17","3682859","co38317","norming","","","{""curiosity"":4,""confidence"":2}","[0,1]","../img/tt/1063tt.jpg","",""
"3213.805000001332","","","recognition","survey-text","128","848535","0.0-6.0-3.17","3682859","co38317","norming","","","{""guess"":""paard""}","","../img/tt/1063tt.jpg","",""
"null","../img/gs/1063gs.jpg","null","reveal","image-keyboard-response","129","850545","0.0-6.0-4.17","3682859","co38317","norming","","","","","","",""
"null","../img/tt/1063tt.jpg","null","mooney2","image-keyboard-response","130","852556","0.0-6.0-5.17","3682859","co38317","norming","","","","","","",""
"2505.4949999994133","","","post_reveal_questions","survey-likert","131","855063","0.0-6.0-6.17","3682859","co38317","norming","","","{""aha"":2}","[0]","../img/tt/1063tt.jpg","",""
"null","<div style=""font-size:60px;""> </div>","null","fixation","html-keyboard-response","132","855266","0.0-6.0-0.18","3682859","co38317","norming","","","","","","",""
"null","../img/tt/222tt.jpg","null","mooney1","image-keyboard-response","133","858268","0.0-6.0-1.18","3682859","co38317","norming","","","","","","",""
"6569.5249999989755","","","post_mooney1_questions","survey-likert","134","864840","0.0-6.0-2.18","3682859","co38317","norming","","","{""curiosity"":4,""confidence"":1}","[0,1]","../img/tt/222tt.jpg","",""
"4142.154999999562","","","recognition","survey-text","135","868984","0.0-6.0-3.18","3682859","co38317","norming","","","{""guess"":""lavabo""}","","../img/tt/222tt.jpg","",""
"null","../img/gs/222gs.jpg","null","reveal","image-keyboard-response","136","870985","0.0-6.0-4.18","3682859","co38317","norming","","","","","","",""
"null","../img/tt/222tt.jpg","null","mooney2","image-keyboard-response","137","872987","0.0-6.0-5.18","3682859","co38317","norming","","","","","","",""
"2858.1250000006985","","","post_reveal_questions","survey-likert","138","875848","0.0-6.0-6.18","3682859","co38317","norming","","","{""aha"":5}","[0]","../img/tt/222tt.jpg","",""
"null","<div style=""font-size:60px;""> </div>","null","fixation","html-keyboard-response","139","876049","0.0-6.0-0.19","3682859","co38317","norming","","","","","","",""
"null","../img/tt/378tt.jpg","null","mooney1","image-keyboard-response","140","879053","0.0-6.0-1.19","3682859","co38317","norming","","","","","","",""
"10919.78000000026","","","post_mooney1_questions","survey-likert","141","889976","0.0-6.0-2.19","3682859","co38317","norming","","","{""curiosity"":5,""confidence"":0}","[0,1]","../img/tt/378tt.jpg","",""
"3246.1399999993155","","","recognition","survey-text","142","893224","0.0-6.0-3.19","3682859","co38317","norming","","","{""guess"":""oester""}","","../img/tt/378tt.jpg","",""
"null","../img/gs/378gs.jpg","null","reveal","image-keyboard-response","143","895225","0.0-6.0-4.19","3682859","co38317","norming","","","","","","",""
"null","../img/tt/378tt.jpg","null","mooney2","image-keyboard-response","144","897229","0.0-6.0-5.19","3682859","co38317","norming","","","","","","",""
"2576.719999999157","","","post_reveal_questions","survey-likert","145","899808","0.0-6.0-6.19","3682859","co38317","norming","","","{""aha"":2}","[0]","../img/tt/378tt.jpg","",""
"null","<div style=""font-size:60px;""> </div>","null","fixation","html-keyboard-response","146","900010","0.0-6.0-0.20","3682859","co38317","norming","","","","","","",""
"null","../img/tt/1235tt.jpg","null","mooney1","image-keyboard-response","147","903012","0.0-6.0-1.20","3682859","co38317","norming","","","","","","",""
"13313.125000000582","","","post_mooney1_questions","survey-likert","148","916329","0.0-6.0-2.20","3682859","co38317","norming","","","{""curiosity"":3,""confidence"":1}","[0,1]","../img/tt/1235tt.jpg","",""
"18662.1250000007","","","recognition","survey-text","149","934992","0.0-6.0-3.20","3682859","co38317","norming","","","{""guess"":""voetbal spelen""}","","../img/tt/1235tt.jpg","",""
"null","../img/gs/1235gs.jpg","null","reveal","image-keyboard-response","150","936994","0.0-6.0-4.20","3682859","co38317","norming","","","","","","",""
"null","../img/tt/1235tt.jpg","null","mooney2","image-keyboard-response","151","938997","0.0-6.0-5.20","3682859","co38317","norming","","","","","","",""
"2442.715000001015","","","post_reveal_questions","survey-likert","152","941440","0.0-6.0-6.20","3682859","co38317","norming","","","{""aha"":4}","[0]","../img/tt/1235tt.jpg","",""
"null","<div style=""font-size:60px;""> </div>","null","fixation","html-keyboard-response","153","941641","0.0-6.0-0.21","3682859","co38317","norming","","","","","","",""
"null","../img/tt/1254tt.jpg","null","mooney1","image-keyboard-response","154","944645","0.0-6.0-1.21","3682859","co38317","norming","","","","","","",""
"4561.410000000265","","","post_mooney1_questions","survey-likert","155","949209","0.0-6.0-2.21","3682859","co38317","norming","","","{""curiosity"":4,""confidence"":2}","[0,1]","../img/tt/1254tt.jpg","",""
"3510.1549999999115","","","recognition","survey-text","156","952720","0.0-6.0-3.21","3682859","co38317","norming","","","{""guess"":""konijn""}","","../img/tt/1254tt.jpg","",""
"null","../img/gs/1254gs.jpg","null","reveal","image-keyboard-response","157","954722","0.0-6.0-4.21","3682859","co38317","norming","","","","","","",""
"null","../img/tt/1254tt.jpg","null","mooney2","image-keyboard-response","158","956727","0.0-6.0-5.21","3682859","co38317","norming","","","","","","",""
"4463.009999999427","","","post_reveal_questions","survey-likert","159","961192","0.0-6.0-6.21","3682859","co38317","norming","","","{""aha"":2}","[0]","../img/tt/1254tt.jpg","",""
"null","<div style=""font-size:60px;""> </div>","null","fixation","html-keyboard-response","160","961394","0.0-6.0-0.22","3682859","co38317","norming","","","","","","",""
"null","../img/tt/1040tt.jpg","null","mooney1","image-keyboard-response","161","964395","0.0-6.0-1.22","3682859","co38317","norming","","","","","","",""
"7386.104999999632","","","post_mooney1_questions","survey-likert","162","971784","0.0-6.0-2.22","3682859","co38317","norming","","","{""curiosity"":4,""confidence"":0}","[0,1]","../img/tt/1040tt.jpg","",""
"910.2650000004796","","","recognition","survey-text","163","972696","0.0-6.0-3.22","3682859","co38317","norming","","","{""guess"":""""}","","../img/tt/1040tt.jpg","",""
"null","../img/gs/1040gs.jpg","null","reveal","image-keyboard-response","164","974698","0.0-6.0-4.22","3682859","co38317","norming","","","","","","",""
"null","../img/tt/1040tt.jpg","null","mooney2","image-keyboard-response","165","976700","0.0-6.0-5.22","3682859","co38317","norming","","","","","","",""
"2875.27499999851","","","post_reveal_questions","survey-likert","166","979578","0.0-6.0-6.22","3682859","co38317","norming","","","{""aha"":5}","[0]","../img/tt/1040tt.jpg","",""
"null","<div style=""font-size:60px;""> </div>","null","fixation","html-keyboard-response","167","979779","0.0-6.0-0.23","3682859","co38317","norming","","","","","","",""
"null","../img/tt/1200tt.jpg","null","mooney1","image-keyboard-response","168","982783","0.0-6.0-1.23","3682859","co38317","norming","","","","","","",""
"6272.404999999795","","","post_mooney1_questions","survey-likert","169","989058","0.0-6.0-2.23","3682859","co38317","norming","","","{""curiosity"":4,""confidence"":1}","[0,1]","../img/tt/1200tt.jpg","",""
"5173.99499999918","","","recognition","survey-text","170","994234","0.0-6.0-3.23","3682859","co38317","norming","","","{""guess"":""vrachtwagen""}","","../img/tt/1200tt.jpg","",""
"null","../img/gs/1200gs.jpg","null","reveal","image-keyboard-response","171","996235","0.0-6.0-4.23","3682859","co38317","norming","","","","","","",""
"null","../img/tt/1200tt.jpg","null","mooney2","image-keyboard-response","172","998236","0.0-6.0-5.23","3682859","co38317","norming","","","","","","",""
"4675.3100000005215","","","post_reveal_questions","survey-likert","173","1002913","0.0-6.0-6.23","3682859","co38317","norming","","","{""aha"":4}","[0]","../img/tt/1200tt.jpg","",""
"null","<div style=""font-size:60px;""> </div>","null","fixation","html-keyboard-response","174","1003114","0.0-6.0-0.24","3682859","co38317","norming","","","","","","",""
"null","../img/tt/1107tt.jpg","null","mooney1","image-keyboard-response","175","1006118","0.0-6.0-1.24","3682859","co38317","norming","","","","","","",""
"6241.214999999967","","","post_mooney1_questions","survey-likert","176","1012362","0.0-6.0-2.24","3682859","co38317","norming","","","{""curiosity"":3,""confidence"":2}","[0,1]","../img/tt/1107tt.jpg","",""
"2542.089999999036","","","recognition","survey-text","177","1014906","0.0-6.0-3.24","3682859","co38317","norming","","","{""guess"":""kat""}","","../img/tt/1107tt.jpg","",""
"null","../img/gs/1107gs.jpg","null","reveal","image-keyboard-response","178","1016907","0.0-6.0-4.24","3682859","co38317","norming","","","","","","",""
"null","../img/tt/1107tt.jpg","null","mooney2","image-keyboard-response","179","1018910","0.0-6.0-5.24","3682859","co38317","norming","","","","","","",""
"2848.0249999992084","","","post_reveal_questions","survey-likert","180","1021762","0.0-6.0-6.24","3682859","co38317","norming","","","{""aha"":1}","[0]","../img/tt/1107tt.jpg","",""
"null","<div style=""font-size:60px;""> </div>","null","fixation","html-keyboard-response","181","1021963","0.0-6.0-0.25","3682859","co38317","norming","","","","","","",""
"null","../img/tt/1250tt.jpg","null","mooney1","image-keyboard-response","182","1024967","0.0-6.0-1.25","3682859","co38317","norming","","","","","","",""
"8296.29000000027","","","post_mooney1_questions","survey-likert","183","1033266","0.0-6.0-2.25","3682859","co38317","norming","","","{""curiosity"":4,""confidence"":1}","[0,1]","../img/tt/1250tt.jpg","",""
"5854.079999999143","","","recognition","survey-text","184","1039122","0.0-6.0-3.25","3682859","co38317","norming","","","{""guess"":""walvis""}","","../img/tt/1250tt.jpg","",""
"null","../img/gs/1250gs.jpg","null","reveal","image-keyboard-response","185","1041123","0.0-6.0-4.25","3682859","co38317","norming","","","","","","",""
"null","../img/tt/1250tt.jpg","null","mooney2","image-keyboard-response","186","1043125","0.0-6.0-5.25","3682859","co38317","norming","","","","","","",""
"4619.3599999987055","","","post_reveal_questions","survey-likert","187","1047746","0.0-6.0-6.25","3682859","co38317","norming","","","{""aha"":3}","[0]","../img/tt/1250tt.jpg","",""
"null","<div style=""font-size:60px;""> </div>","null","fixation","html-keyboard-response","188","1047948","0.0-6.0-0.26","3682859","co38317","norming","","","","","","",""
"null","../img/tt/329tt.jpg","null","mooney1","image-keyboard-response","189","1050952","0.0-6.0-1.26","3682859","co38317","norming","","","","","","",""
"8447.744999999413","","","post_mooney1_questions","survey-likert","190","1059403","0.0-6.0-2.26","3682859","co38317","norming","","","{""curiosity"":4,""confidence"":1}","[0,1]","../img/tt/329tt.jpg","",""
"4758.079999999609","","","recognition","survey-text","191","1064162","0.0-6.0-3.26","3682859","co38317","norming","","","{""guess"":""hert""}","","../img/tt/329tt.jpg","",""
"null","../img/gs/329gs.jpg","null","reveal","image-keyboard-response","192","1066164","0.0-6.0-4.26","3682859","co38317","norming","","","","","","",""
"null","../img/tt/329tt.jpg","null","mooney2","image-keyboard-response","193","1068166","0.0-6.0-5.26","3682859","co38317","norming","","","","","","",""
"2130.250000000233","","","post_reveal_questions","survey-likert","194","1070298","0.0-6.0-6.26","3682859","co38317","norming","","","{""aha"":4}","[0]","../img/tt/329tt.jpg","",""
"null","<div style=""font-size:60px;""> </div>","null","fixation","html-keyboard-response","195","1070499","0.0-6.0-0.27","3682859","co38317","norming","","","","","","",""
"null","../img/tt/435tt.jpg","null","mooney1","image-keyboard-response","196","1073503","0.0-6.0-1.27","3682859","co38317","norming","","","","","","",""
"5032.629999999655","","","post_mooney1_questions","survey-likert","197","1078539","0.0-6.0-2.27","3682859","co38317","norming","","","{""curiosity"":4,""confidence"":1}","[0,1]","../img/tt/435tt.jpg","",""
"4982.234999999404","","","recognition","survey-text","198","1083522","0.0-6.0-3.27","3682859","co38317","norming","","","{""guess"":""biljarttafel""}","","../img/tt/435tt.jpg","",""
"null","../img/gs/435gs.jpg","null","reveal","image-keyboard-response","199","1085524","0.0-6.0-4.27","3682859","co38317","norming","","","","","","",""
"null","../img/tt/435tt.jpg","null","mooney2","image-keyboard-response","200","1087526","0.0-6.0-5.27","3682859","co38317","norming","","","","","","",""
"3545.9449999998324","","","post_reveal_questions","survey-likert","201","1091074","0.0-6.0-6.27","3682859","co38317","norming","","","{""aha"":1}","[0]","../img/tt/435tt.jpg","",""
"null","<div style=""font-size:60px;""> </div>","null","fixation","html-keyboard-response","202","1091276","0.0-6.0-0.28","3682859","co38317","norming","","","","","","",""
"null","../img/tt/080tt.jpg","null","mooney1","image-keyboard-response","203","1094278","0.0-6.0-1.28","3682859","co38317","norming","","","","","","",""
"5818.294999999227","","","post_mooney1_questions","survey-likert","204","1100100","0.0-6.0-2.28","3682859","co38317","norming","","","{""curiosity"":3,""confidence"":2}","[0,1]","../img/tt/080tt.jpg","",""
"3525.875000001164","","","recognition","survey-text","205","1103627","0.0-6.0-3.28","3682859","co38317","norming","","","{""guess"":""lamp""}","","../img/tt/080tt.jpg","",""
"null","../img/gs/080gs.jpg","null","reveal","image-keyboard-response","206","1105628","0.0-6.0-4.28","3682859","co38317","norming","","","","","","",""
"null","../img/tt/080tt.jpg","null","mooney2","image-keyboard-response","207","1107631","0.0-6.0-5.28","3682859","co38317","norming","","","","","","",""
"2201.6299999994226","","","post_reveal_questions","survey-likert","208","1109835","0.0-6.0-6.28","3682859","co38317","norming","","","{""aha"":5}","[0]","../img/tt/080tt.jpg","",""
"null","<div style=""font-size:60px;""> </div>","null","fixation","html-keyboard-response","209","1110036","0.0-6.0-0.29","3682859","co38317","norming","","","","","","",""
"null","../img/tt/078tt.jpg","null","mooney1","image-keyboard-response","210","1113040","0.0-6.0-1.29","3682859","co38317","norming","","","","","","",""
"11328.535000000615","","","post_mooney1_questions","survey-likert","211","1124371","0.0-6.0-2.29","3682859","co38317","norming","","","{""curiosity"":3,""confidence"":0}","[0,1]","../img/tt/078tt.jpg","",""
"1414.0349999996834","","","recognition","survey-text","212","1125787","0.0-6.0-3.29","3682859","co38317","norming","","","{""guess"":""""}","","../img/tt/078tt.jpg","",""
"null","../img/gs/078gs.jpg","null","reveal","image-keyboard-response","213","1127788","0.0-6.0-4.29","3682859","co38317","norming","","","","","","",""
"null","../img/tt/078tt.jpg","null","mooney2","image-keyboard-response","214","1129790","0.0-6.0-5.29","3682859","co38317","norming","","","","","","",""
"3138.66500000027","","","post_reveal_questions","survey-likert","215","1132931","0.0-6.0-6.29","3682859","co38317","norming","","","{""aha"":5}","[0]","../img/tt/078tt.jpg","",""
"null","<div style=""font-size:60px;""> </div>","null","fixation","html-keyboard-response","216","1133133","0.0-6.0-0.30","3682859","co38317","norming","","","","","","",""
"null","../img/tt/140tt.jpg","null","mooney1","image-keyboard-response","217","1136139","0.0-6.0-1.30","3682859","co38317","norming","","","","","","",""
"6636.990000000922","","","post_mooney1_questions","survey-likert","218","1142779","0.0-6.0-2.30","3682859","co38317","norming","","","{""curiosity"":3,""confidence"":3}","[0,1]","../img/tt/140tt.jpg","",""
"3742.124999998836","","","recognition","survey-text","219","1146523","0.0-6.0-3.30","3682859","co38317","norming","","","{""guess"":""twee vorken""}","","../img/tt/140tt.jpg","",""
"null","../img/gs/140gs.jpg","null","reveal","image-keyboard-response","220","1148524","0.0-6.0-4.30","3682859","co38317","norming","","","","","","",""
"null","../img/tt/140tt.jpg","null","mooney2","image-keyboard-response","221","1150526","0.0-6.0-5.30","3682859","co38317","norming","","","","","","",""
"3458.5700000007637","","","post_reveal_questions","survey-likert","222","1153987","0.0-6.0-6.30","3682859","co38317","norming","","","{""aha"":1}","[0]","../img/tt/140tt.jpg","",""
"null","<div style=""font-size:60px;""> </div>","null","fixation","html-keyboard-response","223","1154188","0.0-6.0-0.31","3682859","co38317","norming","","","","","","",""
"null","../img/tt/1181tt.jpg","null","mooney1","image-keyboard-response","224","1157192","0.0-6.0-1.31","3682859","co38317","norming","","","","","","",""
"7128.819999999832","","","post_mooney1_questions","survey-likert","225","1164324","0.0-6.0-2.31","3682859","co38317","norming","","","{""curiosity"":4,""confidence"":1}","[0,1]","../img/tt/1181tt.jpg","",""
"8126.22499999986","","","recognition","survey-text","226","1172452","0.0-6.0-3.31","3682859","co38317","norming","","","{""guess"":""twee mannen""}","","../img/tt/1181tt.jpg","",""
"null","../img/gs/1181gs.jpg","null","reveal","image-keyboard-response","227","1174454","0.0-6.0-4.31","3682859","co38317","norming","","","","","","",""
"null","../img/tt/1181tt.jpg","null","mooney2","image-keyboard-response","228","1176456","0.0-6.0-5.31","3682859","co38317","norming","","","","","","",""
"3889.124999999767","","","post_reveal_questions","survey-likert","229","1180348","0.0-6.0-6.31","3682859","co38317","norming","","","{""aha"":3}","[0]","../img/tt/1181tt.jpg","",""
"null","<div style=""font-size:60px;""> </div>","null","fixation","html-keyboard-response","230","1180549","0.0-6.0-0.32","3682859","co38317","norming","","","","","","",""
"null","../img/tt/1012tt.jpg","null","mooney1","image-keyboard-response","231","1183553","0.0-6.0-1.32","3682859","co38317","norming","","","","","","",""
"4790.485000001267","","","post_mooney1_questions","survey-likert","232","1188348","0.0-6.0-2.32","3682859","co38317","norming","","","{""curiosity"":6,""confidence"":0}","[0,1]","../img/tt/1012tt.jpg","",""
"662.0199999997858","","","recognition","survey-text","233","1189012","0.0-6.0-3.32","3682859","co38317","norming","","","{""guess"":""""}","","../img/tt/1012tt.jpg","",""
"null","../img/gs/1012gs.jpg","null","reveal","image-keyboard-response","234","1191012","0.0-6.0-4.32","3682859","co38317","norming","","","","","","",""
"null","../img/tt/1012tt.jpg","null","mooney2","image-keyboard-response","235","1193013","0.0-6.0-5.32","3682859","co38317","norming","","","","","","",""
"1939.744999999646","","","post_reveal_questions","survey-likert","236","1194955","0.0-6.0-6.32","3682859","co38317","norming","","","{""aha"":5}","[0]","../img/tt/1012tt.jpg","",""
"null","<div style=""font-size:60px;""> </div>","null","fixation","html-keyboard-response","237","1195166","0.0-6.0-0.33","3682859","co38317","norming","","","","","","",""
"null","../img/tt/522tt.jpg","null","mooney1","image-keyboard-response","238","1198169","0.0-6.0-1.33","3682859","co38317","norming","","","","","","",""
"7823.9350000005215","","","post_mooney1_questions","survey-likert","239","1205996","0.0-6.0-2.33","3682859","co38317","norming","","","{""curiosity"":4,""confidence"":1}","[0,1]","../img/tt/522tt.jpg","",""
"3414.264999999432","","","recognition","survey-text","240","1209412","0.0-6.0-3.33","3682859","co38317","norming","","","{""guess"":""zee""}","","../img/tt/522tt.jpg","",""
"null","../img/gs/522gs.jpg","null","reveal","image-keyboard-response","241","1211413","0.0-6.0-4.33","3682859","co38317","norming","","","","","","",""
"null","../img/tt/522tt.jpg","null","mooney2","image-keyboard-response","242","1213415","0.0-6.0-5.33","3682859","co38317","norming","","","","","","",""
"2875.4250000000466","","","post_reveal_questions","survey-likert","243","1216292","0.0-6.0-6.33","3682859","co38317","norming","","","{""aha"":5}","[0]","../img/tt/522tt.jpg","",""
"null","<div style=""font-size:60px;""> </div>","null","fixation","html-keyboard-response","244","1216493","0.0-6.0-0.34","3682859","co38317","norming","","","","","","",""
"null","../img/tt/1353tt.jpg","null","mooney1","image-keyboard-response","245","1219496","0.0-6.0-1.34","3682859","co38317","norming","","","","","","",""
"5305.239999999525","","","post_mooney1_questions","survey-likert","246","1224804","0.0-6.0-2.34","3682859","co38317","norming","","","{""curiosity"":4,""confidence"":1}","[0,1]","../img/tt/1353tt.jpg","",""
"7710.064999999246","","","recognition","survey-text","247","1232516","0.0-6.0-3.34","3682859","co38317","norming","","","{""guess"":""dolfijn""}","","../img/tt/1353tt.jpg","",""
"null","../img/gs/1353gs.jpg","null","reveal","image-keyboard-response","248","1234521","0.0-6.0-4.34","3682859","co38317","norming","","","","","","",""
"null","../img/tt/1353tt.jpg","null","mooney2","image-keyboard-response","249","1236523","0.0-6.0-5.34","3682859","co38317","norming","","","","","","",""
"2374.2099999999627","","","post_reveal_questions","survey-likert","250","1238900","0.0-6.0-6.34","3682859","co38317","norming","","","{""aha"":5}","[0]","../img/tt/1353tt.jpg","",""
"null","<div style=""font-size:60px;""> </div>","null","fixation","html-keyboard-response","251","1239101","0.0-6.0-0.35","3682859","co38317","norming","","","","","","",""
"null","../img/tt/357tt.jpg","null","mooney1","image-keyboard-response","252","1242105","0.0-6.0-1.35","3682859","co38317","norming","","","","","","",""
"15047.844999999274","","","post_mooney1_questions","survey-likert","253","1257156","0.0-6.0-2.35","3682859","co38317","norming","","","{""curiosity"":4,""confidence"":0}","[0,1]","../img/tt/357tt.jpg","",""
"1214.065000000177","","","recognition","survey-text","254","1258372","0.0-6.0-3.35","3682859","co38317","norming","","","{""guess"":""""}","","../img/tt/357tt.jpg","",""
"null","../img/gs/357gs.jpg","null","reveal","image-keyboard-response","255","1260374","0.0-6.0-4.35","3682859","co38317","norming","","","","","","",""
"null","../img/tt/357tt.jpg","null","mooney2","image-keyboard-response","256","1262375","0.0-6.0-5.35","3682859","co38317","norming","","","","","","",""
"3954.3200000007637","","","post_reveal_questions","survey-likert","257","1266332","0.0-6.0-6.35","3682859","co38317","norming","","","{""aha"":4}","[0]","../img/tt/357tt.jpg","",""
"null","<div style=""font-size:60px;""> </div>","null","fixation","html-keyboard-response","258","1266534","0.0-6.0-0.36","3682859","co38317","norming","","","","","","",""
"null","../img/tt/306tt.jpg","null","mooney1","image-keyboard-response","259","1269537","0.0-6.0-1.36","3682859","co38317","norming","","","","","","",""
"11624.41500000027","","","post_mooney1_questions","survey-likert","260","1281164","0.0-6.0-2.36","3682859","co38317","norming","","","{""curiosity"":5,""confidence"":1}","[0,1]","../img/tt/306tt.jpg","",""
"9061.985000000335","","","recognition","survey-text","261","1290227","0.0-6.0-3.36","3682859","co38317","norming","","","{""guess"":""deken""}","","../img/tt/306tt.jpg","",""
"null","../img/gs/306gs.jpg","null","reveal","image-keyboard-response","262","1292229","0.0-6.0-4.36","3682859","co38317","norming","","","","","","",""
"null","../img/tt/306tt.jpg","null","mooney2","image-keyboard-response","263","1294231","0.0-6.0-5.36","3682859","co38317","norming","","","","","","",""
"2698.3549999985844","","","post_reveal_questions","survey-likert","264","1296932","0.0-6.0-6.36","3682859","co38317","norming","","","{""aha"":2}","[0]","../img/tt/306tt.jpg","",""
"null","<div style=""font-size:60px;""> </div>","null","fixation","html-keyboard-response","265","1297133","0.0-6.0-0.37","3682859","co38317","norming","","","","","","",""
"null","../img/tt/1186tt.jpg","null","mooney1","image-keyboard-response","266","1300137","0.0-6.0-1.37","3682859","co38317","norming","","","","","","",""
"3895.984999999171","","","post_mooney1_questions","survey-likert","267","1304036","0.0-6.0-2.37","3682859","co38317","norming","","","{""curiosity"":4,""confidence"":2}","[0,1]","../img/tt/1186tt.jpg","",""
"4613.995000001509","","","recognition","survey-text","268","1308651","0.0-6.0-3.37","3682859","co38317","norming","","","{""guess"":""schaatser""}","","../img/tt/1186tt.jpg","",""
"null","../img/gs/1186gs.jpg","null","reveal","image-keyboard-response","269","1310661","0.0-6.0-4.37","3682859","co38317","norming","","","","","","",""
"null","../img/tt/1186tt.jpg","null","mooney2","image-keyboard-response","270","1312664","0.0-6.0-5.37","3682859","co38317","norming","","","","","","",""
"2665.119999999646","","","post_reveal_questions","survey-likert","271","1315331","0.0-6.0-6.37","3682859","co38317","norming","","","{""aha"":3}","[0]","../img/tt/1186tt.jpg","",""
"null","<div style=""font-size:60px;""> </div>","null","fixation","html-keyboard-response","272","1315533","0.0-6.0-0.38","3682859","co38317","norming","","","","","","",""
"null","../img/tt/079tt.jpg","null","mooney1","image-keyboard-response","273","1318537","0.0-6.0-1.38","3682859","co38317","norming","","","","","","",""
"2623.7449999989476","","","post_mooney1_questions","survey-likert","274","1321164","0.0-6.0-2.38","3682859","co38317","norming","","","{""curiosity"":4,""confidence"":2}","[0,1]","../img/tt/079tt.jpg","",""
"3046.1500000001397","","","recognition","survey-text","275","1324212","0.0-6.0-3.38","3682859","co38317","norming","","","{""guess"":""beer""}","","../img/tt/079tt.jpg","",""
"null","../img/gs/079gs.jpg","null","reveal","image-keyboard-response","276","1326221","0.0-6.0-4.38","3682859","co38317","norming","","","","","","",""
"null","../img/tt/079tt.jpg","null","mooney2","image-keyboard-response","277","1328222","0.0-6.0-5.38","3682859","co38317","norming","","","","","","",""
"3641.5800000012387","","","post_reveal_questions","survey-likert","278","1331868","0.0-6.0-6.38","3682859","co38317","norming","","","{""aha"":2}","[0]","../img/tt/079tt.jpg","",""
"null","<div style=""font-size:60px;""> </div>","null","fixation","html-keyboard-response","279","1332069","0.0-6.0-0.39","3682859","co38317","norming","","","","","","",""
"null","../img/tt/1171tt.jpg","null","mooney1","image-keyboard-response","280","1335073","0.0-6.0-1.39","3682859","co38317","norming","","","","","","",""
"10631.550000000047","","","post_mooney1_questions","survey-likert","281","1345708","0.0-6.0-2.39","3682859","co38317","norming","","","{""curiosity"":5,""confidence"":1}","[0,1]","../img/tt/1171tt.jpg","",""
"3414.0900000003166","","","recognition","survey-text","282","1349124","0.0-6.0-3.39","3682859","co38317","norming","","","{""guess"":""zombie""}","","../img/tt/1171tt.jpg","",""
"null","../img/gs/1171gs.jpg","null","reveal","image-keyboard-response","283","1351131","0.0-6.0-4.39","3682859","co38317","norming","","","","","","",""
"null","../img/tt/1171tt.jpg","null","mooney2","image-keyboard-response","284","1353133","0.0-6.0-5.39","3682859","co38317","norming","","","","","","",""
"3478.424999999348","","","post_reveal_questions","survey-likert","285","1356612","0.0-6.0-6.39","3682859","co38317","norming","","","{""aha"":6}","[0]","../img/tt/1171tt.jpg","",""
"null","<div style=""font-size:60px;""> </div>","null","fixation","html-keyboard-response","286","1356815","0.0-6.0-0.40","3682859","co38317","norming","","","","","","",""
"null","../img/tt/1275tt.jpg","null","mooney1","image-keyboard-response","287","1359821","0.0-6.0-1.40","3682859","co38317","norming","","","","","","",""
"7877.674999999581","","","post_mooney1_questions","survey-likert","288","1367700","0.0-6.0-2.40","3682859","co38317","norming","","","{""curiosity"":4,""confidence"":2}","[0,1]","../img/tt/1275tt.jpg","",""
"5133.989999998361","","","recognition","survey-text","289","1372836","0.0-6.0-3.40","3682859","co38317","norming","","","{""guess"":""everzwijn""}","","../img/tt/1275tt.jpg","",""
"null","../img/gs/1275gs.jpg","null","reveal","image-keyboard-response","290","1374838","0.0-6.0-4.40","3682859","co38317","norming","","","","","","",""
"null","../img/tt/1275tt.jpg","null","mooney2","image-keyboard-response","291","1376840","0.0-6.0-5.40","3682859","co38317","norming","","","","","","",""
"2969.509999999078","","","post_reveal_questions","survey-likert","292","1379812","0.0-6.0-6.40","3682859","co38317","norming","","","{""aha"":2}","[0]","../img/tt/1275tt.jpg","",""
"null","<div style=""font-size:60px;""> </div>","null","fixation","html-keyboard-response","293","1380013","0.0-6.0-0.41","3682859","co38317","norming","","","","","","",""
"null","../img/tt/1243tt.jpg","null","mooney1","image-keyboard-response","294","1383016","0.0-6.0-1.41","3682859","co38317","norming","","","","","","",""
"4561.005000001518","","","post_mooney1_questions","survey-likert","295","1387580","0.0-6.0-2.41","3682859","co38317","norming","","","{""curiosity"":4,""confidence"":2}","[0,1]","../img/tt/1243tt.jpg","",""
"3077.994999999646","","","recognition","survey-text","296","1390660","0.0-6.0-3.41","3682859","co38317","norming","","","{""guess"":""aapje""}","","../img/tt/1243tt.jpg","",""
"null","../img/gs/1243gs.jpg","null","reveal","image-keyboard-response","297","1392661","0.0-6.0-4.41","3682859","co38317","norming","","","","","","",""
"null","../img/tt/1243tt.jpg","null","mooney2","image-keyboard-response","298","1394664","0.0-6.0-5.41","3682859","co38317","norming","","","","","","",""
"2259.5299999993294","","","post_reveal_questions","survey-likert","299","1396924","0.0-6.0-6.41","3682859","co38317","norming","","","{""aha"":5}","[0]","../img/tt/1243tt.jpg","",""
"null","<div style=""font-size:60px;""> </div>","null","fixation","html-keyboard-response","300","1397125","0.0-6.0-0.42","3682859","co38317","norming","","","","","","",""
"null","../img/tt/438tt.jpg","null","mooney1","image-keyboard-response","301","1400128","0.0-6.0-1.42","3682859","co38317","norming","","","","","","",""
"6064.889999999665","","","post_mooney1_questions","survey-likert","302","1406196","0.0-6.0-2.42","3682859","co38317","norming","","","{""curiosity"":4,""confidence"":1}","[0,1]","../img/tt/438tt.jpg","",""
"2990.0500000002794","","","recognition","survey-text","303","1409188","0.0-6.0-3.42","3682859","co38317","norming","","","{""guess"":""vlinder""}","","../img/tt/438tt.jpg","",""
"null","../img/gs/438gs.jpg","null","reveal","image-keyboard-response","304","1411191","0.0-6.0-4.42","3682859","co38317","norming","","","","","","",""
"null","../img/tt/438tt.jpg","null","mooney2","image-keyboard-response","305","1413193","0.0-6.0-5.42","3682859","co38317","norming","","","","","","",""
"1847.084999999497","","","post_reveal_questions","survey-likert","306","1415044","0.0-6.0-6.42","3682859","co38317","norming","","","{""aha"":4}","[0]","../img/tt/438tt.jpg","",""
"null","<div style=""font-size:60px;""> </div>","null","fixation","html-keyboard-response","307","1415247","0.0-6.0-0.43","3682859","co38317","norming","","","","","","",""
"null","../img/tt/1242tt.jpg","null","mooney1","image-keyboard-response","308","1418250","0.0-6.0-1.43","3682859","co38317","norming","","","","","","",""
"4846.970000000438","","","post_mooney1_questions","survey-likert","309","1423100","0.0-6.0-2.43","3682859","co38317","norming","","","{""curiosity"":4,""confidence"":2}","[0,1]","../img/tt/1242tt.jpg","",""
"2718.0649999992456","","","recognition","survey-text","310","1425820","0.0-6.0-3.43","3682859","co38317","norming","","","{""guess"":""vos""}","","../img/tt/1242tt.jpg","",""
"null","../img/gs/1242gs.jpg","null","reveal","image-keyboard-response","311","1427823","0.0-6.0-4.43","3682859","co38317","norming","","","","","","",""
"null","../img/tt/1242tt.jpg","null","mooney2","image-keyboard-response","312","1429825","0.0-6.0-5.43","3682859","co38317","norming","","","","","","",""
"4448.1250000006985","","","post_reveal_questions","survey-likert","313","1434276","0.0-6.0-6.43","3682859","co38317","norming","","","{""aha"":1}","[0]","../img/tt/1242tt.jpg","",""
"null","<div style=""font-size:60px;""> </div>","null","fixation","html-keyboard-response","314","1434478","0.0-6.0-0.44","3682859","co38317","norming","","","","","","",""
"null","../img/tt/111tt.jpg","null","mooney1","image-keyboard-response","315","1437480","0.0-6.0-1.44","3682859","co38317","norming","","","","","","",""
"4649.26500000013","","","post_mooney1_questions","survey-likert","316","1442132","0.0-6.0-2.44","3682859","co38317","norming","","","{""curiosity"":3,""confidence"":2}","[0,1]","../img/tt/111tt.jpg","",""
"3165.9550000003073","","","recognition","survey-text","317","1445300","0.0-6.0-3.44","3682859","co38317","norming","","","{""guess"":""telefoon""}","","../img/tt/111tt.jpg","",""
"null","../img/gs/111gs.jpg","null","reveal","image-keyboard-response","318","1447303","0.0-6.0-4.44","3682859","co38317","norming","","","","","","",""
"null","../img/tt/111tt.jpg","null","mooney2","image-keyboard-response","319","1449305","0.0-6.0-5.44","3682859","co38317","norming","","","","","","",""
"5650.284999999683","","","post_reveal_questions","survey-likert","320","1454956","0.0-6.0-6.44","3682859","co38317","norming","","","{""aha"":3}","[0]","../img/tt/111tt.jpg","",""
"null","<div style=""font-size:60px;""> </div>","null","fixation","html-keyboard-response","321","1455158","0.0-6.0-0.45","3682859","co38317","norming","","","","","","",""
"null","../img/tt/1363tt.jpg","null","mooney1","image-keyboard-response","322","1458161","0.0-6.0-1.45","3682859","co38317","norming","","","","","","",""
"5528.034999999218","","","post_mooney1_questions","survey-likert","323","1463692","0.0-6.0-2.45","3682859","co38317","norming","","","{""curiosity"":4,""confidence"":1}","[0,1]","../img/tt/1363tt.jpg","",""
"6830.040000000736","","","recognition","survey-text","324","1470525","0.0-6.0-3.45","3682859","co38317","norming","","","{""guess"":""schotel""}","","../img/tt/1363tt.jpg","",""
"null","../img/gs/1363gs.jpg","null","reveal","image-keyboard-response","325","1472527","0.0-6.0-4.45","3682859","co38317","norming","","","","","","",""
"null","../img/tt/1363tt.jpg","null","mooney2","image-keyboard-response","326","1474528","0.0-6.0-5.45","3682859","co38317","norming","","","","","","",""
"5738.119999999879","","","post_reveal_questions","survey-likert","327","1480269","0.0-6.0-6.45","3682859","co38317","norming","","","{""aha"":2}","[0]","../img/tt/1363tt.jpg","",""
"null","<div style=""font-size:60px;""> </div>","null","fixation","html-keyboard-response","328","1480471","0.0-6.0-0.46","3682859","co38317","norming","","","","","","",""
"null","../img/tt/1125tt.jpg","null","mooney1","image-keyboard-response","329","1483474","0.0-6.0-1.46","3682859","co38317","norming","","","","","","",""
"6487.185000000056","","","post_mooney1_questions","survey-likert","330","1489965","0.0-6.0-2.46","3682859","co38317","norming","","","{""curiosity"":5,""confidence"":0}","[0,1]","../img/tt/1125tt.jpg","",""
"1134.2050000003073","","","recognition","survey-text","331","1491101","0.0-6.0-3.46","3682859","co38317","norming","","","{""guess"":""""}","","../img/tt/1125tt.jpg","",""
"null","../img/gs/1125gs.jpg","null","reveal","image-keyboard-response","332","1493102","0.0-6.0-4.46","3682859","co38317","norming","","","","","","",""
"null","../img/tt/1125tt.jpg","null","mooney2","image-keyboard-response","333","1495104","0.0-6.0-5.46","3682859","co38317","norming","","","","","","",""
"2690.3700000001118","","","post_reveal_questions","survey-likert","334","1497797","0.0-6.0-6.46","3682859","co38317","norming","","","{""aha"":6}","[0]","../img/tt/1125tt.jpg","",""
"null","<div style=""font-size:60px;""> </div>","null","fixation","html-keyboard-response","335","1497998","0.0-6.0-0.47","3682859","co38317","norming","","","","","","",""
"null","../img/tt/105tt.jpg","null","mooney1","image-keyboard-response","336","1501001","0.0-6.0-1.47","3682859","co38317","norming","","","","","","",""
"6576.774999999441","","","post_mooney1_questions","survey-likert","337","1507581","0.0-6.0-2.47","3682859","co38317","norming","","","{""curiosity"":3,""confidence"":1}","[0,1]","../img/tt/105tt.jpg","",""
"3949.549999999348","","","recognition","survey-text","338","1511533","0.0-6.0-3.47","3682859","co38317","norming","","","{""guess"":""schoenen""}","","../img/tt/105tt.jpg","",""
"null","../img/gs/105gs.jpg","null","reveal","image-keyboard-response","339","1513534","0.0-6.0-4.47","3682859","co38317","norming","","","","","","",""
"null","../img/tt/105tt.jpg","null","mooney2","image-keyboard-response","340","1515536","0.0-6.0-5.47","3682859","co38317","norming","","","","","","",""
"3042.085000000894","","","post_reveal_questions","survey-likert","341","1518581","0.0-6.0-6.47","3682859","co38317","norming","","","{""aha"":4}","[0]","../img/tt/105tt.jpg","",""
"null","<div style=""font-size:60px;""> </div>","null","fixation","html-keyboard-response","342","1518782","0.0-6.0-0.48","3682859","co38317","norming","","","","","","",""
"null","../img/tt/049tt.jpg","null","mooney1","image-keyboard-response","343","1521787","0.0-6.0-1.48","3682859","co38317","norming","","","","","","",""
"5839.074999999721","","","post_mooney1_questions","survey-likert","344","1527629","0.0-6.0-2.48","3682859","co38317","norming","","","{""curiosity"":4,""confidence"":2}","[0,1]","../img/tt/049tt.jpg","",""
"7398.069999999134","","","recognition","survey-text","345","1535028","0.0-6.0-3.48","3682859","co38317","norming","","","{""guess"":""lieveheersbeestje""}","","../img/tt/049tt.jpg","",""
"null","../img/gs/049gs.jpg","null","reveal","image-keyboard-response","346","1537030","0.0-6.0-4.48","3682859","co38317","norming","","","","","","",""
"null","../img/tt/049tt.jpg","null","mooney2","image-keyboard-response","347","1539033","0.0-6.0-5.48","3682859","co38317","norming","","","","","","",""
"2745.510000000708","","","post_reveal_questions","survey-likert","348","1541781","0.0-6.0-6.48","3682859","co38317","norming","","","{""aha"":5}","[0]","../img/tt/049tt.jpg","",""
"null","<div style=""font-size:60px;""> </div>","null","fixation","html-keyboard-response","349","1541981","0.0-6.0-0.49","3682859","co38317","norming","","","","","","",""
"null","../img/tt/552tt.jpg","null","mooney1","image-keyboard-response","350","1544984","0.0-6.0-1.49","3682859","co38317","norming","","","","","","",""
"5321.314999999246","","","post_mooney1_questions","survey-likert","351","1550309","0.0-6.0-2.49","3682859","co38317","norming","","","{""curiosity"":3,""confidence"":1}","[0,1]","../img/tt/552tt.jpg","",""
"3078.155000001192","","","recognition","survey-text","352","1553388","0.0-6.0-3.49","3682859","co38317","norming","","","{""guess"":""oor""}","","../img/tt/552tt.jpg","",""
"null","../img/gs/552gs.jpg","null","reveal","image-keyboard-response","353","1555389","0.0-6.0-4.49","3682859","co38317","norming","","","","","","",""
"null","../img/tt/552tt.jpg","null","mooney2","image-keyboard-response","354","1557391","0.0-6.0-5.49","3682859","co38317","norming","","","","","","",""
"3836.385000000475","","","post_reveal_questions","survey-likert","355","1561229","0.0-6.0-6.49","3682859","co38317","norming","","","{""aha"":5}","[0]","../img/tt/552tt.jpg","",""
"null","<div style=""font-size:60px;""> </div>","null","fixation","html-keyboard-response","356","1561429","0.0-6.0-0.50","3682859","co38317","norming","","","","","","",""
"null","../img/tt/1148tt.jpg","null","mooney1","image-keyboard-response","357","1564432","0.0-6.0-1.50","3682859","co38317","norming","","","","","","",""
"8128.66500000027","","","post_mooney1_questions","survey-likert","358","1572565","0.0-6.0-2.50","3682859","co38317","norming","","","{""curiosity"":4,""confidence"":1}","[0,1]","../img/tt/1148tt.jpg","",""
"3534.149999999441","","","recognition","survey-text","359","1576100","0.0-6.0-3.50","3682859","co38317","norming","","","{""guess"":""tractor""}","","../img/tt/1148tt.jpg","",""
"null","../img/gs/1148gs.jpg","null","reveal","image-keyboard-response","360","1578103","0.0-6.0-4.50","3682859","co38317","norming","","","","","","",""
"null","../img/tt/1148tt.jpg","null","mooney2","image-keyboard-response","361","1580105","0.0-6.0-5.50","3682859","co38317","norming","","","","","","",""
"1904.7850000006147","","","post_reveal_questions","survey-likert","362","1582012","0.0-6.0-6.50","3682859","co38317","norming","","","{""aha"":6}","[0]","../img/tt/1148tt.jpg","",""
"null","<div style=""font-size:60px;""> </div>","null","fixation","html-keyboard-response","363","1582214","0.0-6.0-0.51","3682859","co38317","norming","","","","","","",""
"null","../img/tt/096tt.jpg","null","mooney1","image-keyboard-response","364","1585217","0.0-6.0-1.51","3682859","co38317","norming","","","","","","",""
"9008.959999999264","","","post_mooney1_questions","survey-likert","365","1594229","0.0-6.0-2.51","3682859","co38317","norming","","","{""curiosity"":4,""confidence"":1}","[0,1]","../img/tt/096tt.jpg","",""
"4957.994999998715","","","recognition","survey-text","366","1599189","0.0-6.0-3.51","3682859","co38317","norming","","","{""guess"":""grijpkraan""}","","../img/tt/096tt.jpg","",""
"null","../img/gs/096gs.jpg","null","reveal","image-keyboard-response","367","1601191","0.0-6.0-4.51","3682859","co38317","norming","","","","","","",""
"null","../img/tt/096tt.jpg","null","mooney2","image-keyboard-response","368","1603194","0.0-6.0-5.51","3682859","co38317","norming","","","","","","",""
"3144.4500000015832","","","post_reveal_questions","survey-likert","369","1606341","0.0-6.0-6.51","3682859","co38317","norming","","","{""aha"":5}","[0]","../img/tt/096tt.jpg","",""
"null","<div style=""font-size:60px;""> </div>","null","fixation","html-keyboard-response","370","1606543","0.0-6.0-0.52","3682859","co38317","norming","","","","","","",""
"null","../img/tt/1086tt.jpg","null","mooney1","image-keyboard-response","371","1609545","0.0-6.0-1.52","3682859","co38317","norming","","","","","","",""
"7400.305000001099","","","post_mooney1_questions","survey-likert","372","1616949","0.0-6.0-2.52","3682859","co38317","norming","","","{""curiosity"":5,""confidence"":0}","[0,1]","../img/tt/1086tt.jpg","",""
"1142.0599999981932","","","recognition","survey-text","373","1618093","0.0-6.0-3.52","3682859","co38317","norming","","","{""guess"":""""}","","../img/tt/1086tt.jpg","",""
"null","../img/gs/1086gs.jpg","null","reveal","image-keyboard-response","374","1620094","0.0-6.0-4.52","3682859","co38317","norming","","","","","","",""
"null","../img/tt/1086tt.jpg","null","mooney2","image-keyboard-response","375","1622096","0.0-6.0-5.52","3682859","co38317","norming","","","","","","",""
"3289.679999999935","","","post_reveal_questions","survey-likert","376","1625389","0.0-6.0-6.52","3682859","co38317","norming","","","{""aha"":4}","[0]","../img/tt/1086tt.jpg","",""
"null","<div style=""font-size:60px;""> </div>","null","fixation","html-keyboard-response","377","1625590","0.0-6.0-0.53","3682859","co38317","norming","","","","","","",""
"null","../img/tt/1053tt.jpg","null","mooney1","image-keyboard-response","378","1628593","0.0-6.0-1.53","3682859","co38317","norming","","","","","","",""
"30872.90500000026","","","post_mooney1_questions","survey-likert","379","1659469","0.0-6.0-2.53","3682859","co38317","norming","","","{""curiosity"":3,""confidence"":0}","[0,1]","../img/tt/1053tt.jpg","",""
"966.1149999992922","","","recognition","survey-text","380","1660437","0.0-6.0-3.53","3682859","co38317","norming","","","{""guess"":""""}","","../img/tt/1053tt.jpg","",""
"null","../img/gs/1053gs.jpg","null","reveal","image-keyboard-response","381","1662439","0.0-6.0-4.53","3682859","co38317","norming","","","","","","",""
"null","../img/tt/1053tt.jpg","null","mooney2","image-keyboard-response","382","1664442","0.0-6.0-5.53","3682859","co38317","norming","","","","","","",""
"2560.4849999998696","","","post_reveal_questions","survey-likert","383","1667005","0.0-6.0-6.53","3682859","co38317","norming","","","{""aha"":1}","[0]","../img/tt/1053tt.jpg","",""
"null","<div style=""font-size:60px;""> </div>","null","fixation","html-keyboard-response","384","1667207","0.0-6.0-0.54","3682859","co38317","norming","","","","","","",""
"null","../img/tt/1101tt.jpg","null","mooney1","image-keyboard-response","385","1670210","0.0-6.0-1.54","3682859","co38317","norming","","","","","","",""
"9247.90500000026","","","post_mooney1_questions","survey-likert","386","1679461","0.0-6.0-2.54","3682859","co38317","norming","","","{""curiosity"":5,""confidence"":1}","[0,1]","../img/tt/1101tt.jpg","",""
"9333.99500000081","","","recognition","survey-text","387","1688797","0.0-6.0-3.54","3682859","co38317","norming","","","{""guess"":""touwtrekkende man""}","","../img/tt/1101tt.jpg","",""
"null","../img/gs/1101gs.jpg","null","reveal","image-keyboard-response","388","1690800","0.0-6.0-4.54","3682859","co38317","norming","","","","","","",""
"null","../img/tt/1101tt.jpg","null","mooney2","image-keyboard-response","389","1692802","0.0-6.0-5.54","3682859","co38317","norming","","","","","","",""
"3344.8249999999534","","","post_reveal_questions","survey-likert","390","1696149","0.0-6.0-6.54","3682859","co38317","norming","","","{""aha"":2}","[0]","../img/tt/1101tt.jpg","",""
"null","<div style=""font-size:60px;""> </div>","null","fixation","html-keyboard-response","391","1696350","0.0-6.0-0.55","3682859","co38317","norming","","","","","","",""
"null","../img/tt/412tt.jpg","null","mooney1","image-keyboard-response","392","1699354","0.0-6.0-1.55","3682859","co38317","norming","","","","","","",""
"6961.5649999994785","","","post_mooney1_questions","survey-likert","393","1706317","0.0-6.0-2.55","3682859","co38317","norming","","","{""curiosity"":5,""confidence"":2}","[0,1]","../img/tt/412tt.jpg","",""
"3742.1300000005867","","","recognition","survey-text","394","1710061","0.0-6.0-3.55","3682859","co38317","norming","","","{""guess"":""knuffelen""}","","../img/tt/412tt.jpg","",""
"null","../img/gs/412gs.jpg","null","reveal","image-keyboard-response","395","1712063","0.0-6.0-4.55","3682859","co38317","norming","","","","","","",""
"null","../img/tt/412tt.jpg","null","mooney2","image-keyboard-response","396","1714066","0.0-6.0-5.55","3682859","co38317","norming","","","","","","",""
"2088.975000000559","","","post_reveal_questions","survey-likert","397","1716157","0.0-6.0-6.55","3682859","co38317","norming","","","{""aha"":6}","[0]","../img/tt/412tt.jpg","",""
"null","<div style=""font-size:60px;""> </div>","null","fixation","html-keyboard-response","398","1716358","0.0-6.0-0.56","3682859","co38317","norming","","","","","","",""
"null","../img/tt/1044tt.jpg","null","mooney1","image-keyboard-response","399","1719362","0.0-6.0-1.56","3682859","co38317","norming","","","","","","",""
"4585.725000000792","","","post_mooney1_questions","survey-likert","400","1723949","0.0-6.0-2.56","3682859","co38317","norming","","","{""curiosity"":4,""confidence"":2}","[0,1]","../img/tt/1044tt.jpg","",""
"2654.055000000866","","","recognition","survey-text","401","1726605","0.0-6.0-3.56","3682859","co38317","norming","","","{""guess"":""koe""}","","../img/tt/1044tt.jpg","",""
"null","../img/gs/1044gs.jpg","null","reveal","image-keyboard-response","402","1728606","0.0-6.0-4.56","3682859","co38317","norming","","","","","","",""
"null","../img/tt/1044tt.jpg","null","mooney2","image-keyboard-response","403","1730609","0.0-6.0-5.56","3682859","co38317","norming","","","","","","",""
"1905.160000000149","","","post_reveal_questions","survey-likert","404","1732517","0.0-6.0-6.56","3682859","co38317","norming","","","{""aha"":3}","[0]","../img/tt/1044tt.jpg","",""
"null","<div style=""font-size:60px;""> </div>","null","fixation","html-keyboard-response","405","1732719","0.0-6.0-0.57","3682859","co38317","norming","","","","","","",""
"null","../img/tt/1024tt.jpg","null","mooney1","image-keyboard-response","406","1735722","0.0-6.0-1.57","3682859","co38317","norming","","","","","","",""
"4135.739999999758","","","post_mooney1_questions","survey-likert","407","1739861","0.0-6.0-2.57","3682859","co38317","norming","","","{""curiosity"":4,""confidence"":3}","[0,1]","../img/tt/1024tt.jpg","",""
"5861.964999999851","","","recognition","survey-text","408","1745725","0.0-6.0-3.57","3682859","co38317","norming","","","{""guess"":""tennisspeelster""}","","../img/tt/1024tt.jpg","",""
"null","../img/gs/1024gs.jpg","null","reveal","image-keyboard-response","409","1747727","0.0-6.0-4.57","3682859","co38317","norming","","","","","","",""
"null","../img/tt/1024tt.jpg","null","mooney2","image-keyboard-response","410","1749729","0.0-6.0-5.57","3682859","co38317","norming","","","","","","",""
"2385.6349999986123","","","post_reveal_questions","survey-likert","411","1752117","0.0-6.0-6.57","3682859","co38317","norming","","","{""aha"":1}","[0]","../img/tt/1024tt.jpg","",""
"null","<div style=""font-size:60px;""> </div>","null","fixation","html-keyboard-response","412","1752319","0.0-6.0-0.58","3682859","co38317","norming","","","","","","",""
"null","../img/tt/1130tt.jpg","null","mooney1","image-keyboard-response","413","1755323","0.0-6.0-1.58","3682859","co38317","norming","","","","","","",""
"13640.789999999339","","","post_mooney1_questions","survey-likert","414","1768965","0.0-6.0-2.58","3682859","co38317","norming","","","{""curiosity"":3,""confidence"":2}","[0,1]","../img/tt/1130tt.jpg","",""
"5830.239999999525","","","recognition","survey-text","415","1774797","0.0-6.0-3.58","3682859","co38317","norming","","","{""guess"":""sportman""}","","../img/tt/1130tt.jpg","",""
"null","../img/gs/1130gs.jpg","null","reveal","image-keyboard-response","416","1776798","0.0-6.0-4.58","3682859","co38317","norming","","","","","","",""
"null","../img/tt/1130tt.jpg","null","mooney2","image-keyboard-response","417","1778800","0.0-6.0-5.58","3682859","co38317","norming","","","","","","",""
"3170.08499999973","","","post_reveal_questions","survey-likert","418","1781973","0.0-6.0-6.58","3682859","co38317","norming","","","{""aha"":4}","[0]","../img/tt/1130tt.jpg","",""
"null","<div style=""font-size:60px;""> </div>","null","fixation","html-keyboard-response","419","1782175","0.0-6.0-0.59","3682859","co38317","norming","","","","","","",""
"null","../img/tt/108tt.jpg","null","mooney1","image-keyboard-response","420","1785179","0.0-6.0-1.59","3682859","co38317","norming","","","","","","",""
"13119.034999999683","","","post_mooney1_questions","survey-likert","421","1798301","0.0-6.0-2.59","3682859","co38317","norming","","","{""curiosity"":4,""confidence"":1}","[0,1]","../img/tt/108tt.jpg","",""
"2821.8350000006612","","","recognition","survey-text","422","1801125","0.0-6.0-3.59","3682859","co38317","norming","","","{""guess"":""bos""}","","../img/tt/108tt.jpg","",""
"null","../img/gs/108gs.jpg","null","reveal","image-keyboard-response","423","1803126","0.0-6.0-4.59","3682859","co38317","norming","","","","","","",""
"null","../img/tt/108tt.jpg","null","mooney2","image-keyboard-response","424","1805129","0.0-6.0-5.59","3682859","co38317","norming","","","","","","",""
"1945.0249999992084","","","post_reveal_questions","survey-likert","425","1807077","0.0-6.0-6.59","3682859","co38317","norming","","","{""aha"":5}","[0]","../img/tt/108tt.jpg","",""
"null","<div style=""font-size:60px;""> </div>","null","fixation","html-keyboard-response","426","1807279","0.0-6.0-0.60","3682859","co38317","norming","","","","","","",""
"null","../img/tt/1188tt.jpg","null","mooney1","image-keyboard-response","427","1810282","0.0-6.0-1.60","3682859","co38317","norming","","","","","","",""
"3520.1100000012666","","","post_mooney1_questions","survey-likert","428","1813805","0.0-6.0-2.60","3682859","co38317","norming","","","{""curiosity"":4,""confidence"":1}","[0,1]","../img/tt/1188tt.jpg","",""
"4365.9449999995995","","","recognition","survey-text","429","1818173","0.0-6.0-3.60","3682859","co38317","norming","","","{""guess"":""piraat""}","","../img/tt/1188tt.jpg","",""
"null","../img/gs/1188gs.jpg","null","reveal","image-keyboard-response","430","1820174","0.0-6.0-4.60","3682859","co38317","norming","","","","","","",""
"null","../img/tt/1188tt.jpg","null","mooney2","image-keyboard-response","431","1822177","0.0-6.0-5.60","3682859","co38317","norming","","","","","","",""
"3009.6900000006426","","","post_reveal_questions","survey-likert","432","1825189","0.0-6.0-6.60","3682859","co38317","norming","","","{""aha"":3}","[0]","../img/tt/1188tt.jpg","",""
"null","<div style=""font-size:60px;""> </div>","null","fixation","html-keyboard-response","433","1825390","0.0-6.0-0.61","3682859","co38317","norming","","","","","","",""
"null","../img/tt/279tt.jpg","null","mooney1","image-keyboard-response","434","1828393","0.0-6.0-1.61","3682859","co38317","norming","","","","","","",""
"4848.700000000419","","","post_mooney1_questions","survey-likert","435","1833245","0.0-6.0-2.61","3682859","co38317","norming","","","{""curiosity"":2,""confidence"":3}","[0,1]","../img/tt/279tt.jpg","",""
"3166.0450000001583","","","recognition","survey-text","436","1836412","0.0-6.0-3.61","3682859","co38317","norming","","","{""guess"":""koala""}","","../img/tt/279tt.jpg","",""
"null","../img/gs/279gs.jpg","null","reveal","image-keyboard-response","437","1838422","0.0-6.0-4.61","3682859","co38317","norming","","","","","","",""
"null","../img/tt/279tt.jpg","null","mooney2","image-keyboard-response","438","1840425","0.0-6.0-5.61","3682859","co38317","norming","","","","","","",""
"4368.964999999851","","","post_reveal_questions","survey-likert","439","1844796","0.0-6.0-6.61","3682859","co38317","norming","","","{""aha"":0}","[0]","../img/tt/279tt.jpg","",""
"null","<div style=""font-size:60px;""> </div>","null","fixation","html-keyboard-response","440","1844998","0.0-6.0-0.62","3682859","co38317","norming","","","","","","",""
"null","../img/tt/1055tt.jpg","null","mooney1","image-keyboard-response","441","1848002","0.0-6.0-1.62","3682859","co38317","norming","","","","","","",""
"11191.170000000158","","","post_mooney1_questions","survey-likert","442","1859197","0.0-6.0-2.62","3682859","co38317","norming","","","{""curiosity"":3,""confidence"":1}","[0,1]","../img/tt/1055tt.jpg","",""
"6982.044999998994","","","recognition","survey-text","443","1866180","0.0-6.0-3.62","3682859","co38317","norming","","","{""guess"":""water weerspiegeling""}","","../img/tt/1055tt.jpg","",""
"null","../img/gs/1055gs.jpg","null","reveal","image-keyboard-response","444","1868182","0.0-6.0-4.62","3682859","co38317","norming","","","","","","",""
"null","../img/tt/1055tt.jpg","null","mooney2","image-keyboard-response","445","1870184","0.0-6.0-5.62","3682859","co38317","norming","","","","","","",""
"3241.330000000773","","","post_reveal_questions","survey-likert","446","1873428","0.0-6.0-6.62","3682859","co38317","norming","","","{""aha"":3}","[0]","../img/tt/1055tt.jpg","",""
"null","<div style=""font-size:60px;""> </div>","null","fixation","html-keyboard-response","447","1873629","0.0-6.0-0.63","3682859","co38317","norming","","","","","","",""
"null","../img/tt/010tt.jpg","null","mooney1","image-keyboard-response","448","1876633","0.0-6.0-1.63","3682859","co38317","norming","","","","","","",""
"4871.8750000006985","","","post_mooney1_questions","survey-likert","449","1881509","0.0-6.0-2.63","3682859","co38317","norming","","","{""curiosity"":2,""confidence"":1}","[0,1]","../img/tt/010tt.jpg","",""
"3845.9199999996927","","","recognition","survey-text","450","1885356","0.0-6.0-3.63","3682859","co38317","norming","","","{""guess"":""trofee""}","","../img/tt/010tt.jpg","",""
"null","../img/gs/010gs.jpg","null","reveal","image-keyboard-response","451","1887362","0.0-6.0-4.63","3682859","co38317","norming","","","","","","",""
"null","../img/tt/010tt.jpg","null","mooney2","image-keyboard-response","452","1889364","0.0-6.0-5.63","3682859","co38317","norming","","","","","","",""
"4679.444999999832","","","post_reveal_questions","survey-likert","453","1894045","0.0-6.0-6.63","3682859","co38317","norming","","","{""aha"":5}","[0]","../img/tt/010tt.jpg","",""
"null","<div style=""font-size:60px;""> </div>","null","fixation","html-keyboard-response","454","1894246","0.0-6.0-0.64","3682859","co38317","norming","","","","","","",""
"null","../img/tt/524tt.jpg","null","mooney1","image-keyboard-response","455","1897249","0.0-6.0-1.64","3682859","co38317","norming","","","","","","",""
"5824.309999999823","","","post_mooney1_questions","survey-likert","456","1903077","0.0-6.0-2.64","3682859","co38317","norming","","","{""curiosity"":4,""confidence"":2}","[0,1]","../img/tt/524tt.jpg","",""
"3141.4600000006612","","","recognition","survey-text","457","1906221","0.0-6.0-3.64","3682859","co38317","norming","","","{""guess"":""olifant""}","","../img/tt/524tt.jpg","",""
"null","../img/gs/524gs.jpg","null","reveal","image-keyboard-response","458","1908223","0.0-6.0-4.64","3682859","co38317","norming","","","","","","",""
"null","../img/tt/524tt.jpg","null","mooney2","image-keyboard-response","459","1910234","0.0-6.0-5.64","3682859","co38317","norming","","","","","","",""
"3184.429999999469","","","post_reveal_questions","survey-likert","460","1913421","0.0-6.0-6.64","3682859","co38317","norming","","","{""aha"":4}","[0]","../img/tt/524tt.jpg","",""
"null","<div style=""font-size:60px;""> </div>","null","fixation","html-keyboard-response","461","1913623","0.0-6.0-0.65","3682859","co38317","norming","","","","","","",""
"null","../img/tt/056tt.jpg","null","mooney1","image-keyboard-response","462","1916626","0.0-6.0-1.65","3682859","co38317","norming","","","","","","",""
"3704.045000000391","","","post_mooney1_questions","survey-likert","463","1920333","0.0-6.0-2.65","3682859","co38317","norming","","","{""curiosity"":6,""confidence"":0}","[0,1]","../img/tt/056tt.jpg","",""
"1125.7750000003725","","","recognition","survey-text","464","1921461","0.0-6.0-3.65","3682859","co38317","norming","","","{""guess"":""""}","","../img/tt/056tt.jpg","",""
"null","../img/gs/056gs.jpg","null","reveal","image-keyboard-response","465","1923462","0.0-6.0-4.65","3682859","co38317","norming","","","","","","",""
"null","../img/tt/056tt.jpg","null","mooney2","image-keyboard-response","466","1925463","0.0-6.0-5.65","3682859","co38317","norming","","","","","","",""
"2468.1249999995343","","","post_reveal_questions","survey-likert","467","1927933","0.0-6.0-6.65","3682859","co38317","norming","","","{""aha"":4}","[0]","../img/tt/056tt.jpg","",""
"null","<div style=""font-size:60px;""> </div>","null","fixation","html-keyboard-response","468","1928134","0.0-6.0-0.66","3682859","co38317","norming","","","","","","",""
"null","../img/tt/599tt.jpg","null","mooney1","image-keyboard-response","469","1931138","0.0-6.0-1.66","3682859","co38317","norming","","","","","","",""
"7295.994999998482","","","post_mooney1_questions","survey-likert","470","1938437","0.0-6.0-2.66","3682859","co38317","norming","","","{""curiosity"":4,""confidence"":1}","[0,1]","../img/tt/599tt.jpg","",""
"4142.040000000736","","","recognition","survey-text","471","1942581","0.0-6.0-3.66","3682859","co38317","norming","","","{""guess"":""vogel""}","","../img/tt/599tt.jpg","",""
"null","../img/gs/599gs.jpg","null","reveal","image-keyboard-response","472","1944582","0.0-6.0-4.66","3682859","co38317","norming","","","","","","",""
"null","../img/tt/599tt.jpg","null","mooney2","image-keyboard-response","473","1946584","0.0-6.0-5.66","3682859","co38317","norming","","","","","","",""
"2081.739999999525","","","post_reveal_questions","survey-likert","474","1948669","0.0-6.0-6.66","3682859","co38317","norming","","","{""aha"":2}","[0]","../img/tt/599tt.jpg","",""
"null","<div style=""font-size:60px;""> </div>","null","fixation","html-keyboard-response","475","1948870","0.0-6.0-0.67","3682859","co38317","norming","","","","","","",""
"null","../img/tt/135tt.jpg","null","mooney1","image-keyboard-response","476","1951874","0.0-6.0-1.67","3682859","co38317","norming","","","","","","",""
"4119.445000000298","","","post_mooney1_questions","survey-likert","477","1955997","0.0-6.0-2.67","3682859","co38317","norming","","","{""curiosity"":4,""confidence"":2}","[0,1]","../img/tt/135tt.jpg","",""
"2525.8799999991897","","","recognition","survey-text","478","1958524","0.0-6.0-3.67","3682859","co38317","norming","","","{""guess"":""wc""}","","../img/tt/135tt.jpg","",""
"null","../img/gs/135gs.jpg","null","reveal","image-keyboard-response","479","1960527","0.0-6.0-4.67","3682859","co38317","norming","","","","","","",""
"null","../img/tt/135tt.jpg","null","mooney2","image-keyboard-response","480","1962533","0.0-6.0-5.67","3682859","co38317","norming","","","","","","",""
"3268.680000000866","","","post_reveal_questions","survey-likert","481","1965804","0.0-6.0-6.67","3682859","co38317","norming","","","{""aha"":1}","[0]","../img/tt/135tt.jpg","",""
"null","<div style=""font-size:60px;""> </div>","null","fixation","html-keyboard-response","482","1966005","0.0-6.0-0.68","3682859","co38317","norming","","","","","","",""
"null","../img/tt/300tt.jpg","null","mooney1","image-keyboard-response","483","1969009","0.0-6.0-1.68","3682859","co38317","norming","","","","","","",""
"5535.719999999972","","","post_mooney1_questions","survey-likert","484","1974549","0.0-6.0-2.68","3682859","co38317","norming","","","{""curiosity"":3,""confidence"":2}","[0,1]","../img/tt/300tt.jpg","",""
"3310.125","","","recognition","survey-text","485","1977860","0.0-6.0-3.68","3682859","co38317","norming","","","{""guess"":""schip""}","","../img/tt/300tt.jpg","",""
"null","../img/gs/300gs.jpg","null","reveal","image-keyboard-response","486","1979862","0.0-6.0-4.68","3682859","co38317","norming","","","","","","",""
"null","../img/tt/300tt.jpg","null","mooney2","image-keyboard-response","487","1981866","0.0-6.0-5.68","3682859","co38317","norming","","","","","","",""
"2439.8249999994878","","","post_reveal_questions","survey-likert","488","1984308","0.0-6.0-6.68","3682859","co38317","norming","","","{""aha"":5}","[0]","../img/tt/300tt.jpg","",""
"null","<div style=""font-size:60px;""> </div>","null","fixation","html-keyboard-response","489","1984510","0.0-6.0-0.69","3682859","co38317","norming","","","","","","",""
"null","../img/tt/358tt.jpg","null","mooney1","image-keyboard-response","490","1987513","0.0-6.0-1.69","3682859","co38317","norming","","","","","","",""
"5343.565000000875","","","post_mooney1_questions","survey-likert","491","1992861","0.0-6.0-2.69","3682859","co38317","norming","","","{""curiosity"":4,""confidence"":1}","[0,1]","../img/tt/358tt.jpg","",""
"4613.844999999739","","","recognition","survey-text","492","1997476","0.0-6.0-3.69","3682859","co38317","norming","","","{""guess"":""zadel""}","","../img/tt/358tt.jpg","",""
"null","../img/gs/358gs.jpg","null","reveal","image-keyboard-response","493","1999478","0.0-6.0-4.69","3682859","co38317","norming","","","","","","",""
"null","../img/tt/358tt.jpg","null","mooney2","image-keyboard-response","494","2001480","0.0-6.0-5.69","3682859","co38317","norming","","","","","","",""
"6546.505000000121","","","post_reveal_questions","survey-likert","495","2008029","0.0-6.0-6.69","3682859","co38317","norming","","","{""aha"":4}","[0]","../img/tt/358tt.jpg","",""
"null","<div style=""font-size:60px;""> </div>","null","fixation","html-keyboard-response","496","2008230","0.0-6.0-0.70","3682859","co38317","norming","","","","","","",""
"null","../img/tt/1004tt.jpg","null","mooney1","image-keyboard-response","497","2011233","0.0-6.0-1.70","3682859","co38317","norming","","","","","","",""
"5448.244999999646","","","post_mooney1_questions","survey-likert","498","2016685","0.0-6.0-2.70","3682859","co38317","norming","","","{""curiosity"":4,""confidence"":1}","[0,1]","../img/tt/1004tt.jpg","",""
"4933.689999999944","","","recognition","survey-text","499","2021621","0.0-6.0-3.70","3682859","co38317","norming","","","{""guess"":""stierengevecht""}","","../img/tt/1004tt.jpg","",""
"null","../img/gs/1004gs.jpg","null","reveal","image-keyboard-response","500","2023622","0.0-6.0-4.70","3682859","co38317","norming","","","","","","",""
"null","../img/tt/1004tt.jpg","null","mooney2","image-keyboard-response","501","2025625","0.0-6.0-5.70","3682859","co38317","norming","","","","","","",""
"5329.370000001276","","","post_reveal_questions","survey-likert","502","2030957","0.0-6.0-6.70","3682859","co38317","norming","","","{""aha"":3}","[0]","../img/tt/1004tt.jpg","",""
"null","<div style=""font-size:60px;""> </div>","null","fixation","html-keyboard-response","503","2031158","0.0-6.0-0.71","3682859","co38317","norming","","","","","","",""
"null","../img/tt/063tt.jpg","null","mooney1","image-keyboard-response","504","2034162","0.0-6.0-1.71","3682859","co38317","norming","","","","","","",""
"6024.100000000559","","","post_mooney1_questions","survey-likert","505","2040189","0.0-6.0-2.71","3682859","co38317","norming","","","{""curiosity"":4,""confidence"":2}","[0,1]","../img/tt/063tt.jpg","",""
"7646.074999998789","","","recognition","survey-text","506","2047837","0.0-6.0-3.71","3682859","co38317","norming","","","{""guess"":""oude typmachine""}","","../img/tt/063tt.jpg","",""
"null","../img/gs/063gs.jpg","null","reveal","image-keyboard-response","507","2049839","0.0-6.0-4.71","3682859","co38317","norming","","","","","","",""
"null","../img/tt/063tt.jpg","null","mooney2","image-keyboard-response","508","2051842","0.0-6.0-5.71","3682859","co38317","norming","","","","","","",""
"2496.7450000003446","","","post_reveal_questions","survey-likert","509","2054341","0.0-6.0-6.71","3682859","co38317","norming","","","{""aha"":4}","[0]","../img/tt/063tt.jpg","",""
"null","<div style=""font-size:60px;""> </div>","null","fixation","html-keyboard-response","510","2054543","0.0-6.0-0.72","3682859","co38317","norming","","","","","","",""
"null","../img/tt/1087tt.jpg","null","mooney1","image-keyboard-response","511","2057546","0.0-6.0-1.72","3682859","co38317","norming","","","","","","",""
"3975.9249999986496","","","post_mooney1_questions","survey-likert","512","2061525","0.0-6.0-2.72","3682859","co38317","norming","","","{""curiosity"":4,""confidence"":2}","[0,1]","../img/tt/1087tt.jpg","",""
"5333.899999999674","","","recognition","survey-text","513","2066861","0.0-6.0-3.72","3682859","co38317","norming","","","{""guess"":""drie auto's""}","","../img/tt/1087tt.jpg","",""
"null","../img/gs/1087gs.jpg","null","reveal","image-keyboard-response","514","2068862","0.0-6.0-4.72","3682859","co38317","norming","","","","","","",""
"null","../img/tt/1087tt.jpg","null","mooney2","image-keyboard-response","515","2070864","0.0-6.0-5.72","3682859","co38317","norming","","","","","","",""
"3344.7649999998976","","","post_reveal_questions","survey-likert","516","2074213","0.0-6.0-6.72","3682859","co38317","norming","","","{""aha"":3}","[0]","../img/tt/1087tt.jpg","",""
"null","<div style=""font-size:60px;""> </div>","null","fixation","html-keyboard-response","517","2074415","0.0-6.0-0.73","3682859","co38317","norming","","","","","","",""
"null","../img/tt/1234tt.jpg","null","mooney1","image-keyboard-response","518","2077419","0.0-6.0-1.73","3682859","co38317","norming","","","","","","",""
"8136.749999999767","","","post_mooney1_questions","survey-likert","519","2085557","0.0-6.0-2.73","3682859","co38317","norming","","","{""curiosity"":4,""confidence"":2}","[0,1]","../img/tt/1234tt.jpg","",""
"3630.2099999992643","","","recognition","survey-text","520","2089189","0.0-6.0-3.73","3682859","co38317","norming","","","{""guess"":""bootje""}","","../img/tt/1234tt.jpg","",""
"null","../img/gs/1234gs.jpg","null","reveal","image-keyboard-response","521","2091190","0.0-6.0-4.73","3682859","co38317","norming","","","","","","",""
"null","../img/tt/1234tt.jpg","null","mooney2","image-keyboard-response","522","2093192","0.0-6.0-5.73","3682859","co38317","norming","","","","","","",""
"3890.2649999998976","","","post_reveal_questions","survey-likert","523","2097085","0.0-6.0-6.73","3682859","co38317","norming","","","{""aha"":2}","[0]","../img/tt/1234tt.jpg","",""
"null","<div style=""font-size:60px;""> </div>","null","fixation","html-keyboard-response","524","2097287","0.0-6.0-0.74","3682859","co38317","norming","","","","","","",""
"null","../img/tt/052tt.jpg","null","mooney1","image-keyboard-response","525","2100289","0.0-6.0-1.74","3682859","co38317","norming","","","","","","",""
"5304.220000000205","","","post_mooney1_questions","survey-likert","526","2105597","0.0-6.0-2.74","3682859","co38317","norming","","","{""curiosity"":4,""confidence"":2}","[0,1]","../img/tt/052tt.jpg","",""
"3685.9700000006706","","","recognition","survey-text","527","2109285","0.0-6.0-3.74","3682859","co38317","norming","","","{""guess"":""trommel""}","","../img/tt/052tt.jpg","",""
"null","../img/gs/052gs.jpg","null","reveal","image-keyboard-response","528","2111286","0.0-6.0-4.74","3682859","co38317","norming","","","","","","",""
"null","../img/tt/052tt.jpg","null","mooney2","image-keyboard-response","529","2113289","0.0-6.0-5.74","3682859","co38317","norming","","","","","","",""
"3977.0749999987893","","","post_reveal_questions","survey-likert","530","2117269","0.0-6.0-6.74","3682859","co38317","norming","","","{""aha"":5}","[0]","../img/tt/052tt.jpg","",""
"null","<div style=""font-size:60px;""> </div>","null","fixation","html-keyboard-response","531","2117470","0.0-6.0-0.75","3682859","co38317","norming","","","","","","",""
"null","../img/tt/1080tt.jpg","null","mooney1","image-keyboard-response","532","2120472","0.0-6.0-1.75","3682859","co38317","norming","","","","","","",""
"5289.739999999758","","","post_mooney1_questions","survey-likert","533","2125765","0.0-6.0-2.75","3682859","co38317","norming","","","{""curiosity"":5,""confidence"":0}","[0,1]","../img/tt/1080tt.jpg","",""
"1550.0000000009313","","","recognition","survey-text","534","2127317","0.0-6.0-3.75","3682859","co38317","norming","","","{""guess"":""""}","","../img/tt/1080tt.jpg","",""
"null","../img/gs/1080gs.jpg","null","reveal","image-keyboard-response","535","2129319","0.0-6.0-4.75","3682859","co38317","norming","","","","","","",""
"null","../img/tt/1080tt.jpg","null","mooney2","image-keyboard-response","536","2131320","0.0-6.0-5.75","3682859","co38317","norming","","","","","","",""
"3089.785000000149","","","post_reveal_questions","survey-likert","537","2134413","0.0-6.0-6.75","3682859","co38317","norming","","","{""aha"":5}","[0]","../img/tt/1080tt.jpg","",""
"null","<div style=""font-size:60px;""> </div>","null","fixation","html-keyboard-response","538","2134615","0.0-6.0-0.76","3682859","co38317","norming","","","","","","",""
"null","../img/tt/1227tt.jpg","null","mooney1","image-keyboard-response","539","2137617","0.0-6.0-1.76","3682859","co38317","norming","","","","","","",""
"4687.824999999255","","","post_mooney1_questions","survey-likert","540","2142309","0.0-6.0-2.76","3682859","co38317","norming","","","{""curiosity"":4,""confidence"":1}","[0,1]","../img/tt/1227tt.jpg","",""
"5550.0649999994785","","","recognition","survey-text","541","2147861","0.0-6.0-3.76","3682859","co38317","norming","","","{""guess"":""kuikens""}","","../img/tt/1227tt.jpg","",""
"null","../img/gs/1227gs.jpg","null","reveal","image-keyboard-response","542","2149864","0.0-6.0-4.76","3682859","co38317","norming","","","","","","",""
"null","../img/tt/1227tt.jpg","null","mooney2","image-keyboard-response","543","2151866","0.0-6.0-5.76","3682859","co38317","norming","","","","","","",""
"2919.6450000000186","","","post_reveal_questions","survey-likert","544","2154789","0.0-6.0-6.76","3682859","co38317","norming","","","{""aha"":2}","[0]","../img/tt/1227tt.jpg","",""
"null","<div style=""font-size:60px;""> </div>","null","fixation","html-keyboard-response","545","2154991","0.0-6.0-0.77","3682859","co38317","norming","","","","","","",""
"null","../img/tt/353tt.jpg","null","mooney1","image-keyboard-response","546","2157996","0.0-6.0-1.77","3682859","co38317","norming","","","","","","",""
"3397.450000000652","","","post_mooney1_questions","survey-likert","547","2161397","0.0-6.0-2.77","3682859","co38317","norming","","","{""curiosity"":4,""confidence"":2}","[0,1]","../img/tt/353tt.jpg","",""
"4902.050000000745","","","recognition","survey-text","548","2166301","0.0-6.0-3.77","3682859","co38317","norming","","","{""guess"":""pingun""}","","../img/tt/353tt.jpg","",""
"null","../img/gs/353gs.jpg","null","reveal","image-keyboard-response","549","2168302","0.0-6.0-4.77","3682859","co38317","norming","","","","","","",""
"null","../img/tt/353tt.jpg","null","mooney2","image-keyboard-response","550","2170304","0.0-6.0-5.77","3682859","co38317","norming","","","","","","",""
"2457.7499999995343","","","post_reveal_questions","survey-likert","551","2172765","0.0-6.0-6.77","3682859","co38317","norming","","","{""aha"":2}","[0]","../img/tt/353tt.jpg","",""
