"rt","stimulus","key_press","test_part","trial_type","trial_index","time_elapsed","internal_node_id","totalTime","subject","experiment_name","button_pressed","success","responses","question_order","currentStim","old","correct"
"38529.79500000038","Welcome to the experiment. This is an online experiment so please don't close the tab/window until we say goodbye.  Press any key to begin.","32","instructions","html-keyboard-response","0","38549","0.0-0.0","2889967","co38857","norming","","","","","","",""
"34495.89500000002","<div style='word-wrap: break-word; width: 900px'><h3>Please consider this information carefully before deciding whether to participate in this research</h3><ul style='text-align: left; font-size: .8em;'><li><b>Purpose of the research</b>: To examine how people process images.</li><li><b>What you will do in this research</b>:  Stimuli (images) will be presented on the computer and you will be asked different questions about them.</li><li><b>Time required</b>: Participation will take between 45 and 60 minutes to complete.</li><li><b>Risks</b>:  There are no anticipated risks associated with participating in this study. The effects of participating should be comparable to those you would experience from viewing a computer monitor for 30 minutes and using a mouse or keyboard.</li><li><b>Benefits</b>:  This study provides no benefits to you individually except for the credit. The study provides important information about the nature of perception and learning.</li><li><b>Confidentiality</b>:  Your participation in this study will remain confidential. No personally identifiable information will be associated with your data. Your de-identified data may be shared with other researchers and used in future projects.</li><li><b>Participation and withdrawal</b>:  Your participation in this study is completely voluntary and you may refuse to participate or you may choose to withdraw at any time without penalty.</li><li><b>How to contact the researchers</b>: If you have questions or concerns about your participation or payment, or want to request a summary of research findings, please contact Sander Van de Cruys (KU Leuven), at sander.vandecruys@kuleuven.be.</li></ul><p>The nature and purpose of this research have been sufficiently explained and I agree to participate in this study.  I understand that I am free to withdraw at any time without incurring any penalty.</p><p>Please consent by clicking the button below to continue. Otherwise, please exit the study at this time.</p></div>","","instructions","html-button-response","1","73048","0.0-1.0","2889967","co38857","norming","0","","","","","",""
"","","","instructions","fullscreen","2","80316","0.0-2.0","2889967","co38857","norming","","true","","","","",""
"40824.48999999906","","","sona","survey-html-form","3","121152","0.0-3.0","2889967","co38857","norming","","","[{""name"":""sonaid"",""value"":""38857""},{""name"":""debrief"",""value"":""yes""},{""name"":""datajoin"",""value"":""yes""}]","","","",""
"150020.07500000036","<div style='word-wrap: break-word; width: 900px'><h3>Instructions</h3><p>This experiment will have 3 parts. In the first part you will see a series of distorted images like the one below on the left. As you can see in the righthand image, the distorted images are derived from actual photographs. In what follows, you will <strong>briefly</strong> be presented with <strong>only</strong> the distorted image.</p> <div style='float: left; margin-right: 20px;'><img src='../img/018tt.jpg' height='250' width='250'></img></div><div style='float: right; margin-left: 20px;'><img src='../img/018gs.jpg' height='250' width='250'></img></div><p>Subsequently you will be asked a few questions about the image: One question on how <strong>curious</strong> you are about the solution and one on how <strong>confident</strong> you are that you know the solution.</p>Next, we ask you to make a guess on what is in the image. Note that it is OK to name just the <strong>basic level category</strong>. For example when you see a parrot in the image, 'parrot' will obviously be a correct answer but also correct is 'bird'. However, 'animal' will <strong>not</strong> be counted as a correct response. For the example above, 'rose' would be correct or 'flower', but not 'plant'. When soccer players are depicted, 'soccer', 'football', 'soccer players' will be correct, but not 'humans', 'outdoors', or 'sports'. You do not need to describe the image in full, just name the main object in it <strong>in one or two words</strong>. All images depict objects from one of the following broad level categories: animals, inanimate objects, plants, sports, vehicles, and food. Recognizing means knowing <strong>more</strong> than these broad labels for a given image. But we always encourage you to <strong>make a guess</strong> if you can. Note that you are allowed to use <strong>Dutch and English</strong> in your answers, whatever comes easiest for you.</p><p>Press any key to continue.</p></div>","32","instructions","html-keyboard-response","4","271173","0.0-4.0","2889967","co38857","norming","","","","","","",""
"81358.33500000078","<div style='word-wrap: break-word; width: 900px'><h3>Instructions</h3> <p>Next, the solution image will be revealed to you and you'll be asked to indicate how strong your <strong>aha-experience</strong> was after seeing the solution. This describes the positive feeling of the 'click' you sometimes experience, when the pieces of the 'puzzle' fall together and you suddenly have 'insight' in the image.</p><img src='aha.jpg' height='188' width='250'></img><p>Note that there are no right or wrong answers. We are interested in what <strong>you</strong> see in the image and how <strong>you</strong> feel about it.</p><p>Press any key to start the experiment.</p></div>","32","instructions","html-keyboard-response","5","352538","0.0-5.0","2889967","co38857","norming","","","","","","",""
"null","<div style=""font-size:60px;""> </div>","null","fixation","html-keyboard-response","6","352748","0.0-6.0-0.0","2889967","co38857","norming","","","","","","",""
"null","../img/tt/091tt.jpg","null","mooney1","image-keyboard-response","7","355753","0.0-6.0-1.0","2889967","co38857","norming","","","","","","",""
"16005.745000000403","","","post_mooney1_questions","survey-likert","8","371760","0.0-6.0-2.0","2889967","co38857","norming","","","{""curiosity"":1,""confidence"":0}","[0,1]","../img/tt/091tt.jpg","",""
"2925.4000000000815","","","recognition","survey-text","9","374688","0.0-6.0-3.0","2889967","co38857","norming","","","{""guess"":""""}","","../img/tt/091tt.jpg","",""
"null","../img/gs/091gs.jpg","null","reveal","image-keyboard-response","10","376689","0.0-6.0-4.0","2889967","co38857","norming","","","","","","",""
"null","../img/tt/091tt.jpg","null","mooney2","image-keyboard-response","11","378696","0.0-6.0-5.0","2889967","co38857","norming","","","","","","",""
"7846.729999999283","","","post_reveal_questions","survey-likert","12","386544","0.0-6.0-6.0","2889967","co38857","norming","","","{""aha"":2}","[0]","../img/tt/091tt.jpg","",""
"null","<div style=""font-size:60px;""> </div>","null","fixation","html-keyboard-response","13","386746","0.0-6.0-0.1","2889967","co38857","norming","","","","","","",""
"null","../img/tt/1260tt.jpg","null","mooney1","image-keyboard-response","14","389749","0.0-6.0-1.1","2889967","co38857","norming","","","","","","",""
"5313.89499999932","","","post_mooney1_questions","survey-likert","15","395064","0.0-6.0-2.1","2889967","co38857","norming","","","{""curiosity"":3,""confidence"":3}","[0,1]","../img/tt/1260tt.jpg","",""
"2542.240000000689","","","recognition","survey-text","16","397608","0.0-6.0-3.1","2889967","co38857","norming","","","{""guess"":""kikker""}","","../img/tt/1260tt.jpg","",""
"null","../img/gs/1260gs.jpg","null","reveal","image-keyboard-response","17","399614","0.0-6.0-4.1","2889967","co38857","norming","","","","","","",""
"null","../img/tt/1260tt.jpg","null","mooney2","image-keyboard-response","18","401617","0.0-6.0-5.1","2889967","co38857","norming","","","","","","",""
"2557.0000000006985","","","post_reveal_questions","survey-likert","19","404176","0.0-6.0-6.1","2889967","co38857","norming","","","{""aha"":0}","[0]","../img/tt/1260tt.jpg","",""
"null","<div style=""font-size:60px;""> </div>","null","fixation","html-keyboard-response","20","404380","0.0-6.0-0.2","2889967","co38857","norming","","","","","","",""
"null","../img/tt/406tt.jpg","null","mooney1","image-keyboard-response","21","407385","0.0-6.0-1.2","2889967","co38857","norming","","","","","","",""
"12052.364999999583","","","post_mooney1_questions","survey-likert","22","419433","0.0-6.0-2.2","2889967","co38857","norming","","","{""curiosity"":2,""confidence"":1}","[0,1]","../img/tt/406tt.jpg","",""
"1470.0499999999302","","","recognition","survey-text","23","420905","0.0-6.0-3.2","2889967","co38857","norming","","","{""guess"":""""}","","../img/tt/406tt.jpg","",""
"null","../img/gs/406gs.jpg","null","reveal","image-keyboard-response","24","422906","0.0-6.0-4.2","2889967","co38857","norming","","","","","","",""
"null","../img/tt/406tt.jpg","null","mooney2","image-keyboard-response","25","424909","0.0-6.0-5.2","2889967","co38857","norming","","","","","","",""
"3642.1950000003562","","","post_reveal_questions","survey-likert","26","428553","0.0-6.0-6.2","2889967","co38857","norming","","","{""aha"":3}","[0]","../img/tt/406tt.jpg","",""
"null","<div style=""font-size:60px;""> </div>","null","fixation","html-keyboard-response","27","428755","0.0-6.0-0.3","2889967","co38857","norming","","","","","","",""
"null","../img/tt/590tt.jpg","null","mooney1","image-keyboard-response","28","431762","0.0-6.0-1.3","2889967","co38857","norming","","","","","","",""
"6773.619999999937","","","post_mooney1_questions","survey-likert","29","438537","0.0-6.0-2.3","2889967","co38857","norming","","","{""curiosity"":3,""confidence"":0}","[0,1]","../img/tt/590tt.jpg","",""
"1102.0449999996345","","","recognition","survey-text","30","439641","0.0-6.0-3.3","2889967","co38857","norming","","","{""guess"":""""}","","../img/tt/590tt.jpg","",""
"null","../img/gs/590gs.jpg","null","reveal","image-keyboard-response","31","441649","0.0-6.0-4.3","2889967","co38857","norming","","","","","","",""
"null","../img/tt/590tt.jpg","null","mooney2","image-keyboard-response","32","443658","0.0-6.0-5.3","2889967","co38857","norming","","","","","","",""
"3676.4399999992456","","","post_reveal_questions","survey-likert","33","447337","0.0-6.0-6.3","2889967","co38857","norming","","","{""aha"":1}","[0]","../img/tt/590tt.jpg","",""
"null","<div style=""font-size:60px;""> </div>","null","fixation","html-keyboard-response","34","447539","0.0-6.0-0.4","2889967","co38857","norming","","","","","","",""
"null","../img/tt/010tt.jpg","null","mooney1","image-keyboard-response","35","450541","0.0-6.0-1.4","2889967","co38857","norming","","","","","","",""
"11793.314999998955","","","post_mooney1_questions","survey-likert","36","462337","0.0-6.0-2.4","2889967","co38857","norming","","","{""curiosity"":2,""confidence"":0}","[0,1]","../img/tt/010tt.jpg","",""
"566.2300000003306","","","recognition","survey-text","37","462904","0.0-6.0-3.4","2889967","co38857","norming","","","{""guess"":""""}","","../img/tt/010tt.jpg","",""
"null","../img/gs/010gs.jpg","null","reveal","image-keyboard-response","38","464915","0.0-6.0-4.4","2889967","co38857","norming","","","","","","",""
"null","../img/tt/010tt.jpg","null","mooney2","image-keyboard-response","39","466921","0.0-6.0-5.4","2889967","co38857","norming","","","","","","",""
"2678.1599999994505","","","post_reveal_questions","survey-likert","40","469601","0.0-6.0-6.4","2889967","co38857","norming","","","{""aha"":1}","[0]","../img/tt/010tt.jpg","",""
"null","<div style=""font-size:60px;""> </div>","null","fixation","html-keyboard-response","41","469804","0.0-6.0-0.5","2889967","co38857","norming","","","","","","",""
"null","../img/tt/031tt.jpg","null","mooney1","image-keyboard-response","42","472806","0.0-6.0-1.5","2889967","co38857","norming","","","","","","",""
"10256.454999998794","","","post_mooney1_questions","survey-likert","43","483067","0.0-6.0-2.5","2889967","co38857","norming","","","{""curiosity"":3,""confidence"":4}","[0,1]","../img/tt/031tt.jpg","",""
"2037.9199999988195","","","recognition","survey-text","44","485106","0.0-6.0-3.5","2889967","co38857","norming","","","{""guess"":""beer""}","","../img/tt/031tt.jpg","",""
"null","../img/gs/031gs.jpg","null","reveal","image-keyboard-response","45","487115","0.0-6.0-4.5","2889967","co38857","norming","","","","","","",""
"null","../img/tt/031tt.jpg","null","mooney2","image-keyboard-response","46","489123","0.0-6.0-5.5","2889967","co38857","norming","","","","","","",""
"6829.289999999688","","","post_reveal_questions","survey-likert","47","495955","0.0-6.0-6.5","2889967","co38857","norming","","","{""aha"":4}","[0]","../img/tt/031tt.jpg","",""
"null","<div style=""font-size:60px;""> </div>","null","fixation","html-keyboard-response","48","496159","0.0-6.0-0.6","2889967","co38857","norming","","","","","","",""
"null","../img/tt/1191tt.jpg","null","mooney1","image-keyboard-response","49","499165","0.0-6.0-1.6","2889967","co38857","norming","","","","","","",""
"8675.050000001618","","","post_mooney1_questions","survey-likert","50","507843","0.0-6.0-2.6","2889967","co38857","norming","","","{""curiosity"":5,""confidence"":1}","[0,1]","../img/tt/1191tt.jpg","",""
"1062.0450000005658","","","recognition","survey-text","51","508906","0.0-6.0-3.6","2889967","co38857","norming","","","{""guess"":""""}","","../img/tt/1191tt.jpg","",""
"null","../img/gs/1191gs.jpg","null","reveal","image-keyboard-response","52","510917","0.0-6.0-4.6","2889967","co38857","norming","","","","","","",""
"null","../img/tt/1191tt.jpg","null","mooney2","image-keyboard-response","53","512928","0.0-6.0-5.6","2889967","co38857","norming","","","","","","",""
"2896.0700000006473","","","post_reveal_questions","survey-likert","54","515827","0.0-6.0-6.6","2889967","co38857","norming","","","{""aha"":4}","[0]","../img/tt/1191tt.jpg","",""
"null","<div style=""font-size:60px;""> </div>","null","fixation","html-keyboard-response","55","516032","0.0-6.0-0.7","2889967","co38857","norming","","","","","","",""
"null","../img/tt/1190tt.jpg","null","mooney1","image-keyboard-response","56","519041","0.0-6.0-1.7","2889967","co38857","norming","","","","","","",""
"4143.22999999969","","","post_mooney1_questions","survey-likert","57","523187","0.0-6.0-2.7","2889967","co38857","norming","","","{""curiosity"":4,""confidence"":1}","[0,1]","../img/tt/1190tt.jpg","",""
"2414.4550000000163","","","recognition","survey-text","58","525603","0.0-6.0-3.7","2889967","co38857","norming","","","{""guess"":""vogel""}","","../img/tt/1190tt.jpg","",""
"null","../img/gs/1190gs.jpg","null","reveal","image-keyboard-response","59","527611","0.0-6.0-4.7","2889967","co38857","norming","","","","","","",""
"null","../img/tt/1190tt.jpg","null","mooney2","image-keyboard-response","60","529613","0.0-6.0-5.7","2889967","co38857","norming","","","","","","",""
"2828.8700000011595","","","post_reveal_questions","survey-likert","61","532443","0.0-6.0-6.7","2889967","co38857","norming","","","{""aha"":1}","[0]","../img/tt/1190tt.jpg","",""
"null","<div style=""font-size:60px;""> </div>","null","fixation","html-keyboard-response","62","532644","0.0-6.0-0.8","2889967","co38857","norming","","","","","","",""
"null","../img/tt/121tt.jpg","null","mooney1","image-keyboard-response","63","535646","0.0-6.0-1.8","2889967","co38857","norming","","","","","","",""
"3754.1599999986356","","","post_mooney1_questions","survey-likert","64","539409","0.0-6.0-2.8","2889967","co38857","norming","","","{""curiosity"":4,""confidence"":0}","[0,1]","../img/tt/121tt.jpg","",""
"806.0700000005309","","","recognition","survey-text","65","540217","0.0-6.0-3.8","2889967","co38857","norming","","","{""guess"":""""}","","../img/tt/121tt.jpg","",""
"null","../img/gs/121gs.jpg","null","reveal","image-keyboard-response","66","542227","0.0-6.0-4.8","2889967","co38857","norming","","","","","","",""
"null","../img/tt/121tt.jpg","null","mooney2","image-keyboard-response","67","544236","0.0-6.0-5.8","2889967","co38857","norming","","","","","","",""
"5818.390000000363","","","post_reveal_questions","survey-likert","68","550056","0.0-6.0-6.8","2889967","co38857","norming","","","{""aha"":1}","[0]","../img/tt/121tt.jpg","",""
"null","<div style=""font-size:60px;""> </div>","null","fixation","html-keyboard-response","69","550265","0.0-6.0-0.9","2889967","co38857","norming","","","","","","",""
"null","../img/tt/497tt.jpg","null","mooney1","image-keyboard-response","70","553276","0.0-6.0-1.9","2889967","co38857","norming","","","","","","",""
"7090.6549999999115","","","post_mooney1_questions","survey-likert","71","560369","0.0-6.0-2.9","2889967","co38857","norming","","","{""curiosity"":2,""confidence"":0}","[0,1]","../img/tt/497tt.jpg","",""
"669.8250000007683","","","recognition","survey-text","72","561040","0.0-6.0-3.9","2889967","co38857","norming","","","{""guess"":""""}","","../img/tt/497tt.jpg","",""
"null","../img/gs/497gs.jpg","null","reveal","image-keyboard-response","73","563042","0.0-6.0-4.9","2889967","co38857","norming","","","","","","",""
"null","../img/tt/497tt.jpg","null","mooney2","image-keyboard-response","74","565044","0.0-6.0-5.9","2889967","co38857","norming","","","","","","",""
"5458.235000000102","","","post_reveal_questions","survey-likert","75","570505","0.0-6.0-6.9","2889967","co38857","norming","","","{""aha"":4}","[0]","../img/tt/497tt.jpg","",""
"null","<div style=""font-size:60px;""> </div>","null","fixation","html-keyboard-response","76","570711","0.0-6.0-0.10","2889967","co38857","norming","","","","","","",""
"null","../img/tt/468tt.jpg","null","mooney1","image-keyboard-response","77","573716","0.0-6.0-1.10","2889967","co38857","norming","","","","","","",""
"6171.500000000349","","","post_mooney1_questions","survey-likert","78","579889","0.0-6.0-2.10","2889967","co38857","norming","","","{""curiosity"":3,""confidence"":0}","[0,1]","../img/tt/468tt.jpg","",""
"718.069999998901","","","recognition","survey-text","79","580608","0.0-6.0-3.10","2889967","co38857","norming","","","{""guess"":""""}","","../img/tt/468tt.jpg","",""
"null","../img/gs/468gs.jpg","null","reveal","image-keyboard-response","80","582620","0.0-6.0-4.10","2889967","co38857","norming","","","","","","",""
"null","../img/tt/468tt.jpg","null","mooney2","image-keyboard-response","81","584621","0.0-6.0-5.10","2889967","co38857","norming","","","","","","",""
"3865.33000000054","","","post_reveal_questions","survey-likert","82","588489","0.0-6.0-6.10","2889967","co38857","norming","","","{""aha"":2}","[0]","../img/tt/468tt.jpg","",""
"null","<div style=""font-size:60px;""> </div>","null","fixation","html-keyboard-response","83","588692","0.0-6.0-0.11","2889967","co38857","norming","","","","","","",""
"null","../img/tt/1241tt.jpg","null","mooney1","image-keyboard-response","84","591694","0.0-6.0-1.11","2889967","co38857","norming","","","","","","",""
"15369.665000000154","","","post_mooney1_questions","survey-likert","85","607065","0.0-6.0-2.11","2889967","co38857","norming","","","{""curiosity"":2,""confidence"":1}","[0,1]","../img/tt/1241tt.jpg","",""
"6742.115000000922","","","recognition","survey-text","86","613808","0.0-6.0-3.11","2889967","co38857","norming","","","{""guess"":""varken ""}","","../img/tt/1241tt.jpg","",""
"null","../img/gs/1241gs.jpg","null","reveal","image-keyboard-response","87","615812","0.0-6.0-4.11","2889967","co38857","norming","","","","","","",""
"null","../img/tt/1241tt.jpg","null","mooney2","image-keyboard-response","88","617821","0.0-6.0-5.11","2889967","co38857","norming","","","","","","",""
"2554.1800000009825","","","post_reveal_questions","survey-likert","89","620376","0.0-6.0-6.11","2889967","co38857","norming","","","{""aha"":2}","[0]","../img/tt/1241tt.jpg","",""
"null","<div style=""font-size:60px;""> </div>","null","fixation","html-keyboard-response","90","620586","0.0-6.0-0.12","2889967","co38857","norming","","","","","","",""
"null","../img/tt/080tt.jpg","null","mooney1","image-keyboard-response","91","623595","0.0-6.0-1.12","2889967","co38857","norming","","","","","","",""
"5138.839999999618","","","post_mooney1_questions","survey-likert","92","628737","0.0-6.0-2.12","2889967","co38857","norming","","","{""curiosity"":3,""confidence"":1}","[0,1]","../img/tt/080tt.jpg","",""
"2918.0199999990873","","","recognition","survey-text","93","631656","0.0-6.0-3.12","2889967","co38857","norming","","","{""guess"":""muis""}","","../img/tt/080tt.jpg","",""
"null","../img/gs/080gs.jpg","null","reveal","image-keyboard-response","94","633666","0.0-6.0-4.12","2889967","co38857","norming","","","","","","",""
"null","../img/tt/080tt.jpg","null","mooney2","image-keyboard-response","95","635676","0.0-6.0-5.12","2889967","co38857","norming","","","","","","",""
"3626.3200000012293","","","post_reveal_questions","survey-likert","96","639305","0.0-6.0-6.12","2889967","co38857","norming","","","{""aha"":2}","[0]","../img/tt/080tt.jpg","",""
"null","<div style=""font-size:60px;""> </div>","null","fixation","html-keyboard-response","97","639511","0.0-6.0-0.13","2889967","co38857","norming","","","","","","",""
"null","../img/tt/567tt.jpg","null","mooney1","image-keyboard-response","98","642514","0.0-6.0-1.13","2889967","co38857","norming","","","","","","",""
"5548.040000001434","","","post_mooney1_questions","survey-likert","99","648065","0.0-6.0-2.13","2889967","co38857","norming","","","{""curiosity"":2,""confidence"":5}","[0,1]","../img/tt/567tt.jpg","",""
"4630.28500000108","","","recognition","survey-text","100","652696","0.0-6.0-3.13","2889967","co38857","norming","","","{""guess"":""broodrooster""}","","../img/tt/567tt.jpg","",""
"null","../img/gs/567gs.jpg","null","reveal","image-keyboard-response","101","654702","0.0-6.0-4.13","2889967","co38857","norming","","","","","","",""
"null","../img/tt/567tt.jpg","null","mooney2","image-keyboard-response","102","656707","0.0-6.0-5.13","2889967","co38857","norming","","","","","","",""
"2578.9000000003725","","","post_reveal_questions","survey-likert","103","659282","0.0-6.0-6.13","2889967","co38857","norming","","","{""aha"":5}","[0]","../img/tt/567tt.jpg","",""
"null","<div style=""font-size:60px;""> </div>","null","fixation","html-keyboard-response","104","659490","0.0-6.0-0.14","2889967","co38857","norming","","","","","","",""
"null","../img/tt/096tt.jpg","null","mooney1","image-keyboard-response","105","662501","0.0-6.0-1.14","2889967","co38857","norming","","","","","","",""
"4026.859999999986","","","post_mooney1_questions","survey-likert","106","666531","0.0-6.0-2.14","2889967","co38857","norming","","","{""curiosity"":3,""confidence"":5}","[0,1]","../img/tt/096tt.jpg","",""
"3142.055000000284","","","recognition","survey-text","107","669674","0.0-6.0-3.14","2889967","co38857","norming","","","{""guess"":""piano""}","","../img/tt/096tt.jpg","",""
"null","../img/gs/096gs.jpg","null","reveal","image-keyboard-response","108","671676","0.0-6.0-4.14","2889967","co38857","norming","","","","","","",""
"null","../img/tt/096tt.jpg","null","mooney2","image-keyboard-response","109","673683","0.0-6.0-5.14","2889967","co38857","norming","","","","","","",""
"3382.0749999994878","","","post_reveal_questions","survey-likert","110","677066","0.0-6.0-6.14","2889967","co38857","norming","","","{""aha"":5}","[0]","../img/tt/096tt.jpg","",""
"null","<div style=""font-size:60px;""> </div>","null","fixation","html-keyboard-response","111","677276","0.0-6.0-0.15","2889967","co38857","norming","","","","","","",""
"null","../img/tt/1279tt.jpg","null","mooney1","image-keyboard-response","112","680284","0.0-6.0-1.15","2889967","co38857","norming","","","","","","",""
"4356.415000000154","","","post_mooney1_questions","survey-likert","113","684643","0.0-6.0-2.15","2889967","co38857","norming","","","{""curiosity"":4,""confidence"":0}","[0,1]","../img/tt/1279tt.jpg","",""
"678.1849999988917","","","recognition","survey-text","114","685322","0.0-6.0-3.15","2889967","co38857","norming","","","{""guess"":""""}","","../img/tt/1279tt.jpg","",""
"null","../img/gs/1279gs.jpg","null","reveal","image-keyboard-response","115","687328","0.0-6.0-4.15","2889967","co38857","norming","","","","","","",""
"null","../img/tt/1279tt.jpg","null","mooney2","image-keyboard-response","116","689330","0.0-6.0-5.15","2889967","co38857","norming","","","","","","",""
"2902.135000000242","","","post_reveal_questions","survey-likert","117","692234","0.0-6.0-6.15","2889967","co38857","norming","","","{""aha"":2}","[0]","../img/tt/1279tt.jpg","",""
"null","<div style=""font-size:60px;""> </div>","null","fixation","html-keyboard-response","118","692436","0.0-6.0-0.16","2889967","co38857","norming","","","","","","",""
"null","../img/tt/1089tt.jpg","null","mooney1","image-keyboard-response","119","695439","0.0-6.0-1.16","2889967","co38857","norming","","","","","","",""
"4719.844999999623","","","post_mooney1_questions","survey-likert","120","700163","0.0-6.0-2.16","2889967","co38857","norming","","","{""curiosity"":2,""confidence"":5}","[0,1]","../img/tt/1089tt.jpg","",""
"7294.08500000136","","","recognition","survey-text","121","707458","0.0-6.0-3.16","2889967","co38857","norming","","","{""guess"":""olifanten ""}","","../img/tt/1089tt.jpg","",""
"null","../img/gs/1089gs.jpg","null","reveal","image-keyboard-response","122","709462","0.0-6.0-4.16","2889967","co38857","norming","","","","","","",""
"null","../img/tt/1089tt.jpg","null","mooney2","image-keyboard-response","123","711466","0.0-6.0-5.16","2889967","co38857","norming","","","","","","",""
"3678.9399999998277","","","post_reveal_questions","survey-likert","124","715147","0.0-6.0-6.16","2889967","co38857","norming","","","{""aha"":5}","[0]","../img/tt/1089tt.jpg","",""
"null","<div style=""font-size:60px;""> </div>","null","fixation","html-keyboard-response","125","715354","0.0-6.0-0.17","2889967","co38857","norming","","","","","","",""
"null","../img/tt/1199tt.jpg","null","mooney1","image-keyboard-response","126","718366","0.0-6.0-1.17","2889967","co38857","norming","","","","","","",""
"7754.08000000054","","","post_mooney1_questions","survey-likert","127","726122","0.0-6.0-2.17","2889967","co38857","norming","","","{""curiosity"":3,""confidence"":5}","[0,1]","../img/tt/1199tt.jpg","",""
"8022.170000000158","","","recognition","survey-text","128","734146","0.0-6.0-3.17","2889967","co38857","norming","","","{""guess"":""ballet danseres ""}","","../img/tt/1199tt.jpg","",""
"null","../img/gs/1199gs.jpg","null","reveal","image-keyboard-response","129","736156","0.0-6.0-4.17","2889967","co38857","norming","","","","","","",""
"null","../img/tt/1199tt.jpg","null","mooney2","image-keyboard-response","130","738165","0.0-6.0-5.17","2889967","co38857","norming","","","","","","",""
"4579.325000000652","","","post_reveal_questions","survey-likert","131","742746","0.0-6.0-6.17","2889967","co38857","norming","","","{""aha"":3}","[0]","../img/tt/1199tt.jpg","",""
"null","<div style=""font-size:60px;""> </div>","null","fixation","html-keyboard-response","132","742954","0.0-6.0-0.18","2889967","co38857","norming","","","","","","",""
"null","../img/tt/1127tt.jpg","null","mooney1","image-keyboard-response","133","745960","0.0-6.0-1.18","2889967","co38857","norming","","","","","","",""
"7103.8100000005215","","","post_mooney1_questions","survey-likert","134","753066","0.0-6.0-2.18","2889967","co38857","norming","","","{""curiosity"":4,""confidence"":3}","[0,1]","../img/tt/1127tt.jpg","",""
"3870.1799999998184","","","recognition","survey-text","135","756938","0.0-6.0-3.18","2889967","co38857","norming","","","{""guess"":""koor""}","","../img/tt/1127tt.jpg","",""
"null","../img/gs/1127gs.jpg","null","reveal","image-keyboard-response","136","758946","0.0-6.0-4.18","2889967","co38857","norming","","","","","","",""
"null","../img/tt/1127tt.jpg","null","mooney2","image-keyboard-response","137","760948","0.0-6.0-5.18","2889967","co38857","norming","","","","","","",""
"4340.205000000424","","","post_reveal_questions","survey-likert","138","765290","0.0-6.0-6.18","2889967","co38857","norming","","","{""aha"":4}","[0]","../img/tt/1127tt.jpg","",""
"null","<div style=""font-size:60px;""> </div>","null","fixation","html-keyboard-response","139","765492","0.0-6.0-0.19","2889967","co38857","norming","","","","","","",""
"null","../img/tt/1255tt.jpg","null","mooney1","image-keyboard-response","140","768501","0.0-6.0-1.19","2889967","co38857","norming","","","","","","",""
"5825.924999999115","","","post_mooney1_questions","survey-likert","141","774330","0.0-6.0-2.19","2889967","co38857","norming","","","{""curiosity"":5,""confidence"":0}","[0,1]","../img/tt/1255tt.jpg","",""
"846.0650000015739","","","recognition","survey-text","142","775178","0.0-6.0-3.19","2889967","co38857","norming","","","{""guess"":""""}","","../img/tt/1255tt.jpg","",""
"null","../img/gs/1255gs.jpg","null","reveal","image-keyboard-response","143","777184","0.0-6.0-4.19","2889967","co38857","norming","","","","","","",""
"null","../img/tt/1255tt.jpg","null","mooney2","image-keyboard-response","144","779183","0.0-6.0-5.19","2889967","co38857","norming","","","","","","",""
"2933.5050000008196","","","post_reveal_questions","survey-likert","145","782119","0.0-6.0-6.19","2889967","co38857","norming","","","{""aha"":4}","[0]","../img/tt/1255tt.jpg","",""
"null","<div style=""font-size:60px;""> </div>","null","fixation","html-keyboard-response","146","782329","0.0-6.0-0.20","2889967","co38857","norming","","","","","","",""
"null","../img/tt/1122tt.jpg","null","mooney1","image-keyboard-response","147","785334","0.0-6.0-1.20","2889967","co38857","norming","","","","","","",""
"3374.804999999469","","","post_mooney1_questions","survey-likert","148","788711","0.0-6.0-2.20","2889967","co38857","norming","","","{""curiosity"":4,""confidence"":0}","[0,1]","../img/tt/1122tt.jpg","",""
"485.9850000011502","","","recognition","survey-text","149","789199","0.0-6.0-3.20","2889967","co38857","norming","","","{""guess"":""""}","","../img/tt/1122tt.jpg","",""
"null","../img/gs/1122gs.jpg","null","reveal","image-keyboard-response","150","791201","0.0-6.0-4.20","2889967","co38857","norming","","","","","","",""
"null","../img/tt/1122tt.jpg","null","mooney2","image-keyboard-response","151","793205","0.0-6.0-5.20","2889967","co38857","norming","","","","","","",""
"3503.445000000298","","","post_reveal_questions","survey-likert","152","796711","0.0-6.0-6.20","2889967","co38857","norming","","","{""aha"":2}","[0]","../img/tt/1122tt.jpg","",""
"null","<div style=""font-size:60px;""> </div>","null","fixation","html-keyboard-response","153","796920","0.0-6.0-0.21","2889967","co38857","norming","","","","","","",""
"null","../img/tt/1171tt.jpg","null","mooney1","image-keyboard-response","154","799925","0.0-6.0-1.21","2889967","co38857","norming","","","","","","",""
"5895.550000001094","","","post_mooney1_questions","survey-likert","155","805823","0.0-6.0-2.21","2889967","co38857","norming","","","{""curiosity"":4,""confidence"":1}","[0,1]","../img/tt/1171tt.jpg","",""
"3166.149999999092","","","recognition","survey-text","156","808991","0.0-6.0-3.21","2889967","co38857","norming","","","{""guess"":""clown""}","","../img/tt/1171tt.jpg","",""
"null","../img/gs/1171gs.jpg","null","reveal","image-keyboard-response","157","810992","0.0-6.0-4.21","2889967","co38857","norming","","","","","","",""
"null","../img/tt/1171tt.jpg","null","mooney2","image-keyboard-response","158","812994","0.0-6.0-5.21","2889967","co38857","norming","","","","","","",""
"3970.5950000006706","","","post_reveal_questions","survey-likert","159","816967","0.0-6.0-6.21","2889967","co38857","norming","","","{""aha"":2}","[0]","../img/tt/1171tt.jpg","",""
"null","<div style=""font-size:60px;""> </div>","null","fixation","html-keyboard-response","160","817176","0.0-6.0-0.22","2889967","co38857","norming","","","","","","",""
"null","../img/tt/1161tt.jpg","null","mooney1","image-keyboard-response","161","820180","0.0-6.0-1.22","2889967","co38857","norming","","","","","","",""
"3194.505000001285","","","post_mooney1_questions","survey-likert","162","823375","0.0-6.0-2.22","2889967","co38857","norming","","","{""curiosity"":4,""confidence"":1}","[0,1]","../img/tt/1161tt.jpg","",""
"3742.0250000014203","","","recognition","survey-text","163","827119","0.0-6.0-3.22","2889967","co38857","norming","","","{""guess"":""klimmers""}","","../img/tt/1161tt.jpg","",""
"null","../img/gs/1161gs.jpg","null","reveal","image-keyboard-response","164","829125","0.0-6.0-4.22","2889967","co38857","norming","","","","","","",""
"null","../img/tt/1161tt.jpg","null","mooney2","image-keyboard-response","165","831133","0.0-6.0-5.22","2889967","co38857","norming","","","","","","",""
"2473.2349999995204","","","post_reveal_questions","survey-likert","166","833607","0.0-6.0-6.22","2889967","co38857","norming","","","{""aha"":2}","[0]","../img/tt/1161tt.jpg","",""
"null","<div style=""font-size:60px;""> </div>","null","fixation","html-keyboard-response","167","833808","0.0-6.0-0.23","2889967","co38857","norming","","","","","","",""
"null","../img/tt/1262tt.jpg","null","mooney1","image-keyboard-response","168","836812","0.0-6.0-1.23","2889967","co38857","norming","","","","","","",""
"6887.93000000075","","","post_mooney1_questions","survey-likert","169","843703","0.0-6.0-2.23","2889967","co38857","norming","","","{""curiosity"":5,""confidence"":0}","[0,1]","../img/tt/1262tt.jpg","",""
"694.3300000003073","","","recognition","survey-text","170","844399","0.0-6.0-3.23","2889967","co38857","norming","","","{""guess"":""""}","","../img/tt/1262tt.jpg","",""
"null","../img/gs/1262gs.jpg","null","reveal","image-keyboard-response","171","846405","0.0-6.0-4.23","2889967","co38857","norming","","","","","","",""
"null","../img/tt/1262tt.jpg","null","mooney2","image-keyboard-response","172","848414","0.0-6.0-5.23","2889967","co38857","norming","","","","","","",""
"2368.624999999185","","","post_reveal_questions","survey-likert","173","850783","0.0-6.0-6.23","2889967","co38857","norming","","","{""aha"":4}","[0]","../img/tt/1262tt.jpg","",""
"null","<div style=""font-size:60px;""> </div>","null","fixation","html-keyboard-response","174","850991","0.0-6.0-0.24","2889967","co38857","norming","","","","","","",""
"null","../img/tt/098tt.jpg","null","mooney1","image-keyboard-response","175","853995","0.0-6.0-1.24","2889967","co38857","norming","","","","","","",""
"6650.485000000102","","","post_mooney1_questions","survey-likert","176","860648","0.0-6.0-2.24","2889967","co38857","norming","","","{""curiosity"":4,""confidence"":0}","[0,1]","../img/tt/098tt.jpg","",""
"1165.9949999992969","","","recognition","survey-text","177","861815","0.0-6.0-3.24","2889967","co38857","norming","","","{""guess"":""""}","","../img/tt/098tt.jpg","",""
"null","../img/gs/098gs.jpg","null","reveal","image-keyboard-response","178","863817","0.0-6.0-4.24","2889967","co38857","norming","","","","","","",""
"null","../img/tt/098tt.jpg","null","mooney2","image-keyboard-response","179","865819","0.0-6.0-5.24","2889967","co38857","norming","","","","","","",""
"5346.434999999474","","","post_reveal_questions","survey-likert","180","871167","0.0-6.0-6.24","2889967","co38857","norming","","","{""aha"":1}","[0]","../img/tt/098tt.jpg","",""
"null","<div style=""font-size:60px;""> </div>","null","fixation","html-keyboard-response","181","871372","0.0-6.0-0.25","2889967","co38857","norming","","","","","","",""
"null","../img/tt/1002tt.jpg","null","mooney1","image-keyboard-response","182","874382","0.0-6.0-1.25","2889967","co38857","norming","","","","","","",""
"14678.845000000321","","","post_mooney1_questions","survey-likert","183","889064","0.0-6.0-2.25","2889967","co38857","norming","","","{""curiosity"":4,""confidence"":0}","[0,1]","../img/tt/1002tt.jpg","",""
"702.0950000005541","","","recognition","survey-text","184","889767","0.0-6.0-3.25","2889967","co38857","norming","","","{""guess"":""""}","","../img/tt/1002tt.jpg","",""
"null","../img/gs/1002gs.jpg","null","reveal","image-keyboard-response","185","891771","0.0-6.0-4.25","2889967","co38857","norming","","","","","","",""
"null","../img/tt/1002tt.jpg","null","mooney2","image-keyboard-response","186","893777","0.0-6.0-5.25","2889967","co38857","norming","","","","","","",""
"3109.8799999998882","","","post_reveal_questions","survey-likert","187","896887","0.0-6.0-6.25","2889967","co38857","norming","","","{""aha"":4}","[0]","../img/tt/1002tt.jpg","",""
"null","<div style=""font-size:60px;""> </div>","null","fixation","html-keyboard-response","188","897098","0.0-6.0-0.26","2889967","co38857","norming","","","","","","",""
"null","../img/tt/105tt.jpg","null","mooney1","image-keyboard-response","189","900109","0.0-6.0-1.26","2889967","co38857","norming","","","","","","",""
"3801.194999999949","","","post_mooney1_questions","survey-likert","190","903916","0.0-6.0-2.26","2889967","co38857","norming","","","{""curiosity"":4,""confidence"":2}","[0,1]","../img/tt/105tt.jpg","",""
"4870.074999998906","","","recognition","survey-text","191","908788","0.0-6.0-3.26","2889967","co38857","norming","","","{""guess"":""paperclips""}","","../img/tt/105tt.jpg","",""
"null","../img/gs/105gs.jpg","null","reveal","image-keyboard-response","192","910794","0.0-6.0-4.26","2889967","co38857","norming","","","","","","",""
"null","../img/tt/105tt.jpg","null","mooney2","image-keyboard-response","193","912797","0.0-6.0-5.26","2889967","co38857","norming","","","","","","",""
"2077.629999999772","","","post_reveal_questions","survey-likert","194","914875","0.0-6.0-6.26","2889967","co38857","norming","","","{""aha"":4}","[0]","../img/tt/105tt.jpg","",""
"null","<div style=""font-size:60px;""> </div>","null","fixation","html-keyboard-response","195","915078","0.0-6.0-0.27","2889967","co38857","norming","","","","","","",""
"null","../img/tt/1069tt.jpg","null","mooney1","image-keyboard-response","196","918086","0.0-6.0-1.27","2889967","co38857","norming","","","","","","",""
"5012.695000001229","","","post_mooney1_questions","survey-likert","197","923100","0.0-6.0-2.27","2889967","co38857","norming","","","{""curiosity"":4,""confidence"":3}","[0,1]","../img/tt/1069tt.jpg","",""
"7662.094999999623","","","recognition","survey-text","198","930764","0.0-6.0-3.27","2889967","co38857","norming","","","{""guess"":""schaap""}","","../img/tt/1069tt.jpg","",""
"null","../img/gs/1069gs.jpg","null","reveal","image-keyboard-response","199","932766","0.0-6.0-4.27","2889967","co38857","norming","","","","","","",""
"null","../img/tt/1069tt.jpg","null","mooney2","image-keyboard-response","200","934775","0.0-6.0-5.27","2889967","co38857","norming","","","","","","",""
"2738.2149999993853","","","post_reveal_questions","survey-likert","201","937516","0.0-6.0-6.27","2889967","co38857","norming","","","{""aha"":4}","[0]","../img/tt/1069tt.jpg","",""
"null","<div style=""font-size:60px;""> </div>","null","fixation","html-keyboard-response","202","937717","0.0-6.0-0.28","2889967","co38857","norming","","","","","","",""
"null","../img/tt/418tt.jpg","null","mooney1","image-keyboard-response","203","940725","0.0-6.0-1.28","2889967","co38857","norming","","","","","","",""
"4668.195000000298","","","post_mooney1_questions","survey-likert","204","945396","0.0-6.0-2.28","2889967","co38857","norming","","","{""curiosity"":4,""confidence"":0}","[0,1]","../img/tt/418tt.jpg","",""
"750.0300000010757","","","recognition","survey-text","205","946148","0.0-6.0-3.28","2889967","co38857","norming","","","{""guess"":""""}","","../img/tt/418tt.jpg","",""
"null","../img/gs/418gs.jpg","null","reveal","image-keyboard-response","206","948149","0.0-6.0-4.28","2889967","co38857","norming","","","","","","",""
"null","../img/tt/418tt.jpg","null","mooney2","image-keyboard-response","207","950151","0.0-6.0-5.28","2889967","co38857","norming","","","","","","",""
"1738.71999999939","","","post_reveal_questions","survey-likert","208","951892","0.0-6.0-6.28","2889967","co38857","norming","","","{""aha"":3}","[0]","../img/tt/418tt.jpg","",""
"null","<div style=""font-size:60px;""> </div>","null","fixation","html-keyboard-response","209","952100","0.0-6.0-0.29","2889967","co38857","norming","","","","","","",""
"null","../img/tt/435tt.jpg","null","mooney1","image-keyboard-response","210","955103","0.0-6.0-1.29","2889967","co38857","norming","","","","","","",""
"3618.610000001383","","","post_mooney1_questions","survey-likert","211","958724","0.0-6.0-2.29","2889967","co38857","norming","","","{""curiosity"":4,""confidence"":3}","[0,1]","../img/tt/435tt.jpg","",""
"3389.9999999993015","","","recognition","survey-text","212","962116","0.0-6.0-3.29","2889967","co38857","norming","","","{""guess"":""pooltafel""}","","../img/tt/435tt.jpg","",""
"null","../img/gs/435gs.jpg","null","reveal","image-keyboard-response","213","964125","0.0-6.0-4.29","2889967","co38857","norming","","","","","","",""
"null","../img/tt/435tt.jpg","null","mooney2","image-keyboard-response","214","966130","0.0-6.0-5.29","2889967","co38857","norming","","","","","","",""
"5183.039999999804","","","post_reveal_questions","survey-likert","215","971316","0.0-6.0-6.29","2889967","co38857","norming","","","{""aha"":5}","[0]","../img/tt/435tt.jpg","",""
"null","<div style=""font-size:60px;""> </div>","null","fixation","html-keyboard-response","216","971523","0.0-6.0-0.30","2889967","co38857","norming","","","","","","",""
"null","../img/tt/1101tt.jpg","null","mooney1","image-keyboard-response","217","974530","0.0-6.0-1.30","2889967","co38857","norming","","","","","","",""
"4279.280000000726","","","post_mooney1_questions","survey-likert","218","978812","0.0-6.0-2.30","2889967","co38857","norming","","","{""curiosity"":4,""confidence"":5}","[0,1]","../img/tt/1101tt.jpg","",""
"5958.190000001225","","","recognition","survey-text","219","984772","0.0-6.0-3.30","2889967","co38857","norming","","","{""guess"":""voetbalspeler""}","","../img/tt/1101tt.jpg","",""
"null","../img/gs/1101gs.jpg","null","reveal","image-keyboard-response","220","986775","0.0-6.0-4.30","2889967","co38857","norming","","","","","","",""
"null","../img/tt/1101tt.jpg","null","mooney2","image-keyboard-response","221","988778","0.0-6.0-5.30","2889967","co38857","norming","","","","","","",""
"2807.654999998631","","","post_reveal_questions","survey-likert","222","991588","0.0-6.0-6.30","2889967","co38857","norming","","","{""aha"":4}","[0]","../img/tt/1101tt.jpg","",""
"null","<div style=""font-size:60px;""> </div>","null","fixation","html-keyboard-response","223","991792","0.0-6.0-0.31","2889967","co38857","norming","","","","","","",""
"null","../img/tt/306tt.jpg","null","mooney1","image-keyboard-response","224","994797","0.0-6.0-1.31","2889967","co38857","norming","","","","","","",""
"3115.7199999997392","","","post_mooney1_questions","survey-likert","225","997916","0.0-6.0-2.31","2889967","co38857","norming","","","{""curiosity"":4,""confidence"":0}","[0,1]","../img/tt/306tt.jpg","",""
"622.2200000011362","","","recognition","survey-text","226","998540","0.0-6.0-3.31","2889967","co38857","norming","","","{""guess"":""""}","","../img/tt/306tt.jpg","",""
"null","../img/gs/306gs.jpg","null","reveal","image-keyboard-response","227","1000547","0.0-6.0-4.31","2889967","co38857","norming","","","","","","",""
"null","../img/tt/306tt.jpg","null","mooney2","image-keyboard-response","228","1002558","0.0-6.0-5.31","2889967","co38857","norming","","","","","","",""
"3555.8349999992643","","","post_reveal_questions","survey-likert","229","1006116","0.0-6.0-6.31","2889967","co38857","norming","","","{""aha"":2}","[0]","../img/tt/306tt.jpg","",""
"null","<div style=""font-size:60px;""> </div>","null","fixation","html-keyboard-response","230","1006323","0.0-6.0-0.32","2889967","co38857","norming","","","","","","",""
"null","../img/tt/082tt.jpg","null","mooney1","image-keyboard-response","231","1009330","0.0-6.0-1.32","2889967","co38857","norming","","","","","","",""
"3173.4800000013784","","","post_mooney1_questions","survey-likert","232","1012508","0.0-6.0-2.32","2889967","co38857","norming","","","{""curiosity"":4,""confidence"":0}","[0,1]","../img/tt/082tt.jpg","",""
"1014.0550000015646","","","recognition","survey-text","233","1013524","0.0-6.0-3.32","2889967","co38857","norming","","","{""guess"":""""}","","../img/tt/082tt.jpg","",""
"null","../img/gs/082gs.jpg","null","reveal","image-keyboard-response","234","1015525","0.0-6.0-4.32","2889967","co38857","norming","","","","","","",""
"null","../img/tt/082tt.jpg","null","mooney2","image-keyboard-response","235","1017533","0.0-6.0-5.32","2889967","co38857","norming","","","","","","",""
"2236.365000000689","","","post_reveal_questions","survey-likert","236","1019772","0.0-6.0-6.32","2889967","co38857","norming","","","{""aha"":2}","[0]","../img/tt/082tt.jpg","",""
"null","<div style=""font-size:60px;""> </div>","null","fixation","html-keyboard-response","237","1019974","0.0-6.0-0.33","2889967","co38857","norming","","","","","","",""
"null","../img/tt/1211tt.jpg","null","mooney1","image-keyboard-response","238","1022988","0.0-6.0-1.33","2889967","co38857","norming","","","","","","",""
"3360.0550000009825","","","post_mooney1_questions","survey-likert","239","1026351","0.0-6.0-2.33","2889967","co38857","norming","","","{""curiosity"":4,""confidence"":0}","[0,1]","../img/tt/1211tt.jpg","",""
"733.9300000004005","","","recognition","survey-text","240","1027087","0.0-6.0-3.33","2889967","co38857","norming","","","{""guess"":""""}","","../img/tt/1211tt.jpg","",""
"null","../img/gs/1211gs.jpg","null","reveal","image-keyboard-response","241","1029094","0.0-6.0-4.33","2889967","co38857","norming","","","","","","",""
"null","../img/tt/1211tt.jpg","null","mooney2","image-keyboard-response","242","1031100","0.0-6.0-5.33","2889967","co38857","norming","","","","","","",""
"8415.994999999413","","","post_reveal_questions","survey-likert","243","1039519","0.0-6.0-6.33","2889967","co38857","norming","","","{""aha"":2}","[0]","../img/tt/1211tt.jpg","",""
"null","<div style=""font-size:60px;""> </div>","null","fixation","html-keyboard-response","244","1039725","0.0-6.0-0.34","2889967","co38857","norming","","","","","","",""
"null","../img/tt/163tt.jpg","null","mooney1","image-keyboard-response","245","1042729","0.0-6.0-1.34","2889967","co38857","norming","","","","","","",""
"3579.0500000002794","","","post_mooney1_questions","survey-likert","246","1046311","0.0-6.0-2.34","2889967","co38857","norming","","","{""curiosity"":4,""confidence"":2}","[0,1]","../img/tt/163tt.jpg","",""
"4013.9949999994133","","","recognition","survey-text","247","1050326","0.0-6.0-3.34","2889967","co38857","norming","","","{""guess"":""kikker""}","","../img/tt/163tt.jpg","",""
"null","../img/gs/163gs.jpg","null","reveal","image-keyboard-response","248","1052335","0.0-6.0-4.34","2889967","co38857","norming","","","","","","",""
"null","../img/tt/163tt.jpg","null","mooney2","image-keyboard-response","249","1054346","0.0-6.0-5.34","2889967","co38857","norming","","","","","","",""
"2267.020000001183","","","post_reveal_questions","survey-likert","250","1056615","0.0-6.0-6.34","2889967","co38857","norming","","","{""aha"":4}","[0]","../img/tt/163tt.jpg","",""
"null","<div style=""font-size:60px;""> </div>","null","fixation","html-keyboard-response","251","1056817","0.0-6.0-0.35","2889967","co38857","norming","","","","","","",""
"null","../img/tt/1278tt.jpg","null","mooney1","image-keyboard-response","252","1059821","0.0-6.0-1.35","2889967","co38857","norming","","","","","","",""
"4264.605000000214","","","post_mooney1_questions","survey-likert","253","1064087","0.0-6.0-2.35","2889967","co38857","norming","","","{""curiosity"":4,""confidence"":0}","[0,1]","../img/tt/1278tt.jpg","",""
"981.934999999823","","","recognition","survey-text","254","1065071","0.0-6.0-3.35","2889967","co38857","norming","","","{""guess"":""""}","","../img/tt/1278tt.jpg","",""
"null","../img/gs/1278gs.jpg","null","reveal","image-keyboard-response","255","1067075","0.0-6.0-4.35","2889967","co38857","norming","","","","","","",""
"null","../img/tt/1278tt.jpg","null","mooney2","image-keyboard-response","256","1069085","0.0-6.0-5.35","2889967","co38857","norming","","","","","","",""
"1943.1899999999441","","","post_reveal_questions","survey-likert","257","1071031","0.0-6.0-6.35","2889967","co38857","norming","","","{""aha"":3}","[0]","../img/tt/1278tt.jpg","",""
"null","<div style=""font-size:60px;""> </div>","null","fixation","html-keyboard-response","258","1071238","0.0-6.0-0.36","2889967","co38857","norming","","","","","","",""
"null","../img/tt/111tt.jpg","null","mooney1","image-keyboard-response","259","1074244","0.0-6.0-1.36","2889967","co38857","norming","","","","","","",""
"3376.0400000012014","","","post_mooney1_questions","survey-likert","260","1077623","0.0-6.0-2.36","2889967","co38857","norming","","","{""curiosity"":4,""confidence"":0}","[0,1]","../img/tt/111tt.jpg","",""
"790.0449999996927","","","recognition","survey-text","261","1078414","0.0-6.0-3.36","2889967","co38857","norming","","","{""guess"":""""}","","../img/tt/111tt.jpg","",""
"null","../img/gs/111gs.jpg","null","reveal","image-keyboard-response","262","1080420","0.0-6.0-4.36","2889967","co38857","norming","","","","","","",""
"null","../img/tt/111tt.jpg","null","mooney2","image-keyboard-response","263","1082422","0.0-6.0-5.36","2889967","co38857","norming","","","","","","",""
"2230.760000000475","","","post_reveal_questions","survey-likert","264","1084657","0.0-6.0-6.36","2889967","co38857","norming","","","{""aha"":4}","[0]","../img/tt/111tt.jpg","",""
"null","<div style=""font-size:60px;""> </div>","null","fixation","html-keyboard-response","265","1084865","0.0-6.0-0.37","2889967","co38857","norming","","","","","","",""
"null","../img/tt/1130tt.jpg","null","mooney1","image-keyboard-response","266","1087874","0.0-6.0-1.37","2889967","co38857","norming","","","","","","",""
"7165.105000000214","","","post_mooney1_questions","survey-likert","267","1095041","0.0-6.0-2.37","2889967","co38857","norming","","","{""curiosity"":4,""confidence"":1}","[0,1]","../img/tt/1130tt.jpg","",""
"3054.2400000013877","","","recognition","survey-text","268","1098097","0.0-6.0-3.37","2889967","co38857","norming","","","{""guess"":""persoon""}","","../img/tt/1130tt.jpg","",""
"null","../img/gs/1130gs.jpg","null","reveal","image-keyboard-response","269","1100106","0.0-6.0-4.37","2889967","co38857","norming","","","","","","",""
"null","../img/tt/1130tt.jpg","null","mooney2","image-keyboard-response","270","1102110","0.0-6.0-5.37","2889967","co38857","norming","","","","","","",""
"2080.2249999998603","","","post_reveal_questions","survey-likert","271","1104193","0.0-6.0-6.37","2889967","co38857","norming","","","{""aha"":4}","[0]","../img/tt/1130tt.jpg","",""
"null","<div style=""font-size:60px;""> </div>","null","fixation","html-keyboard-response","272","1104397","0.0-6.0-0.38","2889967","co38857","norming","","","","","","",""
"null","../img/tt/1261tt.jpg","null","mooney1","image-keyboard-response","273","1107407","0.0-6.0-1.38","2889967","co38857","norming","","","","","","",""
"6831.655000000028","","","post_mooney1_questions","survey-likert","274","1114241","0.0-6.0-2.38","2889967","co38857","norming","","","{""curiosity"":4,""confidence"":2}","[0,1]","../img/tt/1261tt.jpg","",""
"3462.079999999143","","","recognition","survey-text","275","1117705","0.0-6.0-3.38","2889967","co38857","norming","","","{""guess"":""hamster""}","","../img/tt/1261tt.jpg","",""
"null","../img/gs/1261gs.jpg","null","reveal","image-keyboard-response","276","1119716","0.0-6.0-4.38","2889967","co38857","norming","","","","","","",""
"null","../img/tt/1261tt.jpg","null","mooney2","image-keyboard-response","277","1121723","0.0-6.0-5.38","2889967","co38857","norming","","","","","","",""
"1780.210000000894","","","post_reveal_questions","survey-likert","278","1123505","0.0-6.0-6.38","2889967","co38857","norming","","","{""aha"":4}","[0]","../img/tt/1261tt.jpg","",""
"null","<div style=""font-size:60px;""> </div>","null","fixation","html-keyboard-response","279","1123709","0.0-6.0-0.39","2889967","co38857","norming","","","","","","",""
"null","../img/tt/1123tt.jpg","null","mooney1","image-keyboard-response","280","1126712","0.0-6.0-1.39","2889967","co38857","norming","","","","","","",""
"4837.45499999891","","","post_mooney1_questions","survey-likert","281","1131552","0.0-6.0-2.39","2889967","co38857","norming","","","{""curiosity"":4,""confidence"":4}","[0,1]","../img/tt/1123tt.jpg","",""
"4638.4299999990035","","","recognition","survey-text","282","1136192","0.0-6.0-3.39","2889967","co38857","norming","","","{""guess"":""volleybal""}","","../img/tt/1123tt.jpg","",""
"null","../img/gs/1123gs.jpg","null","reveal","image-keyboard-response","283","1138200","0.0-6.0-4.39","2889967","co38857","norming","","","","","","",""
"null","../img/tt/1123tt.jpg","null","mooney2","image-keyboard-response","284","1140203","0.0-6.0-5.39","2889967","co38857","norming","","","","","","",""
"4267.864999999758","","","post_reveal_questions","survey-likert","285","1144474","0.0-6.0-6.39","2889967","co38857","norming","","","{""aha"":2}","[0]","../img/tt/1123tt.jpg","",""
"null","<div style=""font-size:60px;""> </div>","null","fixation","html-keyboard-response","286","1144677","0.0-6.0-0.40","2889967","co38857","norming","","","","","","",""
"null","../img/tt/1055tt.jpg","null","mooney1","image-keyboard-response","287","1147680","0.0-6.0-1.40","2889967","co38857","norming","","","","","","",""
"3614.649999999441","","","post_mooney1_questions","survey-likert","288","1151298","0.0-6.0-2.40","2889967","co38857","norming","","","{""curiosity"":4,""confidence"":0}","[0,1]","../img/tt/1055tt.jpg","",""
"926.105000000447","","","recognition","survey-text","289","1152226","0.0-6.0-3.40","2889967","co38857","norming","","","{""guess"":""""}","","../img/tt/1055tt.jpg","",""
"null","../img/gs/1055gs.jpg","null","reveal","image-keyboard-response","290","1154234","0.0-6.0-4.40","2889967","co38857","norming","","","","","","",""
"null","../img/tt/1055tt.jpg","null","mooney2","image-keyboard-response","291","1156242","0.0-6.0-5.40","2889967","co38857","norming","","","","","","",""
"3253.820000000065","","","post_reveal_questions","survey-likert","292","1159498","0.0-6.0-6.40","2889967","co38857","norming","","","{""aha"":5}","[0]","../img/tt/1055tt.jpg","",""
"null","<div style=""font-size:60px;""> </div>","null","fixation","html-keyboard-response","293","1159702","0.0-6.0-0.41","2889967","co38857","norming","","","","","","",""
"null","../img/tt/584tt.jpg","null","mooney1","image-keyboard-response","294","1162710","0.0-6.0-1.41","2889967","co38857","norming","","","","","","",""
"14001.26000000094","","","post_mooney1_questions","survey-likert","295","1176714","0.0-6.0-2.41","2889967","co38857","norming","","","{""curiosity"":4,""confidence"":2}","[0,1]","../img/tt/584tt.jpg","",""
"4238.050000000047","","","recognition","survey-text","296","1180954","0.0-6.0-3.41","2889967","co38857","norming","","","{""guess"":""gereedschap""}","","../img/tt/584tt.jpg","",""
"null","../img/gs/584gs.jpg","null","reveal","image-keyboard-response","297","1182957","0.0-6.0-4.41","2889967","co38857","norming","","","","","","",""
"null","../img/tt/584tt.jpg","null","mooney2","image-keyboard-response","298","1184959","0.0-6.0-5.41","2889967","co38857","norming","","","","","","",""
"2736.43999999878","","","post_reveal_questions","survey-likert","299","1187698","0.0-6.0-6.41","2889967","co38857","norming","","","{""aha"":5}","[0]","../img/tt/584tt.jpg","",""
"null","<div style=""font-size:60px;""> </div>","null","fixation","html-keyboard-response","300","1187906","0.0-6.0-0.42","2889967","co38857","norming","","","","","","",""
"null","../img/tt/1024tt.jpg","null","mooney1","image-keyboard-response","301","1190908","0.0-6.0-1.42","2889967","co38857","norming","","","","","","",""
"4418.9900000002235","","","post_mooney1_questions","survey-likert","302","1195330","0.0-6.0-2.42","2889967","co38857","norming","","","{""curiosity"":3,""confidence"":5}","[0,1]","../img/tt/1024tt.jpg","",""
"9790.094999998575","","","recognition","survey-text","303","1205118","0.0-6.0-3.42","2889967","co38857","norming","","","{""guess"":""tennisspeler""}","","../img/tt/1024tt.jpg","",""
"null","../img/gs/1024gs.jpg","null","reveal","image-keyboard-response","304","1207126","0.0-6.0-4.42","2889967","co38857","norming","","","","","","",""
"null","../img/tt/1024tt.jpg","null","mooney2","image-keyboard-response","305","1209129","0.0-6.0-5.42","2889967","co38857","norming","","","","","","",""
"2487.9600000004284","","","post_reveal_questions","survey-likert","306","1211622","0.0-6.0-6.42","2889967","co38857","norming","","","{""aha"":4}","[0]","../img/tt/1024tt.jpg","",""
"null","<div style=""font-size:60px;""> </div>","null","fixation","html-keyboard-response","307","1211832","0.0-6.0-0.43","2889967","co38857","norming","","","","","","",""
"null","../img/tt/1217tt.jpg","null","mooney1","image-keyboard-response","308","1214841","0.0-6.0-1.43","2889967","co38857","norming","","","","","","",""
"11313.599999999395","","","post_mooney1_questions","survey-likert","309","1226158","0.0-6.0-2.43","2889967","co38857","norming","","","{""curiosity"":4,""confidence"":3}","[0,1]","../img/tt/1217tt.jpg","",""
"2398.0300000002608","","","recognition","survey-text","310","1228558","0.0-6.0-3.43","2889967","co38857","norming","","","{""guess"":""rugby""}","","../img/tt/1217tt.jpg","",""
"null","../img/gs/1217gs.jpg","null","reveal","image-keyboard-response","311","1230569","0.0-6.0-4.43","2889967","co38857","norming","","","","","","",""
"null","../img/tt/1217tt.jpg","null","mooney2","image-keyboard-response","312","1232578","0.0-6.0-5.43","2889967","co38857","norming","","","","","","",""
"2609.594999999972","","","post_reveal_questions","survey-likert","313","1235190","0.0-6.0-6.43","2889967","co38857","norming","","","{""aha"":4}","[0]","../img/tt/1217tt.jpg","",""
"null","<div style=""font-size:60px;""> </div>","null","fixation","html-keyboard-response","314","1235391","0.0-6.0-0.44","2889967","co38857","norming","","","","","","",""
"null","../img/tt/1232tt.jpg","null","mooney1","image-keyboard-response","315","1238394","0.0-6.0-1.44","2889967","co38857","norming","","","","","","",""
"2808.9450000007637","","","post_mooney1_questions","survey-likert","316","1241206","0.0-6.0-2.44","2889967","co38857","norming","","","{""curiosity"":4,""confidence"":0}","[0,1]","../img/tt/1232tt.jpg","",""
"838.0600000000559","","","recognition","survey-text","317","1242045","0.0-6.0-3.44","2889967","co38857","norming","","","{""guess"":""""}","","../img/tt/1232tt.jpg","",""
"null","../img/gs/1232gs.jpg","null","reveal","image-keyboard-response","318","1244048","0.0-6.0-4.44","2889967","co38857","norming","","","","","","",""
"null","../img/tt/1232tt.jpg","null","mooney2","image-keyboard-response","319","1246051","0.0-6.0-5.44","2889967","co38857","norming","","","","","","",""
"2823.674999999581","","","post_reveal_questions","survey-likert","320","1248878","0.0-6.0-6.44","2889967","co38857","norming","","","{""aha"":4}","[0]","../img/tt/1232tt.jpg","",""
"null","<div style=""font-size:60px;""> </div>","null","fixation","html-keyboard-response","321","1249079","0.0-6.0-0.45","2889967","co38857","norming","","","","","","",""
"null","../img/tt/438tt.jpg","null","mooney1","image-keyboard-response","322","1252084","0.0-6.0-1.45","2889967","co38857","norming","","","","","","",""
"2910.9699999990407","","","post_mooney1_questions","survey-likert","323","1254997","0.0-6.0-2.45","2889967","co38857","norming","","","{""curiosity"":4,""confidence"":1}","[0,1]","../img/tt/438tt.jpg","",""
"686.4500000008848","","","recognition","survey-text","324","1255685","0.0-6.0-3.45","2889967","co38857","norming","","","{""guess"":""""}","","../img/tt/438tt.jpg","",""
"null","../img/gs/438gs.jpg","null","reveal","image-keyboard-response","325","1257689","0.0-6.0-4.45","2889967","co38857","norming","","","","","","",""
"null","../img/tt/438tt.jpg","null","mooney2","image-keyboard-response","326","1259695","0.0-6.0-5.45","2889967","co38857","norming","","","","","","",""
"2492.1400000001304","","","post_reveal_questions","survey-likert","327","1262190","0.0-6.0-6.45","2889967","co38857","norming","","","{""aha"":4}","[0]","../img/tt/438tt.jpg","",""
"null","<div style=""font-size:60px;""> </div>","null","fixation","html-keyboard-response","328","1262397","0.0-6.0-0.46","2889967","co38857","norming","","","","","","",""
"null","../img/tt/124tt.jpg","null","mooney1","image-keyboard-response","329","1265408","0.0-6.0-1.46","2889967","co38857","norming","","","","","","",""
"3433.134999999311","","","post_mooney1_questions","survey-likert","330","1268844","0.0-6.0-2.46","2889967","co38857","norming","","","{""curiosity"":3,""confidence"":5}","[0,1]","../img/tt/124tt.jpg","",""
"2933.989999999525","","","recognition","survey-text","331","1271780","0.0-6.0-3.46","2889967","co38857","norming","","","{""guess"":""aap""}","","../img/tt/124tt.jpg","",""
"null","../img/gs/124gs.jpg","null","reveal","image-keyboard-response","332","1273785","0.0-6.0-4.46","2889967","co38857","norming","","","","","","",""
"null","../img/tt/124tt.jpg","null","mooney2","image-keyboard-response","333","1275789","0.0-6.0-5.46","2889967","co38857","norming","","","","","","",""
"2254.7199999990407","","","post_reveal_questions","survey-likert","334","1278044","0.0-6.0-6.46","2889967","co38857","norming","","","{""aha"":4}","[0]","../img/tt/124tt.jpg","",""
"null","<div style=""font-size:60px;""> </div>","null","fixation","html-keyboard-response","335","1278248","0.0-6.0-0.47","2889967","co38857","norming","","","","","","",""
"null","../img/tt/1080tt.jpg","null","mooney1","image-keyboard-response","336","1281258","0.0-6.0-1.47","2889967","co38857","norming","","","","","","",""
"3158.9399999994785","","","post_mooney1_questions","survey-likert","337","1284420","0.0-6.0-2.47","2889967","co38857","norming","","","{""curiosity"":4,""confidence"":0}","[0,1]","../img/tt/1080tt.jpg","",""
"533.7350000008009","","","recognition","survey-text","338","1284956","0.0-6.0-3.47","2889967","co38857","norming","","","{""guess"":""""}","","../img/tt/1080tt.jpg","",""
"null","../img/gs/1080gs.jpg","null","reveal","image-keyboard-response","339","1286959","0.0-6.0-4.47","2889967","co38857","norming","","","","","","",""
"null","../img/tt/1080tt.jpg","null","mooney2","image-keyboard-response","340","1288961","0.0-6.0-5.47","2889967","co38857","norming","","","","","","",""
"2224.5100000000093","","","post_reveal_questions","survey-likert","341","1291188","0.0-6.0-6.47","2889967","co38857","norming","","","{""aha"":5}","[0]","../img/tt/1080tt.jpg","",""
"null","<div style=""font-size:60px;""> </div>","null","fixation","html-keyboard-response","342","1291389","0.0-6.0-0.48","2889967","co38857","norming","","","","","","",""
"null","../img/tt/1200tt.jpg","null","mooney1","image-keyboard-response","343","1294401","0.0-6.0-1.48","2889967","co38857","norming","","","","","","",""
"3056.399999999441","","","post_mooney1_questions","survey-likert","344","1297460","0.0-6.0-2.48","2889967","co38857","norming","","","{""curiosity"":4,""confidence"":0}","[0,1]","../img/tt/1200tt.jpg","",""
"637.964999999851","","","recognition","survey-text","345","1298100","0.0-6.0-3.48","2889967","co38857","norming","","","{""guess"":""""}","","../img/tt/1200tt.jpg","",""
"null","../img/gs/1200gs.jpg","null","reveal","image-keyboard-response","346","1300110","0.0-6.0-4.48","2889967","co38857","norming","","","","","","",""
"null","../img/tt/1200tt.jpg","null","mooney2","image-keyboard-response","347","1302113","0.0-6.0-5.48","2889967","co38857","norming","","","","","","",""
"3632.6399999996647","","","post_reveal_questions","survey-likert","348","1305748","0.0-6.0-6.48","2889967","co38857","norming","","","{""aha"":2}","[0]","../img/tt/1200tt.jpg","",""
"null","<div style=""font-size:60px;""> </div>","null","fixation","html-keyboard-response","349","1305958","0.0-6.0-0.49","2889967","co38857","norming","","","","","","",""
"null","../img/tt/1070tt.jpg","null","mooney1","image-keyboard-response","350","1308963","0.0-6.0-1.49","2889967","co38857","norming","","","","","","",""
"4183.760000000009","","","post_mooney1_questions","survey-likert","351","1313148","0.0-6.0-2.49","2889967","co38857","norming","","","{""curiosity"":4,""confidence"":0}","[0,1]","../img/tt/1070tt.jpg","",""
"806.1299999989569","","","recognition","survey-text","352","1313956","0.0-6.0-3.49","2889967","co38857","norming","","","{""guess"":""""}","","../img/tt/1070tt.jpg","",""
"null","../img/gs/1070gs.jpg","null","reveal","image-keyboard-response","353","1315962","0.0-6.0-4.49","2889967","co38857","norming","","","","","","",""
"null","../img/tt/1070tt.jpg","null","mooney2","image-keyboard-response","354","1317972","0.0-6.0-5.49","2889967","co38857","norming","","","","","","",""
"3838.429999999702","","","post_reveal_questions","survey-likert","355","1321812","0.0-6.0-6.49","2889967","co38857","norming","","","{""aha"":5}","[0]","../img/tt/1070tt.jpg","",""
"null","<div style=""font-size:60px;""> </div>","null","fixation","html-keyboard-response","356","1322014","0.0-6.0-0.50","2889967","co38857","norming","","","","","","",""
"null","../img/tt/517tt.jpg","null","mooney1","image-keyboard-response","357","1325022","0.0-6.0-1.50","2889967","co38857","norming","","","","","","",""
"3033.7250000012573","","","post_mooney1_questions","survey-likert","358","1328061","0.0-6.0-2.50","2889967","co38857","norming","","","{""curiosity"":4,""confidence"":0}","[0,1]","../img/tt/517tt.jpg","",""
"597.8599999998696","","","recognition","survey-text","359","1328661","0.0-6.0-3.50","2889967","co38857","norming","","","{""guess"":""""}","","../img/tt/517tt.jpg","",""
"null","../img/gs/517gs.jpg","null","reveal","image-keyboard-response","360","1330667","0.0-6.0-4.50","2889967","co38857","norming","","","","","","",""
"null","../img/tt/517tt.jpg","null","mooney2","image-keyboard-response","361","1332676","0.0-6.0-5.50","2889967","co38857","norming","","","","","","",""
"8654.349999998929","","","post_reveal_questions","survey-likert","362","1341333","0.0-6.0-6.50","2889967","co38857","norming","","","{""aha"":4}","[0]","../img/tt/517tt.jpg","",""
"null","<div style=""font-size:60px;""> </div>","null","fixation","html-keyboard-response","363","1341542","0.0-6.0-0.51","2889967","co38857","norming","","","","","","",""
"null","../img/tt/1049tt.jpg","null","mooney1","image-keyboard-response","364","1344551","0.0-6.0-1.51","2889967","co38857","norming","","","","","","",""
"2531.0850000006612","","","post_mooney1_questions","survey-likert","365","1347085","0.0-6.0-2.51","2889967","co38857","norming","","","{""curiosity"":4,""confidence"":0}","[0,1]","../img/tt/1049tt.jpg","",""
"478.04499999969266","","","recognition","survey-text","366","1347565","0.0-6.0-3.51","2889967","co38857","norming","","","{""guess"":""""}","","../img/tt/1049tt.jpg","",""
"null","../img/gs/1049gs.jpg","null","reveal","image-keyboard-response","367","1349568","0.0-6.0-4.51","2889967","co38857","norming","","","","","","",""
"null","../img/tt/1049tt.jpg","null","mooney2","image-keyboard-response","368","1351578","0.0-6.0-5.51","2889967","co38857","norming","","","","","","",""
"3271.9599999999627","","","post_reveal_questions","survey-likert","369","1354853","0.0-6.0-6.51","2889967","co38857","norming","","","{""aha"":3}","[0]","../img/tt/1049tt.jpg","",""
"null","<div style=""font-size:60px;""> </div>","null","fixation","html-keyboard-response","370","1355054","0.0-6.0-0.52","2889967","co38857","norming","","","","","","",""
"null","../img/tt/1234tt.jpg","null","mooney1","image-keyboard-response","371","1358065","0.0-6.0-1.52","2889967","co38857","norming","","","","","","",""
"2433.239999998361","","","post_mooney1_questions","survey-likert","372","1360501","0.0-6.0-2.52","2889967","co38857","norming","","","{""curiosity"":4,""confidence"":0}","[0,1]","../img/tt/1234tt.jpg","",""
"662.1450000002515","","","recognition","survey-text","373","1361165","0.0-6.0-3.52","2889967","co38857","norming","","","{""guess"":""""}","","../img/tt/1234tt.jpg","",""
"null","../img/gs/1234gs.jpg","null","reveal","image-keyboard-response","374","1363170","0.0-6.0-4.52","2889967","co38857","norming","","","","","","",""
"null","../img/tt/1234tt.jpg","null","mooney2","image-keyboard-response","375","1365178","0.0-6.0-5.52","2889967","co38857","norming","","","","","","",""
"3024.009999999311","","","post_reveal_questions","survey-likert","376","1368205","0.0-6.0-6.52","2889967","co38857","norming","","","{""aha"":2}","[0]","../img/tt/1234tt.jpg","",""
"null","<div style=""font-size:60px;""> </div>","null","fixation","html-keyboard-response","377","1368408","0.0-6.0-0.53","2889967","co38857","norming","","","","","","",""
"null","../img/tt/1146tt.jpg","null","mooney1","image-keyboard-response","378","1371414","0.0-6.0-1.53","2889967","co38857","norming","","","","","","",""
"3652.285000000149","","","post_mooney1_questions","survey-likert","379","1375069","0.0-6.0-2.53","2889967","co38857","norming","","","{""curiosity"":4,""confidence"":0}","[0,1]","../img/tt/1146tt.jpg","",""
"1189.594999999972","","","recognition","survey-text","380","1376260","0.0-6.0-3.53","2889967","co38857","norming","","","{""guess"":""""}","","../img/tt/1146tt.jpg","",""
"null","../img/gs/1146gs.jpg","null","reveal","image-keyboard-response","381","1378267","0.0-6.0-4.53","2889967","co38857","norming","","","","","","",""
"null","../img/tt/1146tt.jpg","null","mooney2","image-keyboard-response","382","1380278","0.0-6.0-5.53","2889967","co38857","norming","","","","","","",""
"2539.8649999988265","","","post_reveal_questions","survey-likert","383","1382821","0.0-6.0-6.53","2889967","co38857","norming","","","{""aha"":5}","[0]","../img/tt/1146tt.jpg","",""
"null","<div style=""font-size:60px;""> </div>","null","fixation","html-keyboard-response","384","1383030","0.0-6.0-0.54","2889967","co38857","norming","","","","","","",""
"null","../img/tt/001tt.jpg","null","mooney1","image-keyboard-response","385","1386041","0.0-6.0-1.54","2889967","co38857","norming","","","","","","",""
"6272.484999999404","","","post_mooney1_questions","survey-likert","386","1392312","0.0-6.0-2.54","2889967","co38857","norming","","","{""curiosity"":4,""confidence"":0}","[0,1]","../img/tt/001tt.jpg","",""
"741.9849999987055","","","recognition","survey-text","387","1393056","0.0-6.0-3.54","2889967","co38857","norming","","","{""guess"":""""}","","../img/tt/001tt.jpg","",""
"null","../img/gs/001gs.jpg","null","reveal","image-keyboard-response","388","1395064","0.0-6.0-4.54","2889967","co38857","norming","","","","","","",""
"null","../img/tt/001tt.jpg","null","mooney2","image-keyboard-response","389","1397068","0.0-6.0-5.54","2889967","co38857","norming","","","","","","",""
"2073.8849999997765","","","post_reveal_questions","survey-likert","390","1399144","0.0-6.0-6.54","2889967","co38857","norming","","","{""aha"":3}","[0]","../img/tt/001tt.jpg","",""
"null","<div style=""font-size:60px;""> </div>","null","fixation","html-keyboard-response","391","1399347","0.0-6.0-0.55","2889967","co38857","norming","","","","","","",""
"null","../img/tt/056tt.jpg","null","mooney1","image-keyboard-response","392","1402356","0.0-6.0-1.55","2889967","co38857","norming","","","","","","",""
"4160.244999998948","","","post_mooney1_questions","survey-likert","393","1406520","0.0-6.0-2.55","2889967","co38857","norming","","","{""curiosity"":4,""confidence"":1}","[0,1]","../img/tt/056tt.jpg","",""
"717.9250000007451","","","recognition","survey-text","394","1407240","0.0-6.0-3.55","2889967","co38857","norming","","","{""guess"":""""}","","../img/tt/056tt.jpg","",""
"null","../img/gs/056gs.jpg","null","reveal","image-keyboard-response","395","1409248","0.0-6.0-4.55","2889967","co38857","norming","","","","","","",""
"null","../img/tt/056tt.jpg","null","mooney2","image-keyboard-response","396","1411255","0.0-6.0-5.55","2889967","co38857","norming","","","","","","",""
"2295.149999999907","","","post_reveal_questions","survey-likert","397","1413552","0.0-6.0-6.55","2889967","co38857","norming","","","{""aha"":5}","[0]","../img/tt/056tt.jpg","",""
"null","<div style=""font-size:60px;""> </div>","null","fixation","html-keyboard-response","398","1413755","0.0-6.0-0.56","2889967","co38857","norming","","","","","","",""
"null","../img/tt/1128tt.jpg","null","mooney1","image-keyboard-response","399","1416763","0.0-6.0-1.56","2889967","co38857","norming","","","","","","",""
"3081.5949999997392","","","post_mooney1_questions","survey-likert","400","1419848","0.0-6.0-2.56","2889967","co38857","norming","","","{""curiosity"":4,""confidence"":3}","[0,1]","../img/tt/1128tt.jpg","",""
"2670.265000000596","","","recognition","survey-text","401","1422520","0.0-6.0-3.56","2889967","co38857","norming","","","{""guess"":""panda""}","","../img/tt/1128tt.jpg","",""
"null","../img/gs/1128gs.jpg","null","reveal","image-keyboard-response","402","1424523","0.0-6.0-4.56","2889967","co38857","norming","","","","","","",""
"null","../img/tt/1128tt.jpg","null","mooney2","image-keyboard-response","403","1426533","0.0-6.0-5.56","2889967","co38857","norming","","","","","","",""
"4193.655000000959","","","post_reveal_questions","survey-likert","404","1430728","0.0-6.0-6.56","2889967","co38857","norming","","","{""aha"":3}","[0]","../img/tt/1128tt.jpg","",""
"null","<div style=""font-size:60px;""> </div>","null","fixation","html-keyboard-response","405","1430931","0.0-6.0-0.57","2889967","co38857","norming","","","","","","",""
"null","../img/tt/1107tt.jpg","null","mooney1","image-keyboard-response","406","1433934","0.0-6.0-1.57","2889967","co38857","norming","","","","","","",""
"4302.604999998817","","","post_mooney1_questions","survey-likert","407","1438240","0.0-6.0-2.57","2889967","co38857","norming","","","{""curiosity"":4,""confidence"":4}","[0,1]","../img/tt/1107tt.jpg","",""
"4158.139999999665","","","recognition","survey-text","408","1442400","0.0-6.0-3.57","2889967","co38857","norming","","","{""guess"":""kat""}","","../img/tt/1107tt.jpg","",""
"null","../img/gs/1107gs.jpg","null","reveal","image-keyboard-response","409","1444403","0.0-6.0-4.57","2889967","co38857","norming","","","","","","",""
"null","../img/tt/1107tt.jpg","null","mooney2","image-keyboard-response","410","1446410","0.0-6.0-5.57","2889967","co38857","norming","","","","","","",""
"2996.989999999758","","","post_reveal_questions","survey-likert","411","1449408","0.0-6.0-6.57","2889967","co38857","norming","","","{""aha"":4}","[0]","../img/tt/1107tt.jpg","",""
"null","<div style=""font-size:60px;""> </div>","null","fixation","html-keyboard-response","412","1449610","0.0-6.0-0.58","2889967","co38857","norming","","","","","","",""
"null","../img/tt/279tt.jpg","null","mooney1","image-keyboard-response","413","1452627","0.0-6.0-1.58","2889967","co38857","norming","","","","","","",""
"3418.8049999992363","","","post_mooney1_questions","survey-likert","414","1456047","0.0-6.0-2.58","2889967","co38857","norming","","","{""curiosity"":4,""confidence"":2}","[0,1]","../img/tt/279tt.jpg","",""
"2550.1649999986403","","","recognition","survey-text","415","1458598","0.0-6.0-3.58","2889967","co38857","norming","","","{""guess"":""koala""}","","../img/tt/279tt.jpg","",""
"null","../img/gs/279gs.jpg","null","reveal","image-keyboard-response","416","1460609","0.0-6.0-4.58","2889967","co38857","norming","","","","","","",""
"null","../img/tt/279tt.jpg","null","mooney2","image-keyboard-response","417","1462612","0.0-6.0-5.58","2889967","co38857","norming","","","","","","",""
"2272.179999999935","","","post_reveal_questions","survey-likert","418","1464887","0.0-6.0-6.58","2889967","co38857","norming","","","{""aha"":5}","[0]","../img/tt/279tt.jpg","",""
"null","<div style=""font-size:60px;""> </div>","null","fixation","html-keyboard-response","419","1465088","0.0-6.0-0.59","2889967","co38857","norming","","","","","","",""
"null","../img/tt/1363tt.jpg","null","mooney1","image-keyboard-response","420","1468100","0.0-6.0-1.59","2889967","co38857","norming","","","","","","",""
"5671.184999999125","","","post_mooney1_questions","survey-likert","421","1473774","0.0-6.0-2.59","2889967","co38857","norming","","","{""curiosity"":4,""confidence"":1}","[0,1]","../img/tt/1363tt.jpg","",""
"766.1850000005215","","","recognition","survey-text","422","1474542","0.0-6.0-3.59","2889967","co38857","norming","","","{""guess"":""""}","","../img/tt/1363tt.jpg","",""
"null","../img/gs/1363gs.jpg","null","reveal","image-keyboard-response","423","1476544","0.0-6.0-4.59","2889967","co38857","norming","","","","","","",""
"null","../img/tt/1363tt.jpg","null","mooney2","image-keyboard-response","424","1478556","0.0-6.0-5.59","2889967","co38857","norming","","","","","","",""
"2120.320000000065","","","post_reveal_questions","survey-likert","425","1480679","0.0-6.0-6.59","2889967","co38857","norming","","","{""aha"":5}","[0]","../img/tt/1363tt.jpg","",""
"null","<div style=""font-size:60px;""> </div>","null","fixation","html-keyboard-response","426","1480880","0.0-6.0-0.60","2889967","co38857","norming","","","","","","",""
"null","../img/tt/052tt.jpg","null","mooney1","image-keyboard-response","427","1483883","0.0-6.0-1.60","2889967","co38857","norming","","","","","","",""
"4673.839999999385","","","post_mooney1_questions","survey-likert","428","1488559","0.0-6.0-2.60","2889967","co38857","norming","","","{""curiosity"":4,""confidence"":1}","[0,1]","../img/tt/052tt.jpg","",""
"613.9849999998696","","","recognition","survey-text","429","1489174","0.0-6.0-3.60","2889967","co38857","norming","","","{""guess"":""""}","","../img/tt/052tt.jpg","",""
"null","../img/gs/052gs.jpg","null","reveal","image-keyboard-response","430","1491181","0.0-6.0-4.60","2889967","co38857","norming","","","","","","",""
"null","../img/tt/052tt.jpg","null","mooney2","image-keyboard-response","431","1493192","0.0-6.0-5.60","2889967","co38857","norming","","","","","","",""
"2060.3499999998603","","","post_reveal_questions","survey-likert","432","1495254","0.0-6.0-6.60","2889967","co38857","norming","","","{""aha"":4}","[0]","../img/tt/052tt.jpg","",""
"null","<div style=""font-size:60px;""> </div>","null","fixation","html-keyboard-response","433","1495462","0.0-6.0-0.61","2889967","co38857","norming","","","","","","",""
"null","../img/tt/1275tt.jpg","null","mooney1","image-keyboard-response","434","1498473","0.0-6.0-1.61","2889967","co38857","norming","","","","","","",""
"5442.76500000176","","","post_mooney1_questions","survey-likert","435","1503919","0.0-6.0-2.61","2889967","co38857","norming","","","{""curiosity"":3,""confidence"":3}","[0,1]","../img/tt/1275tt.jpg","",""
"3085.9949999994133","","","recognition","survey-text","436","1507006","0.0-6.0-3.61","2889967","co38857","norming","","","{""guess"":""varken""}","","../img/tt/1275tt.jpg","",""
"null","../img/gs/1275gs.jpg","null","reveal","image-keyboard-response","437","1509013","0.0-6.0-4.61","2889967","co38857","norming","","","","","","",""
"null","../img/tt/1275tt.jpg","null","mooney2","image-keyboard-response","438","1511023","0.0-6.0-5.61","2889967","co38857","norming","","","","","","",""
"3268.719999999972","","","post_reveal_questions","survey-likert","439","1514293","0.0-6.0-6.61","2889967","co38857","norming","","","{""aha"":4}","[0]","../img/tt/1275tt.jpg","",""
"null","<div style=""font-size:60px;""> </div>","null","fixation","html-keyboard-response","440","1514501","0.0-6.0-0.62","2889967","co38857","norming","","","","","","",""
"null","../img/tt/1097tt.jpg","null","mooney1","image-keyboard-response","441","1517512","0.0-6.0-1.62","2889967","co38857","norming","","","","","","",""
"6897.530000000261","","","post_mooney1_questions","survey-likert","442","1524413","0.0-6.0-2.62","2889967","co38857","norming","","","{""curiosity"":4,""confidence"":3}","[0,1]","../img/tt/1097tt.jpg","",""
"2086.0400000000373","","","recognition","survey-text","443","1526501","0.0-6.0-3.62","2889967","co38857","norming","","","{""guess"":""boer""}","","../img/tt/1097tt.jpg","",""
"null","../img/gs/1097gs.jpg","null","reveal","image-keyboard-response","444","1528503","0.0-6.0-4.62","2889967","co38857","norming","","","","","","",""
"null","../img/tt/1097tt.jpg","null","mooney2","image-keyboard-response","445","1530504","0.0-6.0-5.62","2889967","co38857","norming","","","","","","",""
"2546.750000001397","","","post_reveal_questions","survey-likert","446","1533053","0.0-6.0-6.62","2889967","co38857","norming","","","{""aha"":4}","[0]","../img/tt/1097tt.jpg","",""
"null","<div style=""font-size:60px;""> </div>","null","fixation","html-keyboard-response","447","1533256","0.0-6.0-0.63","2889967","co38857","norming","","","","","","",""
"null","../img/tt/1175tt.jpg","null","mooney1","image-keyboard-response","448","1536261","0.0-6.0-1.63","2889967","co38857","norming","","","","","","",""
"3020.6650000000373","","","post_mooney1_questions","survey-likert","449","1539285","0.0-6.0-2.63","2889967","co38857","norming","","","{""curiosity"":4,""confidence"":0}","[0,1]","../img/tt/1175tt.jpg","",""
"597.8050000013318","","","recognition","survey-text","450","1539885","0.0-6.0-3.63","2889967","co38857","norming","","","{""guess"":""""}","","../img/tt/1175tt.jpg","",""
"null","../img/gs/1175gs.jpg","null","reveal","image-keyboard-response","451","1541886","0.0-6.0-4.63","2889967","co38857","norming","","","","","","",""
"null","../img/tt/1175tt.jpg","null","mooney2","image-keyboard-response","452","1543893","0.0-6.0-5.63","2889967","co38857","norming","","","","","","",""
"2263.4699999997392","","","post_reveal_questions","survey-likert","453","1546157","0.0-6.0-6.63","2889967","co38857","norming","","","{""aha"":4}","[0]","../img/tt/1175tt.jpg","",""
"null","<div style=""font-size:60px;""> </div>","null","fixation","html-keyboard-response","454","1546359","0.0-6.0-0.64","2889967","co38857","norming","","","","","","",""
"null","../img/tt/353tt.jpg","null","mooney1","image-keyboard-response","455","1549367","0.0-6.0-1.64","2889967","co38857","norming","","","","","","",""
"3915.4799999997485","","","post_mooney1_questions","survey-likert","456","1553285","0.0-6.0-2.64","2889967","co38857","norming","","","{""curiosity"":4,""confidence"":1}","[0,1]","../img/tt/353tt.jpg","",""
"1501.9399999999441","","","recognition","survey-text","457","1554789","0.0-6.0-3.64","2889967","co38857","norming","","","{""guess"":""dier""}","","../img/tt/353tt.jpg","",""
"null","../img/gs/353gs.jpg","null","reveal","image-keyboard-response","458","1556797","0.0-6.0-4.64","2889967","co38857","norming","","","","","","",""
"null","../img/tt/353tt.jpg","null","mooney2","image-keyboard-response","459","1558798","0.0-6.0-5.64","2889967","co38857","norming","","","","","","",""
"2244.6950000012293","","","post_reveal_questions","survey-likert","460","1561045","0.0-6.0-6.64","2889967","co38857","norming","","","{""aha"":4}","[0]","../img/tt/353tt.jpg","",""
"null","<div style=""font-size:60px;""> </div>","null","fixation","html-keyboard-response","461","1561254","0.0-6.0-0.65","2889967","co38857","norming","","","","","","",""
"null","../img/tt/1148tt.jpg","null","mooney1","image-keyboard-response","462","1564256","0.0-6.0-1.65","2889967","co38857","norming","","","","","","",""
"3890.015000000829","","","post_mooney1_questions","survey-likert","463","1568149","0.0-6.0-2.65","2889967","co38857","norming","","","{""curiosity"":4,""confidence"":2}","[0,1]","../img/tt/1148tt.jpg","",""
"3006.3800000008196","","","recognition","survey-text","464","1571157","0.0-6.0-3.65","2889967","co38857","norming","","","{""guess"":""zwemmer""}","","../img/tt/1148tt.jpg","",""
"null","../img/gs/1148gs.jpg","null","reveal","image-keyboard-response","465","1573168","0.0-6.0-4.65","2889967","co38857","norming","","","","","","",""
"null","../img/tt/1148tt.jpg","null","mooney2","image-keyboard-response","466","1575181","0.0-6.0-5.65","2889967","co38857","norming","","","","","","",""
"1943.825000000419","","","post_reveal_questions","survey-likert","467","1577127","0.0-6.0-6.65","2889967","co38857","norming","","","{""aha"":4}","[0]","../img/tt/1148tt.jpg","",""
"null","<div style=""font-size:60px;""> </div>","null","fixation","html-keyboard-response","468","1577332","0.0-6.0-0.66","2889967","co38857","norming","","","","","","",""
"null","../img/tt/1012tt.jpg","null","mooney1","image-keyboard-response","469","1580336","0.0-6.0-1.66","2889967","co38857","norming","","","","","","",""
"3819.5500000000466","","","post_mooney1_questions","survey-likert","470","1584159","0.0-6.0-2.66","2889967","co38857","norming","","","{""curiosity"":4,""confidence"":0}","[0,1]","../img/tt/1012tt.jpg","",""
"1213.934999999823","","","recognition","survey-text","471","1585375","0.0-6.0-3.66","2889967","co38857","norming","","","{""guess"":""""}","","../img/tt/1012tt.jpg","",""
"null","../img/gs/1012gs.jpg","null","reveal","image-keyboard-response","472","1587377","0.0-6.0-4.66","2889967","co38857","norming","","","","","","",""
"null","../img/tt/1012tt.jpg","null","mooney2","image-keyboard-response","473","1589387","0.0-6.0-5.66","2889967","co38857","norming","","","","","","",""
"1929.7150000003166","","","post_reveal_questions","survey-likert","474","1591319","0.0-6.0-6.66","2889967","co38857","norming","","","{""aha"":3}","[0]","../img/tt/1012tt.jpg","",""
"null","<div style=""font-size:60px;""> </div>","null","fixation","html-keyboard-response","475","1591522","0.0-6.0-0.67","2889967","co38857","norming","","","","","","",""
"null","../img/tt/1116tt.jpg","null","mooney1","image-keyboard-response","476","1594526","0.0-6.0-1.67","2889967","co38857","norming","","","","","","",""
"4048.0200000000186","","","post_mooney1_questions","survey-likert","477","1598575","0.0-6.0-2.67","2889967","co38857","norming","","","{""curiosity"":4,""confidence"":0}","[0,1]","../img/tt/1116tt.jpg","",""
"981.8200000009965","","","recognition","survey-text","478","1599559","0.0-6.0-3.67","2889967","co38857","norming","","","{""guess"":""""}","","../img/tt/1116tt.jpg","",""
"null","../img/gs/1116gs.jpg","null","reveal","image-keyboard-response","479","1601564","0.0-6.0-4.67","2889967","co38857","norming","","","","","","",""
"null","../img/tt/1116tt.jpg","null","mooney2","image-keyboard-response","480","1603574","0.0-6.0-5.67","2889967","co38857","norming","","","","","","",""
"2101.8249999997206","","","post_reveal_questions","survey-likert","481","1605679","0.0-6.0-6.67","2889967","co38857","norming","","","{""aha"":3}","[0]","../img/tt/1116tt.jpg","",""
"null","<div style=""font-size:60px;""> </div>","null","fixation","html-keyboard-response","482","1605883","0.0-6.0-0.68","2889967","co38857","norming","","","","","","",""
"null","../img/tt/522tt.jpg","null","mooney1","image-keyboard-response","483","1608889","0.0-6.0-1.68","2889967","co38857","norming","","","","","","",""
"4906.119999999646","","","post_mooney1_questions","survey-likert","484","1613799","0.0-6.0-2.68","2889967","co38857","norming","","","{""curiosity"":4,""confidence"":0}","[0,1]","../img/tt/522tt.jpg","",""
"926.0200000007171","","","recognition","survey-text","485","1614727","0.0-6.0-3.68","2889967","co38857","norming","","","{""guess"":""""}","","../img/tt/522tt.jpg","",""
"null","../img/gs/522gs.jpg","null","reveal","image-keyboard-response","486","1616734","0.0-6.0-4.68","2889967","co38857","norming","","","","","","",""
"null","../img/tt/522tt.jpg","null","mooney2","image-keyboard-response","487","1618737","0.0-6.0-5.68","2889967","co38857","norming","","","","","","",""
"2426.93500000122","","","post_reveal_questions","survey-likert","488","1621167","0.0-6.0-6.68","2889967","co38857","norming","","","{""aha"":4}","[0]","../img/tt/522tt.jpg","",""
"null","<div style=""font-size:60px;""> </div>","null","fixation","html-keyboard-response","489","1621377","0.0-6.0-0.69","2889967","co38857","norming","","","","","","",""
"null","../img/tt/481tt.jpg","null","mooney1","image-keyboard-response","490","1624383","0.0-6.0-1.69","2889967","co38857","norming","","","","","","",""
"3004.7350000003353","","","post_mooney1_questions","survey-likert","491","1627391","0.0-6.0-2.69","2889967","co38857","norming","","","{""curiosity"":4,""confidence"":0}","[0,1]","../img/tt/481tt.jpg","",""
"782.1299999994226","","","recognition","survey-text","492","1628175","0.0-6.0-3.69","2889967","co38857","norming","","","{""guess"":""""}","","../img/tt/481tt.jpg","",""
"null","../img/gs/481gs.jpg","null","reveal","image-keyboard-response","493","1630177","0.0-6.0-4.69","2889967","co38857","norming","","","","","","",""
"null","../img/tt/481tt.jpg","null","mooney2","image-keyboard-response","494","1632182","0.0-6.0-5.69","2889967","co38857","norming","","","","","","",""
"3605.7049999998417","","","post_reveal_questions","survey-likert","495","1635791","0.0-6.0-6.69","2889967","co38857","norming","","","{""aha"":5}","[0]","../img/tt/481tt.jpg","",""
"null","<div style=""font-size:60px;""> </div>","null","fixation","html-keyboard-response","496","1635999","0.0-6.0-0.70","2889967","co38857","norming","","","","","","",""
"null","../img/tt/442tt.jpg","null","mooney1","image-keyboard-response","497","1639010","0.0-6.0-1.70","2889967","co38857","norming","","","","","","",""
"3553.4500000013504","","","post_mooney1_questions","survey-likert","498","1642567","0.0-6.0-2.70","2889967","co38857","norming","","","{""curiosity"":3,""confidence"":0}","[0,1]","../img/tt/442tt.jpg","",""
"661.8249999992549","","","recognition","survey-text","499","1643230","0.0-6.0-3.70","2889967","co38857","norming","","","{""guess"":""""}","","../img/tt/442tt.jpg","",""
"null","../img/gs/442gs.jpg","null","reveal","image-keyboard-response","500","1645241","0.0-6.0-4.70","2889967","co38857","norming","","","","","","",""
"null","../img/tt/442tt.jpg","null","mooney2","image-keyboard-response","501","1647243","0.0-6.0-5.70","2889967","co38857","norming","","","","","","",""
"2513.4550000000745","","","post_reveal_questions","survey-likert","502","1649759","0.0-6.0-6.70","2889967","co38857","norming","","","{""aha"":2}","[0]","../img/tt/442tt.jpg","",""
"null","<div style=""font-size:60px;""> </div>","null","fixation","html-keyboard-response","503","1649967","0.0-6.0-0.71","2889967","co38857","norming","","","","","","",""
"null","../img/tt/1118tt.jpg","null","mooney1","image-keyboard-response","504","1652970","0.0-6.0-1.71","2889967","co38857","norming","","","","","","",""
"4081.9499999997206","","","post_mooney1_questions","survey-likert","505","1657055","0.0-6.0-2.71","2889967","co38857","norming","","","{""curiosity"":3,""confidence"":0}","[0,1]","../img/tt/1118tt.jpg","",""
"749.9850000005681","","","recognition","survey-text","506","1657806","0.0-6.0-3.71","2889967","co38857","norming","","","{""guess"":""""}","","../img/tt/1118tt.jpg","",""
"null","../img/gs/1118gs.jpg","null","reveal","image-keyboard-response","507","1659813","0.0-6.0-4.71","2889967","co38857","norming","","","","","","",""
"null","../img/tt/1118tt.jpg","null","mooney2","image-keyboard-response","508","1661822","0.0-6.0-5.71","2889967","co38857","norming","","","","","","",""
"1592.2599999995437","","","post_reveal_questions","survey-likert","509","1663415","0.0-6.0-6.71","2889967","co38857","norming","","","{""aha"":3}","[0]","../img/tt/1118tt.jpg","",""
"null","<div style=""font-size:60px;""> </div>","null","fixation","html-keyboard-response","510","1663616","0.0-6.0-0.72","2889967","co38857","norming","","","","","","",""
"null","../img/tt/549tt.jpg","null","mooney1","image-keyboard-response","511","1666622","0.0-6.0-1.72","2889967","co38857","norming","","","","","","",""
"3765.6800000006333","","","post_mooney1_questions","survey-likert","512","1670391","0.0-6.0-2.72","2889967","co38857","norming","","","{""curiosity"":4,""confidence"":0}","[0,1]","../img/tt/549tt.jpg","",""
"606.1549999993294","","","recognition","survey-text","513","1670999","0.0-6.0-3.72","2889967","co38857","norming","","","{""guess"":""""}","","../img/tt/549tt.jpg","",""
"null","../img/gs/549gs.jpg","null","reveal","image-keyboard-response","514","1673000","0.0-6.0-4.72","2889967","co38857","norming","","","","","","",""
"null","../img/tt/549tt.jpg","null","mooney2","image-keyboard-response","515","1675003","0.0-6.0-5.72","2889967","co38857","norming","","","","","","",""
"2025.5250000008382","","","post_reveal_questions","survey-likert","516","1677031","0.0-6.0-6.72","2889967","co38857","norming","","","{""aha"":3}","[0]","../img/tt/549tt.jpg","",""
"null","<div style=""font-size:60px;""> </div>","null","fixation","html-keyboard-response","517","1677239","0.0-6.0-0.73","2889967","co38857","norming","","","","","","",""
"null","../img/tt/1126tt.jpg","null","mooney1","image-keyboard-response","518","1680242","0.0-6.0-1.73","2889967","co38857","norming","","","","","","",""
"3473.6099999989383","","","post_mooney1_questions","survey-likert","519","1683719","0.0-6.0-2.73","2889967","co38857","norming","","","{""curiosity"":4,""confidence"":4}","[0,1]","../img/tt/1126tt.jpg","",""
"3501.974999999162","","","recognition","survey-text","520","1687223","0.0-6.0-3.73","2889967","co38857","norming","","","{""guess"":""klimmer""}","","../img/tt/1126tt.jpg","",""
"null","../img/gs/1126gs.jpg","null","reveal","image-keyboard-response","521","1689224","0.0-6.0-4.73","2889967","co38857","norming","","","","","","",""
"null","../img/tt/1126tt.jpg","null","mooney2","image-keyboard-response","522","1691226","0.0-6.0-5.73","2889967","co38857","norming","","","","","","",""
"3354.1099999984726","","","post_reveal_questions","survey-likert","523","1694583","0.0-6.0-6.73","2889967","co38857","norming","","","{""aha"":3}","[0]","../img/tt/1126tt.jpg","",""
"null","<div style=""font-size:60px;""> </div>","null","fixation","html-keyboard-response","524","1694789","0.0-6.0-0.74","2889967","co38857","norming","","","","","","",""
"null","../img/tt/1269tt.jpg","null","mooney1","image-keyboard-response","525","1697795","0.0-6.0-1.74","2889967","co38857","norming","","","","","","",""
"3147.9150000012014","","","post_mooney1_questions","survey-likert","526","1700944","0.0-6.0-2.74","2889967","co38857","norming","","","{""curiosity"":4,""confidence"":1}","[0,1]","../img/tt/1269tt.jpg","",""
"1509.9449999998324","","","recognition","survey-text","527","1702456","0.0-6.0-3.74","2889967","co38857","norming","","","{""guess"":""kat""}","","../img/tt/1269tt.jpg","",""
"null","../img/gs/1269gs.jpg","null","reveal","image-keyboard-response","528","1704458","0.0-6.0-4.74","2889967","co38857","norming","","","","","","",""
"null","../img/tt/1269tt.jpg","null","mooney2","image-keyboard-response","529","1706461","0.0-6.0-5.74","2889967","co38857","norming","","","","","","",""
"4344.229999998817","","","post_reveal_questions","survey-likert","530","1710808","0.0-6.0-6.74","2889967","co38857","norming","","","{""aha"":4}","[0]","../img/tt/1269tt.jpg","",""
"null","<div style=""font-size:60px;""> </div>","null","fixation","html-keyboard-response","531","1711009","0.0-6.0-0.75","2889967","co38857","norming","","","","","","",""
"null","../img/tt/1235tt.jpg","null","mooney1","image-keyboard-response","532","1714014","0.0-6.0-1.75","2889967","co38857","norming","","","","","","",""
"3126.000000000233","","","post_mooney1_questions","survey-likert","533","1717144","0.0-6.0-2.75","2889967","co38857","norming","","","{""curiosity"":3,""confidence"":1}","[0,1]","../img/tt/1235tt.jpg","",""
"1141.9599999990314","","","recognition","survey-text","534","1718287","0.0-6.0-3.75","2889967","co38857","norming","","","{""guess"":""""}","","../img/tt/1235tt.jpg","",""
"null","../img/gs/1235gs.jpg","null","reveal","image-keyboard-response","535","1720292","0.0-6.0-4.75","2889967","co38857","norming","","","","","","",""
"null","../img/tt/1235tt.jpg","null","mooney2","image-keyboard-response","536","1722296","0.0-6.0-5.75","2889967","co38857","norming","","","","","","",""
"5404.445000000065","","","post_reveal_questions","survey-likert","537","1727704","0.0-6.0-6.75","2889967","co38857","norming","","","{""aha"":3}","[0]","../img/tt/1235tt.jpg","",""
"null","<div style=""font-size:60px;""> </div>","null","fixation","html-keyboard-response","538","1727912","0.0-6.0-0.76","2889967","co38857","norming","","","","","","",""
"null","../img/tt/496tt.jpg","null","mooney1","image-keyboard-response","539","1730921","0.0-6.0-1.76","2889967","co38857","norming","","","","","","",""
"4315.205000000773","","","post_mooney1_questions","survey-likert","540","1735240","0.0-6.0-2.76","2889967","co38857","norming","","","{""curiosity"":4,""confidence"":0}","[0,1]","../img/tt/496tt.jpg","",""
"741.8649999999907","","","recognition","survey-text","541","1735983","0.0-6.0-3.76","2889967","co38857","norming","","","{""guess"":""""}","","../img/tt/496tt.jpg","",""
"null","../img/gs/496gs.jpg","null","reveal","image-keyboard-response","542","1737985","0.0-6.0-4.76","2889967","co38857","norming","","","","","","",""
"null","../img/tt/496tt.jpg","null","mooney2","image-keyboard-response","543","1739988","0.0-6.0-5.76","2889967","co38857","norming","","","","","","",""
"2224.329999999143","","","post_reveal_questions","survey-likert","544","1742216","0.0-6.0-6.76","2889967","co38857","norming","","","{""aha"":4}","[0]","../img/tt/496tt.jpg","",""
"null","<div style=""font-size:60px;""> </div>","null","fixation","html-keyboard-response","545","1742424","0.0-6.0-0.77","2889967","co38857","norming","","","","","","",""
"null","../img/tt/020tt.jpg","null","mooney1","image-keyboard-response","546","1745429","0.0-6.0-1.77","2889967","co38857","norming","","","","","","",""
"2623.599999998929","","","post_mooney1_questions","survey-likert","547","1748056","0.0-6.0-2.77","2889967","co38857","norming","","","{""curiosity"":3,""confidence"":0}","[0,1]","../img/tt/020tt.jpg","",""
"942.0599999995902","","","recognition","survey-text","548","1748999","0.0-6.0-3.77","2889967","co38857","norming","","","{""guess"":""""}","","../img/tt/020tt.jpg","",""
"null","../img/gs/020gs.jpg","null","reveal","image-keyboard-response","549","1751008","0.0-6.0-4.77","2889967","co38857","norming","","","","","","",""
"null","../img/tt/020tt.jpg","null","mooney2","image-keyboard-response","550","1753013","0.0-6.0-5.77","2889967","co38857","norming","","","","","","",""
"1936.3800000010524","","","post_reveal_questions","survey-likert","551","1754952","0.0-6.0-6.77","2889967","co38857","norming","","","{""aha"":3}","[0]","../img/tt/020tt.jpg","",""
"null","<div style=""font-size:60px;""> </div>","null","fixation","html-keyboard-response","552","1755153","0.0-6.0-0.78","2889967","co38857","norming","","","","","","",""
