"rt","stimulus","key_press","test_part","trial_type","trial_index","time_elapsed","internal_node_id","totalTime","subject","experiment_name","button_pressed","success","responses","question_order","currentStim","old","correct"
"8068.320000000313","Welcome to the experiment. This is an online experiment so please don't close the tab/window until we say goodbye.  Press any key to begin.","32","instructions","html-keyboard-response","0","8090","0.0-0.0","2805745","co38458","norming","","","","","","",""
"37725.98000000107","<div style='word-wrap: break-word; width: 900px'><h3>Please consider this information carefully before deciding whether to participate in this research</h3><ul style='text-align: left; font-size: .8em;'><li><b>Purpose of the research</b>: To examine how people process images.</li><li><b>What you will do in this research</b>:  Stimuli (images) will be presented on the computer and you will be asked different questions about them.</li><li><b>Time required</b>: Participation will take between 45 and 60 minutes to complete.</li><li><b>Risks</b>:  There are no anticipated risks associated with participating in this study. The effects of participating should be comparable to those you would experience from viewing a computer monitor for 30 minutes and using a mouse or keyboard.</li><li><b>Benefits</b>:  This study provides no benefits to you individually except for the credit. The study provides important information about the nature of perception and learning.</li><li><b>Confidentiality</b>:  Your participation in this study will remain confidential. No personally identifiable information will be associated with your data. Your de-identified data may be shared with other researchers and used in future projects.</li><li><b>Participation and withdrawal</b>:  Your participation in this study is completely voluntary and you may refuse to participate or you may choose to withdraw at any time without penalty.</li><li><b>How to contact the researchers</b>: If you have questions or concerns about your participation or payment, or want to request a summary of research findings, please contact Sander Van de Cruys (KU Leuven), at sander.vandecruys@kuleuven.be.</li></ul><p>The nature and purpose of this research have been sufficiently explained and I agree to participate in this study.  I understand that I am free to withdraw at any time without incurring any penalty.</p><p>Please consent by clicking the button below to continue. Otherwise, please exit the study at this time.</p></div>","","instructions","html-button-response","1","45816","0.0-1.0","2805745","co38458","norming","0","","","","","",""
"","","","instructions","fullscreen","2","50409","0.0-2.0","2805745","co38458","norming","","true","","","","",""
"31555.935000000318","","","sona","survey-html-form","3","81968","0.0-3.0","2805745","co38458","norming","","","[{""name"":""sonaid"",""value"":""38458""},{""name"":""debrief"",""value"":""yes""},{""name"":""datajoin"",""value"":""yes""}]","","","",""
"77699.92499999898","<div style='word-wrap: break-word; width: 900px'><h3>Instructions</h3><p>This experiment will have 3 parts. In the first part you will see a series of distorted images like the one below on the left. As you can see in the righthand image, the distorted images are derived from actual photographs. In what follows, you will <strong>briefly</strong> be presented with <strong>only</strong> the distorted image.</p> <div style='float: left; margin-right: 20px;'><img src='../img/018tt.jpg' height='250' width='250'></img></div><div style='float: right; margin-left: 20px;'><img src='../img/018gs.jpg' height='250' width='250'></img></div><p>Subsequently you will be asked a few questions about the image: One question on how <strong>curious</strong> you are about the solution and one on how <strong>confident</strong> you are that you know the solution.</p>Next, we ask you to make a guess on what is in the image. Note that it is OK to name just the <strong>basic level category</strong>. For example when you see a parrot in the image, 'parrot' will obviously be a correct answer but also correct is 'bird'. However, 'animal' will <strong>not</strong> be counted as a correct response. For the example above, 'rose' would be correct or 'flower', but not 'plant'. When soccer players are depicted, 'soccer', 'football', 'soccer players' will be correct, but not 'humans', 'outdoors', or 'sports'. You do not need to describe the image in full, just name the main object in it <strong>in one or two words</strong>. All images depict objects from one of the following broad level categories: animals, inanimate objects, plants, sports, vehicles, and food. Recognizing means knowing <strong>more</strong> than these broad labels for a given image. But we always encourage you to <strong>make a guess</strong> if you can. Note that you are allowed to use <strong>Dutch and English</strong> in your answers, whatever comes easiest for you.</p><p>Press any key to continue.</p></div>","32","instructions","html-keyboard-response","4","159677","0.0-4.0","2805745","co38458","norming","","","","","","",""
"161262.7200000006","<div style='word-wrap: break-word; width: 900px'><h3>Instructions</h3> <p>Next, the solution image will be revealed to you and you'll be asked to indicate how strong your <strong>aha-experience</strong> was after seeing the solution. This describes the positive feeling of the 'click' you sometimes experience, when the pieces of the 'puzzle' fall together and you suddenly have 'insight' in the image.</p><img src='aha.jpg' height='188' width='250'></img><p>Note that there are no right or wrong answers. We are interested in what <strong>you</strong> see in the image and how <strong>you</strong> feel about it.</p><p>Press any key to start the experiment.</p></div>","32","instructions","html-keyboard-response","5","320935","0.0-5.0","2805745","co38458","norming","","","","","","",""
"null","<div style=""font-size:60px;""> </div>","null","fixation","html-keyboard-response","6","321144","0.0-6.0-0.0","2805745","co38458","norming","","","","","","",""
"null","../img/tt/1202tt.jpg","null","mooney1","image-keyboard-response","7","324152","0.0-6.0-1.0","2805745","co38458","norming","","","","","","",""
"11643.029999999271","","","post_mooney1_questions","survey-likert","8","335798","0.0-6.0-2.0","2805745","co38458","norming","","","{""curiosity"":5,""confidence"":0}","[0,1]","../img/tt/1202tt.jpg","",""
"5245.409999999509","","","recognition","survey-text","9","341045","0.0-6.0-3.0","2805745","co38458","norming","","","{""guess"":""""}","","../img/tt/1202tt.jpg","",""
"null","../img/gs/1202gs.jpg","null","reveal","image-keyboard-response","10","343047","0.0-6.0-4.0","2805745","co38458","norming","","","","","","",""
"null","../img/tt/1202tt.jpg","null","mooney2","image-keyboard-response","11","345058","0.0-6.0-5.0","2805745","co38458","norming","","","","","","",""
"6610.5050000005285","","","post_reveal_questions","survey-likert","12","351669","0.0-6.0-6.0","2805745","co38458","norming","","","{""aha"":4}","[0]","../img/tt/1202tt.jpg","",""
"null","<div style=""font-size:60px;""> </div>","null","fixation","html-keyboard-response","13","351879","0.0-6.0-0.1","2805745","co38458","norming","","","","","","",""
"null","../img/tt/1290tt.jpg","null","mooney1","image-keyboard-response","14","354883","0.0-6.0-1.1","2805745","co38458","norming","","","","","","",""
"6976.715000000724","","","post_mooney1_questions","survey-likert","15","361862","0.0-6.0-2.1","2805745","co38458","norming","","","{""curiosity"":4,""confidence"":3}","[0,1]","../img/tt/1290tt.jpg","",""
"4485.839999999385","","","recognition","survey-text","16","366349","0.0-6.0-3.1","2805745","co38458","norming","","","{""guess"":""ski lift""}","","../img/tt/1290tt.jpg","",""
"null","../img/gs/1290gs.jpg","null","reveal","image-keyboard-response","17","368350","0.0-6.0-4.1","2805745","co38458","norming","","","","","","",""
"null","../img/tt/1290tt.jpg","null","mooney2","image-keyboard-response","18","370352","0.0-6.0-5.1","2805745","co38458","norming","","","","","","",""
"2772.2649999996065","","","post_reveal_questions","survey-likert","19","373125","0.0-6.0-6.1","2805745","co38458","norming","","","{""aha"":2}","[0]","../img/tt/1290tt.jpg","",""
"null","<div style=""font-size:60px;""> </div>","null","fixation","html-keyboard-response","20","373329","0.0-6.0-0.2","2805745","co38458","norming","","","","","","",""
"null","../img/tt/060tt.jpg","null","mooney1","image-keyboard-response","21","376339","0.0-6.0-1.2","2805745","co38458","norming","","","","","","",""
"9409.649999999616","","","post_mooney1_questions","survey-likert","22","385753","0.0-6.0-2.2","2805745","co38458","norming","","","{""curiosity"":5,""confidence"":1}","[0,1]","../img/tt/060tt.jpg","",""
"4678.335000000545","","","recognition","survey-text","23","390433","0.0-6.0-3.2","2805745","co38458","norming","","","{""guess"":""stoel""}","","../img/tt/060tt.jpg","",""
"null","../img/gs/060gs.jpg","null","reveal","image-keyboard-response","24","392437","0.0-6.0-4.2","2805745","co38458","norming","","","","","","",""
"null","../img/tt/060tt.jpg","null","mooney2","image-keyboard-response","25","394438","0.0-6.0-5.2","2805745","co38458","norming","","","","","","",""
"5449.1500000003725","","","post_reveal_questions","survey-likert","26","399889","0.0-6.0-6.2","2805745","co38458","norming","","","{""aha"":4}","[0]","../img/tt/060tt.jpg","",""
"null","<div style=""font-size:60px;""> </div>","null","fixation","html-keyboard-response","27","400091","0.0-6.0-0.3","2805745","co38458","norming","","","","","","",""
"null","../img/tt/1004tt.jpg","null","mooney1","image-keyboard-response","28","403100","0.0-6.0-1.3","2805745","co38458","norming","","","","","","",""
"8043.055000000109","","","post_mooney1_questions","survey-likert","29","411146","0.0-6.0-2.3","2805745","co38458","norming","","","{""curiosity"":5,""confidence"":4}","[0,1]","../img/tt/1004tt.jpg","",""
"2685.855000001495","","","recognition","survey-text","30","413833","0.0-6.0-3.3","2805745","co38458","norming","","","{""guess"":""beer""}","","../img/tt/1004tt.jpg","",""
"null","../img/gs/1004gs.jpg","null","reveal","image-keyboard-response","31","415842","0.0-6.0-4.3","2805745","co38458","norming","","","","","","",""
"null","../img/tt/1004tt.jpg","null","mooney2","image-keyboard-response","32","417848","0.0-6.0-5.3","2805745","co38458","norming","","","","","","",""
"2294.9100000004983","","","post_reveal_questions","survey-likert","33","420145","0.0-6.0-6.3","2805745","co38458","norming","","","{""aha"":5}","[0]","../img/tt/1004tt.jpg","",""
"null","<div style=""font-size:60px;""> </div>","null","fixation","html-keyboard-response","34","420347","0.0-6.0-0.4","2805745","co38458","norming","","","","","","",""
"null","../img/tt/1173tt.jpg","null","mooney1","image-keyboard-response","35","423351","0.0-6.0-1.4","2805745","co38458","norming","","","","","","",""
"4320.110000000568","","","post_mooney1_questions","survey-likert","36","427674","0.0-6.0-2.4","2805745","co38458","norming","","","{""curiosity"":4,""confidence"":4}","[0,1]","../img/tt/1173tt.jpg","",""
"5230.019999999087","","","recognition","survey-text","37","432905","0.0-6.0-3.4","2805745","co38458","norming","","","{""guess"":""voetballers""}","","../img/tt/1173tt.jpg","",""
"null","../img/gs/1173gs.jpg","null","reveal","image-keyboard-response","38","434907","0.0-6.0-4.4","2805745","co38458","norming","","","","","","",""
"null","../img/tt/1173tt.jpg","null","mooney2","image-keyboard-response","39","436921","0.0-6.0-5.4","2805745","co38458","norming","","","","","","",""
"1437.789999999979","","","post_reveal_questions","survey-likert","40","438361","0.0-6.0-6.4","2805745","co38458","norming","","","{""aha"":5}","[0]","../img/tt/1173tt.jpg","",""
"null","<div style=""font-size:60px;""> </div>","null","fixation","html-keyboard-response","41","438562","0.0-6.0-0.5","2805745","co38458","norming","","","","","","",""
"null","../img/tt/001tt.jpg","null","mooney1","image-keyboard-response","42","441569","0.0-6.0-1.5","2805745","co38458","norming","","","","","","",""
"4781.129999999423","","","post_mooney1_questions","survey-likert","43","446352","0.0-6.0-2.5","2805745","co38458","norming","","","{""curiosity"":6,""confidence"":1}","[0,1]","../img/tt/001tt.jpg","",""
"2694.224999999278","","","recognition","survey-text","44","449048","0.0-6.0-3.5","2805745","co38458","norming","","","{""guess"":""koe""}","","../img/tt/001tt.jpg","",""
"null","../img/gs/001gs.jpg","null","reveal","image-keyboard-response","45","451051","0.0-6.0-4.5","2805745","co38458","norming","","","","","","",""
"null","../img/tt/001tt.jpg","null","mooney2","image-keyboard-response","46","453061","0.0-6.0-5.5","2805745","co38458","norming","","","","","","",""
"1761.3050000000512","","","post_reveal_questions","survey-likert","47","454824","0.0-6.0-6.5","2805745","co38458","norming","","","{""aha"":5}","[0]","../img/tt/001tt.jpg","",""
"null","<div style=""font-size:60px;""> </div>","null","fixation","html-keyboard-response","48","455025","0.0-6.0-0.6","2805745","co38458","norming","","","","","","",""
"null","../img/tt/456tt.jpg","null","mooney1","image-keyboard-response","49","458036","0.0-6.0-1.6","2805745","co38458","norming","","","","","","",""
"6673.894999999902","","","post_mooney1_questions","survey-likert","50","464712","0.0-6.0-2.6","2805745","co38458","norming","","","{""curiosity"":5,""confidence"":2}","[0,1]","../img/tt/456tt.jpg","",""
"2502.375","","","recognition","survey-text","51","467216","0.0-6.0-3.6","2805745","co38458","norming","","","{""guess"":""koe""}","","../img/tt/456tt.jpg","",""
"null","../img/gs/456gs.jpg","null","reveal","image-keyboard-response","52","469217","0.0-6.0-4.6","2805745","co38458","norming","","","","","","",""
"null","../img/tt/456tt.jpg","null","mooney2","image-keyboard-response","53","471221","0.0-6.0-5.6","2805745","co38458","norming","","","","","","",""
"2441.595000000263","","","post_reveal_questions","survey-likert","54","473664","0.0-6.0-6.6","2805745","co38458","norming","","","{""aha"":5}","[0]","../img/tt/456tt.jpg","",""
"null","<div style=""font-size:60px;""> </div>","null","fixation","html-keyboard-response","55","473866","0.0-6.0-0.7","2805745","co38458","norming","","","","","","",""
"null","../img/tt/273tt.jpg","null","mooney1","image-keyboard-response","56","476871","0.0-6.0-1.7","2805745","co38458","norming","","","","","","",""
"6918.970000000612","","","post_mooney1_questions","survey-likert","57","483792","0.0-6.0-2.7","2805745","co38458","norming","","","{""curiosity"":3,""confidence"":4}","[0,1]","../img/tt/273tt.jpg","",""
"13094.119999999763","","","recognition","survey-text","58","496888","0.0-6.0-3.7","2805745","co38458","norming","","","{""guess"":""gezicht mond""}","","../img/tt/273tt.jpg","",""
"null","../img/gs/273gs.jpg","null","reveal","image-keyboard-response","59","498896","0.0-6.0-4.7","2805745","co38458","norming","","","","","","",""
"null","../img/tt/273tt.jpg","null","mooney2","image-keyboard-response","60","500902","0.0-6.0-5.7","2805745","co38458","norming","","","","","","",""
"2799.6749999983585","","","post_reveal_questions","survey-likert","61","503704","0.0-6.0-6.7","2805745","co38458","norming","","","{""aha"":3}","[0]","../img/tt/273tt.jpg","",""
"null","<div style=""font-size:60px;""> </div>","null","fixation","html-keyboard-response","62","503919","0.0-6.0-0.8","2805745","co38458","norming","","","","","","",""
"null","../img/tt/046tt.jpg","null","mooney1","image-keyboard-response","63","506925","0.0-6.0-1.8","2805745","co38458","norming","","","","","","",""
"4878.295000000391","","","post_mooney1_questions","survey-likert","64","511806","0.0-6.0-2.8","2805745","co38458","norming","","","{""curiosity"":5,""confidence"":5}","[0,1]","../img/tt/046tt.jpg","",""
"3030.174999999872","","","recognition","survey-text","65","514838","0.0-6.0-3.8","2805745","co38458","norming","","","{""guess"":""hond""}","","../img/tt/046tt.jpg","",""
"null","../img/gs/046gs.jpg","null","reveal","image-keyboard-response","66","516840","0.0-6.0-4.8","2805745","co38458","norming","","","","","","",""
"null","../img/tt/046tt.jpg","null","mooney2","image-keyboard-response","67","518843","0.0-6.0-5.8","2805745","co38458","norming","","","","","","",""
"2176.934999999474","","","post_reveal_questions","survey-likert","68","521022","0.0-6.0-6.8","2805745","co38458","norming","","","{""aha"":3}","[0]","../img/tt/046tt.jpg","",""
"null","<div style=""font-size:60px;""> </div>","null","fixation","html-keyboard-response","69","521223","0.0-6.0-0.9","2805745","co38458","norming","","","","","","",""
"null","../img/tt/380tt.jpg","null","mooney1","image-keyboard-response","70","524229","0.0-6.0-1.9","2805745","co38458","norming","","","","","","",""
"3392.4499999994878","","","post_mooney1_questions","survey-likert","71","527622","0.0-6.0-2.9","2805745","co38458","norming","","","{""curiosity"":6,""confidence"":0}","[0,1]","../img/tt/380tt.jpg","",""
"2878.1899999994785","","","recognition","survey-text","72","530502","0.0-6.0-3.9","2805745","co38458","norming","","","{""guess"":""raam""}","","../img/tt/380tt.jpg","",""
"null","../img/gs/380gs.jpg","null","reveal","image-keyboard-response","73","532504","0.0-6.0-4.9","2805745","co38458","norming","","","","","","",""
"null","../img/tt/380tt.jpg","null","mooney2","image-keyboard-response","74","534506","0.0-6.0-5.9","2805745","co38458","norming","","","","","","",""
"3017.8650000016205","","","post_reveal_questions","survey-likert","75","537526","0.0-6.0-6.9","2805745","co38458","norming","","","{""aha"":5}","[0]","../img/tt/380tt.jpg","",""
"null","<div style=""font-size:60px;""> </div>","null","fixation","html-keyboard-response","76","537727","0.0-6.0-0.10","2805745","co38458","norming","","","","","","",""
"null","../img/tt/1091tt.jpg","null","mooney1","image-keyboard-response","77","540733","0.0-6.0-1.10","2805745","co38458","norming","","","","","","",""
"4702.929999999469","","","post_mooney1_questions","survey-likert","78","545438","0.0-6.0-2.10","2805745","co38458","norming","","","{""curiosity"":5,""confidence"":4}","[0,1]","../img/tt/1091tt.jpg","",""
"3029.394999999553","","","recognition","survey-text","79","548470","0.0-6.0-3.10","2805745","co38458","norming","","","{""guess"":""paard""}","","../img/tt/1091tt.jpg","",""
"null","../img/gs/1091gs.jpg","null","reveal","image-keyboard-response","80","550480","0.0-6.0-4.10","2805745","co38458","norming","","","","","","",""
"null","../img/tt/1091tt.jpg","null","mooney2","image-keyboard-response","81","552482","0.0-6.0-5.10","2805745","co38458","norming","","","","","","",""
"3561.9999999998836","","","post_reveal_questions","survey-likert","82","556046","0.0-6.0-6.10","2805745","co38458","norming","","","{""aha"":2}","[0]","../img/tt/1091tt.jpg","",""
"null","<div style=""font-size:60px;""> </div>","null","fixation","html-keyboard-response","83","556249","0.0-6.0-0.11","2805745","co38458","norming","","","","","","",""
"null","../img/tt/552tt.jpg","null","mooney1","image-keyboard-response","84","559251","0.0-6.0-1.11","2805745","co38458","norming","","","","","","",""
"3600.3700000001118","","","post_mooney1_questions","survey-likert","85","562854","0.0-6.0-2.11","2805745","co38458","norming","","","{""curiosity"":4,""confidence"":5}","[0,1]","../img/tt/552tt.jpg","",""
"4390.064999999595","","","recognition","survey-text","86","567238","0.0-6.0-3.11","2805745","co38458","norming","","","{""guess"":""stinkdier""}","","../img/tt/552tt.jpg","",""
"null","../img/gs/552gs.jpg","null","reveal","image-keyboard-response","87","569240","0.0-6.0-4.11","2805745","co38458","norming","","","","","","",""
"null","../img/tt/552tt.jpg","null","mooney2","image-keyboard-response","88","571250","0.0-6.0-5.11","2805745","co38458","norming","","","","","","",""
"2322.0949999995064","","","post_reveal_questions","survey-likert","89","573574","0.0-6.0-6.11","2805745","co38458","norming","","","{""aha"":4}","[0]","../img/tt/552tt.jpg","",""
"null","<div style=""font-size:60px;""> </div>","null","fixation","html-keyboard-response","90","573776","0.0-6.0-0.12","2805745","co38458","norming","","","","","","",""
"null","../img/tt/416tt.jpg","null","mooney1","image-keyboard-response","91","576781","0.0-6.0-1.12","2805745","co38458","norming","","","","","","",""
"3855.190000000177","","","post_mooney1_questions","survey-likert","92","580638","0.0-6.0-2.12","2805745","co38458","norming","","","{""curiosity"":5,""confidence"":1}","[0,1]","../img/tt/416tt.jpg","",""
"2782.1650000006193","","","recognition","survey-text","93","583422","0.0-6.0-3.12","2805745","co38458","norming","","","{""guess"":""emoe""}","","../img/tt/416tt.jpg","",""
"null","../img/gs/416gs.jpg","null","reveal","image-keyboard-response","94","585423","0.0-6.0-4.12","2805745","co38458","norming","","","","","","",""
"null","../img/tt/416tt.jpg","null","mooney2","image-keyboard-response","95","587432","0.0-6.0-5.12","2805745","co38458","norming","","","","","","",""
"3564.3399999989197","","","post_reveal_questions","survey-likert","96","590998","0.0-6.0-6.12","2805745","co38458","norming","","","{""aha"":3}","[0]","../img/tt/416tt.jpg","",""
"null","<div style=""font-size:60px;""> </div>","null","fixation","html-keyboard-response","97","591201","0.0-6.0-0.13","2805745","co38458","norming","","","","","","",""
"null","../img/tt/300tt.jpg","null","mooney1","image-keyboard-response","98","594208","0.0-6.0-1.13","2805745","co38458","norming","","","","","","",""
"2771.8399999995017","","","post_mooney1_questions","survey-likert","99","596982","0.0-6.0-2.13","2805745","co38458","norming","","","{""curiosity"":6,""confidence"":1}","[0,1]","../img/tt/300tt.jpg","",""
"4310.1800000004005","","","recognition","survey-text","100","601294","0.0-6.0-3.13","2805745","co38458","norming","","","{""guess"":""bedelaar""}","","../img/tt/300tt.jpg","",""
"null","../img/gs/300gs.jpg","null","reveal","image-keyboard-response","101","603304","0.0-6.0-4.13","2805745","co38458","norming","","","","","","",""
"null","../img/tt/300tt.jpg","null","mooney2","image-keyboard-response","102","605315","0.0-6.0-5.13","2805745","co38458","norming","","","","","","",""
"1848.915000000503","","","post_reveal_questions","survey-likert","103","607166","0.0-6.0-6.13","2805745","co38458","norming","","","{""aha"":4}","[0]","../img/tt/300tt.jpg","",""
"null","<div style=""font-size:60px;""> </div>","null","fixation","html-keyboard-response","104","607368","0.0-6.0-0.14","2805745","co38458","norming","","","","","","",""
"null","../img/tt/076tt.jpg","null","mooney1","image-keyboard-response","105","610373","0.0-6.0-1.14","2805745","co38458","norming","","","","","","",""
"3159.970000000554","","","post_mooney1_questions","survey-likert","106","613534","0.0-6.0-2.14","2805745","co38458","norming","","","{""curiosity"":5,""confidence"":4}","[0,1]","../img/tt/076tt.jpg","",""
"4853.980000001611","","","recognition","survey-text","107","618390","0.0-6.0-3.14","2805745","co38458","norming","","","{""guess"":""inline skates""}","","../img/tt/076tt.jpg","",""
"null","../img/gs/076gs.jpg","null","reveal","image-keyboard-response","108","620391","0.0-6.0-4.14","2805745","co38458","norming","","","","","","",""
"null","../img/tt/076tt.jpg","null","mooney2","image-keyboard-response","109","622396","0.0-6.0-5.14","2805745","co38458","norming","","","","","","",""
"1785.0450000005076","","","post_reveal_questions","survey-likert","110","624182","0.0-6.0-6.14","2805745","co38458","norming","","","{""aha"":2}","[0]","../img/tt/076tt.jpg","",""
"null","<div style=""font-size:60px;""> </div>","null","fixation","html-keyboard-response","111","624383","0.0-6.0-0.15","2805745","co38458","norming","","","","","","",""
"null","../img/tt/357tt.jpg","null","mooney1","image-keyboard-response","112","627400","0.0-6.0-1.15","2805745","co38458","norming","","","","","","",""
"3291.605000000447","","","post_mooney1_questions","survey-likert","113","630694","0.0-6.0-2.15","2805745","co38458","norming","","","{""curiosity"":5,""confidence"":5}","[0,1]","../img/tt/357tt.jpg","",""
"2766.1650000009686","","","recognition","survey-text","114","633462","0.0-6.0-3.15","2805745","co38458","norming","","","{""guess"":""egel""}","","../img/tt/357tt.jpg","",""
"null","../img/gs/357gs.jpg","null","reveal","image-keyboard-response","115","635464","0.0-6.0-4.15","2805745","co38458","norming","","","","","","",""
"null","../img/tt/357tt.jpg","null","mooney2","image-keyboard-response","116","637473","0.0-6.0-5.15","2805745","co38458","norming","","","","","","",""
"2250.739999999525","","","post_reveal_questions","survey-likert","117","639726","0.0-6.0-6.15","2805745","co38458","norming","","","{""aha"":2}","[0]","../img/tt/357tt.jpg","",""
"null","<div style=""font-size:60px;""> </div>","null","fixation","html-keyboard-response","118","639928","0.0-6.0-0.16","2805745","co38458","norming","","","","","","",""
"null","../img/tt/184tt.jpg","null","mooney1","image-keyboard-response","119","642930","0.0-6.0-1.16","2805745","co38458","norming","","","","","","",""
"2441.7800000009593","","","post_mooney1_questions","survey-likert","120","645374","0.0-6.0-2.16","2805745","co38458","norming","","","{""curiosity"":5,""confidence"":5}","[0,1]","../img/tt/184tt.jpg","",""
"9318.180000000168","","","recognition","survey-text","121","654694","0.0-6.0-3.16","2805745","co38458","norming","","","{""guess"":""sloth""}","","../img/tt/184tt.jpg","",""
"null","../img/gs/184gs.jpg","null","reveal","image-keyboard-response","122","656703","0.0-6.0-4.16","2805745","co38458","norming","","","","","","",""
"null","../img/tt/184tt.jpg","null","mooney2","image-keyboard-response","123","658711","0.0-6.0-5.16","2805745","co38458","norming","","","","","","",""
"2358.1250000006985","","","post_reveal_questions","survey-likert","124","661070","0.0-6.0-6.16","2805745","co38458","norming","","","{""aha"":6}","[0]","../img/tt/184tt.jpg","",""
"null","<div style=""font-size:60px;""> </div>","null","fixation","html-keyboard-response","125","661271","0.0-6.0-0.17","2805745","co38458","norming","","","","","","",""
"null","../img/tt/1272tt.jpg","null","mooney1","image-keyboard-response","126","664276","0.0-6.0-1.17","2805745","co38458","norming","","","","","","",""
"2672.9199999991106","","","post_mooney1_questions","survey-likert","127","666950","0.0-6.0-2.17","2805745","co38458","norming","","","{""curiosity"":5,""confidence"":1}","[0,1]","../img/tt/1272tt.jpg","",""
"3925.9349999993574","","","recognition","survey-text","128","670878","0.0-6.0-3.17","2805745","co38458","norming","","","{""guess"":""maïs""}","","../img/tt/1272tt.jpg","",""
"null","../img/gs/1272gs.jpg","null","reveal","image-keyboard-response","129","672882","0.0-6.0-4.17","2805745","co38458","norming","","","","","","",""
"null","../img/tt/1272tt.jpg","null","mooney2","image-keyboard-response","130","674884","0.0-6.0-5.17","2805745","co38458","norming","","","","","","",""
"2872.244999998715","","","post_reveal_questions","survey-likert","131","677758","0.0-6.0-6.17","2805745","co38458","norming","","","{""aha"":6}","[0]","../img/tt/1272tt.jpg","",""
"null","<div style=""font-size:60px;""> </div>","null","fixation","html-keyboard-response","132","677959","0.0-6.0-0.18","2805745","co38458","norming","","","","","","",""
"null","../img/tt/534tt.jpg","null","mooney1","image-keyboard-response","133","680966","0.0-6.0-1.18","2805745","co38458","norming","","","","","","",""
"4821.874999999534","","","post_mooney1_questions","survey-likert","134","685790","0.0-6.0-2.18","2805745","co38458","norming","","","{""curiosity"":5,""confidence"":0}","[0,1]","../img/tt/534tt.jpg","",""
"3462.305000000866","","","recognition","survey-text","135","689248","0.0-6.0-3.18","2805745","co38458","norming","","","{""guess"":""bos""}","","../img/tt/534tt.jpg","",""
"null","../img/gs/534gs.jpg","null","reveal","image-keyboard-response","136","691258","0.0-6.0-4.18","2805745","co38458","norming","","","","","","",""
"null","../img/tt/534tt.jpg","null","mooney2","image-keyboard-response","137","693269","0.0-6.0-5.18","2805745","co38458","norming","","","","","","",""
"2489.069999999716","","","post_reveal_questions","survey-likert","138","695760","0.0-6.0-6.18","2805745","co38458","norming","","","{""aha"":5}","[0]","../img/tt/534tt.jpg","",""
"null","<div style=""font-size:60px;""> </div>","null","fixation","html-keyboard-response","139","695966","0.0-6.0-0.19","2805745","co38458","norming","","","","","","",""
"null","../img/tt/1275tt.jpg","null","mooney1","image-keyboard-response","140","698978","0.0-6.0-1.19","2805745","co38458","norming","","","","","","",""
"5251.900000001187","","","post_mooney1_questions","survey-likert","141","704233","0.0-6.0-2.19","2805745","co38458","norming","","","{""curiosity"":6,""confidence"":0}","[0,1]","../img/tt/1275tt.jpg","",""
"2430.1299999988405","","","recognition","survey-text","142","706664","0.0-6.0-3.19","2805745","co38458","norming","","","{""guess"":""""}","","../img/tt/1275tt.jpg","",""
"null","../img/gs/1275gs.jpg","null","reveal","image-keyboard-response","143","708672","0.0-6.0-4.19","2805745","co38458","norming","","","","","","",""
"null","../img/tt/1275tt.jpg","null","mooney2","image-keyboard-response","144","710679","0.0-6.0-5.19","2805745","co38458","norming","","","","","","",""
"2102.6499999989755","","","post_reveal_questions","survey-likert","145","712784","0.0-6.0-6.19","2805745","co38458","norming","","","{""aha"":6}","[0]","../img/tt/1275tt.jpg","",""
"null","<div style=""font-size:60px;""> </div>","null","fixation","html-keyboard-response","146","712985","0.0-6.0-0.20","2805745","co38458","norming","","","","","","",""
"null","../img/tt/1102tt.jpg","null","mooney1","image-keyboard-response","147","715989","0.0-6.0-1.20","2805745","co38458","norming","","","","","","",""
"3426.81499999878","","","post_mooney1_questions","survey-likert","148","719416","0.0-6.0-2.20","2805745","co38458","norming","","","{""curiosity"":6,""confidence"":0}","[0,1]","../img/tt/1102tt.jpg","",""
"3902.0149999996647","","","recognition","survey-text","149","723320","0.0-6.0-3.20","2805745","co38458","norming","","","{""guess"":""hangmat""}","","../img/tt/1102tt.jpg","",""
"null","../img/gs/1102gs.jpg","null","reveal","image-keyboard-response","150","725321","0.0-6.0-4.20","2805745","co38458","norming","","","","","","",""
"null","../img/tt/1102tt.jpg","null","mooney2","image-keyboard-response","151","727330","0.0-6.0-5.20","2805745","co38458","norming","","","","","","",""
"2875.80999999959","","","post_reveal_questions","survey-likert","152","730208","0.0-6.0-6.20","2805745","co38458","norming","","","{""aha"":6}","[0]","../img/tt/1102tt.jpg","",""
"null","<div style=""font-size:60px;""> </div>","null","fixation","html-keyboard-response","153","730409","0.0-6.0-0.21","2805745","co38458","norming","","","","","","",""
"null","../img/tt/1268tt.jpg","null","mooney1","image-keyboard-response","154","733415","0.0-6.0-1.21","2805745","co38458","norming","","","","","","",""
"3182.2000000011176","","","post_mooney1_questions","survey-likert","155","736600","0.0-6.0-2.21","2805745","co38458","norming","","","{""curiosity"":6,""confidence"":0}","[0,1]","../img/tt/1268tt.jpg","",""
"3102.0449999995762","","","recognition","survey-text","156","739704","0.0-6.0-3.21","2805745","co38458","norming","","","{""guess"":""zeehond""}","","../img/tt/1268tt.jpg","",""
"null","../img/gs/1268gs.jpg","null","reveal","image-keyboard-response","157","741709","0.0-6.0-4.21","2805745","co38458","norming","","","","","","",""
"null","../img/tt/1268tt.jpg","null","mooney2","image-keyboard-response","158","743719","0.0-6.0-5.21","2805745","co38458","norming","","","","","","",""
"2790.794999998994","","","post_reveal_questions","survey-likert","159","746512","0.0-6.0-6.21","2805745","co38458","norming","","","{""aha"":6}","[0]","../img/tt/1268tt.jpg","",""
"null","<div style=""font-size:60px;""> </div>","null","fixation","html-keyboard-response","160","746714","0.0-6.0-0.22","2805745","co38458","norming","","","","","","",""
"null","../img/tt/1241tt.jpg","null","mooney1","image-keyboard-response","161","749724","0.0-6.0-1.22","2805745","co38458","norming","","","","","","",""
"4175.585000000778","","","post_mooney1_questions","survey-likert","162","753902","0.0-6.0-2.22","2805745","co38458","norming","","","{""curiosity"":6,""confidence"":0}","[0,1]","../img/tt/1241tt.jpg","",""
"541.9550000006566","","","recognition","survey-text","163","754446","0.0-6.0-3.22","2805745","co38458","norming","","","{""guess"":""""}","","../img/tt/1241tt.jpg","",""
"null","../img/gs/1241gs.jpg","null","reveal","image-keyboard-response","164","756448","0.0-6.0-4.22","2805745","co38458","norming","","","","","","",""
"null","../img/tt/1241tt.jpg","null","mooney2","image-keyboard-response","165","758450","0.0-6.0-5.22","2805745","co38458","norming","","","","","","",""
"3361.849999999278","","","post_reveal_questions","survey-likert","166","761814","0.0-6.0-6.22","2805745","co38458","norming","","","{""aha"":6}","[0]","../img/tt/1241tt.jpg","",""
"null","<div style=""font-size:60px;""> </div>","null","fixation","html-keyboard-response","167","762020","0.0-6.0-0.23","2805745","co38458","norming","","","","","","",""
"null","../img/tt/1089tt.jpg","null","mooney1","image-keyboard-response","168","765032","0.0-6.0-1.23","2805745","co38458","norming","","","","","","",""
"4499.1750000008615","","","post_mooney1_questions","survey-likert","169","769534","0.0-6.0-2.23","2805745","co38458","norming","","","{""curiosity"":5,""confidence"":5}","[0,1]","../img/tt/1089tt.jpg","",""
"4398.275000001304","","","recognition","survey-text","170","773934","0.0-6.0-3.23","2805745","co38458","norming","","","{""guess"":""olifanten""}","","../img/tt/1089tt.jpg","",""
"null","../img/gs/1089gs.jpg","null","reveal","image-keyboard-response","171","775935","0.0-6.0-4.23","2805745","co38458","norming","","","","","","",""
"null","../img/tt/1089tt.jpg","null","mooney2","image-keyboard-response","172","777937","0.0-6.0-5.23","2805745","co38458","norming","","","","","","",""
"1891.3799999990733","","","post_reveal_questions","survey-likert","173","779830","0.0-6.0-6.23","2805745","co38458","norming","","","{""aha"":2}","[0]","../img/tt/1089tt.jpg","",""
"null","<div style=""font-size:60px;""> </div>","null","fixation","html-keyboard-response","174","780031","0.0-6.0-0.24","2805745","co38458","norming","","","","","","",""
"null","../img/tt/1118tt.jpg","null","mooney1","image-keyboard-response","175","783040","0.0-6.0-1.24","2805745","co38458","norming","","","","","","",""
"4003.2599999994272","","","post_mooney1_questions","survey-likert","176","787046","0.0-6.0-2.24","2805745","co38458","norming","","","{""curiosity"":6,""confidence"":1}","[0,1]","../img/tt/1118tt.jpg","",""
"3158.2600000001257","","","recognition","survey-text","177","790206","0.0-6.0-3.24","2805745","co38458","norming","","","{""guess"":""auto""}","","../img/tt/1118tt.jpg","",""
"null","../img/gs/1118gs.jpg","null","reveal","image-keyboard-response","178","792207","0.0-6.0-4.24","2805745","co38458","norming","","","","","","",""
"null","../img/tt/1118tt.jpg","null","mooney2","image-keyboard-response","179","794210","0.0-6.0-5.24","2805745","co38458","norming","","","","","","",""
"2281.82500000007","","","post_reveal_questions","survey-likert","180","796494","0.0-6.0-6.24","2805745","co38458","norming","","","{""aha"":6}","[0]","../img/tt/1118tt.jpg","",""
"null","<div style=""font-size:60px;""> </div>","null","fixation","html-keyboard-response","181","796695","0.0-6.0-0.25","2805745","co38458","norming","","","","","","",""
"null","../img/tt/1116tt.jpg","null","mooney1","image-keyboard-response","182","799707","0.0-6.0-1.25","2805745","co38458","norming","","","","","","",""
"3640.699999999837","","","post_mooney1_questions","survey-likert","183","803350","0.0-6.0-2.25","2805745","co38458","norming","","","{""curiosity"":6,""confidence"":0}","[0,1]","../img/tt/1116tt.jpg","",""
"4437.764999998733","","","recognition","survey-text","184","807790","0.0-6.0-3.25","2805745","co38458","norming","","","{""guess"":""straat""}","","../img/tt/1116tt.jpg","",""
"null","../img/gs/1116gs.jpg","null","reveal","image-keyboard-response","185","809795","0.0-6.0-4.25","2805745","co38458","norming","","","","","","",""
"null","../img/tt/1116tt.jpg","null","mooney2","image-keyboard-response","186","811797","0.0-6.0-5.25","2805745","co38458","norming","","","","","","",""
"1854.8949999986216","","","post_reveal_questions","survey-likert","187","813654","0.0-6.0-6.25","2805745","co38458","norming","","","{""aha"":6}","[0]","../img/tt/1116tt.jpg","",""
"null","<div style=""font-size:60px;""> </div>","null","fixation","html-keyboard-response","188","813856","0.0-6.0-0.26","2805745","co38458","norming","","","","","","",""
"null","../img/tt/085tt.jpg","null","mooney1","image-keyboard-response","189","816861","0.0-6.0-1.26","2805745","co38458","norming","","","","","","",""
"3182.3400000011316","","","post_mooney1_questions","survey-likert","190","820046","0.0-6.0-2.26","2805745","co38458","norming","","","{""curiosity"":6,""confidence"":1}","[0,1]","../img/tt/085tt.jpg","",""
"3174.034999999916","","","recognition","survey-text","191","823222","0.0-6.0-3.26","2805745","co38458","norming","","","{""guess"":""vlinders""}","","../img/tt/085tt.jpg","",""
"null","../img/gs/085gs.jpg","null","reveal","image-keyboard-response","192","825223","0.0-6.0-4.26","2805745","co38458","norming","","","","","","",""
"null","../img/tt/085tt.jpg","null","mooney2","image-keyboard-response","193","827232","0.0-6.0-5.26","2805745","co38458","norming","","","","","","",""
"2900.1749999988824","","","post_reveal_questions","survey-likert","194","830134","0.0-6.0-6.26","2805745","co38458","norming","","","{""aha"":6}","[0]","../img/tt/085tt.jpg","",""
"null","<div style=""font-size:60px;""> </div>","null","fixation","html-keyboard-response","195","830336","0.0-6.0-0.27","2805745","co38458","norming","","","","","","",""
"null","../img/tt/468tt.jpg","null","mooney1","image-keyboard-response","196","833345","0.0-6.0-1.27","2805745","co38458","norming","","","","","","",""
"3441.84499999939","","","post_mooney1_questions","survey-likert","197","836790","0.0-6.0-2.27","2805745","co38458","norming","","","{""curiosity"":6,""confidence"":0}","[0,1]","../img/tt/468tt.jpg","",""
"3014.059999999474","","","recognition","survey-text","198","839806","0.0-6.0-3.27","2805745","co38458","norming","","","{""guess"":""hoed""}","","../img/tt/468tt.jpg","",""
"null","../img/gs/468gs.jpg","null","reveal","image-keyboard-response","199","841817","0.0-6.0-4.27","2805745","co38458","norming","","","","","","",""
"null","../img/tt/468tt.jpg","null","mooney2","image-keyboard-response","200","843827","0.0-6.0-5.27","2805745","co38458","norming","","","","","","",""
"2656.270000001299","","","post_reveal_questions","survey-likert","201","846486","0.0-6.0-6.27","2805745","co38458","norming","","","{""aha"":6}","[0]","../img/tt/468tt.jpg","",""
"null","<div style=""font-size:60px;""> </div>","null","fixation","html-keyboard-response","202","846688","0.0-6.0-0.28","2805745","co38458","norming","","","","","","",""
"null","../img/tt/1235tt.jpg","null","mooney1","image-keyboard-response","203","849693","0.0-6.0-1.28","2805745","co38458","norming","","","","","","",""
"3933.9650000002002","","","post_mooney1_questions","survey-likert","204","853630","0.0-6.0-2.28","2805745","co38458","norming","","","{""curiosity"":6,""confidence"":1}","[0,1]","../img/tt/1235tt.jpg","",""
"4765.919999999809","","","recognition","survey-text","205","858398","0.0-6.0-3.28","2805745","co38458","norming","","","{""guess"":""stekelvarken""}","","../img/tt/1235tt.jpg","",""
"null","../img/gs/1235gs.jpg","null","reveal","image-keyboard-response","206","860408","0.0-6.0-4.28","2805745","co38458","norming","","","","","","",""
"null","../img/tt/1235tt.jpg","null","mooney2","image-keyboard-response","207","862413","0.0-6.0-5.28","2805745","co38458","norming","","","","","","",""
"2344.264999999781","","","post_reveal_questions","survey-likert","208","864758","0.0-6.0-6.28","2805745","co38458","norming","","","{""aha"":6}","[0]","../img/tt/1235tt.jpg","",""
"null","<div style=""font-size:60px;""> </div>","null","fixation","html-keyboard-response","209","864960","0.0-6.0-0.29","2805745","co38458","norming","","","","","","",""
"null","../img/tt/1101tt.jpg","null","mooney1","image-keyboard-response","210","867968","0.0-6.0-1.29","2805745","co38458","norming","","","","","","",""
"3115.4400000014575","","","post_mooney1_questions","survey-likert","211","871087","0.0-6.0-2.29","2805745","co38458","norming","","","{""curiosity"":6,""confidence"":1}","[0,1]","../img/tt/1101tt.jpg","",""
"2670.2999999996973","","","recognition","survey-text","212","873759","0.0-6.0-3.29","2805745","co38458","norming","","","{""guess"":""man""}","","../img/tt/1101tt.jpg","",""
"null","../img/gs/1101gs.jpg","null","reveal","image-keyboard-response","213","875761","0.0-6.0-4.29","2805745","co38458","norming","","","","","","",""
"null","../img/tt/1101tt.jpg","null","mooney2","image-keyboard-response","214","877764","0.0-6.0-5.29","2805745","co38458","norming","","","","","","",""
"2689.1850000011036","","","post_reveal_questions","survey-likert","215","880455","0.0-6.0-6.29","2805745","co38458","norming","","","{""aha"":6}","[0]","../img/tt/1101tt.jpg","",""
"null","<div style=""font-size:60px;""> </div>","null","fixation","html-keyboard-response","216","880657","0.0-6.0-0.30","2805745","co38458","norming","","","","","","",""
"null","../img/tt/040tt.jpg","null","mooney1","image-keyboard-response","217","883660","0.0-6.0-1.30","2805745","co38458","norming","","","","","","",""
"3096.644999999553","","","post_mooney1_questions","survey-likert","218","886759","0.0-6.0-2.30","2805745","co38458","norming","","","{""curiosity"":6,""confidence"":3}","[0,1]","../img/tt/040tt.jpg","",""
"3334.2150000007823","","","recognition","survey-text","219","890095","0.0-6.0-3.30","2805745","co38458","norming","","","{""guess"":""giraffe""}","","../img/tt/040tt.jpg","",""
"null","../img/gs/040gs.jpg","null","reveal","image-keyboard-response","220","892101","0.0-6.0-4.30","2805745","co38458","norming","","","","","","",""
"null","../img/tt/040tt.jpg","null","mooney2","image-keyboard-response","221","894104","0.0-6.0-5.30","2805745","co38458","norming","","","","","","",""
"2324.4599999998463","","","post_reveal_questions","survey-likert","222","896431","0.0-6.0-6.30","2805745","co38458","norming","","","{""aha"":6}","[0]","../img/tt/040tt.jpg","",""
"null","<div style=""font-size:60px;""> </div>","null","fixation","html-keyboard-response","223","896633","0.0-6.0-0.31","2805745","co38458","norming","","","","","","",""
"null","../img/tt/1069tt.jpg","null","mooney1","image-keyboard-response","224","899645","0.0-6.0-1.31","2805745","co38458","norming","","","","","","",""
"4047.324999999604","","","post_mooney1_questions","survey-likert","225","903696","0.0-6.0-2.31","2805745","co38458","norming","","","{""curiosity"":5,""confidence"":4}","[0,1]","../img/tt/1069tt.jpg","",""
"2509.8450000004377","","","recognition","survey-text","226","906207","0.0-6.0-3.31","2805745","co38458","norming","","","{""guess"":""geit""}","","../img/tt/1069tt.jpg","",""
"null","../img/gs/1069gs.jpg","null","reveal","image-keyboard-response","227","908214","0.0-6.0-4.31","2805745","co38458","norming","","","","","","",""
"null","../img/tt/1069tt.jpg","null","mooney2","image-keyboard-response","228","910222","0.0-6.0-5.31","2805745","co38458","norming","","","","","","",""
"3472.33000000054","","","post_reveal_questions","survey-likert","229","913696","0.0-6.0-6.31","2805745","co38458","norming","","","{""aha"":5}","[0]","../img/tt/1069tt.jpg","",""
"null","<div style=""font-size:60px;""> </div>","null","fixation","html-keyboard-response","230","913914","0.0-6.0-0.32","2805745","co38458","norming","","","","","","",""
"null","../img/tt/517tt.jpg","null","mooney1","image-keyboard-response","231","916918","0.0-6.0-1.32","2805745","co38458","norming","","","","","","",""
"4512.18499999959","","","post_mooney1_questions","survey-likert","232","921431","0.0-6.0-2.32","2805745","co38458","norming","","","{""curiosity"":6,""confidence"":0}","[0,1]","../img/tt/517tt.jpg","",""
"3325.8950000000186","","","recognition","survey-text","233","924759","0.0-6.0-3.32","2805745","co38458","norming","","","{""guess"":""sloth""}","","../img/tt/517tt.jpg","",""
"null","../img/gs/517gs.jpg","null","reveal","image-keyboard-response","234","926761","0.0-6.0-4.32","2805745","co38458","norming","","","","","","",""
"null","../img/tt/517tt.jpg","null","mooney2","image-keyboard-response","235","928771","0.0-6.0-5.32","2805745","co38458","norming","","","","","","",""
"2314.994999998831","","","post_reveal_questions","survey-likert","236","931085","0.0-6.0-6.32","2805745","co38458","norming","","","{""aha"":6}","[0]","../img/tt/517tt.jpg","",""
"null","<div style=""font-size:60px;""> </div>","null","fixation","html-keyboard-response","237","931288","0.0-6.0-0.33","2805745","co38458","norming","","","","","","",""
"null","../img/tt/1232tt.jpg","null","mooney1","image-keyboard-response","238","934290","0.0-6.0-1.33","2805745","co38458","norming","","","","","","",""
"3521.8399999993853","","","post_mooney1_questions","survey-likert","239","937813","0.0-6.0-2.33","2805745","co38458","norming","","","{""curiosity"":6,""confidence"":0}","[0,1]","../img/tt/1232tt.jpg","",""
"3477.7599999997765","","","recognition","survey-text","240","941293","0.0-6.0-3.33","2805745","co38458","norming","","","{""guess"":""vijver""}","","../img/tt/1232tt.jpg","",""
"null","../img/gs/1232gs.jpg","null","reveal","image-keyboard-response","241","943295","0.0-6.0-4.33","2805745","co38458","norming","","","","","","",""
"null","../img/tt/1232tt.jpg","null","mooney2","image-keyboard-response","242","945300","0.0-6.0-5.33","2805745","co38458","norming","","","","","","",""
"1712.1200000001118","","","post_reveal_questions","survey-likert","243","947013","0.0-6.0-6.33","2805745","co38458","norming","","","{""aha"":6}","[0]","../img/tt/1232tt.jpg","",""
"null","<div style=""font-size:60px;""> </div>","null","fixation","html-keyboard-response","244","947215","0.0-6.0-0.34","2805745","co38458","norming","","","","","","",""
"null","../img/tt/010tt.jpg","null","mooney1","image-keyboard-response","245","950223","0.0-6.0-1.34","2805745","co38458","norming","","","","","","",""
"2859.434999998426","","","post_mooney1_questions","survey-likert","246","953086","0.0-6.0-2.34","2805745","co38458","norming","","","{""curiosity"":6,""confidence"":0}","[0,1]","../img/tt/010tt.jpg","",""
"2518.1150000008056","","","recognition","survey-text","247","955606","0.0-6.0-3.34","2805745","co38458","norming","","","{""guess"":""eend""}","","../img/tt/010tt.jpg","",""
"null","../img/gs/010gs.jpg","null","reveal","image-keyboard-response","248","957613","0.0-6.0-4.34","2805745","co38458","norming","","","","","","",""
"null","../img/tt/010tt.jpg","null","mooney2","image-keyboard-response","249","959624","0.0-6.0-5.34","2805745","co38458","norming","","","","","","",""
"2123.574999999604","","","post_reveal_questions","survey-likert","250","961749","0.0-6.0-6.34","2805745","co38458","norming","","","{""aha"":6}","[0]","../img/tt/010tt.jpg","",""
"null","<div style=""font-size:60px;""> </div>","null","fixation","html-keyboard-response","251","961956","0.0-6.0-0.35","2805745","co38458","norming","","","","","","",""
"null","../img/tt/1307tt.jpg","null","mooney1","image-keyboard-response","252","964959","0.0-6.0-1.35","2805745","co38458","norming","","","","","","",""
"3507.2550000004703","","","post_mooney1_questions","survey-likert","253","968470","0.0-6.0-2.35","2805745","co38458","norming","","","{""curiosity"":6,""confidence"":0}","[0,1]","../img/tt/1307tt.jpg","",""
"3030.339999999269","","","recognition","survey-text","254","971501","0.0-6.0-3.35","2805745","co38458","norming","","","{""guess"":""toren""}","","../img/tt/1307tt.jpg","",""
"null","../img/gs/1307gs.jpg","null","reveal","image-keyboard-response","255","973508","0.0-6.0-4.35","2805745","co38458","norming","","","","","","",""
"null","../img/tt/1307tt.jpg","null","mooney2","image-keyboard-response","256","975516","0.0-6.0-5.35","2805745","co38458","norming","","","","","","",""
"3310.3200000004144","","","post_reveal_questions","survey-likert","257","978829","0.0-6.0-6.35","2805745","co38458","norming","","","{""aha"":6}","[0]","../img/tt/1307tt.jpg","",""
"null","<div style=""font-size:60px;""> </div>","null","fixation","html-keyboard-response","258","979040","0.0-6.0-0.36","2805745","co38458","norming","","","","","","",""
"null","../img/tt/1033tt.jpg","null","mooney1","image-keyboard-response","259","982043","0.0-6.0-1.36","2805745","co38458","norming","","","","","","",""
"6096.499999999651","","","post_mooney1_questions","survey-likert","260","988142","0.0-6.0-2.36","2805745","co38458","norming","","","{""curiosity"":4,""confidence"":3}","[0,1]","../img/tt/1033tt.jpg","",""
"8790.020000000368","","","recognition","survey-text","261","996934","0.0-6.0-3.36","2805745","co38458","norming","","","{""guess"":""honkbal spelers""}","","../img/tt/1033tt.jpg","",""
"null","../img/gs/1033gs.jpg","null","reveal","image-keyboard-response","262","998936","0.0-6.0-4.36","2805745","co38458","norming","","","","","","",""
"null","../img/tt/1033tt.jpg","null","mooney2","image-keyboard-response","263","1000941","0.0-6.0-5.36","2805745","co38458","norming","","","","","","",""
"1886.9649999997346","","","post_reveal_questions","survey-likert","264","1002831","0.0-6.0-6.36","2805745","co38458","norming","","","{""aha"":4}","[0]","../img/tt/1033tt.jpg","",""
"null","<div style=""font-size:60px;""> </div>","null","fixation","html-keyboard-response","265","1003032","0.0-6.0-0.37","2805745","co38458","norming","","","","","","",""
"null","../img/tt/013tt.jpg","null","mooney1","image-keyboard-response","266","1006043","0.0-6.0-1.37","2805745","co38458","norming","","","","","","",""
"2936.8849999991944","","","post_mooney1_questions","survey-likert","267","1008983","0.0-6.0-2.37","2805745","co38458","norming","","","{""curiosity"":6,""confidence"":0}","[0,1]","../img/tt/013tt.jpg","",""
"1357.9350000000559","","","recognition","survey-text","268","1010343","0.0-6.0-3.37","2805745","co38458","norming","","","{""guess"":""""}","","../img/tt/013tt.jpg","",""
"null","../img/gs/013gs.jpg","null","reveal","image-keyboard-response","269","1012350","0.0-6.0-4.37","2805745","co38458","norming","","","","","","",""
"null","../img/tt/013tt.jpg","null","mooney2","image-keyboard-response","270","1014360","0.0-6.0-5.37","2805745","co38458","norming","","","","","","",""
"3453.319999998668","","","post_reveal_questions","survey-likert","271","1017815","0.0-6.0-6.37","2805745","co38458","norming","","","{""aha"":6}","[0]","../img/tt/013tt.jpg","",""
"null","<div style=""font-size:60px;""> </div>","null","fixation","html-keyboard-response","272","1018019","0.0-6.0-0.38","2805745","co38458","norming","","","","","","",""
"null","../img/tt/438tt.jpg","null","mooney1","image-keyboard-response","273","1021026","0.0-6.0-1.38","2805745","co38458","norming","","","","","","",""
"7409.7999999994645","","","post_mooney1_questions","survey-likert","274","1028439","0.0-6.0-2.38","2805745","co38458","norming","","","{""curiosity"":1,""confidence"":4}","[0,1]","../img/tt/438tt.jpg","",""
"2942.0949999984587","","","recognition","survey-text","275","1031382","0.0-6.0-3.38","2805745","co38458","norming","","","{""guess"":""slang""}","","../img/tt/438tt.jpg","",""
"null","../img/gs/438gs.jpg","null","reveal","image-keyboard-response","276","1033391","0.0-6.0-4.38","2805745","co38458","norming","","","","","","",""
"null","../img/tt/438tt.jpg","null","mooney2","image-keyboard-response","277","1035401","0.0-6.0-5.38","2805745","co38458","norming","","","","","","",""
"6139.0900000005495","","","post_reveal_questions","survey-likert","278","1041543","0.0-6.0-6.38","2805745","co38458","norming","","","{""aha"":1}","[0]","../img/tt/438tt.jpg","",""
"null","<div style=""font-size:60px;""> </div>","null","fixation","html-keyboard-response","279","1041749","0.0-6.0-0.39","2805745","co38458","norming","","","","","","",""
"null","../img/tt/1250tt.jpg","null","mooney1","image-keyboard-response","280","1044755","0.0-6.0-1.39","2805745","co38458","norming","","","","","","",""
"2615.440000001341","","","post_mooney1_questions","survey-likert","281","1047374","0.0-6.0-2.39","2805745","co38458","norming","","","{""curiosity"":6,""confidence"":1}","[0,1]","../img/tt/1250tt.jpg","",""
"8382.385000000824","","","recognition","survey-text","282","1055761","0.0-6.0-3.39","2805745","co38458","norming","","","{""guess"":""pinguïn""}","","../img/tt/1250tt.jpg","",""
"null","../img/gs/1250gs.jpg","null","reveal","image-keyboard-response","283","1057768","0.0-6.0-4.39","2805745","co38458","norming","","","","","","",""
"null","../img/tt/1250tt.jpg","null","mooney2","image-keyboard-response","284","1059779","0.0-6.0-5.39","2805745","co38458","norming","","","","","","",""
"2781.1949999995995","","","post_reveal_questions","survey-likert","285","1062561","0.0-6.0-6.39","2805745","co38458","norming","","","{""aha"":6}","[0]","../img/tt/1250tt.jpg","",""
"null","<div style=""font-size:60px;""> </div>","null","fixation","html-keyboard-response","286","1062769","0.0-6.0-0.40","2805745","co38458","norming","","","","","","",""
"null","../img/tt/1148tt.jpg","null","mooney1","image-keyboard-response","287","1065775","0.0-6.0-1.40","2805745","co38458","norming","","","","","","",""
"5457.425000000512","","","post_mooney1_questions","survey-likert","288","1071233","0.0-6.0-2.40","2805745","co38458","norming","","","{""curiosity"":6,""confidence"":1}","[0,1]","../img/tt/1148tt.jpg","",""
"9142.179999999003","","","recognition","survey-text","289","1080377","0.0-6.0-3.40","2805745","co38458","norming","","","{""guess"":""strand volleybal""}","","../img/tt/1148tt.jpg","",""
"null","../img/gs/1148gs.jpg","null","reveal","image-keyboard-response","290","1082383","0.0-6.0-4.40","2805745","co38458","norming","","","","","","",""
"null","../img/tt/1148tt.jpg","null","mooney2","image-keyboard-response","291","1084390","0.0-6.0-5.40","2805745","co38458","norming","","","","","","",""
"2258.675000000978","","","post_reveal_questions","survey-likert","292","1086650","0.0-6.0-6.40","2805745","co38458","norming","","","{""aha"":6}","[0]","../img/tt/1148tt.jpg","",""
"null","<div style=""font-size:60px;""> </div>","null","fixation","html-keyboard-response","293","1086857","0.0-6.0-0.41","2805745","co38458","norming","","","","","","",""
"null","../img/tt/1080tt.jpg","null","mooney1","image-keyboard-response","294","1089860","0.0-6.0-1.41","2805745","co38458","norming","","","","","","",""
"3586.614999998361","","","post_mooney1_questions","survey-likert","295","1093450","0.0-6.0-2.41","2805745","co38458","norming","","","{""curiosity"":6,""confidence"":0}","[0,1]","../img/tt/1080tt.jpg","",""
"1062.2249999996275","","","recognition","survey-text","296","1094513","0.0-6.0-3.41","2805745","co38458","norming","","","{""guess"":""""}","","../img/tt/1080tt.jpg","",""
"null","../img/gs/1080gs.jpg","null","reveal","image-keyboard-response","297","1096517","0.0-6.0-4.41","2805745","co38458","norming","","","","","","",""
"null","../img/tt/1080tt.jpg","null","mooney2","image-keyboard-response","298","1098526","0.0-6.0-5.41","2805745","co38458","norming","","","","","","",""
"2816.9600000001956","","","post_reveal_questions","survey-likert","299","1101346","0.0-6.0-6.41","2805745","co38458","norming","","","{""aha"":6}","[0]","../img/tt/1080tt.jpg","",""
"null","<div style=""font-size:60px;""> </div>","null","fixation","html-keyboard-response","300","1101547","0.0-6.0-0.42","2805745","co38458","norming","","","","","","",""
"null","../img/tt/1072tt.jpg","null","mooney1","image-keyboard-response","301","1104550","0.0-6.0-1.42","2805745","co38458","norming","","","","","","",""
"2833.1550000002608","","","post_mooney1_questions","survey-likert","302","1107386","0.0-6.0-2.42","2805745","co38458","norming","","","{""curiosity"":6,""confidence"":1}","[0,1]","../img/tt/1072tt.jpg","",""
"6598.184999998892","","","recognition","survey-text","303","1113984","0.0-6.0-3.42","2805745","co38458","norming","","","{""guess"":""hek""}","","../img/tt/1072tt.jpg","",""
"null","../img/gs/1072gs.jpg","null","reveal","image-keyboard-response","304","1115988","0.0-6.0-4.42","2805745","co38458","norming","","","","","","",""
"null","../img/tt/1072tt.jpg","null","mooney2","image-keyboard-response","305","1117996","0.0-6.0-5.42","2805745","co38458","norming","","","","","","",""
"2175.5100000009406","","","post_reveal_questions","survey-likert","306","1120176","0.0-6.0-6.42","2805745","co38458","norming","","","{""aha"":6}","[0]","../img/tt/1072tt.jpg","",""
"null","<div style=""font-size:60px;""> </div>","null","fixation","html-keyboard-response","307","1120385","0.0-6.0-0.43","2805745","co38458","norming","","","","","","",""
"null","../img/tt/112tt.jpg","null","mooney1","image-keyboard-response","308","1123387","0.0-6.0-1.43","2805745","co38458","norming","","","","","","",""
"2306.075000000419","","","post_mooney1_questions","survey-likert","309","1125696","0.0-6.0-2.43","2805745","co38458","norming","","","{""curiosity"":6,""confidence"":1}","[0,1]","../img/tt/112tt.jpg","",""
"3478.089999998687","","","recognition","survey-text","310","1129176","0.0-6.0-3.43","2805745","co38458","norming","","","{""guess"":""wijnfles""}","","../img/tt/112tt.jpg","",""
"null","../img/gs/112gs.jpg","null","reveal","image-keyboard-response","311","1131183","0.0-6.0-4.43","2805745","co38458","norming","","","","","","",""
"null","../img/tt/112tt.jpg","null","mooney2","image-keyboard-response","312","1133192","0.0-6.0-5.43","2805745","co38458","norming","","","","","","",""
"2077.9050000002608","","","post_reveal_questions","survey-likert","313","1135272","0.0-6.0-6.43","2805745","co38458","norming","","","{""aha"":6}","[0]","../img/tt/112tt.jpg","",""
"null","<div style=""font-size:60px;""> </div>","null","fixation","html-keyboard-response","314","1135474","0.0-6.0-0.44","2805745","co38458","norming","","","","","","",""
"null","../img/tt/1175tt.jpg","null","mooney1","image-keyboard-response","315","1138477","0.0-6.0-1.44","2805745","co38458","norming","","","","","","",""
"3984.5600000007544","","","post_mooney1_questions","survey-likert","316","1142464","0.0-6.0-2.44","2805745","co38458","norming","","","{""curiosity"":6,""confidence"":1}","[0,1]","../img/tt/1175tt.jpg","",""
"18878.119999999413","","","recognition","survey-text","317","1161344","0.0-6.0-3.44","2805745","co38458","norming","","","{""guess"":""hitler groet""}","","../img/tt/1175tt.jpg","",""
"null","../img/gs/1175gs.jpg","null","reveal","image-keyboard-response","318","1163353","0.0-6.0-4.44","2805745","co38458","norming","","","","","","",""
"null","../img/tt/1175tt.jpg","null","mooney2","image-keyboard-response","319","1165355","0.0-6.0-5.44","2805745","co38458","norming","","","","","","",""
"2186.2350000010338","","","post_reveal_questions","survey-likert","320","1167544","0.0-6.0-6.44","2805745","co38458","norming","","","{""aha"":6}","[0]","../img/tt/1175tt.jpg","",""
"null","<div style=""font-size:60px;""> </div>","null","fixation","html-keyboard-response","321","1167747","0.0-6.0-0.45","2805745","co38458","norming","","","","","","",""
"null","../img/tt/1154tt.jpg","null","mooney1","image-keyboard-response","322","1170751","0.0-6.0-1.45","2805745","co38458","norming","","","","","","",""
"4093.834999999497","","","post_mooney1_questions","survey-likert","323","1174852","0.0-6.0-2.45","2805745","co38458","norming","","","{""curiosity"":6,""confidence"":2}","[0,1]","../img/tt/1154tt.jpg","",""
"8654.160000000149","","","recognition","survey-text","324","1183507","0.0-6.0-3.45","2805745","co38458","norming","","","{""guess"":""kajak""}","","../img/tt/1154tt.jpg","",""
"null","../img/gs/1154gs.jpg","null","reveal","image-keyboard-response","325","1185518","0.0-6.0-4.45","2805745","co38458","norming","","","","","","",""
"null","../img/tt/1154tt.jpg","null","mooney2","image-keyboard-response","326","1187521","0.0-6.0-5.45","2805745","co38458","norming","","","","","","",""
"2160.3749999995343","","","post_reveal_questions","survey-likert","327","1189683","0.0-6.0-6.45","2805745","co38458","norming","","","{""aha"":4}","[0]","../img/tt/1154tt.jpg","",""
"null","<div style=""font-size:60px;""> </div>","null","fixation","html-keyboard-response","328","1189886","0.0-6.0-0.46","2805745","co38458","norming","","","","","","",""
"null","../img/tt/1084tt.jpg","null","mooney1","image-keyboard-response","329","1192890","0.0-6.0-1.46","2805745","co38458","norming","","","","","","",""
"4079.184999998659","","","post_mooney1_questions","survey-likert","330","1196972","0.0-6.0-2.46","2805745","co38458","norming","","","{""curiosity"":5,""confidence"":4}","[0,1]","../img/tt/1084tt.jpg","",""
"7885.9300000004005","","","recognition","survey-text","331","1204859","0.0-6.0-3.46","2805745","co38458","norming","","","{""guess"":""stuk taart""}","","../img/tt/1084tt.jpg","",""
"null","../img/gs/1084gs.jpg","null","reveal","image-keyboard-response","332","1206868","0.0-6.0-4.46","2805745","co38458","norming","","","","","","",""
"null","../img/tt/1084tt.jpg","null","mooney2","image-keyboard-response","333","1208878","0.0-6.0-5.46","2805745","co38458","norming","","","","","","",""
"2515.0500000000466","","","post_reveal_questions","survey-likert","334","1211395","0.0-6.0-6.46","2805745","co38458","norming","","","{""aha"":4}","[0]","../img/tt/1084tt.jpg","",""
"null","<div style=""font-size:60px;""> </div>","null","fixation","html-keyboard-response","335","1211598","0.0-6.0-0.47","2805745","co38458","norming","","","","","","",""
"null","../img/tt/1143tt.jpg","null","mooney1","image-keyboard-response","336","1214601","0.0-6.0-1.47","2805745","co38458","norming","","","","","","",""
"4655.225000000559","","","post_mooney1_questions","survey-likert","337","1219259","0.0-6.0-2.47","2805745","co38458","norming","","","{""curiosity"":5,""confidence"":2}","[0,1]","../img/tt/1143tt.jpg","",""
"2981.739999999292","","","recognition","survey-text","338","1222243","0.0-6.0-3.47","2805745","co38458","norming","","","{""guess"":""fitness""}","","../img/tt/1143tt.jpg","",""
"null","../img/gs/1143gs.jpg","null","reveal","image-keyboard-response","339","1224249","0.0-6.0-4.47","2805745","co38458","norming","","","","","","",""
"null","../img/tt/1143tt.jpg","null","mooney2","image-keyboard-response","340","1226256","0.0-6.0-5.47","2805745","co38458","norming","","","","","","",""
"2201.0000000009313","","","post_reveal_questions","survey-likert","341","1228459","0.0-6.0-6.47","2805745","co38458","norming","","","{""aha"":4}","[0]","../img/tt/1143tt.jpg","",""
"null","<div style=""font-size:60px;""> </div>","null","fixation","html-keyboard-response","342","1228670","0.0-6.0-0.48","2805745","co38458","norming","","","","","","",""
"null","../img/tt/524tt.jpg","null","mooney1","image-keyboard-response","343","1231672","0.0-6.0-1.48","2805745","co38458","norming","","","","","","",""
"3864.340000000084","","","post_mooney1_questions","survey-likert","344","1235535","0.0-6.0-2.48","2805745","co38458","norming","","","{""curiosity"":4,""confidence"":5}","[0,1]","../img/tt/524tt.jpg","",""
"3318.0850000006612","","","recognition","survey-text","345","1238854","0.0-6.0-3.48","2805745","co38458","norming","","","{""guess"":""olifant""}","","../img/tt/524tt.jpg","",""
"null","../img/gs/524gs.jpg","null","reveal","image-keyboard-response","346","1240865","0.0-6.0-4.48","2805745","co38458","norming","","","","","","",""
"null","../img/tt/524tt.jpg","null","mooney2","image-keyboard-response","347","1242867","0.0-6.0-5.48","2805745","co38458","norming","","","","","","",""
"1617.3000000000466","","","post_reveal_questions","survey-likert","348","1244486","0.0-6.0-6.48","2805745","co38458","norming","","","{""aha"":6}","[0]","../img/tt/524tt.jpg","",""
"null","<div style=""font-size:60px;""> </div>","null","fixation","html-keyboard-response","349","1244694","0.0-6.0-0.49","2805745","co38458","norming","","","","","","",""
"null","../img/tt/1227tt.jpg","null","mooney1","image-keyboard-response","350","1247700","0.0-6.0-1.49","2805745","co38458","norming","","","","","","",""
"3654.854999998817","","","post_mooney1_questions","survey-likert","351","1251358","0.0-6.0-2.49","2805745","co38458","norming","","","{""curiosity"":6,""confidence"":0}","[0,1]","../img/tt/1227tt.jpg","",""
"790.2949999987613","","","recognition","survey-text","352","1252150","0.0-6.0-3.49","2805745","co38458","norming","","","{""guess"":""""}","","../img/tt/1227tt.jpg","",""
"null","../img/gs/1227gs.jpg","null","reveal","image-keyboard-response","353","1254157","0.0-6.0-4.49","2805745","co38458","norming","","","","","","",""
"null","../img/tt/1227tt.jpg","null","mooney2","image-keyboard-response","354","1256161","0.0-6.0-5.49","2805745","co38458","norming","","","","","","",""
"3418.9050000004936","","","post_reveal_questions","survey-likert","355","1259582","0.0-6.0-6.49","2805745","co38458","norming","","","{""aha"":6}","[0]","../img/tt/1227tt.jpg","",""
"null","<div style=""font-size:60px;""> </div>","null","fixation","html-keyboard-response","356","1259793","0.0-6.0-0.50","2805745","co38458","norming","","","","","","",""
"null","../img/tt/559tt.jpg","null","mooney1","image-keyboard-response","357","1262796","0.0-6.0-1.50","2805745","co38458","norming","","","","","","",""
"3327.255000000121","","","post_mooney1_questions","survey-likert","358","1266127","0.0-6.0-2.50","2805745","co38458","norming","","","{""curiosity"":6,""confidence"":0}","[0,1]","../img/tt/559tt.jpg","",""
"541.444999998901","","","recognition","survey-text","359","1266670","0.0-6.0-3.50","2805745","co38458","norming","","","{""guess"":""""}","","../img/tt/559tt.jpg","",""
"null","../img/gs/559gs.jpg","null","reveal","image-keyboard-response","360","1268681","0.0-6.0-4.50","2805745","co38458","norming","","","","","","",""
"null","../img/tt/559tt.jpg","null","mooney2","image-keyboard-response","361","1270683","0.0-6.0-5.50","2805745","co38458","norming","","","","","","",""
"2929.3600000001024","","","post_reveal_questions","survey-likert","362","1273614","0.0-6.0-6.50","2805745","co38458","norming","","","{""aha"":6}","[0]","../img/tt/559tt.jpg","",""
"null","<div style=""font-size:60px;""> </div>","null","fixation","html-keyboard-response","363","1273824","0.0-6.0-0.51","2805745","co38458","norming","","","","","","",""
"null","../img/tt/032tt.jpg","null","mooney1","image-keyboard-response","364","1276832","0.0-6.0-1.51","2805745","co38458","norming","","","","","","",""
"4266.824999998789","","","post_mooney1_questions","survey-likert","365","1281102","0.0-6.0-2.51","2805745","co38458","norming","","","{""curiosity"":6,""confidence"":1}","[0,1]","../img/tt/032tt.jpg","",""
"3950.0449999996927","","","recognition","survey-text","366","1285054","0.0-6.0-3.51","2805745","co38458","norming","","","{""guess"":""vijver""}","","../img/tt/032tt.jpg","",""
"null","../img/gs/032gs.jpg","null","reveal","image-keyboard-response","367","1287056","0.0-6.0-4.51","2805745","co38458","norming","","","","","","",""
"null","../img/tt/032tt.jpg","null","mooney2","image-keyboard-response","368","1289057","0.0-6.0-5.51","2805745","co38458","norming","","","","","","",""
"1866.5400000009686","","","post_reveal_questions","survey-likert","369","1290926","0.0-6.0-6.51","2805745","co38458","norming","","","{""aha"":6}","[0]","../img/tt/032tt.jpg","",""
"null","<div style=""font-size:60px;""> </div>","null","fixation","html-keyboard-response","370","1291128","0.0-6.0-0.52","2805745","co38458","norming","","","","","","",""
"null","../img/tt/307tt.jpg","null","mooney1","image-keyboard-response","371","1294147","0.0-6.0-1.52","2805745","co38458","norming","","","","","","",""
"2798.829999999609","","","post_mooney1_questions","survey-likert","372","1296949","0.0-6.0-2.52","2805745","co38458","norming","","","{""curiosity"":6,""confidence"":0}","[0,1]","../img/tt/307tt.jpg","",""
"1062.3749999995343","","","recognition","survey-text","373","1298013","0.0-6.0-3.52","2805745","co38458","norming","","","{""guess"":""""}","","../img/tt/307tt.jpg","",""
"null","../img/gs/307gs.jpg","null","reveal","image-keyboard-response","374","1300013","0.0-6.0-4.52","2805745","co38458","norming","","","","","","",""
"null","../img/tt/307tt.jpg","null","mooney2","image-keyboard-response","375","1302016","0.0-6.0-5.52","2805745","co38458","norming","","","","","","",""
"2754.809999998659","","","post_reveal_questions","survey-likert","376","1304773","0.0-6.0-6.52","2805745","co38458","norming","","","{""aha"":6}","[0]","../img/tt/307tt.jpg","",""
"null","<div style=""font-size:60px;""> </div>","null","fixation","html-keyboard-response","377","1304975","0.0-6.0-0.53","2805745","co38458","norming","","","","","","",""
"null","../img/tt/1171tt.jpg","null","mooney1","image-keyboard-response","378","1307978","0.0-6.0-1.53","2805745","co38458","norming","","","","","","",""
"2936.4249999998137","","","post_mooney1_questions","survey-likert","379","1310917","0.0-6.0-2.53","2805745","co38458","norming","","","{""curiosity"":6,""confidence"":1}","[0,1]","../img/tt/1171tt.jpg","",""
"2686.43499999959","","","recognition","survey-text","380","1313605","0.0-6.0-3.53","2805745","co38458","norming","","","{""guess"":""panda""}","","../img/tt/1171tt.jpg","",""
"null","../img/gs/1171gs.jpg","null","reveal","image-keyboard-response","381","1315615","0.0-6.0-4.53","2805745","co38458","norming","","","","","","",""
"null","../img/tt/1171tt.jpg","null","mooney2","image-keyboard-response","382","1317624","0.0-6.0-5.53","2805745","co38458","norming","","","","","","",""
"2209.639999999199","","","post_reveal_questions","survey-likert","383","1319837","0.0-6.0-6.53","2805745","co38458","norming","","","{""aha"":6}","[0]","../img/tt/1171tt.jpg","",""
"null","<div style=""font-size:60px;""> </div>","null","fixation","html-keyboard-response","384","1320043","0.0-6.0-0.54","2805745","co38458","norming","","","","","","",""
"null","../img/tt/598tt.jpg","null","mooney1","image-keyboard-response","385","1323050","0.0-6.0-1.54","2805745","co38458","norming","","","","","","",""
"3071.434999999823","","","post_mooney1_questions","survey-likert","386","1326125","0.0-6.0-2.54","2805745","co38458","norming","","","{""curiosity"":6,""confidence"":1}","[0,1]","../img/tt/598tt.jpg","",""
"2486.095000000205","","","recognition","survey-text","387","1328613","0.0-6.0-3.54","2805745","co38458","norming","","","{""guess"":""bal""}","","../img/tt/598tt.jpg","",""
"null","../img/gs/598gs.jpg","null","reveal","image-keyboard-response","388","1330616","0.0-6.0-4.54","2805745","co38458","norming","","","","","","",""
"null","../img/tt/598tt.jpg","null","mooney2","image-keyboard-response","389","1332625","0.0-6.0-5.54","2805745","co38458","norming","","","","","","",""
"1784.5350000006147","","","post_reveal_questions","survey-likert","390","1334413","0.0-6.0-6.54","2805745","co38458","norming","","","{""aha"":6}","[0]","../img/tt/598tt.jpg","",""
"null","<div style=""font-size:60px;""> </div>","null","fixation","html-keyboard-response","391","1334614","0.0-6.0-0.55","2805745","co38458","norming","","","","","","",""
"null","../img/tt/1146tt.jpg","null","mooney1","image-keyboard-response","392","1337622","0.0-6.0-1.55","2805745","co38458","norming","","","","","","",""
"3107.469999998808","","","post_mooney1_questions","survey-likert","393","1340733","0.0-6.0-2.55","2805745","co38458","norming","","","{""curiosity"":6,""confidence"":1}","[0,1]","../img/tt/1146tt.jpg","",""
"6614.015000001062","","","recognition","survey-text","394","1347349","0.0-6.0-3.55","2805745","co38458","norming","","","{""guess"":""boogschieten""}","","../img/tt/1146tt.jpg","",""
"null","../img/gs/1146gs.jpg","null","reveal","image-keyboard-response","395","1349355","0.0-6.0-4.55","2805745","co38458","norming","","","","","","",""
"null","../img/tt/1146tt.jpg","null","mooney2","image-keyboard-response","396","1351366","0.0-6.0-5.55","2805745","co38458","norming","","","","","","",""
"1995.769999999553","","","post_reveal_questions","survey-likert","397","1353365","0.0-6.0-6.55","2805745","co38458","norming","","","{""aha"":2}","[0]","../img/tt/1146tt.jpg","",""
"null","<div style=""font-size:60px;""> </div>","null","fixation","html-keyboard-response","398","1353566","0.0-6.0-0.56","2805745","co38458","norming","","","","","","",""
"null","../img/tt/1002tt.jpg","null","mooney1","image-keyboard-response","399","1356577","0.0-6.0-1.56","2805745","co38458","norming","","","","","","",""
"2216.9600000015926","","","post_mooney1_questions","survey-likert","400","1358797","0.0-6.0-2.56","2805745","co38458","norming","","","{""curiosity"":4,""confidence"":4}","[0,1]","../img/tt/1002tt.jpg","",""
"1950.1049999999814","","","recognition","survey-text","401","1360749","0.0-6.0-3.56","2805745","co38458","norming","","","{""guess"":""beer""}","","../img/tt/1002tt.jpg","",""
"null","../img/gs/1002gs.jpg","null","reveal","image-keyboard-response","402","1362758","0.0-6.0-4.56","2805745","co38458","norming","","","","","","",""
"null","../img/tt/1002tt.jpg","null","mooney2","image-keyboard-response","403","1364769","0.0-6.0-5.56","2805745","co38458","norming","","","","","","",""
"1929.4500000013504","","","post_reveal_questions","survey-likert","404","1366701","0.0-6.0-6.56","2805745","co38458","norming","","","{""aha"":2}","[0]","../img/tt/1002tt.jpg","",""
"null","<div style=""font-size:60px;""> </div>","null","fixation","html-keyboard-response","405","1366903","0.0-6.0-0.57","2805745","co38458","norming","","","","","","",""
"null","../img/tt/1366tt.jpg","null","mooney1","image-keyboard-response","406","1369906","0.0-6.0-1.57","2805745","co38458","norming","","","","","","",""
"3377.7200000004377","","","post_mooney1_questions","survey-likert","407","1373285","0.0-6.0-2.57","2805745","co38458","norming","","","{""curiosity"":6,""confidence"":1}","[0,1]","../img/tt/1366tt.jpg","",""
"3502.135000000708","","","recognition","survey-text","408","1376789","0.0-6.0-3.57","2805745","co38458","norming","","","{""guess"":""bord eten""}","","../img/tt/1366tt.jpg","",""
"null","../img/gs/1366gs.jpg","null","reveal","image-keyboard-response","409","1378797","0.0-6.0-4.57","2805745","co38458","norming","","","","","","",""
"null","../img/tt/1366tt.jpg","null","mooney2","image-keyboard-response","410","1380800","0.0-6.0-5.57","2805745","co38458","norming","","","","","","",""
"2778.739999999758","","","post_reveal_questions","survey-likert","411","1383581","0.0-6.0-6.57","2805745","co38458","norming","","","{""aha"":5}","[0]","../img/tt/1366tt.jpg","",""
"null","<div style=""font-size:60px;""> </div>","null","fixation","html-keyboard-response","412","1383782","0.0-6.0-0.58","2805745","co38458","norming","","","","","","",""
"null","../img/tt/1128tt.jpg","null","mooney1","image-keyboard-response","413","1386789","0.0-6.0-1.58","2805745","co38458","norming","","","","","","",""
"5668.34999999986","","","post_mooney1_questions","survey-likert","414","1392461","0.0-6.0-2.58","2805745","co38458","norming","","","{""curiosity"":5,""confidence"":4}","[0,1]","../img/tt/1128tt.jpg","",""
"2637.9899999990594","","","recognition","survey-text","415","1395101","0.0-6.0-3.58","2805745","co38458","norming","","","{""guess"":""apen""}","","../img/tt/1128tt.jpg","",""
"null","../img/gs/1128gs.jpg","null","reveal","image-keyboard-response","416","1397105","0.0-6.0-4.58","2805745","co38458","norming","","","","","","",""
"null","../img/tt/1128tt.jpg","null","mooney2","image-keyboard-response","417","1399107","0.0-6.0-5.58","2805745","co38458","norming","","","","","","",""
"2991.2499999990687","","","post_reveal_questions","survey-likert","418","1402101","0.0-6.0-6.58","2805745","co38458","norming","","","{""aha"":6}","[0]","../img/tt/1128tt.jpg","",""
"null","<div style=""font-size:60px;""> </div>","null","fixation","html-keyboard-response","419","1402303","0.0-6.0-0.59","2805745","co38458","norming","","","","","","",""
"null","../img/tt/318tt.jpg","null","mooney1","image-keyboard-response","420","1405309","0.0-6.0-1.59","2805745","co38458","norming","","","","","","",""
"3572.985000000801","","","post_mooney1_questions","survey-likert","421","1408885","0.0-6.0-2.59","2805745","co38458","norming","","","{""curiosity"":6,""confidence"":1}","[0,1]","../img/tt/318tt.jpg","",""
"2445.869999999646","","","recognition","survey-text","422","1411333","0.0-6.0-3.59","2805745","co38458","norming","","","{""guess"":""wafels""}","","../img/tt/318tt.jpg","",""
"null","../img/gs/318gs.jpg","null","reveal","image-keyboard-response","423","1413334","0.0-6.0-4.59","2805745","co38458","norming","","","","","","",""
"null","../img/tt/318tt.jpg","null","mooney2","image-keyboard-response","424","1415344","0.0-6.0-5.59","2805745","co38458","norming","","","","","","",""
"1521.769999999553","","","post_reveal_questions","survey-likert","425","1416869","0.0-6.0-6.59","2805745","co38458","norming","","","{""aha"":6}","[0]","../img/tt/318tt.jpg","",""
"null","<div style=""font-size:60px;""> </div>","null","fixation","html-keyboard-response","426","1417070","0.0-6.0-0.60","2805745","co38458","norming","","","","","","",""
"null","../img/tt/1363tt.jpg","null","mooney1","image-keyboard-response","427","1420081","0.0-6.0-1.60","2805745","co38458","norming","","","","","","",""
"5911.930000000168","","","post_mooney1_questions","survey-likert","428","1425997","0.0-6.0-2.60","2805745","co38458","norming","","","{""curiosity"":4,""confidence"":4}","[0,1]","../img/tt/1363tt.jpg","",""
"4229.975000000326","","","recognition","survey-text","429","1430229","0.0-6.0-3.60","2805745","co38458","norming","","","{""guess"":""potje saus""}","","../img/tt/1363tt.jpg","",""
"null","../img/gs/1363gs.jpg","null","reveal","image-keyboard-response","430","1432231","0.0-6.0-4.60","2805745","co38458","norming","","","","","","",""
"null","../img/tt/1363tt.jpg","null","mooney2","image-keyboard-response","431","1434237","0.0-6.0-5.60","2805745","co38458","norming","","","","","","",""
"2741.1250000004657","","","post_reveal_questions","survey-likert","432","1436981","0.0-6.0-6.60","2805745","co38458","norming","","","{""aha"":2}","[0]","../img/tt/1363tt.jpg","",""
"null","<div style=""font-size:60px;""> </div>","null","fixation","html-keyboard-response","433","1437184","0.0-6.0-0.61","2805745","co38458","norming","","","","","","",""
"null","../img/tt/1048tt.jpg","null","mooney1","image-keyboard-response","434","1440186","0.0-6.0-1.61","2805745","co38458","norming","","","","","","",""
"4529.284999998752","","","post_mooney1_questions","survey-likert","435","1444717","0.0-6.0-2.61","2805745","co38458","norming","","","{""curiosity"":6,""confidence"":1}","[0,1]","../img/tt/1048tt.jpg","",""
"5885.720000000205","","","recognition","survey-text","436","1450605","0.0-6.0-3.61","2805745","co38458","norming","","","{""guess"":""dier aan vijver""}","","../img/tt/1048tt.jpg","",""
"null","../img/gs/1048gs.jpg","null","reveal","image-keyboard-response","437","1452612","0.0-6.0-4.61","2805745","co38458","norming","","","","","","",""
"null","../img/tt/1048tt.jpg","null","mooney2","image-keyboard-response","438","1454614","0.0-6.0-5.61","2805745","co38458","norming","","","","","","",""
"2211.8449999997392","","","post_reveal_questions","survey-likert","439","1456829","0.0-6.0-6.61","2805745","co38458","norming","","","{""aha"":6}","[0]","../img/tt/1048tt.jpg","",""
"null","<div style=""font-size:60px;""> </div>","null","fixation","html-keyboard-response","440","1457039","0.0-6.0-0.62","2805745","co38458","norming","","","","","","",""
"null","../img/tt/126tt.jpg","null","mooney1","image-keyboard-response","441","1460043","0.0-6.0-1.62","2805745","co38458","norming","","","","","","",""
"2406.5399999998044","","","post_mooney1_questions","survey-likert","442","1462453","0.0-6.0-2.62","2805745","co38458","norming","","","{""curiosity"":5,""confidence"":4}","[0,1]","../img/tt/126tt.jpg","",""
"2030.230000000447","","","recognition","survey-text","443","1464485","0.0-6.0-3.62","2805745","co38458","norming","","","{""guess"":""koe""}","","../img/tt/126tt.jpg","",""
"null","../img/gs/126gs.jpg","null","reveal","image-keyboard-response","444","1466486","0.0-6.0-4.62","2805745","co38458","norming","","","","","","",""
"null","../img/tt/126tt.jpg","null","mooney2","image-keyboard-response","445","1468493","0.0-6.0-5.62","2805745","co38458","norming","","","","","","",""
"2196.909999998752","","","post_reveal_questions","survey-likert","446","1470693","0.0-6.0-6.62","2805745","co38458","norming","","","{""aha"":2}","[0]","../img/tt/126tt.jpg","",""
"null","<div style=""font-size:60px;""> </div>","null","fixation","html-keyboard-response","447","1470903","0.0-6.0-0.63","2805745","co38458","norming","","","","","","",""
"null","../img/tt/063tt.jpg","null","mooney1","image-keyboard-response","448","1473909","0.0-6.0-1.63","2805745","co38458","norming","","","","","","",""
"2174.6600000006147","","","post_mooney1_questions","survey-likert","449","1476085","0.0-6.0-2.63","2805745","co38458","norming","","","{""curiosity"":4,""confidence"":4}","[0,1]","../img/tt/063tt.jpg","",""
"2534.034999998752","","","recognition","survey-text","450","1478619","0.0-6.0-3.63","2805745","co38458","norming","","","{""guess"":""fax""}","","../img/tt/063tt.jpg","",""
"null","../img/gs/063gs.jpg","null","reveal","image-keyboard-response","451","1480620","0.0-6.0-4.63","2805745","co38458","norming","","","","","","",""
"null","../img/tt/063tt.jpg","null","mooney2","image-keyboard-response","452","1482629","0.0-6.0-5.63","2805745","co38458","norming","","","","","","",""
"2610.840000001248","","","post_reveal_questions","survey-likert","453","1485243","0.0-6.0-6.63","2805745","co38458","norming","","","{""aha"":5}","[0]","../img/tt/063tt.jpg","",""
"null","<div style=""font-size:60px;""> </div>","null","fixation","html-keyboard-response","454","1485445","0.0-6.0-0.64","2805745","co38458","norming","","","","","","",""
"null","../img/tt/497tt.jpg","null","mooney1","image-keyboard-response","455","1488451","0.0-6.0-1.64","2805745","co38458","norming","","","","","","",""
"3151.2700000004843","","","post_mooney1_questions","survey-likert","456","1491603","0.0-6.0-2.64","2805745","co38458","norming","","","{""curiosity"":6,""confidence"":1}","[0,1]","../img/tt/497tt.jpg","",""
"5021.979999999516","","","recognition","survey-text","457","1496627","0.0-6.0-3.64","2805745","co38458","norming","","","{""guess"":""Colloseum""}","","../img/tt/497tt.jpg","",""
"null","../img/gs/497gs.jpg","null","reveal","image-keyboard-response","458","1498635","0.0-6.0-4.64","2805745","co38458","norming","","","","","","",""
"null","../img/tt/497tt.jpg","null","mooney2","image-keyboard-response","459","1500637","0.0-6.0-5.64","2805745","co38458","norming","","","","","","",""
"2155.314999999944","","","post_reveal_questions","survey-likert","460","1502795","0.0-6.0-6.64","2805745","co38458","norming","","","{""aha"":6}","[0]","../img/tt/497tt.jpg","",""
"null","<div style=""font-size:60px;""> </div>","null","fixation","html-keyboard-response","461","1503006","0.0-6.0-0.65","2805745","co38458","norming","","","","","","",""
"null","../img/tt/442tt.jpg","null","mooney1","image-keyboard-response","462","1506012","0.0-6.0-1.65","2805745","co38458","norming","","","","","","",""
"4619.609999999637","","","post_mooney1_questions","survey-likert","463","1510635","0.0-6.0-2.65","2805745","co38458","norming","","","{""curiosity"":6,""confidence"":3}","[0,1]","../img/tt/442tt.jpg","",""
"3078.1549999993294","","","recognition","survey-text","464","1513715","0.0-6.0-3.65","2805745","co38458","norming","","","{""guess"":""cactus""}","","../img/tt/442tt.jpg","",""
"null","../img/gs/442gs.jpg","null","reveal","image-keyboard-response","465","1515716","0.0-6.0-4.65","2805745","co38458","norming","","","","","","",""
"null","../img/tt/442tt.jpg","null","mooney2","image-keyboard-response","466","1517718","0.0-6.0-5.65","2805745","co38458","norming","","","","","","",""
"2706.3849999995437","","","post_reveal_questions","survey-likert","467","1520427","0.0-6.0-6.65","2805745","co38458","norming","","","{""aha"":4}","[0]","../img/tt/442tt.jpg","",""
"null","<div style=""font-size:60px;""> </div>","null","fixation","html-keyboard-response","468","1520633","0.0-6.0-0.66","2805745","co38458","norming","","","","","","",""
"null","../img/tt/1043tt.jpg","null","mooney1","image-keyboard-response","469","1523637","0.0-6.0-1.66","2805745","co38458","norming","","","","","","",""
"3843.5549999992363","","","post_mooney1_questions","survey-likert","470","1527483","0.0-6.0-2.66","2805745","co38458","norming","","","{""curiosity"":6,""confidence"":1}","[0,1]","../img/tt/1043tt.jpg","",""
"2709.9550000003073","","","recognition","survey-text","471","1530195","0.0-6.0-3.66","2805745","co38458","norming","","","{""guess"":""auto""}","","../img/tt/1043tt.jpg","",""
"null","../img/gs/1043gs.jpg","null","reveal","image-keyboard-response","472","1532202","0.0-6.0-4.66","2805745","co38458","norming","","","","","","",""
"null","../img/tt/1043tt.jpg","null","mooney2","image-keyboard-response","473","1534207","0.0-6.0-5.66","2805745","co38458","norming","","","","","","",""
"2089.6900000006426","","","post_reveal_questions","survey-likert","474","1536299","0.0-6.0-6.66","2805745","co38458","norming","","","{""aha"":6}","[0]","../img/tt/1043tt.jpg","",""
"null","<div style=""font-size:60px;""> </div>","null","fixation","html-keyboard-response","475","1536505","0.0-6.0-0.67","2805745","co38458","norming","","","","","","",""
"null","../img/tt/056tt.jpg","null","mooney1","image-keyboard-response","476","1539511","0.0-6.0-1.67","2805745","co38458","norming","","","","","","",""
"2843.815000000177","","","post_mooney1_questions","survey-likert","477","1542358","0.0-6.0-2.67","2805745","co38458","norming","","","{""curiosity"":6,""confidence"":3}","[0,1]","../img/tt/056tt.jpg","",""
"3326.76500000176","","","recognition","survey-text","478","1545686","0.0-6.0-3.67","2805745","co38458","norming","","","{""guess"":""wolf""}","","../img/tt/056tt.jpg","",""
"null","../img/gs/056gs.jpg","null","reveal","image-keyboard-response","479","1547697","0.0-6.0-4.67","2805745","co38458","norming","","","","","","",""
"null","../img/tt/056tt.jpg","null","mooney2","image-keyboard-response","480","1549701","0.0-6.0-5.67","2805745","co38458","norming","","","","","","",""
"4150.2300000011455","","","post_reveal_questions","survey-likert","481","1553854","0.0-6.0-6.67","2805745","co38458","norming","","","{""aha"":4}","[0]","../img/tt/056tt.jpg","",""
"null","<div style=""font-size:60px;""> </div>","null","fixation","html-keyboard-response","482","1554058","0.0-6.0-0.68","2805745","co38458","norming","","","","","","",""
"null","../img/tt/1049tt.jpg","null","mooney1","image-keyboard-response","483","1557069","0.0-6.0-1.68","2805745","co38458","norming","","","","","","",""
"2685.814999999013","","","post_mooney1_questions","survey-likert","484","1559758","0.0-6.0-2.68","2805745","co38458","norming","","","{""curiosity"":6,""confidence"":2}","[0,1]","../img/tt/1049tt.jpg","",""
"4214.095000001369","","","recognition","survey-text","485","1563974","0.0-6.0-3.68","2805745","co38458","norming","","","{""guess"":""schaap""}","","../img/tt/1049tt.jpg","",""
"null","../img/gs/1049gs.jpg","null","reveal","image-keyboard-response","486","1565980","0.0-6.0-4.68","2805745","co38458","norming","","","","","","",""
"null","../img/tt/1049tt.jpg","null","mooney2","image-keyboard-response","487","1567983","0.0-6.0-5.68","2805745","co38458","norming","","","","","","",""
"3804.1749999991152","","","post_reveal_questions","survey-likert","488","1571790","0.0-6.0-6.68","2805745","co38458","norming","","","{""aha"":6}","[0]","../img/tt/1049tt.jpg","",""
"null","<div style=""font-size:60px;""> </div>","null","fixation","html-keyboard-response","489","1571991","0.0-6.0-0.69","2805745","co38458","norming","","","","","","",""
"null","../img/tt/1151tt.jpg","null","mooney1","image-keyboard-response","490","1574996","0.0-6.0-1.69","2805745","co38458","norming","","","","","","",""
"3718.264999999432","","","post_mooney1_questions","survey-likert","491","1578718","0.0-6.0-2.69","2805745","co38458","norming","","","{""curiosity"":6,""confidence"":0}","[0,1]","../img/tt/1151tt.jpg","",""
"4061.7099999999627","","","recognition","survey-text","492","1582781","0.0-6.0-3.69","2805745","co38458","norming","","","{""guess"":""miereneter""}","","../img/tt/1151tt.jpg","",""
"null","../img/gs/1151gs.jpg","null","reveal","image-keyboard-response","493","1584783","0.0-6.0-4.69","2805745","co38458","norming","","","","","","",""
"null","../img/tt/1151tt.jpg","null","mooney2","image-keyboard-response","494","1586786","0.0-6.0-5.69","2805745","co38458","norming","","","","","","",""
"2632.9050000002608","","","post_reveal_questions","survey-likert","495","1589422","0.0-6.0-6.69","2805745","co38458","norming","","","{""aha"":6}","[0]","../img/tt/1151tt.jpg","",""
"null","<div style=""font-size:60px;""> </div>","null","fixation","html-keyboard-response","496","1589626","0.0-6.0-0.70","2805745","co38458","norming","","","","","","",""
"null","../img/tt/1237tt.jpg","null","mooney1","image-keyboard-response","497","1592635","0.0-6.0-1.70","2805745","co38458","norming","","","","","","",""
"3671.0400000009686","","","post_mooney1_questions","survey-likert","498","1596310","0.0-6.0-2.70","2805745","co38458","norming","","","{""curiosity"":6,""confidence"":1}","[0,1]","../img/tt/1237tt.jpg","",""
"3205.9550000012387","","","recognition","survey-text","499","1599518","0.0-6.0-3.70","2805745","co38458","norming","","","{""guess"":""vijver""}","","../img/tt/1237tt.jpg","",""
"null","../img/gs/1237gs.jpg","null","reveal","image-keyboard-response","500","1601526","0.0-6.0-4.70","2805745","co38458","norming","","","","","","",""
"null","../img/tt/1237tt.jpg","null","mooney2","image-keyboard-response","501","1603528","0.0-6.0-5.70","2805745","co38458","norming","","","","","","",""
"3867.739999999758","","","post_reveal_questions","survey-likert","502","1607398","0.0-6.0-6.70","2805745","co38458","norming","","","{""aha"":4}","[0]","../img/tt/1237tt.jpg","",""
"null","<div style=""font-size:60px;""> </div>","null","fixation","html-keyboard-response","503","1607601","0.0-6.0-0.71","2805745","co38458","norming","","","","","","",""
"null","../img/tt/1283tt.jpg","null","mooney1","image-keyboard-response","504","1610610","0.0-6.0-1.71","2805745","co38458","norming","","","","","","",""
"6441.170000000158","","","post_mooney1_questions","survey-likert","505","1617054","0.0-6.0-2.71","2805745","co38458","norming","","","{""curiosity"":6,""confidence"":3}","[0,1]","../img/tt/1283tt.jpg","",""
"6949.94000000041","","","recognition","survey-text","506","1624006","0.0-6.0-3.71","2805745","co38458","norming","","","{""guess"":""leeuwenwelpjes""}","","../img/tt/1283tt.jpg","",""
"null","../img/gs/1283gs.jpg","null","reveal","image-keyboard-response","507","1626015","0.0-6.0-4.71","2805745","co38458","norming","","","","","","",""
"null","../img/tt/1283tt.jpg","null","mooney2","image-keyboard-response","508","1628016","0.0-6.0-5.71","2805745","co38458","norming","","","","","","",""
"2187.160000001313","","","post_reveal_questions","survey-likert","509","1630206","0.0-6.0-6.71","2805745","co38458","norming","","","{""aha"":5}","[0]","../img/tt/1283tt.jpg","",""
"null","<div style=""font-size:60px;""> </div>","null","fixation","html-keyboard-response","510","1630409","0.0-6.0-0.72","2805745","co38458","norming","","","","","","",""
"null","../img/tt/080tt.jpg","null","mooney1","image-keyboard-response","511","1633418","0.0-6.0-1.72","2805745","co38458","norming","","","","","","",""
"4216.974999999395","","","post_mooney1_questions","survey-likert","512","1637638","0.0-6.0-2.72","2805745","co38458","norming","","","{""curiosity"":6,""confidence"":2}","[0,1]","../img/tt/080tt.jpg","",""
"2717.6949999993667","","","recognition","survey-text","513","1640358","0.0-6.0-3.72","2805745","co38458","norming","","","{""guess"":""muis""}","","../img/tt/080tt.jpg","",""
"null","../img/gs/080gs.jpg","null","reveal","image-keyboard-response","514","1642360","0.0-6.0-4.72","2805745","co38458","norming","","","","","","",""
"null","../img/tt/080tt.jpg","null","mooney2","image-keyboard-response","515","1644361","0.0-6.0-5.72","2805745","co38458","norming","","","","","","",""
"2467.8550000009127","","","post_reveal_questions","survey-likert","516","1646830","0.0-6.0-6.72","2805745","co38458","norming","","","{""aha"":6}","[0]","../img/tt/080tt.jpg","",""
"null","<div style=""font-size:60px;""> </div>","null","fixation","html-keyboard-response","517","1647040","0.0-6.0-0.73","2805745","co38458","norming","","","","","","",""
"null","../img/tt/1126tt.jpg","null","mooney1","image-keyboard-response","518","1650045","0.0-6.0-1.73","2805745","co38458","norming","","","","","","",""
"2133.6900000006426","","","post_mooney1_questions","survey-likert","519","1652182","0.0-6.0-2.73","2805745","co38458","norming","","","{""curiosity"":4,""confidence"":5}","[0,1]","../img/tt/1126tt.jpg","",""
"4326.095000000438","","","recognition","survey-text","520","1656510","0.0-6.0-3.73","2805745","co38458","norming","","","{""guess"":""bergbeklimmer""}","","../img/tt/1126tt.jpg","",""
"null","../img/gs/1126gs.jpg","null","reveal","image-keyboard-response","521","1658514","0.0-6.0-4.73","2805745","co38458","norming","","","","","","",""
"null","../img/tt/1126tt.jpg","null","mooney2","image-keyboard-response","522","1660515","0.0-6.0-5.73","2805745","co38458","norming","","","","","","",""
"2279.914999999106","","","post_reveal_questions","survey-likert","523","1662798","0.0-6.0-6.73","2805745","co38458","norming","","","{""aha"":1}","[0]","../img/tt/1126tt.jpg","",""
"null","<div style=""font-size:60px;""> </div>","null","fixation","html-keyboard-response","524","1663002","0.0-6.0-0.74","2805745","co38458","norming","","","","","","",""
"null","../img/tt/1262tt.jpg","null","mooney1","image-keyboard-response","525","1666009","0.0-6.0-1.74","2805745","co38458","norming","","","","","","",""
"2826.2050000012387","","","post_mooney1_questions","survey-likert","526","1668838","0.0-6.0-2.74","2805745","co38458","norming","","","{""curiosity"":6,""confidence"":1}","[0,1]","../img/tt/1262tt.jpg","",""
"2361.8599999989383","","","recognition","survey-text","527","1671206","0.0-6.0-3.74","2805745","co38458","norming","","","{""guess"":""dier""}","","../img/tt/1262tt.jpg","",""
"null","../img/gs/1262gs.jpg","null","reveal","image-keyboard-response","528","1673217","0.0-6.0-4.74","2805745","co38458","norming","","","","","","",""
"null","../img/tt/1262tt.jpg","null","mooney2","image-keyboard-response","529","1675219","0.0-6.0-5.74","2805745","co38458","norming","","","","","","",""
"2007.4850000001024","","","post_reveal_questions","survey-likert","530","1677230","0.0-6.0-6.74","2805745","co38458","norming","","","{""aha"":5}","[0]","../img/tt/1262tt.jpg","",""
"null","<div style=""font-size:60px;""> </div>","null","fixation","html-keyboard-response","531","1677431","0.0-6.0-0.75","2805745","co38458","norming","","","","","","",""
"null","../img/tt/580tt.jpg","null","mooney1","image-keyboard-response","532","1680441","0.0-6.0-1.75","2805745","co38458","norming","","","","","","",""
"3148.035000000149","","","post_mooney1_questions","survey-likert","533","1683590","0.0-6.0-2.75","2805745","co38458","norming","","","{""curiosity"":6,""confidence"":0}","[0,1]","../img/tt/580tt.jpg","",""
"757.7250000012573","","","recognition","survey-text","534","1684350","0.0-6.0-3.75","2805745","co38458","norming","","","{""guess"":""""}","","../img/tt/580tt.jpg","",""
"null","../img/gs/580gs.jpg","null","reveal","image-keyboard-response","535","1686354","0.0-6.0-4.75","2805745","co38458","norming","","","","","","",""
"null","../img/tt/580tt.jpg","null","mooney2","image-keyboard-response","536","1688355","0.0-6.0-5.75","2805745","co38458","norming","","","","","","",""
"2257.6600000010803","","","post_reveal_questions","survey-likert","537","1690614","0.0-6.0-6.75","2805745","co38458","norming","","","{""aha"":6}","[0]","../img/tt/580tt.jpg","",""
"null","<div style=""font-size:60px;""> </div>","null","fixation","html-keyboard-response","538","1690815","0.0-6.0-0.76","2805745","co38458","norming","","","","","","",""
"null","../img/tt/078tt.jpg","null","mooney1","image-keyboard-response","539","1693821","0.0-6.0-1.76","2805745","co38458","norming","","","","","","",""
"4206.129999998724","","","post_mooney1_questions","survey-likert","540","1698030","0.0-6.0-2.76","2805745","co38458","norming","","","{""curiosity"":6,""confidence"":3}","[0,1]","../img/tt/078tt.jpg","",""
"3270.0400000012014","","","recognition","survey-text","541","1701302","0.0-6.0-3.76","2805745","co38458","norming","","","{""guess"":""aardbei""}","","../img/tt/078tt.jpg","",""
"null","../img/gs/078gs.jpg","null","reveal","image-keyboard-response","542","1703305","0.0-6.0-4.76","2805745","co38458","norming","","","","","","",""
"null","../img/tt/078tt.jpg","null","mooney2","image-keyboard-response","543","1705314","0.0-6.0-5.76","2805745","co38458","norming","","","","","","",""
"2033.4300000013318","","","post_reveal_questions","survey-likert","544","1707350","0.0-6.0-6.76","2805745","co38458","norming","","","{""aha"":5}","[0]","../img/tt/078tt.jpg","",""
"null","<div style=""font-size:60px;""> </div>","null","fixation","html-keyboard-response","545","1707553","0.0-6.0-0.77","2805745","co38458","norming","","","","","","",""
"null","../img/tt/1063tt.jpg","null","mooney1","image-keyboard-response","546","1710560","0.0-6.0-1.77","2805745","co38458","norming","","","","","","",""
"2427.045000000391","","","post_mooney1_questions","survey-likert","547","1712990","0.0-6.0-2.77","2805745","co38458","norming","","","{""curiosity"":6,""confidence"":2}","[0,1]","../img/tt/1063tt.jpg","",""
"2886.0149999998976","","","recognition","survey-text","548","1715878","0.0-6.0-3.77","2805745","co38458","norming","","","{""guess"":""olifant""}","","../img/tt/1063tt.jpg","",""
"null","../img/gs/1063gs.jpg","null","reveal","image-keyboard-response","549","1717879","0.0-6.0-4.77","2805745","co38458","norming","","","","","","",""
"null","../img/tt/1063tt.jpg","null","mooney2","image-keyboard-response","550","1719884","0.0-6.0-5.77","2805745","co38458","norming","","","","","","",""
"4999.2050000000745","","","post_reveal_questions","survey-likert","551","1724881","0.0-6.0-6.77","2805745","co38458","norming","","","{""aha"":5}","[0]","../img/tt/1063tt.jpg","",""
