"rt","stimulus","key_press","test_part","trial_type","trial_index","time_elapsed","internal_node_id","totalTime","subject","experiment_name","button_pressed","success","responses","question_order","currentStim","old","correct"
"3711.645000000317","Welcome to the experiment. This is an online experiment so please don't close the tab/window until we say goodbye.  Press any key to begin.","32","instructions","html-keyboard-response","0","3726","0.0-0.0","2668452","co38368","norming","","","","","","",""
"34654.7700000001","<div style='word-wrap: break-word; width: 900px'><h3>Please consider this information carefully before deciding whether to participate in this research</h3><ul style='text-align: left; font-size: .8em;'><li><b>Purpose of the research</b>: To examine how people process images.</li><li><b>What you will do in this research</b>:  Stimuli (images) will be presented on the computer and you will be asked different questions about them.</li><li><b>Time required</b>: Participation will take between 45 and 60 minutes to complete.</li><li><b>Risks</b>:  There are no anticipated risks associated with participating in this study. The effects of participating should be comparable to those you would experience from viewing a computer monitor for 30 minutes and using a mouse or keyboard.</li><li><b>Benefits</b>:  This study provides no benefits to you individually except for the credit. The study provides important information about the nature of perception and learning.</li><li><b>Confidentiality</b>:  Your participation in this study will remain confidential. No personally identifiable information will be associated with your data. Your de-identified data may be shared with other researchers and used in future projects.</li><li><b>Participation and withdrawal</b>:  Your participation in this study is completely voluntary and you may refuse to participate or you may choose to withdraw at any time without penalty.</li><li><b>How to contact the researchers</b>: If you have questions or concerns about your participation or payment, or want to request a summary of research findings, please contact Sander Van de Cruys (KU Leuven), at sander.vandecruys@kuleuven.be.</li></ul><p>The nature and purpose of this research have been sufficiently explained and I agree to participate in this study.  I understand that I am free to withdraw at any time without incurring any penalty.</p><p>Please consent by clicking the button below to continue. Otherwise, please exit the study at this time.</p></div>","","instructions","html-button-response","1","38380","0.0-1.0","2668452","co38368","norming","0","","","","","",""
"","","","instructions","fullscreen","2","44515","0.0-2.0","2668452","co38368","norming","","true","","","","",""
"28829.37000000038","","","sona","survey-html-form","3","73351","0.0-3.0","2668452","co38368","norming","","","[{""name"":""sonaid"",""value"":""38368""},{""name"":""debrief"",""value"":""no""},{""name"":""datajoin"",""value"":""yes""}]","","","",""
"100275.76999999928","<div style='word-wrap: break-word; width: 900px'><h3>Instructions</h3><p>This experiment will have 3 parts. In the first part you will see a series of distorted images like the one below on the left. As you can see in the righthand image, the distorted images are derived from actual photographs. In what follows, you will <strong>briefly</strong> be presented with <strong>only</strong> the distorted image.</p> <div style='float: left; margin-right: 20px;'><img src='../img/018tt.jpg' height='250' width='250'></img></div><div style='float: right; margin-left: 20px;'><img src='../img/018gs.jpg' height='250' width='250'></img></div><p>Subsequently you will be asked a few questions about the image: One question on how <strong>curious</strong> you are about the solution and one on how <strong>confident</strong> you are that you know the solution.</p>Next, we ask you to make a guess on what is in the image. Note that it is OK to name just the <strong>basic level category</strong>. For example when you see a parrot in the image, 'parrot' will obviously be a correct answer but also correct is 'bird'. However, 'animal' will <strong>not</strong> be counted as a correct response. For the example above, 'rose' would be correct or 'flower', but not 'plant'. When soccer players are depicted, 'soccer', 'football', 'soccer players' will be correct, but not 'humans', 'outdoors', or 'sports'. You do not need to describe the image in full, just name the main object in it <strong>in one or two words</strong>. All images depict objects from one of the following broad level categories: animals, inanimate objects, plants, sports, vehicles, and food. Recognizing means knowing <strong>more</strong> than these broad labels for a given image. But we always encourage you to <strong>make a guess</strong> if you can. Note that you are allowed to use <strong>Dutch and English</strong> in your answers, whatever comes easiest for you.</p><p>Press any key to continue.</p></div>","32","instructions","html-keyboard-response","4","173624","0.0-4.0","2668452","co38368","norming","","","","","","",""
"131150.36500000046","<div style='word-wrap: break-word; width: 900px'><h3>Instructions</h3> <p>Next, the solution image will be revealed to you and you'll be asked to indicate how strong your <strong>aha-experience</strong> was after seeing the solution. This describes the positive feeling of the 'click' you sometimes experience, when the pieces of the 'puzzle' fall together and you suddenly have 'insight' in the image.</p><img src='aha.jpg' height='188' width='250'></img><p>Note that there are no right or wrong answers. We are interested in what <strong>you</strong> see in the image and how <strong>you</strong> feel about it.</p><p>Press any key to start the experiment.</p></div>","32","instructions","html-keyboard-response","5","304778","0.0-5.0","2668452","co38368","norming","","","","","","",""
"null","<div style=""font-size:60px;""> </div>","null","fixation","html-keyboard-response","6","304982","0.0-6.0-0.0","2668452","co38368","norming","","","","","","",""
"null","../img/tt/1250tt.jpg","null","mooney1","image-keyboard-response","7","307988","0.0-6.0-1.0","2668452","co38368","norming","","","","","","",""
"8835.759999999893","","","post_mooney1_questions","survey-likert","8","316825","0.0-6.0-2.0","2668452","co38368","norming","","","{""curiosity"":4,""confidence"":1}","[0,1]","../img/tt/1250tt.jpg","",""
"9381.330000000133","","","recognition","survey-text","9","326208","0.0-6.0-3.0","2668452","co38368","norming","","","{""guess"":""""}","","../img/tt/1250tt.jpg","",""
"null","../img/gs/1250gs.jpg","null","reveal","image-keyboard-response","10","328217","0.0-6.0-4.0","2668452","co38368","norming","","","","","","",""
"null","../img/tt/1250tt.jpg","null","mooney2","image-keyboard-response","11","330220","0.0-6.0-5.0","2668452","co38368","norming","","","","","","",""
"5251.584999999963","","","post_reveal_questions","survey-likert","12","335472","0.0-6.0-6.0","2668452","co38368","norming","","","{""aha"":4}","[0]","../img/tt/1250tt.jpg","",""
"null","<div style=""font-size:60px;""> </div>","null","fixation","html-keyboard-response","13","335681","0.0-6.0-0.1","2668452","co38368","norming","","","","","","",""
"null","../img/tt/1055tt.jpg","null","mooney1","image-keyboard-response","14","338688","0.0-6.0-1.1","2668452","co38368","norming","","","","","","",""
"5926.795000000333","","","post_mooney1_questions","survey-likert","15","344617","0.0-6.0-2.1","2668452","co38368","norming","","","{""curiosity"":5,""confidence"":1}","[0,1]","../img/tt/1055tt.jpg","",""
"9630.065000000293","","","recognition","survey-text","16","354248","0.0-6.0-3.1","2668452","co38368","norming","","","{""guess"":""sunset""}","","../img/tt/1055tt.jpg","",""
"null","../img/gs/1055gs.jpg","null","reveal","image-keyboard-response","17","356250","0.0-6.0-4.1","2668452","co38368","norming","","","","","","",""
"null","../img/tt/1055tt.jpg","null","mooney2","image-keyboard-response","18","358254","0.0-6.0-5.1","2668452","co38368","norming","","","","","","",""
"1912.1149999991758","","","post_reveal_questions","survey-likert","19","360168","0.0-6.0-6.1","2668452","co38368","norming","","","{""aha"":5}","[0]","../img/tt/1055tt.jpg","",""
"null","<div style=""font-size:60px;""> </div>","null","fixation","html-keyboard-response","20","360377","0.0-6.0-0.2","2668452","co38368","norming","","","","","","",""
"null","../img/tt/1078tt.jpg","null","mooney1","image-keyboard-response","21","363385","0.0-6.0-1.2","2668452","co38368","norming","","","","","","",""
"4556.780000000843","","","post_mooney1_questions","survey-likert","22","367953","0.0-6.0-2.2","2668452","co38368","norming","","","{""curiosity"":3,""confidence"":3}","[0,1]","../img/tt/1078tt.jpg","",""
"8414.325000000652","","","recognition","survey-text","23","376369","0.0-6.0-3.2","2668452","co38368","norming","","","{""guess"":""man ""}","","../img/tt/1078tt.jpg","",""
"null","../img/gs/1078gs.jpg","null","reveal","image-keyboard-response","24","378370","0.0-6.0-4.2","2668452","co38368","norming","","","","","","",""
"null","../img/tt/1078tt.jpg","null","mooney2","image-keyboard-response","25","380374","0.0-6.0-5.2","2668452","co38368","norming","","","","","","",""
"3449.094999999972","","","post_reveal_questions","survey-likert","26","383825","0.0-6.0-6.2","2668452","co38368","norming","","","{""aha"":5}","[0]","../img/tt/1078tt.jpg","",""
"null","<div style=""font-size:60px;""> </div>","null","fixation","html-keyboard-response","27","384028","0.0-6.0-0.3","2668452","co38368","norming","","","","","","",""
"null","../img/tt/1241tt.jpg","null","mooney1","image-keyboard-response","28","387034","0.0-6.0-1.3","2668452","co38368","norming","","","","","","",""
"3740.464999999851","","","post_mooney1_questions","survey-likert","29","390777","0.0-6.0-2.3","2668452","co38368","norming","","","{""curiosity"":3,""confidence"":3}","[0,1]","../img/tt/1241tt.jpg","",""
"1846.21499999956","","","recognition","survey-text","30","392625","0.0-6.0-3.3","2668452","co38368","norming","","","{""guess"":""kat""}","","../img/tt/1241tt.jpg","",""
"null","../img/gs/1241gs.jpg","null","reveal","image-keyboard-response","31","394634","0.0-6.0-4.3","2668452","co38368","norming","","","","","","",""
"null","../img/tt/1241tt.jpg","null","mooney2","image-keyboard-response","32","396643","0.0-6.0-5.3","2668452","co38368","norming","","","","","","",""
"2115.1599999993923","","","post_reveal_questions","survey-likert","33","398761","0.0-6.0-6.3","2668452","co38368","norming","","","{""aha"":4}","[0]","../img/tt/1241tt.jpg","",""
"null","<div style=""font-size:60px;""> </div>","null","fixation","html-keyboard-response","34","398972","0.0-6.0-0.4","2668452","co38368","norming","","","","","","",""
"null","../img/tt/1159tt.jpg","null","mooney1","image-keyboard-response","35","401984","0.0-6.0-1.4","2668452","co38368","norming","","","","","","",""
"6112.245000000228","","","post_mooney1_questions","survey-likert","36","408097","0.0-6.0-2.4","2668452","co38368","norming","","","{""curiosity"":6,""confidence"":0}","[0,1]","../img/tt/1159tt.jpg","",""
"1150.1500000004307","","","recognition","survey-text","37","409249","0.0-6.0-3.4","2668452","co38368","norming","","","{""guess"":""""}","","../img/tt/1159tt.jpg","",""
"null","../img/gs/1159gs.jpg","null","reveal","image-keyboard-response","38","411255","0.0-6.0-4.4","2668452","co38368","norming","","","","","","",""
"null","../img/tt/1159tt.jpg","null","mooney2","image-keyboard-response","39","413261","0.0-6.0-5.4","2668452","co38368","norming","","","","","","",""
"2610.834999999497","","","post_reveal_questions","survey-likert","40","415873","0.0-6.0-6.4","2668452","co38368","norming","","","{""aha"":6}","[0]","../img/tt/1159tt.jpg","",""
"null","<div style=""font-size:60px;""> </div>","null","fixation","html-keyboard-response","41","416077","0.0-6.0-0.5","2668452","co38368","norming","","","","","","",""
"null","../img/tt/1066tt.jpg","null","mooney1","image-keyboard-response","42","419089","0.0-6.0-1.5","2668452","co38368","norming","","","","","","",""
"4237.665000000561","","","post_mooney1_questions","survey-likert","43","423329","0.0-6.0-2.5","2668452","co38368","norming","","","{""curiosity"":3,""confidence"":3}","[0,1]","../img/tt/1066tt.jpg","",""
"1502.12999999983","","","recognition","survey-text","44","424833","0.0-6.0-3.5","2668452","co38368","norming","","","{""guess"":""bus""}","","../img/tt/1066tt.jpg","",""
"null","../img/gs/1066gs.jpg","null","reveal","image-keyboard-response","45","426842","0.0-6.0-4.5","2668452","co38368","norming","","","","","","",""
"null","../img/tt/1066tt.jpg","null","mooney2","image-keyboard-response","46","428847","0.0-6.0-5.5","2668452","co38368","norming","","","","","","",""
"2154.140000000596","","","post_reveal_questions","survey-likert","47","431003","0.0-6.0-6.5","2668452","co38368","norming","","","{""aha"":2}","[0]","../img/tt/1066tt.jpg","",""
"null","<div style=""font-size:60px;""> </div>","null","fixation","html-keyboard-response","48","431205","0.0-6.0-0.6","2668452","co38368","norming","","","","","","",""
"null","../img/tt/1061tt.jpg","null","mooney1","image-keyboard-response","49","434208","0.0-6.0-1.6","2668452","co38368","norming","","","","","","",""
"6104.554999999935","","","post_mooney1_questions","survey-likert","50","440315","0.0-6.0-2.6","2668452","co38368","norming","","","{""curiosity"":4,""confidence"":2}","[0,1]","../img/tt/1061tt.jpg","",""
"2326.2050000003073","","","recognition","survey-text","51","442643","0.0-6.0-3.6","2668452","co38368","norming","","","{""guess"":""park ""}","","../img/tt/1061tt.jpg","",""
"null","../img/gs/1061gs.jpg","null","reveal","image-keyboard-response","52","444645","0.0-6.0-4.6","2668452","co38368","norming","","","","","","",""
"null","../img/tt/1061tt.jpg","null","mooney2","image-keyboard-response","53","446649","0.0-6.0-5.6","2668452","co38368","norming","","","","","","",""
"1936.490000000049","","","post_reveal_questions","survey-likert","54","448587","0.0-6.0-6.6","2668452","co38368","norming","","","{""aha"":3}","[0]","../img/tt/1061tt.jpg","",""
"null","<div style=""font-size:60px;""> </div>","null","fixation","html-keyboard-response","55","448791","0.0-6.0-0.7","2668452","co38368","norming","","","","","","",""
"null","../img/tt/270tt.jpg","null","mooney1","image-keyboard-response","56","451795","0.0-6.0-1.7","2668452","co38368","norming","","","","","","",""
"3181.4549999999","","","post_mooney1_questions","survey-likert","57","454979","0.0-6.0-2.7","2668452","co38368","norming","","","{""curiosity"":6,""confidence"":0}","[0,1]","../img/tt/270tt.jpg","",""
"734.0850000000792","","","recognition","survey-text","58","455715","0.0-6.0-3.7","2668452","co38368","norming","","","{""guess"":""""}","","../img/tt/270tt.jpg","",""
"null","../img/gs/270gs.jpg","null","reveal","image-keyboard-response","59","457718","0.0-6.0-4.7","2668452","co38368","norming","","","","","","",""
"null","../img/tt/270tt.jpg","null","mooney2","image-keyboard-response","60","459724","0.0-6.0-5.7","2668452","co38368","norming","","","","","","",""
"1580.5399999999208","","","post_reveal_questions","survey-likert","61","461307","0.0-6.0-6.7","2668452","co38368","norming","","","{""aha"":6}","[0]","../img/tt/270tt.jpg","",""
"null","<div style=""font-size:60px;""> </div>","null","fixation","html-keyboard-response","62","461508","0.0-6.0-0.8","2668452","co38368","norming","","","","","","",""
"null","../img/tt/1027tt.jpg","null","mooney1","image-keyboard-response","63","464517","0.0-6.0-1.8","2668452","co38368","norming","","","","","","",""
"5419.685000000754","","","post_mooney1_questions","survey-likert","64","469939","0.0-6.0-2.8","2668452","co38368","norming","","","{""curiosity"":4,""confidence"":1}","[0,1]","../img/tt/1027tt.jpg","",""
"1517.9200000002747","","","recognition","survey-text","65","471459","0.0-6.0-3.8","2668452","co38368","norming","","","{""guess"":""koe""}","","../img/tt/1027tt.jpg","",""
"null","../img/gs/1027gs.jpg","null","reveal","image-keyboard-response","66","473460","0.0-6.0-4.8","2668452","co38368","norming","","","","","","",""
"null","../img/tt/1027tt.jpg","null","mooney2","image-keyboard-response","67","475470","0.0-6.0-5.8","2668452","co38368","norming","","","","","","",""
"2523.304999999702","","","post_reveal_questions","survey-likert","68","477995","0.0-6.0-6.8","2668452","co38368","norming","","","{""aha"":1}","[0]","../img/tt/1027tt.jpg","",""
"null","<div style=""font-size:60px;""> </div>","null","fixation","html-keyboard-response","69","478205","0.0-6.0-0.9","2668452","co38368","norming","","","","","","",""
"null","../img/tt/112tt.jpg","null","mooney1","image-keyboard-response","70","481208","0.0-6.0-1.9","2668452","co38368","norming","","","","","","",""
"3728.6749999994063","","","post_mooney1_questions","survey-likert","71","484939","0.0-6.0-2.9","2668452","co38368","norming","","","{""curiosity"":5,""confidence"":1}","[0,1]","../img/tt/112tt.jpg","",""
"1510.3649999991758","","","recognition","survey-text","72","486451","0.0-6.0-3.9","2668452","co38368","norming","","","{""guess"":""fles""}","","../img/tt/112tt.jpg","",""
"null","../img/gs/112gs.jpg","null","reveal","image-keyboard-response","73","488455","0.0-6.0-4.9","2668452","co38368","norming","","","","","","",""
"null","../img/tt/112tt.jpg","null","mooney2","image-keyboard-response","74","490461","0.0-6.0-5.9","2668452","co38368","norming","","","","","","",""
"1836.7899999993388","","","post_reveal_questions","survey-likert","75","492300","0.0-6.0-6.9","2668452","co38368","norming","","","{""aha"":6}","[0]","../img/tt/112tt.jpg","",""
"null","<div style=""font-size:60px;""> </div>","null","fixation","html-keyboard-response","76","492503","0.0-6.0-0.10","2668452","co38368","norming","","","","","","",""
"null","../img/tt/436tt.jpg","null","mooney1","image-keyboard-response","77","495508","0.0-6.0-1.10","2668452","co38368","norming","","","","","","",""
"3293.375000000233","","","post_mooney1_questions","survey-likert","78","498805","0.0-6.0-2.10","2668452","co38368","norming","","","{""curiosity"":6,""confidence"":0}","[0,1]","../img/tt/436tt.jpg","",""
"606.1800000006915","","","recognition","survey-text","79","499412","0.0-6.0-3.10","2668452","co38368","norming","","","{""guess"":""""}","","../img/tt/436tt.jpg","",""
"null","../img/gs/436gs.jpg","null","reveal","image-keyboard-response","80","501416","0.0-6.0-4.10","2668452","co38368","norming","","","","","","",""
"null","../img/tt/436tt.jpg","null","mooney2","image-keyboard-response","81","503425","0.0-6.0-5.10","2668452","co38368","norming","","","","","","",""
"1368.9500000000698","","","post_reveal_questions","survey-likert","82","504796","0.0-6.0-6.10","2668452","co38368","norming","","","{""aha"":5}","[0]","../img/tt/436tt.jpg","",""
"null","<div style=""font-size:60px;""> </div>","null","fixation","html-keyboard-response","83","505004","0.0-6.0-0.11","2668452","co38368","norming","","","","","","",""
"null","../img/tt/481tt.jpg","null","mooney1","image-keyboard-response","84","508012","0.0-6.0-1.11","2668452","co38368","norming","","","","","","",""
"4119.665000000154","","","post_mooney1_questions","survey-likert","85","512133","0.0-6.0-2.11","2668452","co38368","norming","","","{""curiosity"":5,""confidence"":1}","[0,1]","../img/tt/481tt.jpg","",""
"1837.8099999999977","","","recognition","survey-text","86","513972","0.0-6.0-3.11","2668452","co38368","norming","","","{""guess"":""hond""}","","../img/tt/481tt.jpg","",""
"null","../img/gs/481gs.jpg","null","reveal","image-keyboard-response","87","515973","0.0-6.0-4.11","2668452","co38368","norming","","","","","","",""
"null","../img/tt/481tt.jpg","null","mooney2","image-keyboard-response","88","517978","0.0-6.0-5.11","2668452","co38368","norming","","","","","","",""
"3993.494999999646","","","post_reveal_questions","survey-likert","89","521972","0.0-6.0-6.11","2668452","co38368","norming","","","{""aha"":4}","[0]","../img/tt/481tt.jpg","",""
"null","<div style=""font-size:60px;""> </div>","null","fixation","html-keyboard-response","90","522174","0.0-6.0-0.12","2668452","co38368","norming","","","","","","",""
"null","../img/tt/435tt.jpg","null","mooney1","image-keyboard-response","91","525178","0.0-6.0-1.12","2668452","co38368","norming","","","","","","",""
"4432.214999999851","","","post_mooney1_questions","survey-likert","92","529613","0.0-6.0-2.12","2668452","co38368","norming","","","{""curiosity"":5,""confidence"":1}","[0,1]","../img/tt/435tt.jpg","",""
"1655.734999999404","","","recognition","survey-text","93","531270","0.0-6.0-3.12","2668452","co38368","norming","","","{""guess"":""boek ""}","","../img/tt/435tt.jpg","",""
"null","../img/gs/435gs.jpg","null","reveal","image-keyboard-response","94","533277","0.0-6.0-4.12","2668452","co38368","norming","","","","","","",""
"null","../img/tt/435tt.jpg","null","mooney2","image-keyboard-response","95","535279","0.0-6.0-5.12","2668452","co38368","norming","","","","","","",""
"2587.169999999809","","","post_reveal_questions","survey-likert","96","537868","0.0-6.0-6.12","2668452","co38368","norming","","","{""aha"":6}","[0]","../img/tt/435tt.jpg","",""
"null","<div style=""font-size:60px;""> </div>","null","fixation","html-keyboard-response","97","538075","0.0-6.0-0.13","2668452","co38368","norming","","","","","","",""
"null","../img/tt/082tt.jpg","null","mooney1","image-keyboard-response","98","541082","0.0-6.0-1.13","2668452","co38368","norming","","","","","","",""
"4703.4000000003725","","","post_mooney1_questions","survey-likert","99","545789","0.0-6.0-2.13","2668452","co38368","norming","","","{""curiosity"":6,""confidence"":0}","[0,1]","../img/tt/082tt.jpg","",""
"942.175000000163","","","recognition","survey-text","100","546732","0.0-6.0-3.13","2668452","co38368","norming","","","{""guess"":""""}","","../img/tt/082tt.jpg","",""
"null","../img/gs/082gs.jpg","null","reveal","image-keyboard-response","101","548734","0.0-6.0-4.13","2668452","co38368","norming","","","","","","",""
"null","../img/tt/082tt.jpg","null","mooney2","image-keyboard-response","102","550737","0.0-6.0-5.13","2668452","co38368","norming","","","","","","",""
"19657.739999999758","","","post_reveal_questions","survey-likert","103","570397","0.0-6.0-6.13","2668452","co38368","norming","","","{""aha"":6}","[0]","../img/tt/082tt.jpg","",""
"null","<div style=""font-size:60px;""> </div>","null","fixation","html-keyboard-response","104","570603","0.0-6.0-0.14","2668452","co38368","norming","","","","","","",""
"null","../img/tt/358tt.jpg","null","mooney1","image-keyboard-response","105","573605","0.0-6.0-1.14","2668452","co38368","norming","","","","","","",""
"3716.815000000759","","","post_mooney1_questions","survey-likert","106","577325","0.0-6.0-2.14","2668452","co38368","norming","","","{""curiosity"":5,""confidence"":1}","[0,1]","../img/tt/358tt.jpg","",""
"1622.1750000003958","","","recognition","survey-text","107","578949","0.0-6.0-3.14","2668452","co38368","norming","","","{""guess"":""hond ""}","","../img/tt/358tt.jpg","",""
"null","../img/gs/358gs.jpg","null","reveal","image-keyboard-response","108","580950","0.0-6.0-4.14","2668452","co38368","norming","","","","","","",""
"null","../img/tt/358tt.jpg","null","mooney2","image-keyboard-response","109","582957","0.0-6.0-5.14","2668452","co38368","norming","","","","","","",""
"3141.454999999958","","","post_reveal_questions","survey-likert","110","586101","0.0-6.0-6.14","2668452","co38368","norming","","","{""aha"":5}","[0]","../img/tt/358tt.jpg","",""
"null","<div style=""font-size:60px;""> </div>","null","fixation","html-keyboard-response","111","586310","0.0-6.0-0.15","2668452","co38368","norming","","","","","","",""
"null","../img/tt/1236tt.jpg","null","mooney1","image-keyboard-response","112","589315","0.0-6.0-1.15","2668452","co38368","norming","","","","","","",""
"3926.730000000214","","","post_mooney1_questions","survey-likert","113","593245","0.0-6.0-2.15","2668452","co38368","norming","","","{""curiosity"":6,""confidence"":0}","[0,1]","../img/tt/1236tt.jpg","",""
"517.7899999999208","","","recognition","survey-text","114","593765","0.0-6.0-3.15","2668452","co38368","norming","","","{""guess"":""""}","","../img/tt/1236tt.jpg","",""
"null","../img/gs/1236gs.jpg","null","reveal","image-keyboard-response","115","595769","0.0-6.0-4.15","2668452","co38368","norming","","","","","","",""
"null","../img/tt/1236tt.jpg","null","mooney2","image-keyboard-response","116","597771","0.0-6.0-5.15","2668452","co38368","norming","","","","","","",""
"2143.5050000000047","","","post_reveal_questions","survey-likert","117","599916","0.0-6.0-6.15","2668452","co38368","norming","","","{""aha"":6}","[0]","../img/tt/1236tt.jpg","",""
"null","<div style=""font-size:60px;""> </div>","null","fixation","html-keyboard-response","118","600118","0.0-6.0-0.16","2668452","co38368","norming","","","","","","",""
"null","../img/tt/098tt.jpg","null","mooney1","image-keyboard-response","119","603128","0.0-6.0-1.16","2668452","co38368","norming","","","","","","",""
"5051.344999999972","","","post_mooney1_questions","survey-likert","120","608181","0.0-6.0-2.16","2668452","co38368","norming","","","{""curiosity"":6,""confidence"":0}","[0,1]","../img/tt/098tt.jpg","",""
"854.1949999998324","","","recognition","survey-text","121","609036","0.0-6.0-3.16","2668452","co38368","norming","","","{""guess"":""""}","","../img/tt/098tt.jpg","",""
"null","../img/gs/098gs.jpg","null","reveal","image-keyboard-response","122","611038","0.0-6.0-4.16","2668452","co38368","norming","","","","","","",""
"null","../img/tt/098tt.jpg","null","mooney2","image-keyboard-response","123","613040","0.0-6.0-5.16","2668452","co38368","norming","","","","","","",""
"3073.129999999772","","","post_reveal_questions","survey-likert","124","616116","0.0-6.0-6.16","2668452","co38368","norming","","","{""aha"":6}","[0]","../img/tt/098tt.jpg","",""
"null","<div style=""font-size:60px;""> </div>","null","fixation","html-keyboard-response","125","616318","0.0-6.0-0.17","2668452","co38368","norming","","","","","","",""
"null","../img/tt/1202tt.jpg","null","mooney1","image-keyboard-response","126","619326","0.0-6.0-1.17","2668452","co38368","norming","","","","","","",""
"4331.694999999832","","","post_mooney1_questions","survey-likert","127","623660","0.0-6.0-2.17","2668452","co38368","norming","","","{""curiosity"":6,""confidence"":0}","[0,1]","../img/tt/1202tt.jpg","",""
"2334.1350000001257","","","recognition","survey-text","128","625996","0.0-6.0-3.17","2668452","co38368","norming","","","{""guess"":""""}","","../img/tt/1202tt.jpg","",""
"null","../img/gs/1202gs.jpg","null","reveal","image-keyboard-response","129","627998","0.0-6.0-4.17","2668452","co38368","norming","","","","","","",""
"null","../img/tt/1202tt.jpg","null","mooney2","image-keyboard-response","130","629999","0.0-6.0-5.17","2668452","co38368","norming","","","","","","",""
"1899.844999999972","","","post_reveal_questions","survey-likert","131","631900","0.0-6.0-6.17","2668452","co38368","norming","","","{""aha"":6}","[0]","../img/tt/1202tt.jpg","",""
"null","<div style=""font-size:60px;""> </div>","null","fixation","html-keyboard-response","132","632109","0.0-6.0-0.18","2668452","co38368","norming","","","","","","",""
"null","../img/tt/1189tt.jpg","null","mooney1","image-keyboard-response","133","635114","0.0-6.0-1.18","2668452","co38368","norming","","","","","","",""
"4063.235000000568","","","post_mooney1_questions","survey-likert","134","639180","0.0-6.0-2.18","2668452","co38368","norming","","","{""curiosity"":6,""confidence"":1}","[0,1]","../img/tt/1189tt.jpg","",""
"1958.014999999199","","","recognition","survey-text","135","641140","0.0-6.0-3.18","2668452","co38368","norming","","","{""guess"":""de zee""}","","../img/tt/1189tt.jpg","",""
"null","../img/gs/1189gs.jpg","null","reveal","image-keyboard-response","136","643141","0.0-6.0-4.18","2668452","co38368","norming","","","","","","",""
"null","../img/tt/1189tt.jpg","null","mooney2","image-keyboard-response","137","645144","0.0-6.0-5.18","2668452","co38368","norming","","","","","","",""
"2721.590000000084","","","post_reveal_questions","survey-likert","138","647868","0.0-6.0-6.18","2668452","co38368","norming","","","{""aha"":5}","[0]","../img/tt/1189tt.jpg","",""
"null","<div style=""font-size:60px;""> </div>","null","fixation","html-keyboard-response","139","648074","0.0-6.0-0.19","2668452","co38368","norming","","","","","","",""
"null","../img/tt/1151tt.jpg","null","mooney1","image-keyboard-response","140","651079","0.0-6.0-1.19","2668452","co38368","norming","","","","","","",""
"4513.835000000545","","","post_mooney1_questions","survey-likert","141","655596","0.0-6.0-2.19","2668452","co38368","norming","","","{""curiosity"":5,""confidence"":1}","[0,1]","../img/tt/1151tt.jpg","",""
"3062.210000000079","","","recognition","survey-text","142","658660","0.0-6.0-3.19","2668452","co38368","norming","","","{""guess"":""bergbeklimmer""}","","../img/tt/1151tt.jpg","",""
"null","../img/gs/1151gs.jpg","null","reveal","image-keyboard-response","143","660664","0.0-6.0-4.19","2668452","co38368","norming","","","","","","",""
"null","../img/tt/1151tt.jpg","null","mooney2","image-keyboard-response","144","662666","0.0-6.0-5.19","2668452","co38368","norming","","","","","","",""
"1847.1350000000093","","","post_reveal_questions","survey-likert","145","664516","0.0-6.0-6.19","2668452","co38368","norming","","","{""aha"":3}","[0]","../img/tt/1151tt.jpg","",""
"null","<div style=""font-size:60px;""> </div>","null","fixation","html-keyboard-response","146","664717","0.0-6.0-0.20","2668452","co38368","norming","","","","","","",""
"null","../img/tt/1188tt.jpg","null","mooney1","image-keyboard-response","147","667727","0.0-6.0-1.20","2668452","co38368","norming","","","","","","",""
"4049.9549999994924","","","post_mooney1_questions","survey-likert","148","671782","0.0-6.0-2.20","2668452","co38368","norming","","","{""curiosity"":5,""confidence"":1}","[0,1]","../img/tt/1188tt.jpg","",""
"4078.520000000135","","","recognition","survey-text","149","675862","0.0-6.0-3.20","2668452","co38368","norming","","","{""guess"":""wielrenner""}","","../img/tt/1188tt.jpg","",""
"null","../img/gs/1188gs.jpg","null","reveal","image-keyboard-response","150","677864","0.0-6.0-4.20","2668452","co38368","norming","","","","","","",""
"null","../img/tt/1188tt.jpg","null","mooney2","image-keyboard-response","151","679868","0.0-6.0-5.20","2668452","co38368","norming","","","","","","",""
"1847.2999999994645","","","post_reveal_questions","survey-likert","152","681718","0.0-6.0-6.20","2668452","co38368","norming","","","{""aha"":3}","[0]","../img/tt/1188tt.jpg","",""
"null","<div style=""font-size:60px;""> </div>","null","fixation","html-keyboard-response","153","681924","0.0-6.0-0.21","2668452","co38368","norming","","","","","","",""
"null","../img/tt/078tt.jpg","null","mooney1","image-keyboard-response","154","684927","0.0-6.0-1.21","2668452","co38368","norming","","","","","","",""
"4044.319999999949","","","post_mooney1_questions","survey-likert","155","688974","0.0-6.0-2.21","2668452","co38368","norming","","","{""curiosity"":5,""confidence"":2}","[0,1]","../img/tt/078tt.jpg","",""
"2198.6550000001444","","","recognition","survey-text","156","691174","0.0-6.0-3.21","2668452","co38368","norming","","","{""guess"":""druiven ""}","","../img/tt/078tt.jpg","",""
"null","../img/gs/078gs.jpg","null","reveal","image-keyboard-response","157","693186","0.0-6.0-4.21","2668452","co38368","norming","","","","","","",""
"null","../img/tt/078tt.jpg","null","mooney2","image-keyboard-response","158","695196","0.0-6.0-5.21","2668452","co38368","norming","","","","","","",""
"2671.085000000894","","","post_reveal_questions","survey-likert","159","697870","0.0-6.0-6.21","2668452","co38368","norming","","","{""aha"":2}","[0]","../img/tt/078tt.jpg","",""
"null","<div style=""font-size:60px;""> </div>","null","fixation","html-keyboard-response","160","698075","0.0-6.0-0.22","2668452","co38368","norming","","","","","","",""
"null","../img/tt/1272tt.jpg","null","mooney1","image-keyboard-response","161","701077","0.0-6.0-1.22","2668452","co38368","norming","","","","","","",""
"3885.9149999998044","","","post_mooney1_questions","survey-likert","162","704966","0.0-6.0-2.22","2668452","co38368","norming","","","{""curiosity"":6,""confidence"":1}","[0,1]","../img/tt/1272tt.jpg","",""
"2302.130000000121","","","recognition","survey-text","163","707270","0.0-6.0-3.22","2668452","co38368","norming","","","{""guess"":""windmolen ""}","","../img/tt/1272tt.jpg","",""
"null","../img/gs/1272gs.jpg","null","reveal","image-keyboard-response","164","709274","0.0-6.0-4.22","2668452","co38368","norming","","","","","","",""
"null","../img/tt/1272tt.jpg","null","mooney2","image-keyboard-response","165","711278","0.0-6.0-5.22","2668452","co38368","norming","","","","","","",""
"2037.9149999999208","","","post_reveal_questions","survey-likert","166","713318","0.0-6.0-6.22","2668452","co38368","norming","","","{""aha"":6}","[0]","../img/tt/1272tt.jpg","",""
"null","<div style=""font-size:60px;""> </div>","null","fixation","html-keyboard-response","167","713521","0.0-6.0-0.23","2668452","co38368","norming","","","","","","",""
"null","../img/tt/1033tt.jpg","null","mooney1","image-keyboard-response","168","716524","0.0-6.0-1.23","2668452","co38368","norming","","","","","","",""
"4862.920000000508","","","post_mooney1_questions","survey-likert","169","721390","0.0-6.0-2.23","2668452","co38368","norming","","","{""curiosity"":6,""confidence"":0}","[0,1]","../img/tt/1033tt.jpg","",""
"646.0249999999069","","","recognition","survey-text","170","722038","0.0-6.0-3.23","2668452","co38368","norming","","","{""guess"":""""}","","../img/tt/1033tt.jpg","",""
"null","../img/gs/1033gs.jpg","null","reveal","image-keyboard-response","171","724043","0.0-6.0-4.23","2668452","co38368","norming","","","","","","",""
"null","../img/tt/1033tt.jpg","null","mooney2","image-keyboard-response","172","726047","0.0-6.0-5.23","2668452","co38368","norming","","","","","","",""
"2261.4249999996973","","","post_reveal_questions","survey-likert","173","728310","0.0-6.0-6.23","2668452","co38368","norming","","","{""aha"":6}","[0]","../img/tt/1033tt.jpg","",""
"null","<div style=""font-size:60px;""> </div>","null","fixation","html-keyboard-response","174","728518","0.0-6.0-0.24","2668452","co38368","norming","","","","","","",""
"null","../img/tt/1309tt.jpg","null","mooney1","image-keyboard-response","175","731525","0.0-6.0-1.24","2668452","co38368","norming","","","","","","",""
"5316.579999999609","","","post_mooney1_questions","survey-likert","176","736846","0.0-6.0-2.24","2668452","co38368","norming","","","{""curiosity"":5,""confidence"":1}","[0,1]","../img/tt/1309tt.jpg","",""
"1382.1050000005635","","","recognition","survey-text","177","738230","0.0-6.0-3.24","2668452","co38368","norming","","","{""guess"":""bos ""}","","../img/tt/1309tt.jpg","",""
"null","../img/gs/1309gs.jpg","null","reveal","image-keyboard-response","178","740240","0.0-6.0-4.24","2668452","co38368","norming","","","","","","",""
"null","../img/tt/1309tt.jpg","null","mooney2","image-keyboard-response","179","742250","0.0-6.0-5.24","2668452","co38368","norming","","","","","","",""
"2833.2449999997625","","","post_reveal_questions","survey-likert","180","745086","0.0-6.0-6.24","2668452","co38368","norming","","","{""aha"":5}","[0]","../img/tt/1309tt.jpg","",""
"null","<div style=""font-size:60px;""> </div>","null","fixation","html-keyboard-response","181","745288","0.0-6.0-0.25","2668452","co38368","norming","","","","","","",""
"null","../img/tt/1255tt.jpg","null","mooney1","image-keyboard-response","182","748294","0.0-6.0-1.25","2668452","co38368","norming","","","","","","",""
"4541.279999999446","","","post_mooney1_questions","survey-likert","183","752838","0.0-6.0-2.25","2668452","co38368","norming","","","{""curiosity"":5,""confidence"":1}","[0,1]","../img/tt/1255tt.jpg","",""
"2078.4100000000326","","","recognition","survey-text","184","754918","0.0-6.0-3.25","2668452","co38368","norming","","","{""guess"":""zwemmer""}","","../img/tt/1255tt.jpg","",""
"null","../img/gs/1255gs.jpg","null","reveal","image-keyboard-response","185","756920","0.0-6.0-4.25","2668452","co38368","norming","","","","","","",""
"null","../img/tt/1255tt.jpg","null","mooney2","image-keyboard-response","186","758922","0.0-6.0-5.25","2668452","co38368","norming","","","","","","",""
"2505.375000000582","","","post_reveal_questions","survey-likert","187","761430","0.0-6.0-6.25","2668452","co38368","norming","","","{""aha"":6}","[0]","../img/tt/1255tt.jpg","",""
"null","<div style=""font-size:60px;""> </div>","null","fixation","html-keyboard-response","188","761636","0.0-6.0-0.26","2668452","co38368","norming","","","","","","",""
"null","../img/tt/1156tt.jpg","null","mooney1","image-keyboard-response","189","764639","0.0-6.0-1.26","2668452","co38368","norming","","","","","","",""
"4708.459999999846","","","post_mooney1_questions","survey-likert","190","769350","0.0-6.0-2.26","2668452","co38368","norming","","","{""curiosity"":5,""confidence"":1}","[0,1]","../img/tt/1156tt.jpg","",""
"1934.1400000003632","","","recognition","survey-text","191","771286","0.0-6.0-3.26","2668452","co38368","norming","","","{""guess"":""zwemmer""}","","../img/tt/1156tt.jpg","",""
"null","../img/gs/1156gs.jpg","null","reveal","image-keyboard-response","192","773297","0.0-6.0-4.26","2668452","co38368","norming","","","","","","",""
"null","../img/tt/1156tt.jpg","null","mooney2","image-keyboard-response","193","775299","0.0-6.0-5.26","2668452","co38368","norming","","","","","","",""
"2921.064999999595","","","post_reveal_questions","survey-likert","194","778222","0.0-6.0-6.26","2668452","co38368","norming","","","{""aha"":4}","[0]","../img/tt/1156tt.jpg","",""
"null","<div style=""font-size:60px;""> </div>","null","fixation","html-keyboard-response","195","778428","0.0-6.0-0.27","2668452","co38368","norming","","","","","","",""
"null","../img/tt/1044tt.jpg","null","mooney1","image-keyboard-response","196","781438","0.0-6.0-1.27","2668452","co38368","norming","","","","","","",""
"3477.3100000001723","","","post_mooney1_questions","survey-likert","197","784918","0.0-6.0-2.27","2668452","co38368","norming","","","{""curiosity"":5,""confidence"":1}","[0,1]","../img/tt/1044tt.jpg","",""
"1453.7000000000698","","","recognition","survey-text","198","786374","0.0-6.0-3.27","2668452","co38368","norming","","","{""guess"":""lamp""}","","../img/tt/1044tt.jpg","",""
"null","../img/gs/1044gs.jpg","null","reveal","image-keyboard-response","199","788377","0.0-6.0-4.27","2668452","co38368","norming","","","","","","",""
"null","../img/tt/1044tt.jpg","null","mooney2","image-keyboard-response","200","790380","0.0-6.0-5.27","2668452","co38368","norming","","","","","","",""
"2015.5899999999674","","","post_reveal_questions","survey-likert","201","792398","0.0-6.0-6.27","2668452","co38368","norming","","","{""aha"":6}","[0]","../img/tt/1044tt.jpg","",""
"null","<div style=""font-size:60px;""> </div>","null","fixation","html-keyboard-response","202","792601","0.0-6.0-0.28","2668452","co38368","norming","","","","","","",""
"null","../img/tt/1154tt.jpg","null","mooney1","image-keyboard-response","203","795610","0.0-6.0-1.28","2668452","co38368","norming","","","","","","",""
"3250.515000000596","","","post_mooney1_questions","survey-likert","204","798862","0.0-6.0-2.28","2668452","co38368","norming","","","{""curiosity"":6,""confidence"":1}","[0,1]","../img/tt/1154tt.jpg","",""
"1270.4649999996182","","","recognition","survey-text","205","800134","0.0-6.0-3.28","2668452","co38368","norming","","","{""guess"":""hert""}","","../img/tt/1154tt.jpg","",""
"null","../img/gs/1154gs.jpg","null","reveal","image-keyboard-response","206","802141","0.0-6.0-4.28","2668452","co38368","norming","","","","","","",""
"null","../img/tt/1154tt.jpg","null","mooney2","image-keyboard-response","207","804144","0.0-6.0-5.28","2668452","co38368","norming","","","","","","",""
"2299.3299999997253","","","post_reveal_questions","survey-likert","208","806446","0.0-6.0-6.28","2668452","co38368","norming","","","{""aha"":6}","[0]","../img/tt/1154tt.jpg","",""
"null","<div style=""font-size:60px;""> </div>","null","fixation","html-keyboard-response","209","806647","0.0-6.0-0.29","2668452","co38368","norming","","","","","","",""
"null","../img/tt/567tt.jpg","null","mooney1","image-keyboard-response","210","809657","0.0-6.0-1.29","2668452","co38368","norming","","","","","","",""
"3931.109999999637","","","post_mooney1_questions","survey-likert","211","813590","0.0-6.0-2.29","2668452","co38368","norming","","","{""curiosity"":4,""confidence"":3}","[0,1]","../img/tt/567tt.jpg","",""
"4766.279999999795","","","recognition","survey-text","212","818358","0.0-6.0-3.29","2668452","co38368","norming","","","{""guess"":""broodrooster""}","","../img/tt/567tt.jpg","",""
"null","../img/gs/567gs.jpg","null","reveal","image-keyboard-response","213","820361","0.0-6.0-4.29","2668452","co38368","norming","","","","","","",""
"null","../img/tt/567tt.jpg","null","mooney2","image-keyboard-response","214","822372","0.0-6.0-5.29","2668452","co38368","norming","","","","","","",""
"1623.724999999511","","","post_reveal_questions","survey-likert","215","823998","0.0-6.0-6.29","2668452","co38368","norming","","","{""aha"":3}","[0]","../img/tt/567tt.jpg","",""
"null","<div style=""font-size:60px;""> </div>","null","fixation","html-keyboard-response","216","824199","0.0-6.0-0.30","2668452","co38368","norming","","","","","","",""
"null","../img/tt/1276tt.jpg","null","mooney1","image-keyboard-response","217","827207","0.0-6.0-1.30","2668452","co38368","norming","","","","","","",""
"3587.8999999995576","","","post_mooney1_questions","survey-likert","218","830798","0.0-6.0-2.30","2668452","co38368","norming","","","{""curiosity"":6,""confidence"":0}","[0,1]","../img/tt/1276tt.jpg","",""
"750.029999999213","","","recognition","survey-text","219","831550","0.0-6.0-3.30","2668452","co38368","norming","","","{""guess"":""""}","","../img/tt/1276tt.jpg","",""
"null","../img/gs/1276gs.jpg","null","reveal","image-keyboard-response","220","833553","0.0-6.0-4.30","2668452","co38368","norming","","","","","","",""
"null","../img/tt/1276tt.jpg","null","mooney2","image-keyboard-response","221","835557","0.0-6.0-5.30","2668452","co38368","norming","","","","","","",""
"2006.690000000177","","","post_reveal_questions","survey-likert","222","837566","0.0-6.0-6.30","2668452","co38368","norming","","","{""aha"":6}","[0]","../img/tt/1276tt.jpg","",""
"null","<div style=""font-size:60px;""> </div>","null","fixation","html-keyboard-response","223","837767","0.0-6.0-0.31","2668452","co38368","norming","","","","","","",""
"null","../img/tt/1235tt.jpg","null","mooney1","image-keyboard-response","224","840775","0.0-6.0-1.31","2668452","co38368","norming","","","","","","",""
"3979.9149999998044","","","post_mooney1_questions","survey-likert","225","844758","0.0-6.0-2.31","2668452","co38368","norming","","","{""curiosity"":6,""confidence"":1}","[0,1]","../img/tt/1235tt.jpg","",""
"2526.1399999998976","","","recognition","survey-text","226","847286","0.0-6.0-3.31","2668452","co38368","norming","","","{""guess"":""paard""}","","../img/tt/1235tt.jpg","",""
"null","../img/gs/1235gs.jpg","null","reveal","image-keyboard-response","227","849287","0.0-6.0-4.31","2668452","co38368","norming","","","","","","",""
"null","../img/tt/1235tt.jpg","null","mooney2","image-keyboard-response","228","851291","0.0-6.0-5.31","2668452","co38368","norming","","","","","","",""
"2887.9699999998556","","","post_reveal_questions","survey-likert","229","854178","0.0-6.0-6.31","2668452","co38368","norming","","","{""aha"":6}","[0]","../img/tt/1235tt.jpg","",""
"null","<div style=""font-size:60px;""> </div>","null","fixation","html-keyboard-response","230","854382","0.0-6.0-0.32","2668452","co38368","norming","","","","","","",""
"null","../img/tt/1053tt.jpg","null","mooney1","image-keyboard-response","231","857387","0.0-6.0-1.32","2668452","co38368","norming","","","","","","",""
"3964.4699999998556","","","post_mooney1_questions","survey-likert","232","861354","0.0-6.0-2.32","2668452","co38368","norming","","","{""curiosity"":6,""confidence"":0}","[0,1]","../img/tt/1053tt.jpg","",""
"1142.3800000002375","","","recognition","survey-text","233","862498","0.0-6.0-3.32","2668452","co38368","norming","","","{""guess"":""""}","","../img/tt/1053tt.jpg","",""
"null","../img/gs/1053gs.jpg","null","reveal","image-keyboard-response","234","864508","0.0-6.0-4.32","2668452","co38368","norming","","","","","","",""
"null","../img/tt/1053tt.jpg","null","mooney2","image-keyboard-response","235","866510","0.0-6.0-5.32","2668452","co38368","norming","","","","","","",""
"1937.4600000000792","","","post_reveal_questions","survey-likert","236","868450","0.0-6.0-6.32","2668452","co38368","norming","","","{""aha"":6}","[0]","../img/tt/1053tt.jpg","",""
"null","<div style=""font-size:60px;""> </div>","null","fixation","html-keyboard-response","237","868658","0.0-6.0-0.33","2668452","co38368","norming","","","","","","",""
"null","../img/tt/007tt.jpg","null","mooney1","image-keyboard-response","238","871668","0.0-6.0-1.33","2668452","co38368","norming","","","","","","",""
"3507.0449999993434","","","post_mooney1_questions","survey-likert","239","875178","0.0-6.0-2.33","2668452","co38368","norming","","","{""curiosity"":6,""confidence"":0}","[0,1]","../img/tt/007tt.jpg","",""
"3830.179999999935","","","recognition","survey-text","240","879010","0.0-6.0-3.33","2668452","co38368","norming","","","{""guess"":""animal""}","","../img/tt/007tt.jpg","",""
"null","../img/gs/007gs.jpg","null","reveal","image-keyboard-response","241","881017","0.0-6.0-4.33","2668452","co38368","norming","","","","","","",""
"null","../img/tt/007tt.jpg","null","mooney2","image-keyboard-response","242","883021","0.0-6.0-5.33","2668452","co38368","norming","","","","","","",""
"1922.7499999996508","","","post_reveal_questions","survey-likert","243","884946","0.0-6.0-6.33","2668452","co38368","norming","","","{""aha"":6}","[0]","../img/tt/007tt.jpg","",""
"null","<div style=""font-size:60px;""> </div>","null","fixation","html-keyboard-response","244","885148","0.0-6.0-0.34","2668452","co38368","norming","","","","","","",""
"null","../img/tt/081tt.jpg","null","mooney1","image-keyboard-response","245","888155","0.0-6.0-1.34","2668452","co38368","norming","","","","","","",""
"3612.199999999604","","","post_mooney1_questions","survey-likert","246","891770","0.0-6.0-2.34","2668452","co38368","norming","","","{""curiosity"":5,""confidence"":1}","[0,1]","../img/tt/081tt.jpg","",""
"1350.375","","","recognition","survey-text","247","893122","0.0-6.0-3.34","2668452","co38368","norming","","","{""guess"":""kikker""}","","../img/tt/081tt.jpg","",""
"null","../img/gs/081gs.jpg","null","reveal","image-keyboard-response","248","895123","0.0-6.0-4.34","2668452","co38368","norming","","","","","","",""
"null","../img/tt/081tt.jpg","null","mooney2","image-keyboard-response","249","897132","0.0-6.0-5.34","2668452","co38368","norming","","","","","","",""
"2755.55999999959","","","post_reveal_questions","survey-likert","250","899890","0.0-6.0-6.34","2668452","co38368","norming","","","{""aha"":2}","[0]","../img/tt/081tt.jpg","",""
"null","<div style=""font-size:60px;""> </div>","null","fixation","html-keyboard-response","251","900101","0.0-6.0-0.35","2668452","co38368","norming","","","","","","",""
"null","../img/tt/019tt.jpg","null","mooney1","image-keyboard-response","252","903109","0.0-6.0-1.35","2668452","co38368","norming","","","","","","",""
"3569.9850000001024","","","post_mooney1_questions","survey-likert","253","906682","0.0-6.0-2.35","2668452","co38368","norming","","","{""curiosity"":5,""confidence"":1}","[0,1]","../img/tt/019tt.jpg","",""
"2517.974999999744","","","recognition","survey-text","254","909202","0.0-6.0-3.35","2668452","co38368","norming","","","{""guess"":""vliegtuig""}","","../img/tt/019tt.jpg","",""
"null","../img/gs/019gs.jpg","null","reveal","image-keyboard-response","255","911206","0.0-6.0-4.35","2668452","co38368","norming","","","","","","",""
"null","../img/tt/019tt.jpg","null","mooney2","image-keyboard-response","256","913209","0.0-6.0-5.35","2668452","co38368","norming","","","","","","",""
"2166.6699999996927","","","post_reveal_questions","survey-likert","257","915382","0.0-6.0-6.35","2668452","co38368","norming","","","{""aha"":6}","[0]","../img/tt/019tt.jpg","",""
"null","<div style=""font-size:60px;""> </div>","null","fixation","html-keyboard-response","258","915583","0.0-6.0-0.36","2668452","co38368","norming","","","","","","",""
"null","../img/tt/135tt.jpg","null","mooney1","image-keyboard-response","259","918594","0.0-6.0-1.36","2668452","co38368","norming","","","","","","",""
"4122.414999999921","","","post_mooney1_questions","survey-likert","260","922718","0.0-6.0-2.36","2668452","co38368","norming","","","{""curiosity"":4,""confidence"":2}","[0,1]","../img/tt/135tt.jpg","",""
"1253.1199999992969","","","recognition","survey-text","261","923973","0.0-6.0-3.36","2668452","co38368","norming","","","{""guess"":""wc""}","","../img/tt/135tt.jpg","",""
"null","../img/gs/135gs.jpg","null","reveal","image-keyboard-response","262","925975","0.0-6.0-4.36","2668452","co38368","norming","","","","","","",""
"null","../img/tt/135tt.jpg","null","mooney2","image-keyboard-response","263","927977","0.0-6.0-5.36","2668452","co38368","norming","","","","","","",""
"1563.3400000005495","","","post_reveal_questions","survey-likert","264","929541","0.0-6.0-6.36","2668452","co38368","norming","","","{""aha"":2}","[0]","../img/tt/135tt.jpg","",""
"null","<div style=""font-size:60px;""> </div>","null","fixation","html-keyboard-response","265","929744","0.0-6.0-0.37","2668452","co38368","norming","","","","","","",""
"null","../img/tt/085tt.jpg","null","mooney1","image-keyboard-response","266","932749","0.0-6.0-1.37","2668452","co38368","norming","","","","","","",""
"3095.519999999902","","","post_mooney1_questions","survey-likert","267","935846","0.0-6.0-2.37","2668452","co38368","norming","","","{""curiosity"":6,""confidence"":0}","[0,1]","../img/tt/085tt.jpg","",""
"549.8100000004051","","","recognition","survey-text","268","936397","0.0-6.0-3.37","2668452","co38368","norming","","","{""guess"":""""}","","../img/tt/085tt.jpg","",""
"null","../img/gs/085gs.jpg","null","reveal","image-keyboard-response","269","938403","0.0-6.0-4.37","2668452","co38368","norming","","","","","","",""
"null","../img/tt/085tt.jpg","null","mooney2","image-keyboard-response","270","940404","0.0-6.0-5.37","2668452","co38368","norming","","","","","","",""
"1632.585000000312","","","post_reveal_questions","survey-likert","271","942037","0.0-6.0-6.37","2668452","co38368","norming","","","{""aha"":6}","[0]","../img/tt/085tt.jpg","",""
"null","<div style=""font-size:60px;""> </div>","null","fixation","html-keyboard-response","272","942239","0.0-6.0-0.38","2668452","co38368","norming","","","","","","",""
"null","../img/tt/1143tt.jpg","null","mooney1","image-keyboard-response","273","945241","0.0-6.0-1.38","2668452","co38368","norming","","","","","","",""
"6842.904999999446","","","post_mooney1_questions","survey-likert","274","952086","0.0-6.0-2.38","2668452","co38368","norming","","","{""curiosity"":6,""confidence"":0}","[0,1]","../img/tt/1143tt.jpg","",""
"1885.5299999995623","","","recognition","survey-text","275","953973","0.0-6.0-3.38","2668452","co38368","norming","","","{""guess"":""kapper""}","","../img/tt/1143tt.jpg","",""
"null","../img/gs/1143gs.jpg","null","reveal","image-keyboard-response","276","955976","0.0-6.0-4.38","2668452","co38368","norming","","","","","","",""
"null","../img/tt/1143tt.jpg","null","mooney2","image-keyboard-response","277","957977","0.0-6.0-5.38","2668452","co38368","norming","","","","","","",""
"2203.9100000002654","","","post_reveal_questions","survey-likert","278","960182","0.0-6.0-6.38","2668452","co38368","norming","","","{""aha"":5}","[0]","../img/tt/1143tt.jpg","",""
"null","<div style=""font-size:60px;""> </div>","null","fixation","html-keyboard-response","279","960391","0.0-6.0-0.39","2668452","co38368","norming","","","","","","",""
"null","../img/tt/1186tt.jpg","null","mooney1","image-keyboard-response","280","963393","0.0-6.0-1.39","2668452","co38368","norming","","","","","","",""
"4689.275000000605","","","post_mooney1_questions","survey-likert","281","968086","0.0-6.0-2.39","2668452","co38368","norming","","","{""curiosity"":6,""confidence"":2}","[0,1]","../img/tt/1186tt.jpg","",""
"3262.159999999334","","","recognition","survey-text","282","971350","0.0-6.0-3.39","2668452","co38368","norming","","","{""guess"":""wandelaar""}","","../img/tt/1186tt.jpg","",""
"null","../img/gs/1186gs.jpg","null","reveal","image-keyboard-response","283","973355","0.0-6.0-4.39","2668452","co38368","norming","","","","","","",""
"null","../img/tt/1186tt.jpg","null","mooney2","image-keyboard-response","284","975360","0.0-6.0-5.39","2668452","co38368","norming","","","","","","",""
"1692.8849999994272","","","post_reveal_questions","survey-likert","285","977055","0.0-6.0-6.39","2668452","co38368","norming","","","{""aha"":5}","[0]","../img/tt/1186tt.jpg","",""
"null","<div style=""font-size:60px;""> </div>","null","fixation","html-keyboard-response","286","977256","0.0-6.0-0.40","2668452","co38368","norming","","","","","","",""
"null","../img/tt/010tt.jpg","null","mooney1","image-keyboard-response","287","980265","0.0-6.0-1.40","2668452","co38368","norming","","","","","","",""
"4138.860000000102","","","post_mooney1_questions","survey-likert","288","984407","0.0-6.0-2.40","2668452","co38368","norming","","","{""curiosity"":6,""confidence"":0}","[0,1]","../img/tt/010tt.jpg","",""
"3166.129999999539","","","recognition","survey-text","289","987575","0.0-6.0-3.40","2668452","co38368","norming","","","{""guess"":""standbeeld""}","","../img/tt/010tt.jpg","",""
"null","../img/gs/010gs.jpg","null","reveal","image-keyboard-response","290","989577","0.0-6.0-4.40","2668452","co38368","norming","","","","","","",""
"null","../img/tt/010tt.jpg","null","mooney2","image-keyboard-response","291","991579","0.0-6.0-5.40","2668452","co38368","norming","","","","","","",""
"1969.6849999999395","","","post_reveal_questions","survey-likert","292","993551","0.0-6.0-6.40","2668452","co38368","norming","","","{""aha"":6}","[0]","../img/tt/010tt.jpg","",""
"null","<div style=""font-size:60px;""> </div>","null","fixation","html-keyboard-response","293","993757","0.0-6.0-0.41","2668452","co38368","norming","","","","","","",""
"null","../img/tt/319tt.jpg","null","mooney1","image-keyboard-response","294","996762","0.0-6.0-1.41","2668452","co38368","norming","","","","","","",""
"3098.1049999999814","","","post_mooney1_questions","survey-likert","295","999863","0.0-6.0-2.41","2668452","co38368","norming","","","{""curiosity"":6,""confidence"":4}","[0,1]","../img/tt/319tt.jpg","",""
"5390.199999999837","","","recognition","survey-text","296","1005255","0.0-6.0-3.41","2668452","co38368","norming","","","{""guess"":""ezels""}","","../img/tt/319tt.jpg","",""
"null","../img/gs/319gs.jpg","null","reveal","image-keyboard-response","297","1007263","0.0-6.0-4.41","2668452","co38368","norming","","","","","","",""
"null","../img/tt/319tt.jpg","null","mooney2","image-keyboard-response","298","1009272","0.0-6.0-5.41","2668452","co38368","norming","","","","","","",""
"1772.4199999993434","","","post_reveal_questions","survey-likert","299","1011047","0.0-6.0-6.41","2668452","co38368","norming","","","{""aha"":1}","[0]","../img/tt/319tt.jpg","",""
"null","<div style=""font-size:60px;""> </div>","null","fixation","html-keyboard-response","300","1011256","0.0-6.0-0.42","2668452","co38368","norming","","","","","","",""
"null","../img/tt/020tt.jpg","null","mooney1","image-keyboard-response","301","1014265","0.0-6.0-1.42","2668452","co38368","norming","","","","","","",""
"4187.034999999916","","","post_mooney1_questions","survey-likert","302","1018455","0.0-6.0-2.42","2668452","co38368","norming","","","{""curiosity"":5,""confidence"":2}","[0,1]","../img/tt/020tt.jpg","",""
"1038.1649999999208","","","recognition","survey-text","303","1019495","0.0-6.0-3.42","2668452","co38368","norming","","","{""guess"":""koe""}","","../img/tt/020tt.jpg","",""
"null","../img/gs/020gs.jpg","null","reveal","image-keyboard-response","304","1021500","0.0-6.0-4.42","2668452","co38368","norming","","","","","","",""
"null","../img/tt/020tt.jpg","null","mooney2","image-keyboard-response","305","1023509","0.0-6.0-5.42","2668452","co38368","norming","","","","","","",""
"2904.305000000051","","","post_reveal_questions","survey-likert","306","1026415","0.0-6.0-6.42","2668452","co38368","norming","","","{""aha"":6}","[0]","../img/tt/020tt.jpg","",""
"null","<div style=""font-size:60px;""> </div>","null","fixation","html-keyboard-response","307","1026618","0.0-6.0-0.43","2668452","co38368","norming","","","","","","",""
"null","../img/tt/279tt.jpg","null","mooney1","image-keyboard-response","308","1029622","0.0-6.0-1.43","2668452","co38368","norming","","","","","","",""
"3477.824999999837","","","post_mooney1_questions","survey-likert","309","1033103","0.0-6.0-2.43","2668452","co38368","norming","","","{""curiosity"":6,""confidence"":0}","[0,1]","../img/tt/279tt.jpg","",""
"558.3050000005169","","","recognition","survey-text","310","1033663","0.0-6.0-3.43","2668452","co38368","norming","","","{""guess"":""""}","","../img/tt/279tt.jpg","",""
"null","../img/gs/279gs.jpg","null","reveal","image-keyboard-response","311","1035664","0.0-6.0-4.43","2668452","co38368","norming","","","","","","",""
"null","../img/tt/279tt.jpg","null","mooney2","image-keyboard-response","312","1037672","0.0-6.0-5.43","2668452","co38368","norming","","","","","","",""
"1782.2000000005355","","","post_reveal_questions","survey-likert","313","1039455","0.0-6.0-6.43","2668452","co38368","norming","","","{""aha"":5}","[0]","../img/tt/279tt.jpg","",""
"null","<div style=""font-size:60px;""> </div>","null","fixation","html-keyboard-response","314","1039657","0.0-6.0-0.44","2668452","co38368","norming","","","","","","",""
"null","../img/tt/1123tt.jpg","null","mooney1","image-keyboard-response","315","1042660","0.0-6.0-1.44","2668452","co38368","norming","","","","","","",""
"4615.555000000168","","","post_mooney1_questions","survey-likert","316","1047280","0.0-6.0-2.44","2668452","co38368","norming","","","{""curiosity"":5,""confidence"":1}","[0,1]","../img/tt/1123tt.jpg","",""
"3206.134999999311","","","recognition","survey-text","317","1050487","0.0-6.0-3.44","2668452","co38368","norming","","","{""guess"":""voetballer""}","","../img/tt/1123tt.jpg","",""
"null","../img/gs/1123gs.jpg","null","reveal","image-keyboard-response","318","1052495","0.0-6.0-4.44","2668452","co38368","norming","","","","","","",""
"null","../img/tt/1123tt.jpg","null","mooney2","image-keyboard-response","319","1054498","0.0-6.0-5.44","2668452","co38368","norming","","","","","","",""
"3051.185000000056","","","post_reveal_questions","survey-likert","320","1057551","0.0-6.0-6.44","2668452","co38368","norming","","","{""aha"":4}","[0]","../img/tt/1123tt.jpg","",""
"null","<div style=""font-size:60px;""> </div>","null","fixation","html-keyboard-response","321","1057753","0.0-6.0-0.45","2668452","co38368","norming","","","","","","",""
"null","../img/tt/052tt.jpg","null","mooney1","image-keyboard-response","322","1060759","0.0-6.0-1.45","2668452","co38368","norming","","","","","","",""
"3117.8149999997113","","","post_mooney1_questions","survey-likert","323","1063880","0.0-6.0-2.45","2668452","co38368","norming","","","{""curiosity"":5,""confidence"":1}","[0,1]","../img/tt/052tt.jpg","",""
"5854.075000000186","","","recognition","survey-text","324","1069735","0.0-6.0-3.45","2668452","co38368","norming","","","{""guess"":""muziekinstrument""}","","../img/tt/052tt.jpg","",""
"null","../img/gs/052gs.jpg","null","reveal","image-keyboard-response","325","1071743","0.0-6.0-4.45","2668452","co38368","norming","","","","","","",""
"null","../img/tt/052tt.jpg","null","mooney2","image-keyboard-response","326","1073745","0.0-6.0-5.45","2668452","co38368","norming","","","","","","",""
"1483.7250000000931","","","post_reveal_questions","survey-likert","327","1075231","0.0-6.0-6.45","2668452","co38368","norming","","","{""aha"":5}","[0]","../img/tt/052tt.jpg","",""
"null","<div style=""font-size:60px;""> </div>","null","fixation","html-keyboard-response","328","1075433","0.0-6.0-0.46","2668452","co38368","norming","","","","","","",""
"null","../img/tt/307tt.jpg","null","mooney1","image-keyboard-response","329","1078438","0.0-6.0-1.46","2668452","co38368","norming","","","","","","",""
"3485.894999999786","","","post_mooney1_questions","survey-likert","330","1081928","0.0-6.0-2.46","2668452","co38368","norming","","","{""curiosity"":6,""confidence"":0}","[0,1]","../img/tt/307tt.jpg","",""
"677.9950000001118","","","recognition","survey-text","331","1082607","0.0-6.0-3.46","2668452","co38368","norming","","","{""guess"":""""}","","../img/tt/307tt.jpg","",""
"null","../img/gs/307gs.jpg","null","reveal","image-keyboard-response","332","1084619","0.0-6.0-4.46","2668452","co38368","norming","","","","","","",""
"null","../img/tt/307tt.jpg","null","mooney2","image-keyboard-response","333","1086626","0.0-6.0-5.46","2668452","co38368","norming","","","","","","",""
"2042.5749999994878","","","post_reveal_questions","survey-likert","334","1088671","0.0-6.0-6.46","2668452","co38368","norming","","","{""aha"":6}","[0]","../img/tt/307tt.jpg","",""
"null","<div style=""font-size:60px;""> </div>","null","fixation","html-keyboard-response","335","1088873","0.0-6.0-0.47","2668452","co38368","norming","","","","","","",""
"null","../img/tt/055tt.jpg","null","mooney1","image-keyboard-response","336","1091879","0.0-6.0-1.47","2668452","co38368","norming","","","","","","",""
"6389.30999999959","","","post_mooney1_questions","survey-likert","337","1098270","0.0-6.0-2.47","2668452","co38368","norming","","","{""curiosity"":5,""confidence"":0}","[0,1]","../img/tt/055tt.jpg","",""
"1629.7450000001118","","","recognition","survey-text","338","1099902","0.0-6.0-3.47","2668452","co38368","norming","","","{""guess"":""""}","","../img/tt/055tt.jpg","",""
"null","../img/gs/055gs.jpg","null","reveal","image-keyboard-response","339","1101904","0.0-6.0-4.47","2668452","co38368","norming","","","","","","",""
"null","../img/tt/055tt.jpg","null","mooney2","image-keyboard-response","340","1103906","0.0-6.0-5.47","2668452","co38368","norming","","","","","","",""
"2617.6150000002235","","","post_reveal_questions","survey-likert","341","1106526","0.0-6.0-6.47","2668452","co38368","norming","","","{""aha"":6}","[0]","../img/tt/055tt.jpg","",""
"null","<div style=""font-size:60px;""> </div>","null","fixation","html-keyboard-response","342","1106728","0.0-6.0-0.48","2668452","co38368","norming","","","","","","",""
"null","../img/tt/1283tt.jpg","null","mooney1","image-keyboard-response","343","1109732","0.0-6.0-1.48","2668452","co38368","norming","","","","","","",""
"4630.8499999996275","","","post_mooney1_questions","survey-likert","344","1114366","0.0-6.0-2.48","2668452","co38368","norming","","","{""curiosity"":6,""confidence"":0}","[0,1]","../img/tt/1283tt.jpg","",""
"813.9749999998603","","","recognition","survey-text","345","1115182","0.0-6.0-3.48","2668452","co38368","norming","","","{""guess"":""""}","","../img/tt/1283tt.jpg","",""
"null","../img/gs/1283gs.jpg","null","reveal","image-keyboard-response","346","1117183","0.0-6.0-4.48","2668452","co38368","norming","","","","","","",""
"null","../img/tt/1283tt.jpg","null","mooney2","image-keyboard-response","347","1119189","0.0-6.0-5.48","2668452","co38368","norming","","","","","","",""
"2182.349999999162","","","post_reveal_questions","survey-likert","348","1121374","0.0-6.0-6.48","2668452","co38368","norming","","","{""aha"":6}","[0]","../img/tt/1283tt.jpg","",""
"null","<div style=""font-size:60px;""> </div>","null","fixation","html-keyboard-response","349","1121575","0.0-6.0-0.49","2668452","co38368","norming","","","","","","",""
"null","../img/tt/064tt.jpg","null","mooney1","image-keyboard-response","350","1124579","0.0-6.0-1.49","2668452","co38368","norming","","","","","","",""
"4727.799999999581","","","post_mooney1_questions","survey-likert","351","1129310","0.0-6.0-2.49","2668452","co38368","norming","","","{""curiosity"":6,""confidence"":1}","[0,1]","../img/tt/064tt.jpg","",""
"5926.170000000857","","","recognition","survey-text","352","1135238","0.0-6.0-3.49","2668452","co38368","norming","","","{""guess"":""schildpad""}","","../img/tt/064tt.jpg","",""
"null","../img/gs/064gs.jpg","null","reveal","image-keyboard-response","353","1137239","0.0-6.0-4.49","2668452","co38368","norming","","","","","","",""
"null","../img/tt/064tt.jpg","null","mooney2","image-keyboard-response","354","1139242","0.0-6.0-5.49","2668452","co38368","norming","","","","","","",""
"2232.8499999993946","","","post_reveal_questions","survey-likert","355","1141478","0.0-6.0-6.49","2668452","co38368","norming","","","{""aha"":4}","[0]","../img/tt/064tt.jpg","",""
"null","<div style=""font-size:60px;""> </div>","null","fixation","html-keyboard-response","356","1141679","0.0-6.0-0.50","2668452","co38368","norming","","","","","","",""
"null","../img/tt/1122tt.jpg","null","mooney1","image-keyboard-response","357","1144689","0.0-6.0-1.50","2668452","co38368","norming","","","","","","",""
"4097.7700000002515","","","post_mooney1_questions","survey-likert","358","1148790","0.0-6.0-2.50","2668452","co38368","norming","","","{""curiosity"":5,""confidence"":2}","[0,1]","../img/tt/1122tt.jpg","",""
"1261.994999999879","","","recognition","survey-text","359","1150054","0.0-6.0-3.50","2668452","co38368","norming","","","{""guess"":""file""}","","../img/tt/1122tt.jpg","",""
"null","../img/gs/1122gs.jpg","null","reveal","image-keyboard-response","360","1152058","0.0-6.0-4.50","2668452","co38368","norming","","","","","","",""
"null","../img/tt/1122tt.jpg","null","mooney2","image-keyboard-response","361","1154060","0.0-6.0-5.50","2668452","co38368","norming","","","","","","",""
"2177.029999999795","","","post_reveal_questions","survey-likert","362","1156237","0.0-6.0-6.50","2668452","co38368","norming","","","{""aha"":5}","[0]","../img/tt/1122tt.jpg","",""
"null","<div style=""font-size:60px;""> </div>","null","fixation","html-keyboard-response","363","1156438","0.0-6.0-0.51","2668452","co38368","norming","","","","","","",""
"null","../img/tt/406tt.jpg","null","mooney1","image-keyboard-response","364","1159442","0.0-6.0-1.51","2668452","co38368","norming","","","","","","",""
"3039.530000000028","","","post_mooney1_questions","survey-likert","365","1162485","0.0-6.0-2.51","2668452","co38368","norming","","","{""curiosity"":6,""confidence"":0}","[0,1]","../img/tt/406tt.jpg","",""
"709.9699999999721","","","recognition","survey-text","366","1163196","0.0-6.0-3.51","2668452","co38368","norming","","","{""guess"":""""}","","../img/tt/406tt.jpg","",""
"null","../img/gs/406gs.jpg","null","reveal","image-keyboard-response","367","1165201","0.0-6.0-4.51","2668452","co38368","norming","","","","","","",""
"null","../img/tt/406tt.jpg","null","mooney2","image-keyboard-response","368","1167212","0.0-6.0-5.51","2668452","co38368","norming","","","","","","",""
"1469.855000000447","","","post_reveal_questions","survey-likert","369","1168685","0.0-6.0-6.51","2668452","co38368","norming","","","{""aha"":6}","[0]","../img/tt/406tt.jpg","",""
"null","<div style=""font-size:60px;""> </div>","null","fixation","html-keyboard-response","370","1168886","0.0-6.0-0.52","2668452","co38368","norming","","","","","","",""
"null","../img/tt/080tt.jpg","null","mooney1","image-keyboard-response","371","1171890","0.0-6.0-1.52","2668452","co38368","norming","","","","","","",""
"5303.935000000056","","","post_mooney1_questions","survey-likert","372","1177197","0.0-6.0-2.52","2668452","co38368","norming","","","{""curiosity"":6,""confidence"":0}","[0,1]","../img/tt/080tt.jpg","",""
"2614.1599999992177","","","recognition","survey-text","373","1179813","0.0-6.0-3.52","2668452","co38368","norming","","","{""guess"":""een ei""}","","../img/tt/080tt.jpg","",""
"null","../img/gs/080gs.jpg","null","reveal","image-keyboard-response","374","1181817","0.0-6.0-4.52","2668452","co38368","norming","","","","","","",""
"null","../img/tt/080tt.jpg","null","mooney2","image-keyboard-response","375","1183828","0.0-6.0-5.52","2668452","co38368","norming","","","","","","",""
"2461.7100000004284","","","post_reveal_questions","survey-likert","376","1186293","0.0-6.0-6.52","2668452","co38368","norming","","","{""aha"":5}","[0]","../img/tt/080tt.jpg","",""
"null","<div style=""font-size:60px;""> </div>","null","fixation","html-keyboard-response","377","1186494","0.0-6.0-0.53","2668452","co38368","norming","","","","","","",""
"null","../img/tt/079tt.jpg","null","mooney1","image-keyboard-response","378","1189497","0.0-6.0-1.53","2668452","co38368","norming","","","","","","",""
"3360.480000000447","","","post_mooney1_questions","survey-likert","379","1192861","0.0-6.0-2.53","2668452","co38368","norming","","","{""curiosity"":5,""confidence"":1}","[0,1]","../img/tt/079tt.jpg","",""
"1318.1899999999441","","","recognition","survey-text","380","1194181","0.0-6.0-3.53","2668452","co38368","norming","","","{""guess"":""beer""}","","../img/tt/079tt.jpg","",""
"null","../img/gs/079gs.jpg","null","reveal","image-keyboard-response","381","1196185","0.0-6.0-4.53","2668452","co38368","norming","","","","","","",""
"null","../img/tt/079tt.jpg","null","mooney2","image-keyboard-response","382","1198188","0.0-6.0-5.53","2668452","co38368","norming","","","","","","",""
"1317.915000000503","","","post_reveal_questions","survey-likert","383","1199509","0.0-6.0-6.53","2668452","co38368","norming","","","{""aha"":3}","[0]","../img/tt/079tt.jpg","",""
"null","<div style=""font-size:60px;""> </div>","null","fixation","html-keyboard-response","384","1199710","0.0-6.0-0.54","2668452","co38368","norming","","","","","","",""
"null","../img/tt/032tt.jpg","null","mooney1","image-keyboard-response","385","1202718","0.0-6.0-1.54","2668452","co38368","norming","","","","","","",""
"3507.3199999995995","","","post_mooney1_questions","survey-likert","386","1206229","0.0-6.0-2.54","2668452","co38368","norming","","","{""curiosity"":5,""confidence"":2}","[0,1]","../img/tt/032tt.jpg","",""
"1757.6799999999348","","","recognition","survey-text","387","1207988","0.0-6.0-3.54","2668452","co38368","norming","","","{""guess"":""slang""}","","../img/tt/032tt.jpg","",""
"null","../img/gs/032gs.jpg","null","reveal","image-keyboard-response","388","1209991","0.0-6.0-4.54","2668452","co38368","norming","","","","","","",""
"null","../img/tt/032tt.jpg","null","mooney2","image-keyboard-response","389","1211991","0.0-6.0-5.54","2668452","co38368","norming","","","","","","",""
"1699.8299999996088","","","post_reveal_questions","survey-likert","390","1213693","0.0-6.0-6.54","2668452","co38368","norming","","","{""aha"":6}","[0]","../img/tt/032tt.jpg","",""
"null","<div style=""font-size:60px;""> </div>","null","fixation","html-keyboard-response","391","1213894","0.0-6.0-0.55","2668452","co38368","norming","","","","","","",""
"null","../img/tt/329tt.jpg","null","mooney1","image-keyboard-response","392","1216905","0.0-6.0-1.55","2668452","co38368","norming","","","","","","",""
"3827.9499999999534","","","post_mooney1_questions","survey-likert","393","1220736","0.0-6.0-2.55","2668452","co38368","norming","","","{""curiosity"":6,""confidence"":0}","[0,1]","../img/tt/329tt.jpg","",""
"806.1100000005681","","","recognition","survey-text","394","1221544","0.0-6.0-3.55","2668452","co38368","norming","","","{""guess"":""""}","","../img/tt/329tt.jpg","",""
"null","../img/gs/329gs.jpg","null","reveal","image-keyboard-response","395","1223548","0.0-6.0-4.55","2668452","co38368","norming","","","","","","",""
"null","../img/tt/329tt.jpg","null","mooney2","image-keyboard-response","396","1225559","0.0-6.0-5.55","2668452","co38368","norming","","","","","","",""
"2974.9649999993853","","","post_reveal_questions","survey-likert","397","1228536","0.0-6.0-6.55","2668452","co38368","norming","","","{""aha"":6}","[0]","../img/tt/329tt.jpg","",""
"null","<div style=""font-size:60px;""> </div>","null","fixation","html-keyboard-response","398","1228737","0.0-6.0-0.56","2668452","co38368","norming","","","","","","",""
"null","../img/tt/477tt.jpg","null","mooney1","image-keyboard-response","399","1231746","0.0-6.0-1.56","2668452","co38368","norming","","","","","","",""
"5596.560000000056","","","post_mooney1_questions","survey-likert","400","1237344","0.0-6.0-2.56","2668452","co38368","norming","","","{""curiosity"":6,""confidence"":0}","[0,1]","../img/tt/477tt.jpg","",""
"1542.0450000001583","","","recognition","survey-text","401","1238888","0.0-6.0-3.56","2668452","co38368","norming","","","{""guess"":""hond""}","","../img/tt/477tt.jpg","",""
"null","../img/gs/477gs.jpg","null","reveal","image-keyboard-response","402","1240896","0.0-6.0-4.56","2668452","co38368","norming","","","","","","",""
"null","../img/tt/477tt.jpg","null","mooney2","image-keyboard-response","403","1242897","0.0-6.0-5.56","2668452","co38368","norming","","","","","","",""
"2731.7750000001397","","","post_reveal_questions","survey-likert","404","1245631","0.0-6.0-6.56","2668452","co38368","norming","","","{""aha"":6}","[0]","../img/tt/477tt.jpg","",""
"null","<div style=""font-size:60px;""> </div>","null","fixation","html-keyboard-response","405","1245833","0.0-6.0-0.57","2668452","co38368","norming","","","","","","",""
"null","../img/tt/1097tt.jpg","null","mooney1","image-keyboard-response","406","1248837","0.0-6.0-1.57","2668452","co38368","norming","","","","","","",""
"5030.810000000056","","","post_mooney1_questions","survey-likert","407","1253872","0.0-6.0-2.57","2668452","co38368","norming","","","{""curiosity"":6,""confidence"":4}","[0,1]","../img/tt/1097tt.jpg","",""
"3509.984999999637","","","recognition","survey-text","408","1257384","0.0-6.0-3.57","2668452","co38368","norming","","","{""guess"":""pedelaar""}","","../img/tt/1097tt.jpg","",""
"null","../img/gs/1097gs.jpg","null","reveal","image-keyboard-response","409","1259385","0.0-6.0-4.57","2668452","co38368","norming","","","","","","",""
"null","../img/tt/1097tt.jpg","null","mooney2","image-keyboard-response","410","1261391","0.0-6.0-5.57","2668452","co38368","norming","","","","","","",""
"2309.970000000205","","","post_reveal_questions","survey-likert","411","1263704","0.0-6.0-6.57","2668452","co38368","norming","","","{""aha"":2}","[0]","../img/tt/1097tt.jpg","",""
"null","<div style=""font-size:60px;""> </div>","null","fixation","html-keyboard-response","412","1263905","0.0-6.0-0.58","2668452","co38368","norming","","","","","","",""
"null","../img/tt/1269tt.jpg","null","mooney1","image-keyboard-response","413","1266912","0.0-6.0-1.58","2668452","co38368","norming","","","","","","",""
"3572.16999999946","","","post_mooney1_questions","survey-likert","414","1270488","0.0-6.0-2.58","2668452","co38368","norming","","","{""curiosity"":5,""confidence"":2}","[0,1]","../img/tt/1269tt.jpg","",""
"1438.0750000001863","","","recognition","survey-text","415","1271928","0.0-6.0-3.58","2668452","co38368","norming","","","{""guess"":""kat""}","","../img/tt/1269tt.jpg","",""
"null","../img/gs/1269gs.jpg","null","reveal","image-keyboard-response","416","1273929","0.0-6.0-4.58","2668452","co38368","norming","","","","","","",""
"null","../img/tt/1269tt.jpg","null","mooney2","image-keyboard-response","417","1275934","0.0-6.0-5.58","2668452","co38368","norming","","","","","","",""
"1974.274999999674","","","post_reveal_questions","survey-likert","418","1277906","0.0-6.0-6.58","2668452","co38368","norming","","","{""aha"":5}","[0]","../img/tt/1269tt.jpg","",""
"null","<div style=""font-size:60px;""> </div>","null","fixation","html-keyboard-response","419","1278107","0.0-6.0-0.59","2668452","co38368","norming","","","","","","",""
"null","../img/tt/357tt.jpg","null","mooney1","image-keyboard-response","420","1281111","0.0-6.0-1.59","2668452","co38368","norming","","","","","","",""
"3559.5100000000093","","","post_mooney1_questions","survey-likert","421","1284674","0.0-6.0-2.59","2668452","co38368","norming","","","{""curiosity"":6,""confidence"":0}","[0,1]","../img/tt/357tt.jpg","",""
"510.320000000298","","","recognition","survey-text","422","1285186","0.0-6.0-3.59","2668452","co38368","norming","","","{""guess"":""""}","","../img/tt/357tt.jpg","",""
"null","../img/gs/357gs.jpg","null","reveal","image-keyboard-response","423","1287189","0.0-6.0-4.59","2668452","co38368","norming","","","","","","",""
"null","../img/tt/357tt.jpg","null","mooney2","image-keyboard-response","424","1289192","0.0-6.0-5.59","2668452","co38368","norming","","","","","","",""
"1671.1599999999162","","","post_reveal_questions","survey-likert","425","1290866","0.0-6.0-6.59","2668452","co38368","norming","","","{""aha"":6}","[0]","../img/tt/357tt.jpg","",""
"null","<div style=""font-size:60px;""> </div>","null","fixation","html-keyboard-response","426","1291070","0.0-6.0-0.60","2668452","co38368","norming","","","","","","",""
"null","../img/tt/1234tt.jpg","null","mooney1","image-keyboard-response","427","1294071","0.0-6.0-1.60","2668452","co38368","norming","","","","","","",""
"3209.2750000001397","","","post_mooney1_questions","survey-likert","428","1297282","0.0-6.0-2.60","2668452","co38368","norming","","","{""curiosity"":6,""confidence"":1}","[0,1]","../img/tt/1234tt.jpg","",""
"1550.070000000298","","","recognition","survey-text","429","1298834","0.0-6.0-3.60","2668452","co38368","norming","","","{""guess"":""rots""}","","../img/tt/1234tt.jpg","",""
"null","../img/gs/1234gs.jpg","null","reveal","image-keyboard-response","430","1300839","0.0-6.0-4.60","2668452","co38368","norming","","","","","","",""
"null","../img/tt/1234tt.jpg","null","mooney2","image-keyboard-response","431","1302845","0.0-6.0-5.60","2668452","co38368","norming","","","","","","",""
"2515.04000000027","","","post_reveal_questions","survey-likert","432","1305362","0.0-6.0-6.60","2668452","co38368","norming","","","{""aha"":5}","[0]","../img/tt/1234tt.jpg","",""
"null","<div style=""font-size:60px;""> </div>","null","fixation","html-keyboard-response","433","1305563","0.0-6.0-0.61","2668452","co38368","norming","","","","","","",""
"null","../img/tt/1211tt.jpg","null","mooney1","image-keyboard-response","434","1308572","0.0-6.0-1.61","2668452","co38368","norming","","","","","","",""
"3539.0749999997206","","","post_mooney1_questions","survey-likert","435","1312114","0.0-6.0-2.61","2668452","co38368","norming","","","{""curiosity"":5,""confidence"":0}","[0,1]","../img/tt/1211tt.jpg","",""
"1133.9699999997392","","","recognition","survey-text","436","1313250","0.0-6.0-3.61","2668452","co38368","norming","","","{""guess"":""dier""}","","../img/tt/1211tt.jpg","",""
"null","../img/gs/1211gs.jpg","null","reveal","image-keyboard-response","437","1315256","0.0-6.0-4.61","2668452","co38368","norming","","","","","","",""
"null","../img/tt/1211tt.jpg","null","mooney2","image-keyboard-response","438","1317264","0.0-6.0-5.61","2668452","co38368","norming","","","","","","",""
"2063.1450000000186","","","post_reveal_questions","survey-likert","439","1319330","0.0-6.0-6.61","2668452","co38368","norming","","","{""aha"":6}","[0]","../img/tt/1211tt.jpg","",""
"null","<div style=""font-size:60px;""> </div>","null","fixation","html-keyboard-response","440","1319531","0.0-6.0-0.62","2668452","co38368","norming","","","","","","",""
"null","../img/tt/378tt.jpg","null","mooney1","image-keyboard-response","441","1322543","0.0-6.0-1.62","2668452","co38368","norming","","","","","","",""
"4751.000000000233","","","post_mooney1_questions","survey-likert","442","1327298","0.0-6.0-2.62","2668452","co38368","norming","","","{""curiosity"":6,""confidence"":0}","[0,1]","../img/tt/378tt.jpg","",""
"462.15499999932945","","","recognition","survey-text","443","1327762","0.0-6.0-3.62","2668452","co38368","norming","","","{""guess"":""""}","","../img/tt/378tt.jpg","",""
"null","../img/gs/378gs.jpg","null","reveal","image-keyboard-response","444","1329763","0.0-6.0-4.62","2668452","co38368","norming","","","","","","",""
"null","../img/tt/378tt.jpg","null","mooney2","image-keyboard-response","445","1331765","0.0-6.0-5.62","2668452","co38368","norming","","","","","","",""
"2562.339999999618","","","post_reveal_questions","survey-likert","446","1334330","0.0-6.0-6.62","2668452","co38368","norming","","","{""aha"":6}","[0]","../img/tt/378tt.jpg","",""
"null","<div style=""font-size:60px;""> </div>","null","fixation","html-keyboard-response","447","1334532","0.0-6.0-0.63","2668452","co38368","norming","","","","","","",""
"null","../img/tt/056tt.jpg","null","mooney1","image-keyboard-response","448","1337549","0.0-6.0-1.63","2668452","co38368","norming","","","","","","",""
"3057.320000000065","","","post_mooney1_questions","survey-likert","449","1340610","0.0-6.0-2.63","2668452","co38368","norming","","","{""curiosity"":6,""confidence"":2}","[0,1]","../img/tt/056tt.jpg","",""
"1606.3650000006892","","","recognition","survey-text","450","1342218","0.0-6.0-3.63","2668452","co38368","norming","","","{""guess"":""wolf""}","","../img/tt/056tt.jpg","",""
"null","../img/gs/056gs.jpg","null","reveal","image-keyboard-response","451","1344224","0.0-6.0-4.63","2668452","co38368","norming","","","","","","",""
"null","../img/tt/056tt.jpg","null","mooney2","image-keyboard-response","452","1346234","0.0-6.0-5.63","2668452","co38368","norming","","","","","","",""
"2028.3300000000745","","","post_reveal_questions","survey-likert","453","1348266","0.0-6.0-6.63","2668452","co38368","norming","","","{""aha"":5}","[0]","../img/tt/056tt.jpg","",""
"null","<div style=""font-size:60px;""> </div>","null","fixation","html-keyboard-response","454","1348467","0.0-6.0-0.64","2668452","co38368","norming","","","","","","",""
"null","../img/tt/1128tt.jpg","null","mooney1","image-keyboard-response","455","1351477","0.0-6.0-1.64","2668452","co38368","norming","","","","","","",""
"4889.004999999888","","","post_mooney1_questions","survey-likert","456","1356370","0.0-6.0-2.64","2668452","co38368","norming","","","{""curiosity"":5,""confidence"":2}","[0,1]","../img/tt/1128tt.jpg","",""
"1749.8299999996088","","","recognition","survey-text","457","1358121","0.0-6.0-3.64","2668452","co38368","norming","","","{""guess"":""panda""}","","../img/tt/1128tt.jpg","",""
"null","../img/gs/1128gs.jpg","null","reveal","image-keyboard-response","458","1360126","0.0-6.0-4.64","2668452","co38368","norming","","","","","","",""
"null","../img/tt/1128tt.jpg","null","mooney2","image-keyboard-response","459","1362137","0.0-6.0-5.64","2668452","co38368","norming","","","","","","",""
"2310.2450000005774","","","post_reveal_questions","survey-likert","460","1364450","0.0-6.0-6.64","2668452","co38368","norming","","","{""aha"":6}","[0]","../img/tt/1128tt.jpg","",""
"null","<div style=""font-size:60px;""> </div>","null","fixation","html-keyboard-response","461","1364651","0.0-6.0-0.65","2668452","co38368","norming","","","","","","",""
"null","../img/tt/418tt.jpg","null","mooney1","image-keyboard-response","462","1367660","0.0-6.0-1.65","2668452","co38368","norming","","","","","","",""
"3690.0699999998324","","","post_mooney1_questions","survey-likert","463","1371354","0.0-6.0-2.65","2668452","co38368","norming","","","{""curiosity"":5,""confidence"":1}","[0,1]","../img/tt/418tt.jpg","",""
"5901.97499999986","","","recognition","survey-text","464","1377258","0.0-6.0-3.65","2668452","co38368","norming","","","{""guess"":""fruit en groenten ""}","","../img/tt/418tt.jpg","",""
"null","../img/gs/418gs.jpg","null","reveal","image-keyboard-response","465","1379266","0.0-6.0-4.65","2668452","co38368","norming","","","","","","",""
"null","../img/tt/418tt.jpg","null","mooney2","image-keyboard-response","466","1381275","0.0-6.0-5.65","2668452","co38368","norming","","","","","","",""
"1715.824999999255","","","post_reveal_questions","survey-likert","467","1382993","0.0-6.0-6.65","2668452","co38368","norming","","","{""aha"":5}","[0]","../img/tt/418tt.jpg","",""
"null","<div style=""font-size:60px;""> </div>","null","fixation","html-keyboard-response","468","1383195","0.0-6.0-0.66","2668452","co38368","norming","","","","","","",""
"null","../img/tt/1102tt.jpg","null","mooney1","image-keyboard-response","469","1386204","0.0-6.0-1.66","2668452","co38368","norming","","","","","","",""
"3418.4399999994785","","","post_mooney1_questions","survey-likert","470","1389626","0.0-6.0-2.66","2668452","co38368","norming","","","{""curiosity"":5,""confidence"":1}","[0,1]","../img/tt/1102tt.jpg","",""
"1486.0600000000559","","","recognition","survey-text","471","1391113","0.0-6.0-3.66","2668452","co38368","norming","","","{""guess"":""bomen ""}","","../img/tt/1102tt.jpg","",""
"null","../img/gs/1102gs.jpg","null","reveal","image-keyboard-response","472","1393120","0.0-6.0-4.66","2668452","co38368","norming","","","","","","",""
"null","../img/tt/1102tt.jpg","null","mooney2","image-keyboard-response","473","1395124","0.0-6.0-5.66","2668452","co38368","norming","","","","","","",""
"3114.9150000000373","","","post_reveal_questions","survey-likert","474","1398239","0.0-6.0-6.66","2668452","co38368","norming","","","{""aha"":5}","[0]","../img/tt/1102tt.jpg","",""
"null","<div style=""font-size:60px;""> </div>","null","fixation","html-keyboard-response","475","1398440","0.0-6.0-0.67","2668452","co38368","norming","","","","","","",""
"null","../img/tt/534tt.jpg","null","mooney1","image-keyboard-response","476","1401444","0.0-6.0-1.67","2668452","co38368","norming","","","","","","",""
"4024.0300000004936","","","post_mooney1_questions","survey-likert","477","1405472","0.0-6.0-2.67","2668452","co38368","norming","","","{""curiosity"":6,""confidence"":0}","[0,1]","../img/tt/534tt.jpg","",""
"669.730000000447","","","recognition","survey-text","478","1406143","0.0-6.0-3.67","2668452","co38368","norming","","","{""guess"":""""}","","../img/tt/534tt.jpg","",""
"null","../img/gs/534gs.jpg","null","reveal","image-keyboard-response","479","1408148","0.0-6.0-4.67","2668452","co38368","norming","","","","","","",""
"null","../img/tt/534tt.jpg","null","mooney2","image-keyboard-response","480","1410161","0.0-6.0-5.67","2668452","co38368","norming","","","","","","",""
"2267.030000000028","","","post_reveal_questions","survey-likert","481","1412431","0.0-6.0-6.67","2668452","co38368","norming","","","{""aha"":6}","[0]","../img/tt/534tt.jpg","",""
"null","<div style=""font-size:60px;""> </div>","null","fixation","html-keyboard-response","482","1412633","0.0-6.0-0.68","2668452","co38368","norming","","","","","","",""
"null","../img/tt/522tt.jpg","null","mooney1","image-keyboard-response","483","1415640","0.0-6.0-1.68","2668452","co38368","norming","","","","","","",""
"2651.869999999646","","","post_mooney1_questions","survey-likert","484","1418296","0.0-6.0-2.68","2668452","co38368","norming","","","{""curiosity"":6,""confidence"":0}","[0,1]","../img/tt/522tt.jpg","",""
"597.7099999999627","","","recognition","survey-text","485","1418895","0.0-6.0-3.68","2668452","co38368","norming","","","{""guess"":""""}","","../img/tt/522tt.jpg","",""
"null","../img/gs/522gs.jpg","null","reveal","image-keyboard-response","486","1420902","0.0-6.0-4.68","2668452","co38368","norming","","","","","","",""
"null","../img/tt/522tt.jpg","null","mooney2","image-keyboard-response","487","1422905","0.0-6.0-5.68","2668452","co38368","norming","","","","","","",""
"1691.4400000004098","","","post_reveal_questions","survey-likert","488","1424599","0.0-6.0-6.68","2668452","co38368","norming","","","{""aha"":6}","[0]","../img/tt/522tt.jpg","",""
"null","<div style=""font-size:60px;""> </div>","null","fixation","html-keyboard-response","489","1424801","0.0-6.0-0.69","2668452","co38368","norming","","","","","","",""
"null","../img/tt/1024tt.jpg","null","mooney1","image-keyboard-response","490","1427803","0.0-6.0-1.69","2668452","co38368","norming","","","","","","",""
"3656.4049999995623","","","post_mooney1_questions","survey-likert","491","1431463","0.0-6.0-2.69","2668452","co38368","norming","","","{""curiosity"":6,""confidence"":0}","[0,1]","../img/tt/1024tt.jpg","",""
"2382.4050000002608","","","recognition","survey-text","492","1433847","0.0-6.0-3.69","2668452","co38368","norming","","","{""guess"":""tennis""}","","../img/tt/1024tt.jpg","",""
"null","../img/gs/1024gs.jpg","null","reveal","image-keyboard-response","493","1435848","0.0-6.0-4.69","2668452","co38368","norming","","","","","","",""
"null","../img/tt/1024tt.jpg","null","mooney2","image-keyboard-response","494","1437856","0.0-6.0-5.69","2668452","co38368","norming","","","","","","",""
"2412.8700000001118","","","post_reveal_questions","survey-likert","495","1440272","0.0-6.0-6.69","2668452","co38368","norming","","","{""aha"":4}","[0]","../img/tt/1024tt.jpg","",""
"null","<div style=""font-size:60px;""> </div>","null","fixation","html-keyboard-response","496","1440473","0.0-6.0-0.70","2668452","co38368","norming","","","","","","",""
"null","../img/tt/1006tt.jpg","null","mooney1","image-keyboard-response","497","1443484","0.0-6.0-1.70","2668452","co38368","norming","","","","","","",""
"3544.4399999997113","","","post_mooney1_questions","survey-likert","498","1447032","0.0-6.0-2.70","2668452","co38368","norming","","","{""curiosity"":6,""confidence"":0}","[0,1]","../img/tt/1006tt.jpg","",""
"3149.899999999441","","","recognition","survey-text","499","1450183","0.0-6.0-3.70","2668452","co38368","norming","","","{""guess"":""weide""}","","../img/tt/1006tt.jpg","",""
"null","../img/gs/1006gs.jpg","null","reveal","image-keyboard-response","500","1452185","0.0-6.0-4.70","2668452","co38368","norming","","","","","","",""
"null","../img/tt/1006tt.jpg","null","mooney2","image-keyboard-response","501","1454188","0.0-6.0-5.70","2668452","co38368","norming","","","","","","",""
"1880.8900000003632","","","post_reveal_questions","survey-likert","502","1456071","0.0-6.0-6.70","2668452","co38368","norming","","","{""aha"":4}","[0]","../img/tt/1006tt.jpg","",""
"null","<div style=""font-size:60px;""> </div>","null","fixation","html-keyboard-response","503","1456272","0.0-6.0-0.71","2668452","co38368","norming","","","","","","",""
"null","../img/tt/053tt.jpg","null","mooney1","image-keyboard-response","504","1459285","0.0-6.0-1.71","2668452","co38368","norming","","","","","","",""
"3603.7849999994505","","","post_mooney1_questions","survey-likert","505","1462892","0.0-6.0-2.71","2668452","co38368","norming","","","{""curiosity"":6,""confidence"":2}","[0,1]","../img/tt/053tt.jpg","",""
"2318.304999999702","","","recognition","survey-text","506","1465212","0.0-6.0-3.71","2668452","co38368","norming","","","{""guess"":""surfers""}","","../img/tt/053tt.jpg","",""
"null","../img/gs/053gs.jpg","null","reveal","image-keyboard-response","507","1467214","0.0-6.0-4.71","2668452","co38368","norming","","","","","","",""
"null","../img/tt/053tt.jpg","null","mooney2","image-keyboard-response","508","1469216","0.0-6.0-5.71","2668452","co38368","norming","","","","","","",""
"2104.0750000001863","","","post_reveal_questions","survey-likert","509","1471324","0.0-6.0-6.71","2668452","co38368","norming","","","{""aha"":5}","[0]","../img/tt/053tt.jpg","",""
"null","<div style=""font-size:60px;""> </div>","null","fixation","html-keyboard-response","510","1471525","0.0-6.0-0.72","2668452","co38368","norming","","","","","","",""
"null","../img/tt/1127tt.jpg","null","mooney1","image-keyboard-response","511","1474528","0.0-6.0-1.72","2668452","co38368","norming","","","","","","",""
"3479.755000000354","","","post_mooney1_questions","survey-likert","512","1478012","0.0-6.0-2.72","2668452","co38368","norming","","","{""curiosity"":5,""confidence"":2}","[0,1]","../img/tt/1127tt.jpg","",""
"2445.8400000003166","","","recognition","survey-text","513","1480460","0.0-6.0-3.72","2668452","co38368","norming","","","{""guess"":""restaurant""}","","../img/tt/1127tt.jpg","",""
"null","../img/gs/1127gs.jpg","null","reveal","image-keyboard-response","514","1482465","0.0-6.0-4.72","2668452","co38368","norming","","","","","","",""
"null","../img/tt/1127tt.jpg","null","mooney2","image-keyboard-response","515","1484468","0.0-6.0-5.72","2668452","co38368","norming","","","","","","",""
"1949.1699999999255","","","post_reveal_questions","survey-likert","516","1486420","0.0-6.0-6.72","2668452","co38368","norming","","","{""aha"":6}","[0]","../img/tt/1127tt.jpg","",""
"null","<div style=""font-size:60px;""> </div>","null","fixation","html-keyboard-response","517","1486622","0.0-6.0-0.73","2668452","co38368","norming","","","","","","",""
"null","../img/tt/524tt.jpg","null","mooney1","image-keyboard-response","518","1489632","0.0-6.0-1.73","2668452","co38368","norming","","","","","","",""
"5263.960000000196","","","post_mooney1_questions","survey-likert","519","1494900","0.0-6.0-2.73","2668452","co38368","norming","","","{""curiosity"":5,""confidence"":1}","[0,1]","../img/tt/524tt.jpg","",""
"1990.0749999997206","","","recognition","survey-text","520","1496892","0.0-6.0-3.73","2668452","co38368","norming","","","{""guess"":""knaagdier""}","","../img/tt/524tt.jpg","",""
"null","../img/gs/524gs.jpg","null","reveal","image-keyboard-response","521","1498901","0.0-6.0-4.73","2668452","co38368","norming","","","","","","",""
"null","../img/tt/524tt.jpg","null","mooney2","image-keyboard-response","522","1500912","0.0-6.0-5.73","2668452","co38368","norming","","","","","","",""
"2873.244999999879","","","post_reveal_questions","survey-likert","523","1503788","0.0-6.0-6.73","2668452","co38368","norming","","","{""aha"":5}","[0]","../img/tt/524tt.jpg","",""
"null","<div style=""font-size:60px;""> </div>","null","fixation","html-keyboard-response","524","1503990","0.0-6.0-0.74","2668452","co38368","norming","","","","","","",""
"null","../img/tt/1107tt.jpg","null","mooney1","image-keyboard-response","525","1506992","0.0-6.0-1.74","2668452","co38368","norming","","","","","","",""
"4392.670000000158","","","post_mooney1_questions","survey-likert","526","1511388","0.0-6.0-2.74","2668452","co38368","norming","","","{""curiosity"":6,""confidence"":0}","[0,1]","../img/tt/1107tt.jpg","",""
"589.6200000005774","","","recognition","survey-text","527","1511979","0.0-6.0-3.74","2668452","co38368","norming","","","{""guess"":""""}","","../img/tt/1107tt.jpg","",""
"null","../img/gs/1107gs.jpg","null","reveal","image-keyboard-response","528","1513982","0.0-6.0-4.74","2668452","co38368","norming","","","","","","",""
"null","../img/tt/1107tt.jpg","null","mooney2","image-keyboard-response","529","1515986","0.0-6.0-5.74","2668452","co38368","norming","","","","","","",""
"2032.869999999879","","","post_reveal_questions","survey-likert","530","1518020","0.0-6.0-6.74","2668452","co38368","norming","","","{""aha"":6}","[0]","../img/tt/1107tt.jpg","",""
"null","<div style=""font-size:60px;""> </div>","null","fixation","html-keyboard-response","531","1518221","0.0-6.0-0.75","2668452","co38368","norming","","","","","","",""
"null","../img/tt/1228tt.jpg","null","mooney1","image-keyboard-response","532","1521228","0.0-6.0-1.75","2668452","co38368","norming","","","","","","",""
"3805.155000000028","","","post_mooney1_questions","survey-likert","533","1525037","0.0-6.0-2.75","2668452","co38368","norming","","","{""curiosity"":6,""confidence"":1}","[0,1]","../img/tt/1228tt.jpg","",""
"3261.989999999758","","","recognition","survey-text","534","1528301","0.0-6.0-3.75","2668452","co38368","norming","","","{""guess"":""vogel ""}","","../img/tt/1228tt.jpg","",""
"null","../img/gs/1228gs.jpg","null","reveal","image-keyboard-response","535","1530305","0.0-6.0-4.75","2668452","co38368","norming","","","","","","",""
"null","../img/tt/1228tt.jpg","null","mooney2","image-keyboard-response","536","1532313","0.0-6.0-5.75","2668452","co38368","norming","","","","","","",""
"1912.8549999995157","","","post_reveal_questions","survey-likert","537","1534229","0.0-6.0-6.75","2668452","co38368","norming","","","{""aha"":6}","[0]","../img/tt/1228tt.jpg","",""
"null","<div style=""font-size:60px;""> </div>","null","fixation","html-keyboard-response","538","1534430","0.0-6.0-0.76","2668452","co38368","norming","","","","","","",""
"null","../img/tt/1191tt.jpg","null","mooney1","image-keyboard-response","539","1537441","0.0-6.0-1.76","2668452","co38368","norming","","","","","","",""
"4320.269999999087","","","post_mooney1_questions","survey-likert","540","1541765","0.0-6.0-2.76","2668452","co38368","norming","","","{""curiosity"":6,""confidence"":0}","[0,1]","../img/tt/1191tt.jpg","",""
"8053.649999999907","","","recognition","survey-text","541","1549821","0.0-6.0-3.76","2668452","co38368","norming","","","{""guess"":""vogel ""}","","../img/tt/1191tt.jpg","",""
"null","../img/gs/1191gs.jpg","null","reveal","image-keyboard-response","542","1551828","0.0-6.0-4.76","2668452","co38368","norming","","","","","","",""
"null","../img/tt/1191tt.jpg","null","mooney2","image-keyboard-response","543","1553830","0.0-6.0-5.76","2668452","co38368","norming","","","","","","",""
"2132.0200000000186","","","post_reveal_questions","survey-likert","544","1555965","0.0-6.0-6.76","2668452","co38368","norming","","","{""aha"":6}","[0]","../img/tt/1191tt.jpg","",""
"null","<div style=""font-size:60px;""> </div>","null","fixation","html-keyboard-response","545","1556173","0.0-6.0-0.77","2668452","co38368","norming","","","","","","",""
"null","../img/tt/515tt.jpg","null","mooney1","image-keyboard-response","546","1559182","0.0-6.0-1.77","2668452","co38368","norming","","","","","","",""
"3611.399999999674","","","post_mooney1_questions","survey-likert","547","1562797","0.0-6.0-2.77","2668452","co38368","norming","","","{""curiosity"":5,""confidence"":1}","[0,1]","../img/tt/515tt.jpg","",""
"1342.0000000006985","","","recognition","survey-text","548","1564141","0.0-6.0-3.77","2668452","co38368","norming","","","{""guess"":""boek ""}","","../img/tt/515tt.jpg","",""
"null","../img/gs/515gs.jpg","null","reveal","image-keyboard-response","549","1566145","0.0-6.0-4.77","2668452","co38368","norming","","","","","","",""
"null","../img/tt/515tt.jpg","null","mooney2","image-keyboard-response","550","1568147","0.0-6.0-5.77","2668452","co38368","norming","","","","","","",""
"2054.734999999637","","","post_reveal_questions","survey-likert","551","1570205","0.0-6.0-6.77","2668452","co38368","norming","","","{""aha"":6}","[0]","../img/tt/515tt.jpg","",""
"null","<div style=""font-size:60px;""> </div>","null","fixation","html-keyboard-response","552","1570406","0.0-6.0-0.78","2668452","co38368","norming","","","","","","",""
