"rt","stimulus","key_press","test_part","trial_type","trial_index","time_elapsed","internal_node_id","totalTime","subject","experiment_name","button_pressed","success","responses","question_order","currentStim","old","correct"
"5135.700000000014","Welcome to the experiment. This is an online experiment so please don't close the tab/window until we say goodbye.  Press any key to begin.","32","instructions","html-keyboard-response","0","5150","0.0-0.0","2752669","co38113","norming","","","","","","",""
"8758.175000000023","<div style='word-wrap: break-word; width: 900px'><h3>Please consider this information carefully before deciding whether to participate in this research</h3><ul style='text-align: left; font-size: .8em;'><li><b>Purpose of the research</b>: To examine how people process images.</li><li><b>What you will do in this research</b>:  Stimuli (images) will be presented on the computer and you will be asked different questions about them.</li><li><b>Time required</b>: Participation will take between 45 and 60 minutes to complete.</li><li><b>Risks</b>:  There are no anticipated risks associated with participating in this study. The effects of participating should be comparable to those you would experience from viewing a computer monitor for 30 minutes and using a mouse or keyboard.</li><li><b>Benefits</b>:  This study provides no benefits to you individually except for the credit. The study provides important information about the nature of perception and learning.</li><li><b>Confidentiality</b>:  Your participation in this study will remain confidential. No personally identifiable information will be associated with your data. Your de-identified data may be shared with other researchers and used in future projects.</li><li><b>Participation and withdrawal</b>:  Your participation in this study is completely voluntary and you may refuse to participate or you may choose to withdraw at any time without penalty.</li><li><b>How to contact the researchers</b>: If you have questions or concerns about your participation or payment, or want to request a summary of research findings, please contact Sander Van de Cruys (KU Leuven), at sander.vandecruys@kuleuven.be.</li></ul><p>The nature and purpose of this research have been sufficiently explained and I agree to participate in this study.  I understand that I am free to withdraw at any time without incurring any penalty.</p><p>Please consent by clicking the button below to continue. Otherwise, please exit the study at this time.</p></div>","","instructions","html-button-response","1","13909","0.0-1.0","2752669","co38113","norming","0","","","","","",""
"","","","instructions","fullscreen","2","20801","0.0-2.0","2752669","co38113","norming","","true","","","","",""
"43603.360000000015","","","sona","survey-html-form","3","64418","0.0-3.0","2752669","co38113","norming","","","[{""name"":""sonaid"",""value"":""38113""},{""name"":""debrief"",""value"":""yes""},{""name"":""datajoin"",""value"":""yes""}]","","","",""
"90818.15000000002","<div style='word-wrap: break-word; width: 900px'><h3>Instructions</h3><p>This experiment will have 3 parts. In the first part you will see a series of distorted images like the one below on the left. As you can see in the righthand image, the distorted images are derived from actual photographs. In what follows, you will <strong>briefly</strong> be presented with <strong>only</strong> the distorted image.</p> <div style='float: left; margin-right: 20px;'><img src='../img/018tt.jpg' height='250' width='250'></img></div><div style='float: right; margin-left: 20px;'><img src='../img/018gs.jpg' height='250' width='250'></img></div><p>Subsequently you will be asked a few questions about the image: One question on how <strong>curious</strong> you are about the solution and one on how <strong>confident</strong> you are that you know the solution.</p>Next, we ask you to make a guess on what is in the image. Note that it is OK to name just the <strong>basic level category</strong>. For example when you see a parrot in the image, 'parrot' will obviously be a correct answer but also correct is 'bird'. However, 'animal' will <strong>not</strong> be counted as a correct response. For the example above, 'rose' would be correct or 'flower', but not 'plant'. When soccer players are depicted, 'soccer', 'football', 'soccer players' will be correct, but not 'humans', 'outdoors', or 'sports'. You do not need to describe the image in full, just name the main object in it <strong>in one or two words</strong>. All images depict objects from one of the following broad level categories: animals, inanimate objects, plants, sports, vehicles, and food. Recognizing means knowing <strong>more</strong> than these broad labels for a given image. But we always encourage you to <strong>make a guess</strong> if you can. Note that you are allowed to use <strong>Dutch and English</strong> in your answers, whatever comes easiest for you.</p><p>Press any key to continue.</p></div>","32","instructions","html-keyboard-response","4","155234","0.0-4.0","2752669","co38113","norming","","","","","","",""
"75710.945","<div style='word-wrap: break-word; width: 900px'><h3>Instructions</h3> <p>Next, the solution image will be revealed to you and you'll be asked to indicate how strong your <strong>aha-experience</strong> was after seeing the solution. This describes the positive feeling of the 'click' you sometimes experience, when the pieces of the 'puzzle' fall together and you suddenly have 'insight' in the image.</p><img src='aha.jpg' height='188' width='250'></img><p>Note that there are no right or wrong answers. We are interested in what <strong>you</strong> see in the image and how <strong>you</strong> feel about it.</p><p>Press any key to start the experiment.</p></div>","32","instructions","html-keyboard-response","5","230936","0.0-5.0","2752669","co38113","norming","","","","","","",""
"null","<div style=""font-size:60px;""> </div>","null","fixation","html-keyboard-response","6","231146","0.0-6.0-0.0","2752669","co38113","norming","","","","","","",""
"null","../img/tt/044tt.jpg","null","mooney1","image-keyboard-response","7","234156","0.0-6.0-1.0","2752669","co38113","norming","","","","","","",""
"7747.155000000028","","","post_mooney1_questions","survey-likert","8","241905","0.0-6.0-2.0","2752669","co38113","norming","","","{""curiosity"":2,""confidence"":5}","[0,1]","../img/tt/044tt.jpg","",""
"3381.5749999999825","","","recognition","survey-text","9","245288","0.0-6.0-3.0","2752669","co38113","norming","","","{""guess"":""bed""}","","../img/tt/044tt.jpg","",""
"null","../img/gs/044gs.jpg","null","reveal","image-keyboard-response","10","247298","0.0-6.0-4.0","2752669","co38113","norming","","","","","","",""
"null","../img/tt/044tt.jpg","null","mooney2","image-keyboard-response","11","249300","0.0-6.0-5.0","2752669","co38113","norming","","","","","","",""
"7682.850000000064","","","post_reveal_questions","survey-likert","12","256984","0.0-6.0-6.0","2752669","co38113","norming","","","{""aha"":1}","[0]","../img/tt/044tt.jpg","",""
"null","<div style=""font-size:60px;""> </div>","null","fixation","html-keyboard-response","13","257186","0.0-6.0-0.1","2752669","co38113","norming","","","","","","",""
"null","../img/tt/020tt.jpg","null","mooney1","image-keyboard-response","14","260188","0.0-6.0-1.1","2752669","co38113","norming","","","","","","",""
"6442.784999999945","","","post_mooney1_questions","survey-likert","15","266632","0.0-6.0-2.1","2752669","co38113","norming","","","{""curiosity"":4,""confidence"":0}","[0,1]","../img/tt/020tt.jpg","",""
"7326.129999999888","","","recognition","survey-text","16","273960","0.0-6.0-3.1","2752669","co38113","norming","","","{""guess"":""bloem""}","","../img/tt/020tt.jpg","",""
"null","../img/gs/020gs.jpg","null","reveal","image-keyboard-response","17","275963","0.0-6.0-4.1","2752669","co38113","norming","","","","","","",""
"null","../img/tt/020tt.jpg","null","mooney2","image-keyboard-response","18","277965","0.0-6.0-5.1","2752669","co38113","norming","","","","","","",""
"4481.110000000044","","","post_reveal_questions","survey-likert","19","282448","0.0-6.0-6.1","2752669","co38113","norming","","","{""aha"":0}","[0]","../img/tt/020tt.jpg","",""
"null","<div style=""font-size:60px;""> </div>","null","fixation","html-keyboard-response","20","282654","0.0-6.0-0.2","2752669","co38113","norming","","","","","","",""
"null","../img/tt/222tt.jpg","null","mooney1","image-keyboard-response","21","285659","0.0-6.0-1.2","2752669","co38113","norming","","","","","","",""
"9171.294999999984","","","post_mooney1_questions","survey-likert","22","294815","0.0-6.0-2.2","2752669","co38113","norming","","","{""curiosity"":2,""confidence"":3}","[0,1]","../img/tt/222tt.jpg","",""
"3741.5449999999837","","","recognition","survey-text","23","298558","0.0-6.0-3.2","2752669","co38113","norming","","","{""guess"":""street""}","","../img/tt/222tt.jpg","",""
"null","../img/gs/222gs.jpg","null","reveal","image-keyboard-response","24","300560","0.0-6.0-4.2","2752669","co38113","norming","","","","","","",""
"null","../img/tt/222tt.jpg","null","mooney2","image-keyboard-response","25","302564","0.0-6.0-5.2","2752669","co38113","norming","","","","","","",""
"2745.2600000000093","","","post_reveal_questions","survey-likert","26","305310","0.0-6.0-6.2","2752669","co38113","norming","","","{""aha"":0}","[0]","../img/tt/222tt.jpg","",""
"null","<div style=""font-size:60px;""> </div>","null","fixation","html-keyboard-response","27","305515","0.0-6.0-0.3","2752669","co38113","norming","","","","","","",""
"null","../img/tt/300tt.jpg","null","mooney1","image-keyboard-response","28","308526","0.0-6.0-1.3","2752669","co38113","norming","","","","","","",""
"16766.87999999989","","","post_mooney1_questions","survey-likert","29","325294","0.0-6.0-2.3","2752669","co38113","norming","","","{""curiosity"":3,""confidence"":1}","[0,1]","../img/tt/300tt.jpg","",""
"4310.1700000001","","","recognition","survey-text","30","329606","0.0-6.0-3.3","2752669","co38113","norming","","","{""guess"":""monkey""}","","../img/tt/300tt.jpg","",""
"null","../img/gs/300gs.jpg","null","reveal","image-keyboard-response","31","331611","0.0-6.0-4.3","2752669","co38113","norming","","","","","","",""
"null","../img/tt/300tt.jpg","null","mooney2","image-keyboard-response","32","333616","0.0-6.0-5.3","2752669","co38113","norming","","","","","","",""
"5612.030000000028","","","post_reveal_questions","survey-likert","33","339230","0.0-6.0-6.3","2752669","co38113","norming","","","{""aha"":1}","[0]","../img/tt/300tt.jpg","",""
"null","<div style=""font-size:60px;""> </div>","null","fixation","html-keyboard-response","34","339435","0.0-6.0-0.4","2752669","co38113","norming","","","","","","",""
"null","../img/tt/135tt.jpg","null","mooney1","image-keyboard-response","35","342438","0.0-6.0-1.4","2752669","co38113","norming","","","","","","",""
"6790.100000000093","","","post_mooney1_questions","survey-likert","36","349230","0.0-6.0-2.4","2752669","co38113","norming","","","{""curiosity"":4,""confidence"":6}","[0,1]","../img/tt/135tt.jpg","",""
"3598.2299999999814","","","recognition","survey-text","37","352805","0.0-6.0-3.4","2752669","co38113","norming","","","{""guess"":""toilet""}","","../img/tt/135tt.jpg","",""
"null","../img/gs/135gs.jpg","null","reveal","image-keyboard-response","38","354815","0.0-6.0-4.4","2752669","co38113","norming","","","","","","",""
"null","../img/tt/135tt.jpg","null","mooney2","image-keyboard-response","39","356821","0.0-6.0-5.4","2752669","co38113","norming","","","","","","",""
"8062.495000000054","","","post_reveal_questions","survey-likert","40","364885","0.0-6.0-6.4","2752669","co38113","norming","","","{""aha"":6}","[0]","../img/tt/135tt.jpg","",""
"null","<div style=""font-size:60px;""> </div>","null","fixation","html-keyboard-response","41","365093","0.0-6.0-0.5","2752669","co38113","norming","","","","","","",""
"null","../img/tt/549tt.jpg","null","mooney1","image-keyboard-response","42","368097","0.0-6.0-1.5","2752669","co38113","norming","","","","","","",""
"4682.14499999996","","","post_mooney1_questions","survey-likert","43","372781","0.0-6.0-2.5","2752669","co38113","norming","","","{""curiosity"":4,""confidence"":0}","[0,1]","../img/tt/549tt.jpg","",""
"7629.975000000035","","","recognition","survey-text","44","380413","0.0-6.0-3.5","2752669","co38113","norming","","","{""guess"":""""}","","../img/tt/549tt.jpg","",""
"null","../img/gs/549gs.jpg","null","reveal","image-keyboard-response","45","382419","0.0-6.0-4.5","2752669","co38113","norming","","","","","","",""
"null","../img/tt/549tt.jpg","null","mooney2","image-keyboard-response","46","384429","0.0-6.0-5.5","2752669","co38113","norming","","","","","","",""
"4989.820000000007","","","post_reveal_questions","survey-likert","47","389421","0.0-6.0-6.5","2752669","co38113","norming","","","{""aha"":3}","[0]","../img/tt/549tt.jpg","",""
"null","<div style=""font-size:60px;""> </div>","null","fixation","html-keyboard-response","48","389627","0.0-6.0-0.6","2752669","co38113","norming","","","","","","",""
"null","../img/tt/378tt.jpg","null","mooney1","image-keyboard-response","49","392634","0.0-6.0-1.6","2752669","co38113","norming","","","","","","",""
"5249.119999999937","","","post_mooney1_questions","survey-likert","50","397885","0.0-6.0-2.6","2752669","co38113","norming","","","{""curiosity"":3,""confidence"":1}","[0,1]","../img/tt/378tt.jpg","",""
"4926.055000000051","","","recognition","survey-text","51","402813","0.0-6.0-3.6","2752669","co38113","norming","","","{""guess"":""a woman""}","","../img/tt/378tt.jpg","",""
"null","../img/gs/378gs.jpg","null","reveal","image-keyboard-response","52","404821","0.0-6.0-4.6","2752669","co38113","norming","","","","","","",""
"null","../img/tt/378tt.jpg","null","mooney2","image-keyboard-response","53","406827","0.0-6.0-5.6","2752669","co38113","norming","","","","","","",""
"3904.5349999999744","","","post_reveal_questions","survey-likert","54","410733","0.0-6.0-6.6","2752669","co38113","norming","","","{""aha"":0}","[0]","../img/tt/378tt.jpg","",""
"null","<div style=""font-size:60px;""> </div>","null","fixation","html-keyboard-response","55","410938","0.0-6.0-0.7","2752669","co38113","norming","","","","","","",""
"null","../img/tt/1154tt.jpg","null","mooney1","image-keyboard-response","56","413927","0.0-6.0-1.7","2752669","co38113","norming","","","","","","",""
"7593.865000000049","","","post_mooney1_questions","survey-likert","57","421523","0.0-6.0-2.7","2752669","co38113","norming","","","{""curiosity"":4,""confidence"":0}","[0,1]","../img/tt/1154tt.jpg","",""
"1110.0349999999162","","","recognition","survey-text","58","422635","0.0-6.0-3.7","2752669","co38113","norming","","","{""guess"":""""}","","../img/tt/1154tt.jpg","",""
"null","../img/gs/1154gs.jpg","null","reveal","image-keyboard-response","59","424637","0.0-6.0-4.7","2752669","co38113","norming","","","","","","",""
"null","../img/tt/1154tt.jpg","null","mooney2","image-keyboard-response","60","426648","0.0-6.0-5.7","2752669","co38113","norming","","","","","","",""
"4553.959999999963","","","post_reveal_questions","survey-likert","61","431203","0.0-6.0-6.7","2752669","co38113","norming","","","{""aha"":2}","[0]","../img/tt/1154tt.jpg","",""
"null","<div style=""font-size:60px;""> </div>","null","fixation","html-keyboard-response","62","431407","0.0-6.0-0.8","2752669","co38113","norming","","","","","","",""
"null","../img/tt/1053tt.jpg","null","mooney1","image-keyboard-response","63","434415","0.0-6.0-1.8","2752669","co38113","norming","","","","","","",""
"7297.549999999988","","","post_mooney1_questions","survey-likert","64","441715","0.0-6.0-2.8","2752669","co38113","norming","","","{""curiosity"":3,""confidence"":1}","[0,1]","../img/tt/1053tt.jpg","",""
"4582.115000000049","","","recognition","survey-text","65","446299","0.0-6.0-3.8","2752669","co38113","norming","","","{""guess"":""people""}","","../img/tt/1053tt.jpg","",""
"null","../img/gs/1053gs.jpg","null","reveal","image-keyboard-response","66","448300","0.0-6.0-4.8","2752669","co38113","norming","","","","","","",""
"null","../img/tt/1053tt.jpg","null","mooney2","image-keyboard-response","67","450303","0.0-6.0-5.8","2752669","co38113","norming","","","","","","",""
"3898.5499999999884","","","post_reveal_questions","survey-likert","68","454203","0.0-6.0-6.8","2752669","co38113","norming","","","{""aha"":0}","[0]","../img/tt/1053tt.jpg","",""
"null","<div style=""font-size:60px;""> </div>","null","fixation","html-keyboard-response","69","454405","0.0-6.0-0.9","2752669","co38113","norming","","","","","","",""
"null","../img/tt/1002tt.jpg","null","mooney1","image-keyboard-response","70","457417","0.0-6.0-1.9","2752669","co38113","norming","","","","","","",""
"5272.130000000063","","","post_mooney1_questions","survey-likert","71","462691","0.0-6.0-2.9","2752669","co38113","norming","","","{""curiosity"":3,""confidence"":1}","[0,1]","../img/tt/1002tt.jpg","",""
"3149.8400000000256","","","recognition","survey-text","72","465843","0.0-6.0-3.9","2752669","co38113","norming","","","{""guess"":""koe""}","","../img/tt/1002tt.jpg","",""
"null","../img/gs/1002gs.jpg","null","reveal","image-keyboard-response","73","467844","0.0-6.0-4.9","2752669","co38113","norming","","","","","","",""
"null","../img/tt/1002tt.jpg","null","mooney2","image-keyboard-response","74","469854","0.0-6.0-5.9","2752669","co38113","norming","","","","","","",""
"3146.960000000021","","","post_reveal_questions","survey-likert","75","473003","0.0-6.0-6.9","2752669","co38113","norming","","","{""aha"":2}","[0]","../img/tt/1002tt.jpg","",""
"null","<div style=""font-size:60px;""> </div>","null","fixation","html-keyboard-response","76","473206","0.0-6.0-0.10","2752669","co38113","norming","","","","","","",""
"null","../img/tt/1091tt.jpg","null","mooney1","image-keyboard-response","77","476184","0.0-6.0-1.10","2752669","co38113","norming","","","","","","",""
"4401.179999999935","","","post_mooney1_questions","survey-likert","78","480588","0.0-6.0-2.10","2752669","co38113","norming","","","{""curiosity"":3,""confidence"":6}","[0,1]","../img/tt/1091tt.jpg","",""
"3758.3649999999907","","","recognition","survey-text","79","484348","0.0-6.0-3.10","2752669","co38113","norming","","","{""guess"":""a horse""}","","../img/tt/1091tt.jpg","",""
"null","../img/gs/1091gs.jpg","null","reveal","image-keyboard-response","80","486358","0.0-6.0-4.10","2752669","co38113","norming","","","","","","",""
"null","../img/tt/1091tt.jpg","null","mooney2","image-keyboard-response","81","488359","0.0-6.0-5.10","2752669","co38113","norming","","","","","","",""
"4323.094999999972","","","post_reveal_questions","survey-likert","82","492684","0.0-6.0-6.10","2752669","co38113","norming","","","{""aha"":6}","[0]","../img/tt/1091tt.jpg","",""
"null","<div style=""font-size:60px;""> </div>","null","fixation","html-keyboard-response","83","492886","0.0-6.0-0.11","2752669","co38113","norming","","","","","","",""
"null","../img/tt/063tt.jpg","null","mooney1","image-keyboard-response","84","495897","0.0-6.0-1.11","2752669","co38113","norming","","","","","","",""
"5953.354999999981","","","post_mooney1_questions","survey-likert","85","501852","0.0-6.0-2.11","2752669","co38113","norming","","","{""curiosity"":4,""confidence"":3}","[0,1]","../img/tt/063tt.jpg","",""
"3190.164999999979","","","recognition","survey-text","86","505044","0.0-6.0-3.11","2752669","co38113","norming","","","{""guess"":""books""}","","../img/tt/063tt.jpg","",""
"null","../img/gs/063gs.jpg","null","reveal","image-keyboard-response","87","507045","0.0-6.0-4.11","2752669","co38113","norming","","","","","","",""
"null","../img/tt/063tt.jpg","null","mooney2","image-keyboard-response","88","509049","0.0-6.0-5.11","2752669","co38113","norming","","","","","","",""
"2361.469999999914","","","post_reveal_questions","survey-likert","89","511412","0.0-6.0-6.11","2752669","co38113","norming","","","{""aha"":3}","[0]","../img/tt/063tt.jpg","",""
"null","<div style=""font-size:60px;""> </div>","null","fixation","html-keyboard-response","90","511615","0.0-6.0-0.12","2752669","co38113","norming","","","","","","",""
"null","../img/tt/1086tt.jpg","null","mooney1","image-keyboard-response","91","514619","0.0-6.0-1.12","2752669","co38113","norming","","","","","","",""
"5191.624999999942","","","post_mooney1_questions","survey-likert","92","519812","0.0-6.0-2.12","2752669","co38113","norming","","","{""curiosity"":5,""confidence"":2}","[0,1]","../img/tt/1086tt.jpg","",""
"3182.0149999999558","","","recognition","survey-text","93","522996","0.0-6.0-3.12","2752669","co38113","norming","","","{""guess"":""dog""}","","../img/tt/1086tt.jpg","",""
"null","../img/gs/1086gs.jpg","null","reveal","image-keyboard-response","94","525002","0.0-6.0-4.12","2752669","co38113","norming","","","","","","",""
"null","../img/tt/1086tt.jpg","null","mooney2","image-keyboard-response","95","527010","0.0-6.0-5.12","2752669","co38113","norming","","","","","","",""
"3832.1650000000373","","","post_reveal_questions","survey-likert","96","530844","0.0-6.0-6.12","2752669","co38113","norming","","","{""aha"":4}","[0]","../img/tt/1086tt.jpg","",""
"null","<div style=""font-size:60px;""> </div>","null","fixation","html-keyboard-response","97","531050","0.0-6.0-0.13","2752669","co38113","norming","","","","","","",""
"null","../img/tt/060tt.jpg","null","mooney1","image-keyboard-response","98","534057","0.0-6.0-1.13","2752669","co38113","norming","","","","","","",""
"5193.04999999993","","","post_mooney1_questions","survey-likert","99","539240","0.0-6.0-2.13","2752669","co38113","norming","","","{""curiosity"":4,""confidence"":3}","[0,1]","../img/tt/060tt.jpg","",""
"3550.030000000028","","","recognition","survey-text","100","542791","0.0-6.0-3.13","2752669","co38113","norming","","","{""guess"":""brood""}","","../img/tt/060tt.jpg","",""
"null","../img/gs/060gs.jpg","null","reveal","image-keyboard-response","101","544802","0.0-6.0-4.13","2752669","co38113","norming","","","","","","",""
"null","../img/tt/060tt.jpg","null","mooney2","image-keyboard-response","102","546805","0.0-6.0-5.13","2752669","co38113","norming","","","","","","",""
"3345.435000000056","","","post_reveal_questions","survey-likert","103","550152","0.0-6.0-6.13","2752669","co38113","norming","","","{""aha"":2}","[0]","../img/tt/060tt.jpg","",""
"null","<div style=""font-size:60px;""> </div>","null","fixation","html-keyboard-response","104","550353","0.0-6.0-0.14","2752669","co38113","norming","","","","","","",""
"null","../img/tt/1188tt.jpg","null","mooney1","image-keyboard-response","105","553358","0.0-6.0-1.14","2752669","co38113","norming","","","","","","",""
"6247.989999999874","","","post_mooney1_questions","survey-likert","106","559608","0.0-6.0-2.14","2752669","co38113","norming","","","{""curiosity"":5,""confidence"":0}","[0,1]","../img/tt/1188tt.jpg","",""
"917.9749999999767","","","recognition","survey-text","107","560527","0.0-6.0-3.14","2752669","co38113","norming","","","{""guess"":""""}","","../img/tt/1188tt.jpg","",""
"null","../img/gs/1188gs.jpg","null","reveal","image-keyboard-response","108","562528","0.0-6.0-4.14","2752669","co38113","norming","","","","","","",""
"null","../img/tt/1188tt.jpg","null","mooney2","image-keyboard-response","109","564531","0.0-6.0-5.14","2752669","co38113","norming","","","","","","",""
"3963.945000000065","","","post_reveal_questions","survey-likert","110","568495","0.0-6.0-6.14","2752669","co38113","norming","","","{""aha"":0}","[0]","../img/tt/1188tt.jpg","",""
"null","<div style=""font-size:60px;""> </div>","null","fixation","html-keyboard-response","111","568701","0.0-6.0-0.15","2752669","co38113","norming","","","","","","",""
"null","../img/tt/001tt.jpg","null","mooney1","image-keyboard-response","112","571712","0.0-6.0-1.15","2752669","co38113","norming","","","","","","",""
"4293.415000000037","","","post_mooney1_questions","survey-likert","113","576007","0.0-6.0-2.15","2752669","co38113","norming","","","{""curiosity"":3,""confidence"":2}","[0,1]","../img/tt/001tt.jpg","",""
"2485.9949999999953","","","recognition","survey-text","114","578495","0.0-6.0-3.15","2752669","co38113","norming","","","{""guess"":""koe""}","","../img/tt/001tt.jpg","",""
"null","../img/gs/001gs.jpg","null","reveal","image-keyboard-response","115","580506","0.0-6.0-4.15","2752669","co38113","norming","","","","","","",""
"null","../img/tt/001tt.jpg","null","mooney2","image-keyboard-response","116","582507","0.0-6.0-5.15","2752669","co38113","norming","","","","","","",""
"4715.969999999972","","","post_reveal_questions","survey-likert","117","587224","0.0-6.0-6.15","2752669","co38113","norming","","","{""aha"":0}","[0]","../img/tt/001tt.jpg","",""
"null","<div style=""font-size:60px;""> </div>","null","fixation","html-keyboard-response","118","587432","0.0-6.0-0.16","2752669","co38113","norming","","","","","","",""
"null","../img/tt/140tt.jpg","null","mooney1","image-keyboard-response","119","590434","0.0-6.0-1.16","2752669","co38113","norming","","","","","","",""
"4267.2050000000745","","","post_mooney1_questions","survey-likert","120","594704","0.0-6.0-2.16","2752669","co38113","norming","","","{""curiosity"":3,""confidence"":6}","[0,1]","../img/tt/140tt.jpg","",""
"3758.024999999907","","","recognition","survey-text","121","598462","0.0-6.0-3.16","2752669","co38113","norming","","","{""guess"":""vorken""}","","../img/tt/140tt.jpg","",""
"null","../img/gs/140gs.jpg","null","reveal","image-keyboard-response","122","600464","0.0-6.0-4.16","2752669","co38113","norming","","","","","","",""
"null","../img/tt/140tt.jpg","null","mooney2","image-keyboard-response","123","602472","0.0-6.0-5.16","2752669","co38113","norming","","","","","","",""
"4885.70000000007","","","post_reveal_questions","survey-likert","124","607359","0.0-6.0-6.16","2752669","co38113","norming","","","{""aha"":6}","[0]","../img/tt/140tt.jpg","",""
"null","<div style=""font-size:60px;""> </div>","null","fixation","html-keyboard-response","125","607561","0.0-6.0-0.17","2752669","co38113","norming","","","","","","",""
"null","../img/tt/1143tt.jpg","null","mooney1","image-keyboard-response","126","610563","0.0-6.0-1.17","2752669","co38113","norming","","","","","","",""
"5090.990000000107","","","post_mooney1_questions","survey-likert","127","615655","0.0-6.0-2.17","2752669","co38113","norming","","","{""curiosity"":5,""confidence"":0}","[0,1]","../img/tt/1143tt.jpg","",""
"702.1199999999953","","","recognition","survey-text","128","616359","0.0-6.0-3.17","2752669","co38113","norming","","","{""guess"":""""}","","../img/tt/1143tt.jpg","",""
"null","../img/gs/1143gs.jpg","null","reveal","image-keyboard-response","129","618366","0.0-6.0-4.17","2752669","co38113","norming","","","","","","",""
"null","../img/tt/1143tt.jpg","null","mooney2","image-keyboard-response","130","620368","0.0-6.0-5.17","2752669","co38113","norming","","","","","","",""
"3660.859999999986","","","post_reveal_questions","survey-likert","131","624031","0.0-6.0-6.17","2752669","co38113","norming","","","{""aha"":0}","[0]","../img/tt/1143tt.jpg","",""
"null","<div style=""font-size:60px;""> </div>","null","fixation","html-keyboard-response","132","624239","0.0-6.0-0.18","2752669","co38113","norming","","","","","","",""
"null","../img/tt/296tt.jpg","null","mooney1","image-keyboard-response","133","627248","0.0-6.0-1.18","2752669","co38113","norming","","","","","","",""
"10020.08500000008","","","post_mooney1_questions","survey-likert","134","637271","0.0-6.0-2.18","2752669","co38113","norming","","","{""curiosity"":6,""confidence"":0}","[0,1]","../img/tt/296tt.jpg","",""
"4814.139999999898","","","recognition","survey-text","135","642087","0.0-6.0-3.18","2752669","co38113","norming","","","{""guess"":""theatre""}","","../img/tt/296tt.jpg","",""
"null","../img/gs/296gs.jpg","null","reveal","image-keyboard-response","136","644087","0.0-6.0-4.18","2752669","co38113","norming","","","","","","",""
"null","../img/tt/296tt.jpg","null","mooney2","image-keyboard-response","137","646093","0.0-6.0-5.18","2752669","co38113","norming","","","","","","",""
"2232.0999999998603","","","post_reveal_questions","survey-likert","138","648327","0.0-6.0-6.18","2752669","co38113","norming","","","{""aha"":0}","[0]","../img/tt/296tt.jpg","",""
"null","<div style=""font-size:60px;""> </div>","null","fixation","html-keyboard-response","139","648530","0.0-6.0-0.19","2752669","co38113","norming","","","","","","",""
"null","../img/tt/1069tt.jpg","null","mooney1","image-keyboard-response","140","651532","0.0-6.0-1.19","2752669","co38113","norming","","","","","","",""
"6237.349999999977","","","post_mooney1_questions","survey-likert","141","657775","0.0-6.0-2.19","2752669","co38113","norming","","","{""curiosity"":2,""confidence"":6}","[0,1]","../img/tt/1069tt.jpg","",""
"3589.979999999865","","","recognition","survey-text","142","661361","0.0-6.0-3.19","2752669","co38113","norming","","","{""guess"":""schapen""}","","../img/tt/1069tt.jpg","",""
"null","../img/gs/1069gs.jpg","null","reveal","image-keyboard-response","143","663370","0.0-6.0-4.19","2752669","co38113","norming","","","","","","",""
"null","../img/tt/1069tt.jpg","null","mooney2","image-keyboard-response","144","665372","0.0-6.0-5.19","2752669","co38113","norming","","","","","","",""
"4243.89000000013","","","post_reveal_questions","survey-likert","145","669617","0.0-6.0-6.19","2752669","co38113","norming","","","{""aha"":6}","[0]","../img/tt/1069tt.jpg","",""
"null","<div style=""font-size:60px;""> </div>","null","fixation","html-keyboard-response","146","669820","0.0-6.0-0.20","2752669","co38113","norming","","","","","","",""
"null","../img/tt/032tt.jpg","null","mooney1","image-keyboard-response","147","672831","0.0-6.0-1.20","2752669","co38113","norming","","","","","","",""
"5543.930000000051","","","post_mooney1_questions","survey-likert","148","678378","0.0-6.0-2.20","2752669","co38113","norming","","","{""curiosity"":5,""confidence"":2}","[0,1]","../img/tt/032tt.jpg","",""
"3278.180000000051","","","recognition","survey-text","149","681657","0.0-6.0-3.20","2752669","co38113","norming","","","{""guess"":""snake""}","","../img/tt/032tt.jpg","",""
"null","../img/gs/032gs.jpg","null","reveal","image-keyboard-response","150","683667","0.0-6.0-4.20","2752669","co38113","norming","","","","","","",""
"null","../img/tt/032tt.jpg","null","mooney2","image-keyboard-response","151","685676","0.0-6.0-5.20","2752669","co38113","norming","","","","","","",""
"6419.319999999949","","","post_reveal_questions","survey-likert","152","692097","0.0-6.0-6.20","2752669","co38113","norming","","","{""aha"":1}","[0]","../img/tt/032tt.jpg","",""
"null","<div style=""font-size:60px;""> </div>","null","fixation","html-keyboard-response","153","692299","0.0-6.0-0.21","2752669","co38113","norming","","","","","","",""
"null","../img/tt/406tt.jpg","null","mooney1","image-keyboard-response","154","695309","0.0-6.0-1.21","2752669","co38113","norming","","","","","","",""
"5377.864999999874","","","post_mooney1_questions","survey-likert","155","700690","0.0-6.0-2.21","2752669","co38113","norming","","","{""curiosity"":4,""confidence"":0}","[0,1]","../img/tt/406tt.jpg","",""
"814.1049999999814","","","recognition","survey-text","156","701505","0.0-6.0-3.21","2752669","co38113","norming","","","{""guess"":""""}","","../img/tt/406tt.jpg","",""
"null","../img/gs/406gs.jpg","null","reveal","image-keyboard-response","157","703515","0.0-6.0-4.21","2752669","co38113","norming","","","","","","",""
"null","../img/tt/406tt.jpg","null","mooney2","image-keyboard-response","158","705517","0.0-6.0-5.21","2752669","co38113","norming","","","","","","",""
"5243.244999999995","","","post_reveal_questions","survey-likert","159","710762","0.0-6.0-6.21","2752669","co38113","norming","","","{""aha"":0}","[0]","../img/tt/406tt.jpg","",""
"null","<div style=""font-size:60px;""> </div>","null","fixation","html-keyboard-response","160","710972","0.0-6.0-0.22","2752669","co38113","norming","","","","","","",""
"null","../img/tt/1366tt.jpg","null","mooney1","image-keyboard-response","161","713978","0.0-6.0-1.22","2752669","co38113","norming","","","","","","",""
"4253.090000000084","","","post_mooney1_questions","survey-likert","162","718234","0.0-6.0-2.22","2752669","co38113","norming","","","{""curiosity"":5,""confidence"":1}","[0,1]","../img/tt/1366tt.jpg","",""
"4310.055000000051","","","recognition","survey-text","163","722544","0.0-6.0-3.22","2752669","co38113","norming","","","{""guess"":""burito""}","","../img/tt/1366tt.jpg","",""
"null","../img/gs/1366gs.jpg","null","reveal","image-keyboard-response","164","724550","0.0-6.0-4.22","2752669","co38113","norming","","","","","","",""
"null","../img/tt/1366tt.jpg","null","mooney2","image-keyboard-response","165","726555","0.0-6.0-5.22","2752669","co38113","norming","","","","","","",""
"2980.2700000000186","","","post_reveal_questions","survey-likert","166","729536","0.0-6.0-6.22","2752669","co38113","norming","","","{""aha"":4}","[0]","../img/tt/1366tt.jpg","",""
"null","<div style=""font-size:60px;""> </div>","null","fixation","html-keyboard-response","167","729739","0.0-6.0-0.23","2752669","co38113","norming","","","","","","",""
"null","../img/tt/1272tt.jpg","null","mooney1","image-keyboard-response","168","732745","0.0-6.0-1.23","2752669","co38113","norming","","","","","","",""
"5565.099999999977","","","post_mooney1_questions","survey-likert","169","738313","0.0-6.0-2.23","2752669","co38113","norming","","","{""curiosity"":4,""confidence"":1}","[0,1]","../img/tt/1272tt.jpg","",""
"4886.07500000007","","","recognition","survey-text","170","743200","0.0-6.0-3.23","2752669","co38113","norming","","","{""guess"":""fence""}","","../img/tt/1272tt.jpg","",""
"null","../img/gs/1272gs.jpg","null","reveal","image-keyboard-response","171","745202","0.0-6.0-4.23","2752669","co38113","norming","","","","","","",""
"null","../img/tt/1272tt.jpg","null","mooney2","image-keyboard-response","172","747205","0.0-6.0-5.23","2752669","co38113","norming","","","","","","",""
"2369.9150000000373","","","post_reveal_questions","survey-likert","173","749576","0.0-6.0-6.23","2752669","co38113","norming","","","{""aha"":2}","[0]","../img/tt/1272tt.jpg","",""
"null","<div style=""font-size:60px;""> </div>","null","fixation","html-keyboard-response","174","749778","0.0-6.0-0.24","2752669","co38113","norming","","","","","","",""
"null","../img/tt/1250tt.jpg","null","mooney1","image-keyboard-response","175","752780","0.0-6.0-1.24","2752669","co38113","norming","","","","","","",""
"4234.615000000107","","","post_mooney1_questions","survey-likert","176","757017","0.0-6.0-2.24","2752669","co38113","norming","","","{""curiosity"":4,""confidence"":2}","[0,1]","../img/tt/1250tt.jpg","",""
"3621.734999999986","","","recognition","survey-text","177","760640","0.0-6.0-3.24","2752669","co38113","norming","","","{""guess"":""beer""}","","../img/tt/1250tt.jpg","",""
"null","../img/gs/1250gs.jpg","null","reveal","image-keyboard-response","178","762642","0.0-6.0-4.24","2752669","co38113","norming","","","","","","",""
"null","../img/tt/1250tt.jpg","null","mooney2","image-keyboard-response","179","764650","0.0-6.0-5.24","2752669","co38113","norming","","","","","","",""
"3796.354999999865","","","post_reveal_questions","survey-likert","180","768449","0.0-6.0-6.24","2752669","co38113","norming","","","{""aha"":5}","[0]","../img/tt/1250tt.jpg","",""
"null","<div style=""font-size:60px;""> </div>","null","fixation","html-keyboard-response","181","768652","0.0-6.0-0.25","2752669","co38113","norming","","","","","","",""
"null","../img/tt/1040tt.jpg","null","mooney1","image-keyboard-response","182","771658","0.0-6.0-1.25","2752669","co38113","norming","","","","","","",""
"6036.244999999995","","","post_mooney1_questions","survey-likert","183","777697","0.0-6.0-2.25","2752669","co38113","norming","","","{""curiosity"":3,""confidence"":0}","[0,1]","../img/tt/1040tt.jpg","",""
"894.0649999999441","","","recognition","survey-text","184","778592","0.0-6.0-3.25","2752669","co38113","norming","","","{""guess"":""""}","","../img/tt/1040tt.jpg","",""
"null","../img/gs/1040gs.jpg","null","reveal","image-keyboard-response","185","780606","0.0-6.0-4.25","2752669","co38113","norming","","","","","","",""
"null","../img/tt/1040tt.jpg","null","mooney2","image-keyboard-response","186","782607","0.0-6.0-5.25","2752669","co38113","norming","","","","","","",""
"3247.8900000001304","","","post_reveal_questions","survey-likert","187","785856","0.0-6.0-6.25","2752669","co38113","norming","","","{""aha"":0}","[0]","../img/tt/1040tt.jpg","",""
"null","<div style=""font-size:60px;""> </div>","null","fixation","html-keyboard-response","188","786064","0.0-6.0-0.26","2752669","co38113","norming","","","","","","",""
"null","../img/tt/1044tt.jpg","null","mooney1","image-keyboard-response","189","789066","0.0-6.0-1.26","2752669","co38113","norming","","","","","","",""
"4163.645000000019","","","post_mooney1_questions","survey-likert","190","793232","0.0-6.0-2.26","2752669","co38113","norming","","","{""curiosity"":5,""confidence"":0}","[0,1]","../img/tt/1044tt.jpg","",""
"854.0850000000792","","","recognition","survey-text","191","794088","0.0-6.0-3.26","2752669","co38113","norming","","","{""guess"":""""}","","../img/tt/1044tt.jpg","",""
"null","../img/gs/1044gs.jpg","null","reveal","image-keyboard-response","192","796090","0.0-6.0-4.26","2752669","co38113","norming","","","","","","",""
"null","../img/tt/1044tt.jpg","null","mooney2","image-keyboard-response","193","798091","0.0-6.0-5.26","2752669","co38113","norming","","","","","","",""
"2674.899999999907","","","post_reveal_questions","survey-likert","194","800768","0.0-6.0-6.26","2752669","co38113","norming","","","{""aha"":0}","[0]","../img/tt/1044tt.jpg","",""
"null","<div style=""font-size:60px;""> </div>","null","fixation","html-keyboard-response","195","800971","0.0-6.0-0.27","2752669","co38113","norming","","","","","","",""
"null","../img/tt/031tt.jpg","null","mooney1","image-keyboard-response","196","803974","0.0-6.0-1.27","2752669","co38113","norming","","","","","","",""
"4007.944999999949","","","post_mooney1_questions","survey-likert","197","807984","0.0-6.0-2.27","2752669","co38113","norming","","","{""curiosity"":4,""confidence"":4}","[0,1]","../img/tt/031tt.jpg","",""
"2838.0250000000233","","","recognition","survey-text","198","810824","0.0-6.0-3.27","2752669","co38113","norming","","","{""guess"":""beer""}","","../img/tt/031tt.jpg","",""
"null","../img/gs/031gs.jpg","null","reveal","image-keyboard-response","199","812825","0.0-6.0-4.27","2752669","co38113","norming","","","","","","",""
"null","../img/tt/031tt.jpg","null","mooney2","image-keyboard-response","200","814831","0.0-6.0-5.27","2752669","co38113","norming","","","","","","",""
"2895.1550000001444","","","post_reveal_questions","survey-likert","201","817728","0.0-6.0-6.27","2752669","co38113","norming","","","{""aha"":4}","[0]","../img/tt/031tt.jpg","",""
"null","<div style=""font-size:60px;""> </div>","null","fixation","html-keyboard-response","202","817933","0.0-6.0-0.28","2752669","co38113","norming","","","","","","",""
"null","../img/tt/477tt.jpg","null","mooney1","image-keyboard-response","203","820940","0.0-6.0-1.28","2752669","co38113","norming","","","","","","",""
"4546.114999999991","","","post_mooney1_questions","survey-likert","204","825488","0.0-6.0-2.28","2752669","co38113","norming","","","{""curiosity"":4,""confidence"":2}","[0,1]","../img/tt/477tt.jpg","",""
"2982.054999999935","","","recognition","survey-text","205","828472","0.0-6.0-3.28","2752669","co38113","norming","","","{""guess"":""fish""}","","../img/tt/477tt.jpg","",""
"null","../img/gs/477gs.jpg","null","reveal","image-keyboard-response","206","830477","0.0-6.0-4.28","2752669","co38113","norming","","","","","","",""
"null","../img/tt/477tt.jpg","null","mooney2","image-keyboard-response","207","832485","0.0-6.0-5.28","2752669","co38113","norming","","","","","","",""
"3840.734999999986","","","post_reveal_questions","survey-likert","208","836328","0.0-6.0-6.28","2752669","co38113","norming","","","{""aha"":4}","[0]","../img/tt/477tt.jpg","",""
"null","<div style=""font-size:60px;""> </div>","null","fixation","html-keyboard-response","209","836533","0.0-6.0-0.29","2752669","co38113","norming","","","","","","",""
"null","../img/tt/1309tt.jpg","null","mooney1","image-keyboard-response","210","839543","0.0-6.0-1.29","2752669","co38113","norming","","","","","","",""
"4638.850000000093","","","post_mooney1_questions","survey-likert","211","844178","0.0-6.0-2.29","2752669","co38113","norming","","","{""curiosity"":3,""confidence"":1}","[0,1]","../img/tt/1309tt.jpg","",""
"2814.039999999921","","","recognition","survey-text","212","846993","0.0-6.0-3.29","2752669","co38113","norming","","","{""guess"":""car""}","","../img/tt/1309tt.jpg","",""
"null","../img/gs/1309gs.jpg","null","reveal","image-keyboard-response","213","848996","0.0-6.0-4.29","2752669","co38113","norming","","","","","","",""
"null","../img/tt/1309tt.jpg","null","mooney2","image-keyboard-response","214","851004","0.0-6.0-5.29","2752669","co38113","norming","","","","","","",""
"2402.9849999998696","","","post_reveal_questions","survey-likert","215","853409","0.0-6.0-6.29","2752669","co38113","norming","","","{""aha"":3}","[0]","../img/tt/1309tt.jpg","",""
"null","<div style=""font-size:60px;""> </div>","null","fixation","html-keyboard-response","216","853614","0.0-6.0-0.30","2752669","co38113","norming","","","","","","",""
"null","../img/tt/189tt.jpg","null","mooney1","image-keyboard-response","217","856617","0.0-6.0-1.30","2752669","co38113","norming","","","","","","",""
"6126.344999999972","","","post_mooney1_questions","survey-likert","218","862745","0.0-6.0-2.30","2752669","co38113","norming","","","{""curiosity"":3,""confidence"":1}","[0,1]","../img/tt/189tt.jpg","",""
"4542.125000000116","","","recognition","survey-text","219","867289","0.0-6.0-3.30","2752669","co38113","norming","","","{""guess"":""hangmat""}","","../img/tt/189tt.jpg","",""
"null","../img/gs/189gs.jpg","null","reveal","image-keyboard-response","220","869291","0.0-6.0-4.30","2752669","co38113","norming","","","","","","",""
"null","../img/tt/189tt.jpg","null","mooney2","image-keyboard-response","221","871294","0.0-6.0-5.30","2752669","co38113","norming","","","","","","",""
"3120.9349999999395","","","post_reveal_questions","survey-likert","222","874417","0.0-6.0-6.30","2752669","co38113","norming","","","{""aha"":4}","[0]","../img/tt/189tt.jpg","",""
"null","<div style=""font-size:60px;""> </div>","null","fixation","html-keyboard-response","223","874628","0.0-6.0-0.31","2752669","co38113","norming","","","","","","",""
"null","../img/tt/049tt.jpg","null","mooney1","image-keyboard-response","224","877630","0.0-6.0-1.31","2752669","co38113","norming","","","","","","",""
"3505.0200000000186","","","post_mooney1_questions","survey-likert","225","881138","0.0-6.0-2.31","2752669","co38113","norming","","","{""curiosity"":4,""confidence"":1}","[0,1]","../img/tt/049tt.jpg","",""
"3294.1849999999395","","","recognition","survey-text","226","884433","0.0-6.0-3.31","2752669","co38113","norming","","","{""guess"":""varken""}","","../img/tt/049tt.jpg","",""
"null","../img/gs/049gs.jpg","null","reveal","image-keyboard-response","227","886439","0.0-6.0-4.31","2752669","co38113","norming","","","","","","",""
"null","../img/tt/049tt.jpg","null","mooney2","image-keyboard-response","228","888440","0.0-6.0-5.31","2752669","co38113","norming","","","","","","",""
"3831.5350000000326","","","post_reveal_questions","survey-likert","229","892273","0.0-6.0-6.31","2752669","co38113","norming","","","{""aha"":1}","[0]","../img/tt/049tt.jpg","",""
"null","<div style=""font-size:60px;""> </div>","null","fixation","html-keyboard-response","230","892476","0.0-6.0-0.32","2752669","co38113","norming","","","","","","",""
"null","../img/tt/118tt.jpg","null","mooney1","image-keyboard-response","231","895487","0.0-6.0-1.32","2752669","co38113","norming","","","","","","",""
"8456.140000000014","","","post_mooney1_questions","survey-likert","232","903951","0.0-6.0-2.32","2752669","co38113","norming","","","{""curiosity"":4,""confidence"":0}","[0,1]","../img/tt/118tt.jpg","",""
"854.2800000000279","","","recognition","survey-text","233","904807","0.0-6.0-3.32","2752669","co38113","norming","","","{""guess"":""""}","","../img/tt/118tt.jpg","",""
"null","../img/gs/118gs.jpg","null","reveal","image-keyboard-response","234","906808","0.0-6.0-4.32","2752669","co38113","norming","","","","","","",""
"null","../img/tt/118tt.jpg","null","mooney2","image-keyboard-response","235","908810","0.0-6.0-5.32","2752669","co38113","norming","","","","","","",""
"4291.98499999987","","","post_reveal_questions","survey-likert","236","913103","0.0-6.0-6.32","2752669","co38113","norming","","","{""aha"":0}","[0]","../img/tt/118tt.jpg","",""
"null","<div style=""font-size:60px;""> </div>","null","fixation","html-keyboard-response","237","913312","0.0-6.0-0.33","2752669","co38113","norming","","","","","","",""
"null","../img/tt/306tt.jpg","null","mooney1","image-keyboard-response","238","916321","0.0-6.0-1.33","2752669","co38113","norming","","","","","","",""
"3588.2199999998556","","","post_mooney1_questions","survey-likert","239","919911","0.0-6.0-2.33","2752669","co38113","norming","","","{""curiosity"":4,""confidence"":1}","[0,1]","../img/tt/306tt.jpg","",""
"3814.0200000000186","","","recognition","survey-text","240","923726","0.0-6.0-3.33","2752669","co38113","norming","","","{""guess"":""schoen""}","","../img/tt/306tt.jpg","",""
"null","../img/gs/306gs.jpg","null","reveal","image-keyboard-response","241","925729","0.0-6.0-4.33","2752669","co38113","norming","","","","","","",""
"null","../img/tt/306tt.jpg","null","mooney2","image-keyboard-response","242","927739","0.0-6.0-5.33","2752669","co38113","norming","","","","","","",""
"4106.57500000007","","","post_reveal_questions","survey-likert","243","931847","0.0-6.0-6.33","2752669","co38113","norming","","","{""aha"":1}","[0]","../img/tt/306tt.jpg","",""
"null","<div style=""font-size:60px;""> </div>","null","fixation","html-keyboard-response","244","932048","0.0-6.0-0.34","2752669","co38113","norming","","","","","","",""
"null","../img/tt/1362tt.jpg","null","mooney1","image-keyboard-response","245","935058","0.0-6.0-1.34","2752669","co38113","norming","","","","","","",""
"4611.360000000102","","","post_mooney1_questions","survey-likert","246","939671","0.0-6.0-2.34","2752669","co38113","norming","","","{""curiosity"":4,""confidence"":3}","[0,1]","../img/tt/1362tt.jpg","",""
"5182.0299999999115","","","recognition","survey-text","247","944855","0.0-6.0-3.34","2752669","co38113","norming","","","{""guess"":""muziekspeler""}","","../img/tt/1362tt.jpg","",""
"null","../img/gs/1362gs.jpg","null","reveal","image-keyboard-response","248","946856","0.0-6.0-4.34","2752669","co38113","norming","","","","","","",""
"null","../img/tt/1362tt.jpg","null","mooney2","image-keyboard-response","249","948858","0.0-6.0-5.34","2752669","co38113","norming","","","","","","",""
"3212.1450000000186","","","post_reveal_questions","survey-likert","250","952071","0.0-6.0-6.34","2752669","co38113","norming","","","{""aha"":2}","[0]","../img/tt/1362tt.jpg","",""
"null","<div style=""font-size:60px;""> </div>","null","fixation","html-keyboard-response","251","952280","0.0-6.0-0.35","2752669","co38113","norming","","","","","","",""
"null","../img/tt/301tt.jpg","null","mooney1","image-keyboard-response","252","955286","0.0-6.0-1.35","2752669","co38113","norming","","","","","","",""
"4022.5600000001723","","","post_mooney1_questions","survey-likert","253","959311","0.0-6.0-2.35","2752669","co38113","norming","","","{""curiosity"":5,""confidence"":0}","[0,1]","../img/tt/301tt.jpg","",""
"757.9649999999674","","","recognition","survey-text","254","960071","0.0-6.0-3.35","2752669","co38113","norming","","","{""guess"":""""}","","../img/tt/301tt.jpg","",""
"null","../img/gs/301gs.jpg","null","reveal","image-keyboard-response","255","962078","0.0-6.0-4.35","2752669","co38113","norming","","","","","","",""
"null","../img/tt/301tt.jpg","null","mooney2","image-keyboard-response","256","964087","0.0-6.0-5.35","2752669","co38113","norming","","","","","","",""
"4776.215000000084","","","post_reveal_questions","survey-likert","257","968864","0.0-6.0-6.35","2752669","co38113","norming","","","{""aha"":0}","[0]","../img/tt/301tt.jpg","",""
"null","<div style=""font-size:60px;""> </div>","null","fixation","html-keyboard-response","258","969070","0.0-6.0-0.36","2752669","co38113","norming","","","","","","",""
"null","../img/tt/126tt.jpg","null","mooney1","image-keyboard-response","259","972072","0.0-6.0-1.36","2752669","co38113","norming","","","","","","",""
"3927.984999999986","","","post_mooney1_questions","survey-likert","260","976001","0.0-6.0-2.36","2752669","co38113","norming","","","{""curiosity"":4,""confidence"":4}","[0,1]","../img/tt/126tt.jpg","",""
"3677.7649999998976","","","recognition","survey-text","261","979680","0.0-6.0-3.36","2752669","co38113","norming","","","{""guess"":""koe""}","","../img/tt/126tt.jpg","",""
"null","../img/gs/126gs.jpg","null","reveal","image-keyboard-response","262","981681","0.0-6.0-4.36","2752669","co38113","norming","","","","","","",""
"null","../img/tt/126tt.jpg","null","mooney2","image-keyboard-response","263","983692","0.0-6.0-5.36","2752669","co38113","norming","","","","","","",""
"5578.609999999986","","","post_reveal_questions","survey-likert","264","989272","0.0-6.0-6.36","2752669","co38113","norming","","","{""aha"":5}","[0]","../img/tt/126tt.jpg","",""
"null","<div style=""font-size:60px;""> </div>","null","fixation","html-keyboard-response","265","989474","0.0-6.0-0.37","2752669","co38113","norming","","","","","","",""
"null","../img/tt/1118tt.jpg","null","mooney1","image-keyboard-response","266","992482","0.0-6.0-1.37","2752669","co38113","norming","","","","","","",""
"4692.475000000093","","","post_mooney1_questions","survey-likert","267","997177","0.0-6.0-2.37","2752669","co38113","norming","","","{""curiosity"":4,""confidence"":1}","[0,1]","../img/tt/1118tt.jpg","",""
"3909.9050000001444","","","recognition","survey-text","268","1001089","0.0-6.0-3.37","2752669","co38113","norming","","","{""guess"":"" beek""}","","../img/tt/1118tt.jpg","",""
"null","../img/gs/1118gs.jpg","null","reveal","image-keyboard-response","269","1003090","0.0-6.0-4.37","2752669","co38113","norming","","","","","","",""
"null","../img/tt/1118tt.jpg","null","mooney2","image-keyboard-response","270","1005093","0.0-6.0-5.37","2752669","co38113","norming","","","","","","",""
"3906.2200000000885","","","post_reveal_questions","survey-likert","271","1009001","0.0-6.0-6.37","2752669","co38113","norming","","","{""aha"":1}","[0]","../img/tt/1118tt.jpg","",""
"null","<div style=""font-size:60px;""> </div>","null","fixation","html-keyboard-response","272","1009205","0.0-6.0-0.38","2752669","co38113","norming","","","","","","",""
"null","../img/tt/1048tt.jpg","null","mooney1","image-keyboard-response","273","1012211","0.0-6.0-1.38","2752669","co38113","norming","","","","","","",""
"4243.685000000172","","","post_mooney1_questions","survey-likert","274","1016457","0.0-6.0-2.38","2752669","co38113","norming","","","{""curiosity"":3,""confidence"":1}","[0,1]","../img/tt/1048tt.jpg","",""
"4646.200000000186","","","recognition","survey-text","275","1021105","0.0-6.0-3.38","2752669","co38113","norming","","","{""guess"":""paard""}","","../img/tt/1048tt.jpg","",""
"null","../img/gs/1048gs.jpg","null","reveal","image-keyboard-response","276","1023108","0.0-6.0-4.38","2752669","co38113","norming","","","","","","",""
"null","../img/tt/1048tt.jpg","null","mooney2","image-keyboard-response","277","1025110","0.0-6.0-5.38","2752669","co38113","norming","","","","","","",""
"5513.229999999981","","","post_reveal_questions","survey-likert","278","1030625","0.0-6.0-6.38","2752669","co38113","norming","","","{""aha"":2}","[0]","../img/tt/1048tt.jpg","",""
"null","<div style=""font-size:60px;""> </div>","null","fixation","html-keyboard-response","279","1030827","0.0-6.0-0.39","2752669","co38113","norming","","","","","","",""
"null","../img/tt/1033tt.jpg","null","mooney1","image-keyboard-response","280","1033836","0.0-6.0-1.39","2752669","co38113","norming","","","","","","",""
"4123.090000000084","","","post_mooney1_questions","survey-likert","281","1037961","0.0-6.0-2.39","2752669","co38113","norming","","","{""curiosity"":3,""confidence"":1}","[0,1]","../img/tt/1033tt.jpg","",""
"3142.2099999999627","","","recognition","survey-text","282","1041105","0.0-6.0-3.39","2752669","co38113","norming","","","{""guess"":""ridder""}","","../img/tt/1033tt.jpg","",""
"null","../img/gs/1033gs.jpg","null","reveal","image-keyboard-response","283","1043112","0.0-6.0-4.39","2752669","co38113","norming","","","","","","",""
"null","../img/tt/1033tt.jpg","null","mooney2","image-keyboard-response","284","1045123","0.0-6.0-5.39","2752669","co38113","norming","","","","","","",""
"2716.9949999999953","","","post_reveal_questions","survey-likert","285","1047842","0.0-6.0-6.39","2752669","co38113","norming","","","{""aha"":2}","[0]","../img/tt/1033tt.jpg","",""
"null","<div style=""font-size:60px;""> </div>","null","fixation","html-keyboard-response","286","1048043","0.0-6.0-0.40","2752669","co38113","norming","","","","","","",""
"null","../img/tt/091tt.jpg","null","mooney1","image-keyboard-response","287","1051051","0.0-6.0-1.40","2752669","co38113","norming","","","","","","",""
"6164.08499999973","","","post_mooney1_questions","survey-likert","288","1057218","0.0-6.0-2.40","2752669","co38113","norming","","","{""curiosity"":5,""confidence"":1}","[0,1]","../img/tt/091tt.jpg","",""
"2606.1350000000093","","","recognition","survey-text","289","1059825","0.0-6.0-3.40","2752669","co38113","norming","","","{""guess"":""vos""}","","../img/tt/091tt.jpg","",""
"null","../img/gs/091gs.jpg","null","reveal","image-keyboard-response","290","1061834","0.0-6.0-4.40","2752669","co38113","norming","","","","","","",""
"null","../img/tt/091tt.jpg","null","mooney2","image-keyboard-response","291","1063844","0.0-6.0-5.40","2752669","co38113","norming","","","","","","",""
"2355.570000000065","","","post_reveal_questions","survey-likert","292","1066202","0.0-6.0-6.40","2752669","co38113","norming","","","{""aha"":1}","[0]","../img/tt/091tt.jpg","",""
"null","<div style=""font-size:60px;""> </div>","null","fixation","html-keyboard-response","293","1066408","0.0-6.0-0.41","2752669","co38113","norming","","","","","","",""
"null","../img/tt/515tt.jpg","null","mooney1","image-keyboard-response","294","1069411","0.0-6.0-1.41","2752669","co38113","norming","","","","","","",""
"4028.405000000028","","","post_mooney1_questions","survey-likert","295","1073442","0.0-6.0-2.41","2752669","co38113","norming","","","{""curiosity"":4,""confidence"":0}","[0,1]","../img/tt/515tt.jpg","",""
"958.1400000001304","","","recognition","survey-text","296","1074401","0.0-6.0-3.41","2752669","co38113","norming","","","{""guess"":""""}","","../img/tt/515tt.jpg","",""
"null","../img/gs/515gs.jpg","null","reveal","image-keyboard-response","297","1076406","0.0-6.0-4.41","2752669","co38113","norming","","","","","","",""
"null","../img/tt/515tt.jpg","null","mooney2","image-keyboard-response","298","1078408","0.0-6.0-5.41","2752669","co38113","norming","","","","","","",""
"1736.1850000000559","","","post_reveal_questions","survey-likert","299","1080145","0.0-6.0-6.41","2752669","co38113","norming","","","{""aha"":0}","[0]","../img/tt/515tt.jpg","",""
"null","<div style=""font-size:60px;""> </div>","null","fixation","html-keyboard-response","300","1080346","0.0-6.0-0.42","2752669","co38113","norming","","","","","","",""
"null","../img/tt/319tt.jpg","null","mooney1","image-keyboard-response","301","1083349","0.0-6.0-1.42","2752669","co38113","norming","","","","","","",""
"5419.619999999879","","","post_mooney1_questions","survey-likert","302","1088771","0.0-6.0-2.42","2752669","co38113","norming","","","{""curiosity"":4,""confidence"":5}","[0,1]","../img/tt/319tt.jpg","",""
"4197.885000000009","","","recognition","survey-text","303","1092970","0.0-6.0-3.42","2752669","co38113","norming","","","{""guess"":""ezels""}","","../img/tt/319tt.jpg","",""
"null","../img/gs/319gs.jpg","null","reveal","image-keyboard-response","304","1094971","0.0-6.0-4.42","2752669","co38113","norming","","","","","","",""
"null","../img/tt/319tt.jpg","null","mooney2","image-keyboard-response","305","1096976","0.0-6.0-5.42","2752669","co38113","norming","","","","","","",""
"1717.7100000001956","","","post_reveal_questions","survey-likert","306","1098699","0.0-6.0-6.42","2752669","co38113","norming","","","{""aha"":6}","[0]","../img/tt/319tt.jpg","",""
"null","<div style=""font-size:60px;""> </div>","null","fixation","html-keyboard-response","307","1098900","0.0-6.0-0.43","2752669","co38113","norming","","","","","","",""
"null","../img/tt/1159tt.jpg","null","mooney1","image-keyboard-response","308","1101903","0.0-6.0-1.43","2752669","co38113","norming","","","","","","",""
"3328.965000000084","","","post_mooney1_questions","survey-likert","309","1105235","0.0-6.0-2.43","2752669","co38113","norming","","","{""curiosity"":3,""confidence"":2}","[0,1]","../img/tt/1159tt.jpg","",""
"3454.0849999999627","","","recognition","survey-text","310","1108690","0.0-6.0-3.43","2752669","co38113","norming","","","{""guess"":""station""}","","../img/tt/1159tt.jpg","",""
"null","../img/gs/1159gs.jpg","null","reveal","image-keyboard-response","311","1110691","0.0-6.0-4.43","2752669","co38113","norming","","","","","","",""
"null","../img/tt/1159tt.jpg","null","mooney2","image-keyboard-response","312","1112696","0.0-6.0-5.43","2752669","co38113","norming","","","","","","",""
"1976.9150000000373","","","post_reveal_questions","survey-likert","313","1114674","0.0-6.0-6.43","2752669","co38113","norming","","","{""aha"":2}","[0]","../img/tt/1159tt.jpg","",""
"null","<div style=""font-size:60px;""> </div>","null","fixation","html-keyboard-response","314","1114884","0.0-6.0-0.44","2752669","co38113","norming","","","","","","",""
"null","../img/tt/497tt.jpg","null","mooney1","image-keyboard-response","315","1117887","0.0-6.0-1.44","2752669","co38113","norming","","","","","","",""
"4833.905000000028","","","post_mooney1_questions","survey-likert","316","1122722","0.0-6.0-2.44","2752669","co38113","norming","","","{""curiosity"":4,""confidence"":0}","[0,1]","../img/tt/497tt.jpg","",""
"477.8550000002142","","","recognition","survey-text","317","1123202","0.0-6.0-3.44","2752669","co38113","norming","","","{""guess"":""""}","","../img/tt/497tt.jpg","",""
"null","../img/gs/497gs.jpg","null","reveal","image-keyboard-response","318","1125204","0.0-6.0-4.44","2752669","co38113","norming","","","","","","",""
"null","../img/tt/497tt.jpg","null","mooney2","image-keyboard-response","319","1127206","0.0-6.0-5.44","2752669","co38113","norming","","","","","","",""
"2770.094999999972","","","post_reveal_questions","survey-likert","320","1129978","0.0-6.0-6.44","2752669","co38113","norming","","","{""aha"":0}","[0]","../img/tt/497tt.jpg","",""
"null","<div style=""font-size:60px;""> </div>","null","fixation","html-keyboard-response","321","1130184","0.0-6.0-0.45","2752669","co38113","norming","","","","","","",""
"null","../img/tt/1255tt.jpg","null","mooney1","image-keyboard-response","322","1133186","0.0-6.0-1.45","2752669","co38113","norming","","","","","","",""
"4438.270000000019","","","post_mooney1_questions","survey-likert","323","1137627","0.0-6.0-2.45","2752669","co38113","norming","","","{""curiosity"":4,""confidence"":1}","[0,1]","../img/tt/1255tt.jpg","",""
"3461.8250000001863","","","recognition","survey-text","324","1141090","0.0-6.0-3.45","2752669","co38113","norming","","","{""guess"":""vrouw""}","","../img/tt/1255tt.jpg","",""
"null","../img/gs/1255gs.jpg","null","reveal","image-keyboard-response","325","1143099","0.0-6.0-4.45","2752669","co38113","norming","","","","","","",""
"null","../img/tt/1255tt.jpg","null","mooney2","image-keyboard-response","326","1145108","0.0-6.0-5.45","2752669","co38113","norming","","","","","","",""
"3044.9199999996927","","","post_reveal_questions","survey-likert","327","1148155","0.0-6.0-6.45","2752669","co38113","norming","","","{""aha"":1}","[0]","../img/tt/1255tt.jpg","",""
"null","<div style=""font-size:60px;""> </div>","null","fixation","html-keyboard-response","328","1148361","0.0-6.0-0.46","2752669","co38113","norming","","","","","","",""
"null","../img/tt/052tt.jpg","null","mooney1","image-keyboard-response","329","1151370","0.0-6.0-1.46","2752669","co38113","norming","","","","","","",""
"3927.0100000000093","","","post_mooney1_questions","survey-likert","330","1155299","0.0-6.0-2.46","2752669","co38113","norming","","","{""curiosity"":3,""confidence"":1}","[0,1]","../img/tt/052tt.jpg","",""
"3798.0300000002608","","","recognition","survey-text","331","1159099","0.0-6.0-3.46","2752669","co38113","norming","","","{""guess"":""trommel""}","","../img/tt/052tt.jpg","",""
"null","../img/gs/052gs.jpg","null","reveal","image-keyboard-response","332","1161102","0.0-6.0-4.46","2752669","co38113","norming","","","","","","",""
"null","../img/tt/052tt.jpg","null","mooney2","image-keyboard-response","333","1163110","0.0-6.0-5.46","2752669","co38113","norming","","","","","","",""
"3059.6650000000373","","","post_reveal_questions","survey-likert","334","1166171","0.0-6.0-6.46","2752669","co38113","norming","","","{""aha"":1}","[0]","../img/tt/052tt.jpg","",""
"null","<div style=""font-size:60px;""> </div>","null","fixation","html-keyboard-response","335","1166373","0.0-6.0-0.47","2752669","co38113","norming","","","","","","",""
"null","../img/tt/1151tt.jpg","null","mooney1","image-keyboard-response","336","1169379","0.0-6.0-1.47","2752669","co38113","norming","","","","","","",""
"4198.2949999999255","","","post_mooney1_questions","survey-likert","337","1173580","0.0-6.0-2.47","2752669","co38113","norming","","","{""curiosity"":4,""confidence"":2}","[0,1]","../img/tt/1151tt.jpg","",""
"3909.5100000000093","","","recognition","survey-text","338","1177491","0.0-6.0-3.47","2752669","co38113","norming","","","{""guess"":""zwemmer""}","","../img/tt/1151tt.jpg","",""
"null","../img/gs/1151gs.jpg","null","reveal","image-keyboard-response","339","1179495","0.0-6.0-4.47","2752669","co38113","norming","","","","","","",""
"null","../img/tt/1151tt.jpg","null","mooney2","image-keyboard-response","340","1181506","0.0-6.0-5.47","2752669","co38113","norming","","","","","","",""
"2607.2949999999255","","","post_reveal_questions","survey-likert","341","1184115","0.0-6.0-6.47","2752669","co38113","norming","","","{""aha"":2}","[0]","../img/tt/1151tt.jpg","",""
"null","<div style=""font-size:60px;""> </div>","null","fixation","html-keyboard-response","342","1184320","0.0-6.0-0.48","2752669","co38113","norming","","","","","","",""
"null","../img/tt/1161tt.jpg","null","mooney1","image-keyboard-response","343","1187327","0.0-6.0-1.48","2752669","co38113","norming","","","","","","",""
"4137.669999999693","","","post_mooney1_questions","survey-likert","344","1191468","0.0-6.0-2.48","2752669","co38113","norming","","","{""curiosity"":3,""confidence"":2}","[0,1]","../img/tt/1161tt.jpg","",""
"4486","","","recognition","survey-text","345","1195955","0.0-6.0-3.48","2752669","co38113","norming","","","{""guess"":""bergbeklimmer""}","","../img/tt/1161tt.jpg","",""
"null","../img/gs/1161gs.jpg","null","reveal","image-keyboard-response","346","1197958","0.0-6.0-4.48","2752669","co38113","norming","","","","","","",""
"null","../img/tt/1161tt.jpg","null","mooney2","image-keyboard-response","347","1199969","0.0-6.0-5.48","2752669","co38113","norming","","","","","","",""
"3000.5399999998044","","","post_reveal_questions","survey-likert","348","1202971","0.0-6.0-6.48","2752669","co38113","norming","","","{""aha"":3}","[0]","../img/tt/1161tt.jpg","",""
"null","<div style=""font-size:60px;""> </div>","null","fixation","html-keyboard-response","349","1203173","0.0-6.0-0.49","2752669","co38113","norming","","","","","","",""
"null","../img/tt/1243tt.jpg","null","mooney1","image-keyboard-response","350","1206177","0.0-6.0-1.49","2752669","co38113","norming","","","","","","",""
"4384.545000000158","","","post_mooney1_questions","survey-likert","351","1210564","0.0-6.0-2.49","2752669","co38113","norming","","","{""curiosity"":3,""confidence"":2}","[0,1]","../img/tt/1243tt.jpg","",""
"2462.804999999935","","","recognition","survey-text","352","1213029","0.0-6.0-3.49","2752669","co38113","norming","","","{""guess"":""aap""}","","../img/tt/1243tt.jpg","",""
"null","../img/gs/1243gs.jpg","null","reveal","image-keyboard-response","353","1215031","0.0-6.0-4.49","2752669","co38113","norming","","","","","","",""
"null","../img/tt/1243tt.jpg","null","mooney2","image-keyboard-response","354","1217034","0.0-6.0-5.49","2752669","co38113","norming","","","","","","",""
"3280.774999999907","","","post_reveal_questions","survey-likert","355","1220316","0.0-6.0-6.49","2752669","co38113","norming","","","{""aha"":1}","[0]","../img/tt/1243tt.jpg","",""
"null","<div style=""font-size:60px;""> </div>","null","fixation","html-keyboard-response","356","1220523","0.0-6.0-0.50","2752669","co38113","norming","","","","","","",""
"null","../img/tt/1049tt.jpg","null","mooney1","image-keyboard-response","357","1223534","0.0-6.0-1.50","2752669","co38113","norming","","","","","","",""
"5155.860000000102","","","post_mooney1_questions","survey-likert","358","1228692","0.0-6.0-2.50","2752669","co38113","norming","","","{""curiosity"":5,""confidence"":0}","[0,1]","../img/tt/1049tt.jpg","",""
"597.9799999999814","","","recognition","survey-text","359","1229292","0.0-6.0-3.50","2752669","co38113","norming","","","{""guess"":""""}","","../img/tt/1049tt.jpg","",""
"null","../img/gs/1049gs.jpg","null","reveal","image-keyboard-response","360","1231294","0.0-6.0-4.50","2752669","co38113","norming","","","","","","",""
"null","../img/tt/1049tt.jpg","null","mooney2","image-keyboard-response","361","1233296","0.0-6.0-5.50","2752669","co38113","norming","","","","","","",""
"2761.2700000000186","","","post_reveal_questions","survey-likert","362","1236060","0.0-6.0-6.50","2752669","co38113","norming","","","{""aha"":0}","[0]","../img/tt/1049tt.jpg","",""
"null","<div style=""font-size:60px;""> </div>","null","fixation","html-keyboard-response","363","1236266","0.0-6.0-0.51","2752669","co38113","norming","","","","","","",""
"null","../img/tt/1186tt.jpg","null","mooney1","image-keyboard-response","364","1239276","0.0-6.0-1.51","2752669","co38113","norming","","","","","","",""
"6213.520000000019","","","post_mooney1_questions","survey-likert","365","1245492","0.0-6.0-2.51","2752669","co38113","norming","","","{""curiosity"":4,""confidence"":2}","[0,1]","../img/tt/1186tt.jpg","",""
"4101.985000000102","","","recognition","survey-text","366","1249596","0.0-6.0-3.51","2752669","co38113","norming","","","{""guess"":""wandelaar""}","","../img/tt/1186tt.jpg","",""
"null","../img/gs/1186gs.jpg","null","reveal","image-keyboard-response","367","1251598","0.0-6.0-4.51","2752669","co38113","norming","","","","","","",""
"null","../img/tt/1186tt.jpg","null","mooney2","image-keyboard-response","368","1253600","0.0-6.0-5.51","2752669","co38113","norming","","","","","","",""
"2546.0800000000745","","","post_reveal_questions","survey-likert","369","1256148","0.0-6.0-6.51","2752669","co38113","norming","","","{""aha"":2}","[0]","../img/tt/1186tt.jpg","",""
"null","<div style=""font-size:60px;""> </div>","null","fixation","html-keyboard-response","370","1256353","0.0-6.0-0.52","2752669","co38113","norming","","","","","","",""
"null","../img/tt/010tt.jpg","null","mooney1","image-keyboard-response","371","1259358","0.0-6.0-1.52","2752669","co38113","norming","","","","","","",""
"4339.345000000205","","","post_mooney1_questions","survey-likert","372","1263700","0.0-6.0-2.52","2752669","co38113","norming","","","{""curiosity"":5,""confidence"":0}","[0,1]","../img/tt/010tt.jpg","",""
"622.5549999999348","","","recognition","survey-text","373","1264324","0.0-6.0-3.52","2752669","co38113","norming","","","{""guess"":""""}","","../img/tt/010tt.jpg","",""
"null","../img/gs/010gs.jpg","null","reveal","image-keyboard-response","374","1266327","0.0-6.0-4.52","2752669","co38113","norming","","","","","","",""
"null","../img/tt/010tt.jpg","null","mooney2","image-keyboard-response","375","1268332","0.0-6.0-5.52","2752669","co38113","norming","","","","","","",""
"3662.3950000000186","","","post_reveal_questions","survey-likert","376","1271997","0.0-6.0-6.52","2752669","co38113","norming","","","{""aha"":0}","[0]","../img/tt/010tt.jpg","",""
"null","<div style=""font-size:60px;""> </div>","null","fixation","html-keyboard-response","377","1272202","0.0-6.0-0.53","2752669","co38113","norming","","","","","","",""
"null","../img/tt/007tt.jpg","null","mooney1","image-keyboard-response","378","1275211","0.0-6.0-1.53","2752669","co38113","norming","","","","","","",""
"3687.554999999935","","","post_mooney1_questions","survey-likert","379","1278901","0.0-6.0-2.53","2752669","co38113","norming","","","{""curiosity"":6,""confidence"":0}","[0,1]","../img/tt/007tt.jpg","",""
"734.0649999999441","","","recognition","survey-text","380","1279636","0.0-6.0-3.53","2752669","co38113","norming","","","{""guess"":""""}","","../img/tt/007tt.jpg","",""
"null","../img/gs/007gs.jpg","null","reveal","image-keyboard-response","381","1281646","0.0-6.0-4.53","2752669","co38113","norming","","","","","","",""
"null","../img/tt/007tt.jpg","null","mooney2","image-keyboard-response","382","1283656","0.0-6.0-5.53","2752669","co38113","norming","","","","","","",""
"2682.2349999998696","","","post_reveal_questions","survey-likert","383","1286340","0.0-6.0-6.53","2752669","co38113","norming","","","{""aha"":0}","[0]","../img/tt/007tt.jpg","",""
"null","<div style=""font-size:60px;""> </div>","null","fixation","html-keyboard-response","384","1286549","0.0-6.0-0.54","2752669","co38113","norming","","","","","","",""
"null","../img/tt/353tt.jpg","null","mooney1","image-keyboard-response","385","1289551","0.0-6.0-1.54","2752669","co38113","norming","","","","","","",""
"3643.7450000001118","","","post_mooney1_questions","survey-likert","386","1293197","0.0-6.0-2.54","2752669","co38113","norming","","","{""curiosity"":4,""confidence"":2}","[0,1]","../img/tt/353tt.jpg","",""
"4222.319999999832","","","recognition","survey-text","387","1297421","0.0-6.0-3.54","2752669","co38113","norming","","","{""guess"":""pinguin""}","","../img/tt/353tt.jpg","",""
"null","../img/gs/353gs.jpg","null","reveal","image-keyboard-response","388","1299422","0.0-6.0-4.54","2752669","co38113","norming","","","","","","",""
"null","../img/tt/353tt.jpg","null","mooney2","image-keyboard-response","389","1301425","0.0-6.0-5.54","2752669","co38113","norming","","","","","","",""
"5930.070000000065","","","post_reveal_questions","survey-likert","390","1307357","0.0-6.0-6.54","2752669","co38113","norming","","","{""aha"":4}","[0]","../img/tt/353tt.jpg","",""
"null","<div style=""font-size:60px;""> </div>","null","fixation","html-keyboard-response","391","1307567","0.0-6.0-0.55","2752669","co38113","norming","","","","","","",""
"null","../img/tt/468tt.jpg","null","mooney1","image-keyboard-response","392","1310570","0.0-6.0-1.55","2752669","co38113","norming","","","","","","",""
"4129.925000000047","","","post_mooney1_questions","survey-likert","393","1314701","0.0-6.0-2.55","2752669","co38113","norming","","","{""curiosity"":3,""confidence"":2}","[0,1]","../img/tt/468tt.jpg","",""
"2949.9350000002887","","","recognition","survey-text","394","1317653","0.0-6.0-3.55","2752669","co38113","norming","","","{""guess"":""reiger""}","","../img/tt/468tt.jpg","",""
"null","../img/gs/468gs.jpg","null","reveal","image-keyboard-response","395","1319656","0.0-6.0-4.55","2752669","co38113","norming","","","","","","",""
"null","../img/tt/468tt.jpg","null","mooney2","image-keyboard-response","396","1321665","0.0-6.0-5.55","2752669","co38113","norming","","","","","","",""
"2609.744999999879","","","post_reveal_questions","survey-likert","397","1324277","0.0-6.0-6.55","2752669","co38113","norming","","","{""aha"":1}","[0]","../img/tt/468tt.jpg","",""
"null","<div style=""font-size:60px;""> </div>","null","fixation","html-keyboard-response","398","1324488","0.0-6.0-0.56","2752669","co38113","norming","","","","","","",""
"null","../img/tt/1241tt.jpg","null","mooney1","image-keyboard-response","399","1327491","0.0-6.0-1.56","2752669","co38113","norming","","","","","","",""
"3119.5550000001676","","","post_mooney1_questions","survey-likert","400","1330613","0.0-6.0-2.56","2752669","co38113","norming","","","{""curiosity"":4,""confidence"":2}","[0,1]","../img/tt/1241tt.jpg","",""
"2758.285000000149","","","recognition","survey-text","401","1333373","0.0-6.0-3.56","2752669","co38113","norming","","","{""guess"":""vos""}","","../img/tt/1241tt.jpg","",""
"null","../img/gs/1241gs.jpg","null","reveal","image-keyboard-response","402","1335374","0.0-6.0-4.56","2752669","co38113","norming","","","","","","",""
"null","../img/tt/1241tt.jpg","null","mooney2","image-keyboard-response","403","1337375","0.0-6.0-5.56","2752669","co38113","norming","","","","","","",""
"2755.2399999999907","","","post_reveal_questions","survey-likert","404","1340133","0.0-6.0-6.56","2752669","co38113","norming","","","{""aha"":2}","[0]","../img/tt/1241tt.jpg","",""
"null","<div style=""font-size:60px;""> </div>","null","fixation","html-keyboard-response","405","1340340","0.0-6.0-0.57","2752669","co38113","norming","","","","","","",""
"null","../img/tt/053tt.jpg","null","mooney1","image-keyboard-response","406","1343344","0.0-6.0-1.57","2752669","co38113","norming","","","","","","",""
"3050.6699999999255","","","post_mooney1_questions","survey-likert","407","1346397","0.0-6.0-2.57","2752669","co38113","norming","","","{""curiosity"":4,""confidence"":3}","[0,1]","../img/tt/053tt.jpg","",""
"4718.074999999953","","","recognition","survey-text","408","1351117","0.0-6.0-3.57","2752669","co38113","norming","","","{""guess"":""surfers""}","","../img/tt/053tt.jpg","",""
"null","../img/gs/053gs.jpg","null","reveal","image-keyboard-response","409","1353122","0.0-6.0-4.57","2752669","co38113","norming","","","","","","",""
"null","../img/tt/053tt.jpg","null","mooney2","image-keyboard-response","410","1355124","0.0-6.0-5.57","2752669","co38113","norming","","","","","","",""
"3798.6650000000373","","","post_reveal_questions","survey-likert","411","1358925","0.0-6.0-6.57","2752669","co38113","norming","","","{""aha"":3}","[0]","../img/tt/053tt.jpg","",""
"null","<div style=""font-size:60px;""> </div>","null","fixation","html-keyboard-response","412","1359126","0.0-6.0-0.58","2752669","co38113","norming","","","","","","",""
"null","../img/tt/080tt.jpg","null","mooney1","image-keyboard-response","413","1362135","0.0-6.0-1.58","2752669","co38113","norming","","","","","","",""
"4778.780000000261","","","post_mooney1_questions","survey-likert","414","1366917","0.0-6.0-2.58","2752669","co38113","norming","","","{""curiosity"":5,""confidence"":0}","[0,1]","../img/tt/080tt.jpg","",""
"757.3049999999348","","","recognition","survey-text","415","1367676","0.0-6.0-3.58","2752669","co38113","norming","","","{""guess"":""""}","","../img/tt/080tt.jpg","",""
"null","../img/gs/080gs.jpg","null","reveal","image-keyboard-response","416","1369678","0.0-6.0-4.58","2752669","co38113","norming","","","","","","",""
"null","../img/tt/080tt.jpg","null","mooney2","image-keyboard-response","417","1371685","0.0-6.0-5.58","2752669","co38113","norming","","","","","","",""
"3853.5449999999255","","","post_reveal_questions","survey-likert","418","1375541","0.0-6.0-6.58","2752669","co38113","norming","","","{""aha"":1}","[0]","../img/tt/080tt.jpg","",""
"null","<div style=""font-size:60px;""> </div>","null","fixation","html-keyboard-response","419","1375745","0.0-6.0-0.59","2752669","co38113","norming","","","","","","",""
"null","../img/tt/1307tt.jpg","null","mooney1","image-keyboard-response","420","1378748","0.0-6.0-1.59","2752669","co38113","norming","","","","","","",""
"3758.2999999998137","","","post_mooney1_questions","survey-likert","421","1382509","0.0-6.0-2.59","2752669","co38113","norming","","","{""curiosity"":3,""confidence"":0}","[0,1]","../img/tt/1307tt.jpg","",""
"1013.9799999997485","","","recognition","survey-text","422","1383524","0.0-6.0-3.59","2752669","co38113","norming","","","{""guess"":""""}","","../img/tt/1307tt.jpg","",""
"null","../img/gs/1307gs.jpg","null","reveal","image-keyboard-response","423","1385531","0.0-6.0-4.59","2752669","co38113","norming","","","","","","",""
"null","../img/tt/1307tt.jpg","null","mooney2","image-keyboard-response","424","1387541","0.0-6.0-5.59","2752669","co38113","norming","","","","","","",""
"2884.8849999997765","","","post_reveal_questions","survey-likert","425","1390429","0.0-6.0-6.59","2752669","co38113","norming","","","{""aha"":0}","[0]","../img/tt/1307tt.jpg","",""
"null","<div style=""font-size:60px;""> </div>","null","fixation","html-keyboard-response","426","1390636","0.0-6.0-0.60","2752669","co38113","norming","","","","","","",""
"null","../img/tt/1116tt.jpg","null","mooney1","image-keyboard-response","427","1393638","0.0-6.0-1.60","2752669","co38113","norming","","","","","","",""
"5276.090000000084","","","post_mooney1_questions","survey-likert","428","1398917","0.0-6.0-2.60","2752669","co38113","norming","","","{""curiosity"":4,""confidence"":1}","[0,1]","../img/tt/1116tt.jpg","",""
"3741.864999999758","","","recognition","survey-text","429","1402660","0.0-6.0-3.60","2752669","co38113","norming","","","{""guess"":""auto's""}","","../img/tt/1116tt.jpg","",""
"null","../img/gs/1116gs.jpg","null","reveal","image-keyboard-response","430","1404662","0.0-6.0-4.60","2752669","co38113","norming","","","","","","",""
"null","../img/tt/1116tt.jpg","null","mooney2","image-keyboard-response","431","1406671","0.0-6.0-5.60","2752669","co38113","norming","","","","","","",""
"2131.225000000093","","","post_reveal_questions","survey-likert","432","1408805","0.0-6.0-6.60","2752669","co38113","norming","","","{""aha"":1}","[0]","../img/tt/1116tt.jpg","",""
"null","<div style=""font-size:60px;""> </div>","null","fixation","html-keyboard-response","433","1409011","0.0-6.0-0.61","2752669","co38113","norming","","","","","","",""
"null","../img/tt/1279tt.jpg","null","mooney1","image-keyboard-response","434","1412014","0.0-6.0-1.61","2752669","co38113","norming","","","","","","",""
"3852.6699999999255","","","post_mooney1_questions","survey-likert","435","1415869","0.0-6.0-2.61","2752669","co38113","norming","","","{""curiosity"":3,""confidence"":0}","[0,1]","../img/tt/1279tt.jpg","",""
"726.1800000001676","","","recognition","survey-text","436","1416597","0.0-6.0-3.61","2752669","co38113","norming","","","{""guess"":""""}","","../img/tt/1279tt.jpg","",""
"null","../img/gs/1279gs.jpg","null","reveal","image-keyboard-response","437","1418598","0.0-6.0-4.61","2752669","co38113","norming","","","","","","",""
"null","../img/tt/1279tt.jpg","null","mooney2","image-keyboard-response","438","1420608","0.0-6.0-5.61","2752669","co38113","norming","","","","","","",""
"2411.4150000000373","","","post_reveal_questions","survey-likert","439","1423021","0.0-6.0-6.61","2752669","co38113","norming","","","{""aha"":0}","[0]","../img/tt/1279tt.jpg","",""
"null","<div style=""font-size:60px;""> </div>","null","fixation","html-keyboard-response","440","1423222","0.0-6.0-0.62","2752669","co38113","norming","","","","","","",""
"null","../img/tt/1128tt.jpg","null","mooney1","image-keyboard-response","441","1426230","0.0-6.0-1.62","2752669","co38113","norming","","","","","","",""
"3243.4200000001583","","","post_mooney1_questions","survey-likert","442","1429477","0.0-6.0-2.62","2752669","co38113","norming","","","{""curiosity"":4,""confidence"":1}","[0,1]","../img/tt/1128tt.jpg","",""
"3862.0200000000186","","","recognition","survey-text","443","1433340","0.0-6.0-3.62","2752669","co38113","norming","","","{""guess"":""knuffel""}","","../img/tt/1128tt.jpg","",""
"null","../img/gs/1128gs.jpg","null","reveal","image-keyboard-response","444","1435341","0.0-6.0-4.62","2752669","co38113","norming","","","","","","",""
"null","../img/tt/1128tt.jpg","null","mooney2","image-keyboard-response","445","1437344","0.0-6.0-5.62","2752669","co38113","norming","","","","","","",""
"2834.0250000001397","","","post_reveal_questions","survey-likert","446","1440181","0.0-6.0-6.62","2752669","co38113","norming","","","{""aha"":1}","[0]","../img/tt/1128tt.jpg","",""
"null","<div style=""font-size:60px;""> </div>","null","fixation","html-keyboard-response","447","1440385","0.0-6.0-0.63","2752669","co38113","norming","","","","","","",""
"null","../img/tt/598tt.jpg","null","mooney1","image-keyboard-response","448","1443392","0.0-6.0-1.63","2752669","co38113","norming","","","","","","",""
"3602.1750000000466","","","post_mooney1_questions","survey-likert","449","1446997","0.0-6.0-2.63","2752669","co38113","norming","","","{""curiosity"":6,""confidence"":0}","[0,1]","../img/tt/598tt.jpg","",""
"1181.9199999999255","","","recognition","survey-text","450","1448180","0.0-6.0-3.63","2752669","co38113","norming","","","{""guess"":""""}","","../img/tt/598tt.jpg","",""
"null","../img/gs/598gs.jpg","null","reveal","image-keyboard-response","451","1450182","0.0-6.0-4.63","2752669","co38113","norming","","","","","","",""
"null","../img/tt/598tt.jpg","null","mooney2","image-keyboard-response","452","1452187","0.0-6.0-5.63","2752669","co38113","norming","","","","","","",""
"2815.714999999851","","","post_reveal_questions","survey-likert","453","1455005","0.0-6.0-6.63","2752669","co38113","norming","","","{""aha"":0}","[0]","../img/tt/598tt.jpg","",""
"null","<div style=""font-size:60px;""> </div>","null","fixation","html-keyboard-response","454","1455207","0.0-6.0-0.64","2752669","co38113","norming","","","","","","",""
"null","../img/tt/1226tt.jpg","null","mooney1","image-keyboard-response","455","1458216","0.0-6.0-1.64","2752669","co38113","norming","","","","","","",""
"2912.774999999907","","","post_mooney1_questions","survey-likert","456","1461133","0.0-6.0-2.64","2752669","co38113","norming","","","{""curiosity"":4,""confidence"":2}","[0,1]","../img/tt/1226tt.jpg","",""
"4053.820000000065","","","recognition","survey-text","457","1465188","0.0-6.0-3.64","2752669","co38113","norming","","","{""guess"":""chicken""}","","../img/tt/1226tt.jpg","",""
"null","../img/gs/1226gs.jpg","null","reveal","image-keyboard-response","458","1467190","0.0-6.0-4.64","2752669","co38113","norming","","","","","","",""
"null","../img/tt/1226tt.jpg","null","mooney2","image-keyboard-response","459","1469192","0.0-6.0-5.64","2752669","co38113","norming","","","","","","",""
"1849.8350000001956","","","post_reveal_questions","survey-likert","460","1471044","0.0-6.0-6.64","2752669","co38113","norming","","","{""aha"":2}","[0]","../img/tt/1226tt.jpg","",""
"null","<div style=""font-size:60px;""> </div>","null","fixation","html-keyboard-response","461","1471246","0.0-6.0-0.65","2752669","co38113","norming","","","","","","",""
"null","../img/tt/1012tt.jpg","null","mooney1","image-keyboard-response","462","1474248","0.0-6.0-1.65","2752669","co38113","norming","","","","","","",""
"3609.3899999998976","","","post_mooney1_questions","survey-likert","463","1477861","0.0-6.0-2.65","2752669","co38113","norming","","","{""curiosity"":4,""confidence"":0}","[0,1]","../img/tt/1012tt.jpg","",""
"789.8549999999814","","","recognition","survey-text","464","1478652","0.0-6.0-3.65","2752669","co38113","norming","","","{""guess"":""""}","","../img/tt/1012tt.jpg","",""
"null","../img/gs/1012gs.jpg","null","reveal","image-keyboard-response","465","1480654","0.0-6.0-4.65","2752669","co38113","norming","","","","","","",""
"null","../img/tt/1012tt.jpg","null","mooney2","image-keyboard-response","466","1482656","0.0-6.0-5.65","2752669","co38113","norming","","","","","","",""
"2395.2299999997485","","","post_reveal_questions","survey-likert","467","1485053","0.0-6.0-6.65","2752669","co38113","norming","","","{""aha"":0}","[0]","../img/tt/1012tt.jpg","",""
"null","<div style=""font-size:60px;""> </div>","null","fixation","html-keyboard-response","468","1485263","0.0-6.0-0.66","2752669","co38113","norming","","","","","","",""
"null","../img/tt/307tt.jpg","null","mooney1","image-keyboard-response","469","1488270","0.0-6.0-1.66","2752669","co38113","norming","","","","","","",""
"4099.570000000298","","","post_mooney1_questions","survey-likert","470","1492373","0.0-6.0-2.66","2752669","co38113","norming","","","{""curiosity"":5,""confidence"":0}","[0,1]","../img/tt/307tt.jpg","",""
"973.8349999999627","","","recognition","survey-text","471","1493348","0.0-6.0-3.66","2752669","co38113","norming","","","{""guess"":""""}","","../img/tt/307tt.jpg","",""
"null","../img/gs/307gs.jpg","null","reveal","image-keyboard-response","472","1495353","0.0-6.0-4.66","2752669","co38113","norming","","","","","","",""
"null","../img/tt/307tt.jpg","null","mooney2","image-keyboard-response","473","1497356","0.0-6.0-5.66","2752669","co38113","norming","","","","","","",""
"2710.515000000363","","","post_reveal_questions","survey-likert","474","1500069","0.0-6.0-6.66","2752669","co38113","norming","","","{""aha"":0}","[0]","../img/tt/307tt.jpg","",""
"null","<div style=""font-size:60px;""> </div>","null","fixation","html-keyboard-response","475","1500274","0.0-6.0-0.67","2752669","co38113","norming","","","","","","",""
"null","../img/tt/108tt.jpg","null","mooney1","image-keyboard-response","476","1503277","0.0-6.0-1.67","2752669","co38113","norming","","","","","","",""
"3133.4449999998324","","","post_mooney1_questions","survey-likert","477","1506413","0.0-6.0-2.67","2752669","co38113","norming","","","{""curiosity"":4,""confidence"":1}","[0,1]","../img/tt/108tt.jpg","",""
"3286.1750000000466","","","recognition","survey-text","478","1509692","0.0-6.0-3.67","2752669","co38113","norming","","","{""guess"":""vissen""}","","../img/tt/108tt.jpg","",""
"null","../img/gs/108gs.jpg","null","reveal","image-keyboard-response","479","1511701","0.0-6.0-4.67","2752669","co38113","norming","","","","","","",""
"null","../img/tt/108tt.jpg","null","mooney2","image-keyboard-response","480","1513705","0.0-6.0-5.67","2752669","co38113","norming","","","","","","",""
"3256.464999999851","","","post_reveal_questions","survey-likert","481","1516964","0.0-6.0-6.67","2752669","co38113","norming","","","{""aha"":1}","[0]","../img/tt/108tt.jpg","",""
"null","<div style=""font-size:60px;""> </div>","null","fixation","html-keyboard-response","482","1517166","0.0-6.0-0.68","2752669","co38113","norming","","","","","","",""
"null","../img/tt/1234tt.jpg","null","mooney1","image-keyboard-response","483","1520175","0.0-6.0-1.68","2752669","co38113","norming","","","","","","",""
"4233.675000000279","","","post_mooney1_questions","survey-likert","484","1524412","0.0-6.0-2.68","2752669","co38113","norming","","","{""curiosity"":4,""confidence"":1}","[0,1]","../img/tt/1234tt.jpg","",""
"4390.170000000158","","","recognition","survey-text","485","1528804","0.0-6.0-3.68","2752669","co38113","norming","","","{""guess"":""bootje""}","","../img/tt/1234tt.jpg","",""
"null","../img/gs/1234gs.jpg","null","reveal","image-keyboard-response","486","1530812","0.0-6.0-4.68","2752669","co38113","norming","","","","","","",""
"null","../img/tt/1234tt.jpg","null","mooney2","image-keyboard-response","487","1532823","0.0-6.0-5.68","2752669","co38113","norming","","","","","","",""
"2218.649999999907","","","post_reveal_questions","survey-likert","488","1535044","0.0-6.0-6.68","2752669","co38113","norming","","","{""aha"":1}","[0]","../img/tt/1234tt.jpg","",""
"null","<div style=""font-size:60px;""> </div>","null","fixation","html-keyboard-response","489","1535254","0.0-6.0-0.69","2752669","co38113","norming","","","","","","",""
"null","../img/tt/1122tt.jpg","null","mooney1","image-keyboard-response","490","1538260","0.0-6.0-1.69","2752669","co38113","norming","","","","","","",""
"5429.060000000056","","","post_mooney1_questions","survey-likert","491","1543692","0.0-6.0-2.69","2752669","co38113","norming","","","{""curiosity"":2,""confidence"":1}","[0,1]","../img/tt/1122tt.jpg","",""
"3646.054999999935","","","recognition","survey-text","492","1547340","0.0-6.0-3.69","2752669","co38113","norming","","","{""guess"":""computers""}","","../img/tt/1122tt.jpg","",""
"null","../img/gs/1122gs.jpg","null","reveal","image-keyboard-response","493","1549350","0.0-6.0-4.69","2752669","co38113","norming","","","","","","",""
"null","../img/tt/1122tt.jpg","null","mooney2","image-keyboard-response","494","1551359","0.0-6.0-5.69","2752669","co38113","norming","","","","","","",""
"2292.5850000001956","","","post_reveal_questions","survey-likert","495","1553660","0.0-6.0-6.69","2752669","co38113","norming","","","{""aha"":1}","[0]","../img/tt/1122tt.jpg","",""
"null","<div style=""font-size:60px;""> </div>","null","fixation","html-keyboard-response","496","1553870","0.0-6.0-0.70","2752669","co38113","norming","","","","","","",""
"null","../img/tt/567tt.jpg","null","mooney1","image-keyboard-response","497","1556878","0.0-6.0-1.70","2752669","co38113","norming","","","","","","",""
"3171.1650000000373","","","post_mooney1_questions","survey-likert","498","1560052","0.0-6.0-2.70","2752669","co38113","norming","","","{""curiosity"":4,""confidence"":2}","[0,1]","../img/tt/567tt.jpg","",""
"3606.034999999916","","","recognition","survey-text","499","1563660","0.0-6.0-3.70","2752669","co38113","norming","","","{""guess"":""toaster""}","","../img/tt/567tt.jpg","",""
"null","../img/gs/567gs.jpg","null","reveal","image-keyboard-response","500","1565670","0.0-6.0-4.70","2752669","co38113","norming","","","","","","",""
"null","../img/tt/567tt.jpg","null","mooney2","image-keyboard-response","501","1567681","0.0-6.0-5.70","2752669","co38113","norming","","","","","","",""
"2474.739999999758","","","post_reveal_questions","survey-likert","502","1570157","0.0-6.0-6.70","2752669","co38113","norming","","","{""aha"":3}","[0]","../img/tt/567tt.jpg","",""
"null","<div style=""font-size:60px;""> </div>","null","fixation","html-keyboard-response","503","1570365","0.0-6.0-0.71","2752669","co38113","norming","","","","","","",""
"null","../img/tt/078tt.jpg","null","mooney1","image-keyboard-response","504","1573366","0.0-6.0-1.71","2752669","co38113","norming","","","","","","",""
"3852.1099999998696","","","post_mooney1_questions","survey-likert","505","1577221","0.0-6.0-2.71","2752669","co38113","norming","","","{""curiosity"":4,""confidence"":0}","[0,1]","../img/tt/078tt.jpg","",""
"710.1650000000373","","","recognition","survey-text","506","1577933","0.0-6.0-3.71","2752669","co38113","norming","","","{""guess"":""""}","","../img/tt/078tt.jpg","",""
"null","../img/gs/078gs.jpg","null","reveal","image-keyboard-response","507","1579935","0.0-6.0-4.71","2752669","co38113","norming","","","","","","",""
"null","../img/tt/078tt.jpg","null","mooney2","image-keyboard-response","508","1581937","0.0-6.0-5.71","2752669","co38113","norming","","","","","","",""
"3249.5550000001676","","","post_reveal_questions","survey-likert","509","1585189","0.0-6.0-6.71","2752669","co38113","norming","","","{""aha"":0}","[0]","../img/tt/078tt.jpg","",""
"null","<div style=""font-size:60px;""> </div>","null","fixation","html-keyboard-response","510","1585393","0.0-6.0-0.72","2752669","co38113","norming","","","","","","",""
"null","../img/tt/1260tt.jpg","null","mooney1","image-keyboard-response","511","1588396","0.0-6.0-1.72","2752669","co38113","norming","","","","","","",""
"3678.6149999999907","","","post_mooney1_questions","survey-likert","512","1592077","0.0-6.0-2.72","2752669","co38113","norming","","","{""curiosity"":4,""confidence"":1}","[0,1]","../img/tt/1260tt.jpg","",""
"2885.9200000001583","","","recognition","survey-text","513","1594965","0.0-6.0-3.72","2752669","co38113","norming","","","{""guess"":""egel""}","","../img/tt/1260tt.jpg","",""
"null","../img/gs/1260gs.jpg","null","reveal","image-keyboard-response","514","1596973","0.0-6.0-4.72","2752669","co38113","norming","","","","","","",""
"null","../img/tt/1260tt.jpg","null","mooney2","image-keyboard-response","515","1598983","0.0-6.0-5.72","2752669","co38113","norming","","","","","","",""
"3691.594999999972","","","post_reveal_questions","survey-likert","516","1602677","0.0-6.0-6.72","2752669","co38113","norming","","","{""aha"":1}","[0]","../img/tt/1260tt.jpg","",""
"null","<div style=""font-size:60px;""> </div>","null","fixation","html-keyboard-response","517","1602879","0.0-6.0-0.73","2752669","co38113","norming","","","","","","",""
"null","../img/tt/098tt.jpg","null","mooney1","image-keyboard-response","518","1605881","0.0-6.0-1.73","2752669","co38113","norming","","","","","","",""
"3145.155000000028","","","post_mooney1_questions","survey-likert","519","1609029","0.0-6.0-2.73","2752669","co38113","norming","","","{""curiosity"":3,""confidence"":1}","[0,1]","../img/tt/098tt.jpg","",""
"3005.9550000000745","","","recognition","survey-text","520","1612037","0.0-6.0-3.73","2752669","co38113","norming","","","{""guess"":""geit""}","","../img/tt/098tt.jpg","",""
"null","../img/gs/098gs.jpg","null","reveal","image-keyboard-response","521","1614039","0.0-6.0-4.73","2752669","co38113","norming","","","","","","",""
"null","../img/tt/098tt.jpg","null","mooney2","image-keyboard-response","522","1616041","0.0-6.0-5.73","2752669","co38113","norming","","","","","","",""
"4906.554999999935","","","post_reveal_questions","survey-likert","523","1620949","0.0-6.0-6.73","2752669","co38113","norming","","","{""aha"":1}","[0]","../img/tt/098tt.jpg","",""
"null","<div style=""font-size:60px;""> </div>","null","fixation","html-keyboard-response","524","1621151","0.0-6.0-0.74","2752669","co38113","norming","","","","","","",""
"null","../img/tt/270tt.jpg","null","mooney1","image-keyboard-response","525","1624154","0.0-6.0-1.74","2752669","co38113","norming","","","","","","",""
"4792.159999999916","","","post_mooney1_questions","survey-likert","526","1628948","0.0-6.0-2.74","2752669","co38113","norming","","","{""curiosity"":3,""confidence"":0}","[0,1]","../img/tt/270tt.jpg","",""
"837.6550000000279","","","recognition","survey-text","527","1629788","0.0-6.0-3.74","2752669","co38113","norming","","","{""guess"":""""}","","../img/tt/270tt.jpg","",""
"null","../img/gs/270gs.jpg","null","reveal","image-keyboard-response","528","1631789","0.0-6.0-4.74","2752669","co38113","norming","","","","","","",""
"null","../img/tt/270tt.jpg","null","mooney2","image-keyboard-response","529","1633792","0.0-6.0-5.74","2752669","co38113","norming","","","","","","",""
"3129.780000000028","","","post_reveal_questions","survey-likert","530","1636924","0.0-6.0-6.74","2752669","co38113","norming","","","{""aha"":0}","[0]","../img/tt/270tt.jpg","",""
"null","<div style=""font-size:60px;""> </div>","null","fixation","html-keyboard-response","531","1637129","0.0-6.0-0.75","2752669","co38113","norming","","","","","","",""
"null","../img/tt/442tt.jpg","null","mooney1","image-keyboard-response","532","1640132","0.0-6.0-1.75","2752669","co38113","norming","","","","","","",""
"6412.375","","","post_mooney1_questions","survey-likert","533","1646548","0.0-6.0-2.75","2752669","co38113","norming","","","{""curiosity"":4,""confidence"":1}","[0,1]","../img/tt/442tt.jpg","",""
"3774.2649999998976","","","recognition","survey-text","534","1650324","0.0-6.0-3.75","2752669","co38113","norming","","","{""guess"":""bloem""}","","../img/tt/442tt.jpg","",""
"null","../img/gs/442gs.jpg","null","reveal","image-keyboard-response","535","1652327","0.0-6.0-4.75","2752669","co38113","norming","","","","","","",""
"null","../img/tt/442tt.jpg","null","mooney2","image-keyboard-response","536","1654330","0.0-6.0-5.75","2752669","co38113","norming","","","","","","",""
"2399.524999999907","","","post_reveal_questions","survey-likert","537","1656732","0.0-6.0-6.75","2752669","co38113","norming","","","{""aha"":1}","[0]","../img/tt/442tt.jpg","",""
"null","<div style=""font-size:60px;""> </div>","null","fixation","html-keyboard-response","538","1656933","0.0-6.0-0.76","2752669","co38113","norming","","","","","","",""
"null","../img/tt/1004tt.jpg","null","mooney1","image-keyboard-response","539","1659939","0.0-6.0-1.76","2752669","co38113","norming","","","","","","",""
"3541.6049999999814","","","post_mooney1_questions","survey-likert","540","1663484","0.0-6.0-2.76","2752669","co38113","norming","","","{""curiosity"":3,""confidence"":2}","[0,1]","../img/tt/1004tt.jpg","",""
"2253.7399999999907","","","recognition","survey-text","541","1665740","0.0-6.0-3.76","2752669","co38113","norming","","","{""guess"":""beer""}","","../img/tt/1004tt.jpg","",""
"null","../img/gs/1004gs.jpg","null","reveal","image-keyboard-response","542","1667741","0.0-6.0-4.76","2752669","co38113","norming","","","","","","",""
"null","../img/tt/1004tt.jpg","null","mooney2","image-keyboard-response","543","1669752","0.0-6.0-5.76","2752669","co38113","norming","","","","","","",""
"3267.105000000214","","","post_reveal_questions","survey-likert","544","1673020","0.0-6.0-6.76","2752669","co38113","norming","","","{""aha"":2}","[0]","../img/tt/1004tt.jpg","",""
"null","<div style=""font-size:60px;""> </div>","null","fixation","html-keyboard-response","545","1673225","0.0-6.0-0.77","2752669","co38113","norming","","","","","","",""
"null","../img/tt/1126tt.jpg","null","mooney1","image-keyboard-response","546","1676228","0.0-6.0-1.77","2752669","co38113","norming","","","","","","",""
"4292.880000000354","","","post_mooney1_questions","survey-likert","547","1680524","0.0-6.0-2.77","2752669","co38113","norming","","","{""curiosity"":4,""confidence"":1}","[0,1]","../img/tt/1126tt.jpg","",""
"3725.850000000093","","","recognition","survey-text","548","1684252","0.0-6.0-3.77","2752669","co38113","norming","","","{""guess"":""bergbeklimmer""}","","../img/tt/1126tt.jpg","",""
"null","../img/gs/1126gs.jpg","null","reveal","image-keyboard-response","549","1686255","0.0-6.0-4.77","2752669","co38113","norming","","","","","","",""
"null","../img/tt/1126tt.jpg","null","mooney2","image-keyboard-response","550","1688258","0.0-6.0-5.77","2752669","co38113","norming","","","","","","",""
"1816.4999999997672","","","post_reveal_questions","survey-likert","551","1690077","0.0-6.0-6.77","2752669","co38113","norming","","","{""aha"":2}","[0]","../img/tt/1126tt.jpg","",""
"null","<div style=""font-size:60px;""> </div>","null","fixation","html-keyboard-response","552","1690280","0.0-6.0-0.78","2752669","co38113","norming","","","","","","",""
