"rt","stimulus","key_press","test_part","trial_type","trial_index","time_elapsed","internal_node_id","totalTime","subject","experiment_name","button_pressed","success","responses","question_order","currentStim","old","correct"
"6801.994999999806","Welcome to the experiment. This is an online experiment so please don't close the tab/window until we say goodbye.  Press any key to begin.","72","instructions","html-keyboard-response","0","6846","0.0-0.0","3149291","co38431","norming","","","","","","",""
"35105.37999999997","<div style='word-wrap: break-word; width: 900px'><h3>Please consider this information carefully before deciding whether to participate in this research</h3><ul style='text-align: left; font-size: .8em;'><li><b>Purpose of the research</b>: To examine how people process images.</li><li><b>What you will do in this research</b>:  Stimuli (images) will be presented on the computer and you will be asked different questions about them.</li><li><b>Time required</b>: Participation will take between 45 and 60 minutes to complete.</li><li><b>Risks</b>:  There are no anticipated risks associated with participating in this study. The effects of participating should be comparable to those you would experience from viewing a computer monitor for 30 minutes and using a mouse or keyboard.</li><li><b>Benefits</b>:  This study provides no benefits to you individually except for the credit. The study provides important information about the nature of perception and learning.</li><li><b>Confidentiality</b>:  Your participation in this study will remain confidential. No personally identifiable information will be associated with your data. Your de-identified data may be shared with other researchers and used in future projects.</li><li><b>Participation and withdrawal</b>:  Your participation in this study is completely voluntary and you may refuse to participate or you may choose to withdraw at any time without penalty.</li><li><b>How to contact the researchers</b>: If you have questions or concerns about your participation or payment, or want to request a summary of research findings, please contact Sander Van de Cruys (KU Leuven), at sander.vandecruys@kuleuven.be.</li></ul><p>The nature and purpose of this research have been sufficiently explained and I agree to participate in this study.  I understand that I am free to withdraw at any time without incurring any penalty.</p><p>Please consent by clicking the button below to continue. Otherwise, please exit the study at this time.</p></div>","","instructions","html-button-response","1","41954","0.0-1.0","3149291","co38431","norming","0","","","","","",""
"","","","instructions","fullscreen","2","45642","0.0-2.0","3149291","co38431","norming","","true","","","","",""
"26158.59499999987","","","sona","survey-html-form","3","71805","0.0-3.0","3149291","co38431","norming","","","[{""name"":""sonaid"",""value"":""38431""},{""name"":""debrief"",""value"":""no""},{""name"":""datajoin"",""value"":""yes""}]","","","",""
"57051.260000000184","<div style='word-wrap: break-word; width: 900px'><h3>Instructions</h3><p>This experiment will have 3 parts. In the first part you will see a series of distorted images like the one below on the left. As you can see in the righthand image, the distorted images are derived from actual photographs. In what follows, you will <strong>briefly</strong> be presented with <strong>only</strong> the distorted image.</p> <div style='float: left; margin-right: 20px;'><img src='../img/018tt.jpg' height='250' width='250'></img></div><div style='float: right; margin-left: 20px;'><img src='../img/018gs.jpg' height='250' width='250'></img></div><p>Subsequently you will be asked a few questions about the image: One question on how <strong>curious</strong> you are about the solution and one on how <strong>confident</strong> you are that you know the solution.</p>Next, we ask you to make a guess on what is in the image. Note that it is OK to name just the <strong>basic level category</strong>. For example when you see a parrot in the image, 'parrot' will obviously be a correct answer but also correct is 'bird'. However, 'animal' will <strong>not</strong> be counted as a correct response. For the example above, 'rose' would be correct or 'flower', but not 'plant'. When soccer players are depicted, 'soccer', 'football', 'soccer players' will be correct, but not 'humans', 'outdoors', or 'sports'. You do not need to describe the image in full, just name the main object in it <strong>in one or two words</strong>. All images depict objects from one of the following broad level categories: animals, inanimate objects, plants, sports, vehicles, and food. Recognizing means knowing <strong>more</strong> than these broad labels for a given image. But we always encourage you to <strong>make a guess</strong> if you can. Note that you are allowed to use <strong>Dutch and English</strong> in your answers, whatever comes easiest for you.</p><p>Press any key to continue.</p></div>","71","instructions","html-keyboard-response","4","128856","0.0-4.0","3149291","co38431","norming","","","","","","",""
"152383.05500000025","<div style='word-wrap: break-word; width: 900px'><h3>Instructions</h3> <p>Next, the solution image will be revealed to you and you'll be asked to indicate how strong your <strong>aha-experience</strong> was after seeing the solution. This describes the positive feeling of the 'click' you sometimes experience, when the pieces of the 'puzzle' fall together and you suddenly have 'insight' in the image.</p><img src='aha.jpg' height='188' width='250'></img><p>Note that there are no right or wrong answers. We are interested in what <strong>you</strong> see in the image and how <strong>you</strong> feel about it.</p><p>Press any key to start the experiment.</p></div>","71","instructions","html-keyboard-response","5","281245","0.0-5.0","3149291","co38431","norming","","","","","","",""
"null","<div style=""font-size:60px;""> </div>","null","fixation","html-keyboard-response","6","281447","0.0-6.0-0.0","3149291","co38431","norming","","","","","","",""
"null","../img/tt/1061tt.jpg","null","mooney1","image-keyboard-response","7","284451","0.0-6.0-1.0","3149291","co38431","norming","","","","","","",""
"11661.365000000864","","","post_mooney1_questions","survey-likert","8","296116","0.0-6.0-2.0","3149291","co38431","norming","","","{""curiosity"":3,""confidence"":1}","[0,1]","../img/tt/1061tt.jpg","",""
"6845.4400000000605","","","recognition","survey-text","9","302964","0.0-6.0-3.0","3149291","co38431","norming","","","{""guess"":""Park""}","","../img/tt/1061tt.jpg","",""
"null","../img/gs/1061gs.jpg","null","reveal","image-keyboard-response","10","304965","0.0-6.0-4.0","3149291","co38431","norming","","","","","","",""
"null","../img/tt/1061tt.jpg","null","mooney2","image-keyboard-response","11","306976","0.0-6.0-5.0","3149291","co38431","norming","","","","","","",""
"3249.305000000284","","","post_reveal_questions","survey-likert","12","310228","0.0-6.0-6.0","3149291","co38431","norming","","","{""aha"":4}","[0]","../img/tt/1061tt.jpg","",""
"null","<div style=""font-size:60px;""> </div>","null","fixation","html-keyboard-response","13","310431","0.0-6.0-0.1","3149291","co38431","norming","","","","","","",""
"null","../img/tt/1143tt.jpg","null","mooney1","image-keyboard-response","14","313438","0.0-6.0-1.1","3149291","co38431","norming","","","","","","",""
"5675.335000000778","","","post_mooney1_questions","survey-likert","15","319115","0.0-6.0-2.1","3149291","co38431","norming","","","{""curiosity"":5,""confidence"":0}","[0,1]","../img/tt/1143tt.jpg","",""
"1038.2449999997625","","","recognition","survey-text","16","320155","0.0-6.0-3.1","3149291","co38431","norming","","","{""guess"":""""}","","../img/tt/1143tt.jpg","",""
"null","../img/gs/1143gs.jpg","null","reveal","image-keyboard-response","17","322158","0.0-6.0-4.1","3149291","co38431","norming","","","","","","",""
"null","../img/tt/1143tt.jpg","null","mooney2","image-keyboard-response","18","324166","0.0-6.0-5.1","3149291","co38431","norming","","","","","","",""
"4426.844999999914","","","post_reveal_questions","survey-likert","19","328595","0.0-6.0-6.1","3149291","co38431","norming","","","{""aha"":6}","[0]","../img/tt/1143tt.jpg","",""
"null","<div style=""font-size:60px;""> </div>","null","fixation","html-keyboard-response","20","328805","0.0-6.0-0.2","3149291","co38431","norming","","","","","","",""
"null","../img/tt/056tt.jpg","null","mooney1","image-keyboard-response","21","331817","0.0-6.0-1.2","3149291","co38431","norming","","","","","","",""
"6887.985000000335","","","post_mooney1_questions","survey-likert","22","338708","0.0-6.0-2.2","3149291","co38431","norming","","","{""curiosity"":4,""confidence"":0}","[0,1]","../img/tt/056tt.jpg","",""
"822.0999999993946","","","recognition","survey-text","23","339532","0.0-6.0-3.2","3149291","co38431","norming","","","{""guess"":""""}","","../img/tt/056tt.jpg","",""
"null","../img/gs/056gs.jpg","null","reveal","image-keyboard-response","24","341533","0.0-6.0-4.2","3149291","co38431","norming","","","","","","",""
"null","../img/tt/056tt.jpg","null","mooney2","image-keyboard-response","25","343544","0.0-6.0-5.2","3149291","co38431","norming","","","","","","",""
"2530.619999999588","","","post_reveal_questions","survey-likert","26","346076","0.0-6.0-6.2","3149291","co38431","norming","","","{""aha"":4}","[0]","../img/tt/056tt.jpg","",""
"null","<div style=""font-size:60px;""> </div>","null","fixation","html-keyboard-response","27","346278","0.0-6.0-0.3","3149291","co38431","norming","","","","","","",""
"null","../img/tt/1122tt.jpg","null","mooney1","image-keyboard-response","28","349285","0.0-6.0-1.3","3149291","co38431","norming","","","","","","",""
"5397.10999999987","","","post_mooney1_questions","survey-likert","29","354684","0.0-6.0-2.3","3149291","co38431","norming","","","{""curiosity"":2,""confidence"":5}","[0,1]","../img/tt/1122tt.jpg","",""
"5662.0800000000745","","","recognition","survey-text","30","360348","0.0-6.0-3.3","3149291","co38431","norming","","","{""guess"":""Cars""}","","../img/tt/1122tt.jpg","",""
"null","../img/gs/1122gs.jpg","null","reveal","image-keyboard-response","31","362358","0.0-6.0-4.3","3149291","co38431","norming","","","","","","",""
"null","../img/tt/1122tt.jpg","null","mooney2","image-keyboard-response","32","364360","0.0-6.0-5.3","3149291","co38431","norming","","","","","","",""
"3002.469999999448","","","post_reveal_questions","survey-likert","33","367364","0.0-6.0-6.3","3149291","co38431","norming","","","{""aha"":5}","[0]","../img/tt/1122tt.jpg","",""
"null","<div style=""font-size:60px;""> </div>","null","fixation","html-keyboard-response","34","367566","0.0-6.0-0.4","3149291","co38431","norming","","","","","","",""
"null","../img/tt/1232tt.jpg","null","mooney1","image-keyboard-response","35","370574","0.0-6.0-1.4","3149291","co38431","norming","","","","","","",""
"8316.205000000075","","","post_mooney1_questions","survey-likert","36","378892","0.0-6.0-2.4","3149291","co38431","norming","","","{""curiosity"":4,""confidence"":2}","[0,1]","../img/tt/1232tt.jpg","",""
"6357.7099999993225","","","recognition","survey-text","37","385252","0.0-6.0-3.4","3149291","co38431","norming","","","{""guess"":""Treinspoor""}","","../img/tt/1232tt.jpg","",""
"null","../img/gs/1232gs.jpg","null","reveal","image-keyboard-response","38","387261","0.0-6.0-4.4","3149291","co38431","norming","","","","","","",""
"null","../img/tt/1232tt.jpg","null","mooney2","image-keyboard-response","39","389271","0.0-6.0-5.4","3149291","co38431","norming","","","","","","",""
"2114.9150000000955","","","post_reveal_questions","survey-likert","40","391388","0.0-6.0-6.4","3149291","co38431","norming","","","{""aha"":5}","[0]","../img/tt/1232tt.jpg","",""
"null","<div style=""font-size:60px;""> </div>","null","fixation","html-keyboard-response","41","391590","0.0-6.0-0.5","3149291","co38431","norming","","","","","","",""
"null","../img/tt/1181tt.jpg","null","mooney1","image-keyboard-response","42","394594","0.0-6.0-1.5","3149291","co38431","norming","","","","","","",""
"5919.609999999928","","","post_mooney1_questions","survey-likert","43","400516","0.0-6.0-2.5","3149291","co38431","norming","","","{""curiosity"":3,""confidence"":4}","[0,1]","../img/tt/1181tt.jpg","",""
"6478.000000000058","","","recognition","survey-text","44","406997","0.0-6.0-3.5","3149291","co38431","norming","","","{""guess"":""Mannen""}","","../img/tt/1181tt.jpg","",""
"null","../img/gs/1181gs.jpg","null","reveal","image-keyboard-response","45","409000","0.0-6.0-4.5","3149291","co38431","norming","","","","","","",""
"null","../img/tt/1181tt.jpg","null","mooney2","image-keyboard-response","46","411002","0.0-6.0-5.5","3149291","co38431","norming","","","","","","",""
"3721.3400000000256","","","post_reveal_questions","survey-likert","47","414726","0.0-6.0-6.5","3149291","co38431","norming","","","{""aha"":2}","[0]","../img/tt/1181tt.jpg","",""
"null","<div style=""font-size:60px;""> </div>","null","fixation","html-keyboard-response","48","414927","0.0-6.0-0.6","3149291","co38431","norming","","","","","","",""
"null","../img/tt/055tt.jpg","null","mooney1","image-keyboard-response","49","417934","0.0-6.0-1.6","3149291","co38431","norming","","","","","","",""
"4228.949999999721","","","post_mooney1_questions","survey-likert","50","422165","0.0-6.0-2.6","3149291","co38431","norming","","","{""curiosity"":3,""confidence"":4}","[0,1]","../img/tt/055tt.jpg","",""
"4886.414999999979","","","recognition","survey-text","51","427053","0.0-6.0-3.6","3149291","co38431","norming","","","{""guess"":""Zadel""}","","../img/tt/055tt.jpg","",""
"null","../img/gs/055gs.jpg","null","reveal","image-keyboard-response","52","429063","0.0-6.0-4.6","3149291","co38431","norming","","","","","","",""
"null","../img/tt/055tt.jpg","null","mooney2","image-keyboard-response","53","431070","0.0-6.0-5.6","3149291","co38431","norming","","","","","","",""
"3005.56500000041","","","post_reveal_questions","survey-likert","54","434077","0.0-6.0-6.6","3149291","co38431","norming","","","{""aha"":1}","[0]","../img/tt/055tt.jpg","",""
"null","<div style=""font-size:60px;""> </div>","null","fixation","html-keyboard-response","55","434279","0.0-6.0-0.7","3149291","co38431","norming","","","","","","",""
"null","../img/tt/049tt.jpg","null","mooney1","image-keyboard-response","56","437285","0.0-6.0-1.7","3149291","co38431","norming","","","","","","",""
"5646.6599999994505","","","post_mooney1_questions","survey-likert","57","442934","0.0-6.0-2.7","3149291","co38431","norming","","","{""curiosity"":4,""confidence"":3}","[0,1]","../img/tt/049tt.jpg","",""
"14222.155000000435","","","recognition","survey-text","58","457157","0.0-6.0-3.7","3149291","co38431","norming","","","{""guess"":""Schreeuwend kind""}","","../img/tt/049tt.jpg","",""
"null","../img/gs/049gs.jpg","null","reveal","image-keyboard-response","59","459166","0.0-6.0-4.7","3149291","co38431","norming","","","","","","",""
"null","../img/tt/049tt.jpg","null","mooney2","image-keyboard-response","60","461168","0.0-6.0-5.7","3149291","co38431","norming","","","","","","",""
"3475.4999999995343","","","post_reveal_questions","survey-likert","61","464637","0.0-6.0-6.7","3149291","co38431","norming","","","{""aha"":4}","[0]","../img/tt/049tt.jpg","",""
"null","<div style=""font-size:60px;""> </div>","null","fixation","html-keyboard-response","62","464839","0.0-6.0-0.8","3149291","co38431","norming","","","","","","",""
"null","../img/tt/1089tt.jpg","null","mooney1","image-keyboard-response","63","467845","0.0-6.0-1.8","3149291","co38431","norming","","","","","","",""
"4061.8800000002375","","","post_mooney1_questions","survey-likert","64","471909","0.0-6.0-2.8","3149291","co38431","norming","","","{""curiosity"":4,""confidence"":3}","[0,1]","../img/tt/1089tt.jpg","",""
"8998.869999999413","","","recognition","survey-text","65","480910","0.0-6.0-3.8","3149291","co38431","norming","","","{""guess"":""Boerderij""}","","../img/tt/1089tt.jpg","",""
"null","../img/gs/1089gs.jpg","null","reveal","image-keyboard-response","66","482914","0.0-6.0-4.8","3149291","co38431","norming","","","","","","",""
"null","../img/tt/1089tt.jpg","null","mooney2","image-keyboard-response","67","484917","0.0-6.0-5.8","3149291","co38431","norming","","","","","","",""
"4502.099999999686","","","post_reveal_questions","survey-likert","68","489421","0.0-6.0-6.8","3149291","co38431","norming","","","{""aha"":4}","[0]","../img/tt/1089tt.jpg","",""
"null","<div style=""font-size:60px;""> </div>","null","fixation","html-keyboard-response","69","489631","0.0-6.0-0.9","3149291","co38431","norming","","","","","","",""
"null","../img/tt/184tt.jpg","null","mooney1","image-keyboard-response","70","492634","0.0-6.0-1.9","3149291","co38431","norming","","","","","","",""
"5049","","","post_mooney1_questions","survey-likert","71","497685","0.0-6.0-2.9","3149291","co38431","norming","","","{""curiosity"":5,""confidence"":0}","[0,1]","../img/tt/184tt.jpg","",""
"798.0349999997998","","","recognition","survey-text","72","498485","0.0-6.0-3.9","3149291","co38431","norming","","","{""guess"":""""}","","../img/tt/184tt.jpg","",""
"null","../img/gs/184gs.jpg","null","reveal","image-keyboard-response","73","500491","0.0-6.0-4.9","3149291","co38431","norming","","","","","","",""
"null","../img/tt/184tt.jpg","null","mooney2","image-keyboard-response","74","502493","0.0-6.0-5.9","3149291","co38431","norming","","","","","","",""
"2965.505000000121","","","post_reveal_questions","survey-likert","75","505461","0.0-6.0-6.9","3149291","co38431","norming","","","{""aha"":5}","[0]","../img/tt/184tt.jpg","",""
"null","<div style=""font-size:60px;""> </div>","null","fixation","html-keyboard-response","76","505664","0.0-6.0-0.10","3149291","co38431","norming","","","","","","",""
"null","../img/tt/1154tt.jpg","null","mooney1","image-keyboard-response","77","508670","0.0-6.0-1.10","3149291","co38431","norming","","","","","","",""
"5566.170000000042","","","post_mooney1_questions","survey-likert","78","514237","0.0-6.0-2.10","3149291","co38431","norming","","","{""curiosity"":4,""confidence"":2}","[0,1]","../img/tt/1154tt.jpg","",""
"4558.030000000144","","","recognition","survey-text","79","518797","0.0-6.0-3.10","3149291","co38431","norming","","","{""guess"":""Autoweg""}","","../img/tt/1154tt.jpg","",""
"null","../img/gs/1154gs.jpg","null","reveal","image-keyboard-response","80","520802","0.0-6.0-4.10","3149291","co38431","norming","","","","","","",""
"null","../img/tt/1154tt.jpg","null","mooney2","image-keyboard-response","81","522805","0.0-6.0-5.10","3149291","co38431","norming","","","","","","",""
"11102.35500000004","","","post_reveal_questions","survey-likert","82","533919","0.0-6.0-6.10","3149291","co38431","norming","","","{""aha"":4}","[0]","../img/tt/1154tt.jpg","",""
"null","<div style=""font-size:60px;""> </div>","null","fixation","html-keyboard-response","83","534129","0.0-6.0-0.11","3149291","co38431","norming","","","","","","",""
"null","../img/tt/1046tt.jpg","null","mooney1","image-keyboard-response","84","537140","0.0-6.0-1.11","3149291","co38431","norming","","","","","","",""
"5192.095000000321","","","post_mooney1_questions","survey-likert","85","542335","0.0-6.0-2.11","3149291","co38431","norming","","","{""curiosity"":4,""confidence"":1}","[0,1]","../img/tt/1046tt.jpg","",""
"5573.990000000806","","","recognition","survey-text","86","547911","0.0-6.0-3.11","3149291","co38431","norming","","","{""guess"":""Boterham""}","","../img/tt/1046tt.jpg","",""
"null","../img/gs/1046gs.jpg","null","reveal","image-keyboard-response","87","549919","0.0-6.0-4.11","3149291","co38431","norming","","","","","","",""
"null","../img/tt/1046tt.jpg","null","mooney2","image-keyboard-response","88","551930","0.0-6.0-5.11","3149291","co38431","norming","","","","","","",""
"3539.214999999851","","","post_reveal_questions","survey-likert","89","555471","0.0-6.0-6.11","3149291","co38431","norming","","","{""aha"":3}","[0]","../img/tt/1046tt.jpg","",""
"null","<div style=""font-size:60px;""> </div>","null","fixation","html-keyboard-response","90","555672","0.0-6.0-0.12","3149291","co38431","norming","","","","","","",""
"null","../img/tt/108tt.jpg","null","mooney1","image-keyboard-response","91","558678","0.0-6.0-1.12","3149291","co38431","norming","","","","","","",""
"4454.635000000126","","","post_mooney1_questions","survey-likert","92","563135","0.0-6.0-2.12","3149291","co38431","norming","","","{""curiosity"":4,""confidence"":0}","[0,1]","../img/tt/108tt.jpg","",""
"1813.9099999999162","","","recognition","survey-text","93","564951","0.0-6.0-3.12","3149291","co38431","norming","","","{""guess"":""""}","","../img/tt/108tt.jpg","",""
"null","../img/gs/108gs.jpg","null","reveal","image-keyboard-response","94","566957","0.0-6.0-4.12","3149291","co38431","norming","","","","","","",""
"null","../img/tt/108tt.jpg","null","mooney2","image-keyboard-response","95","568967","0.0-6.0-5.12","3149291","co38431","norming","","","","","","",""
"2318.0899999997346","","","post_reveal_questions","survey-likert","96","571287","0.0-6.0-6.12","3149291","co38431","norming","","","{""aha"":5}","[0]","../img/tt/108tt.jpg","",""
"null","<div style=""font-size:60px;""> </div>","null","fixation","html-keyboard-response","97","571488","0.0-6.0-0.13","3149291","co38431","norming","","","","","","",""
"null","../img/tt/112tt.jpg","null","mooney1","image-keyboard-response","98","574499","0.0-6.0-1.13","3149291","co38431","norming","","","","","","",""
"5529.819999999716","","","post_mooney1_questions","survey-likert","99","580031","0.0-6.0-2.13","3149291","co38431","norming","","","{""curiosity"":2,""confidence"":2}","[0,1]","../img/tt/112tt.jpg","",""
"3749.9649999999674","","","recognition","survey-text","100","583783","0.0-6.0-3.13","3149291","co38431","norming","","","{""guess"":""Fles""}","","../img/tt/112tt.jpg","",""
"null","../img/gs/112gs.jpg","null","reveal","image-keyboard-response","101","585792","0.0-6.0-4.13","3149291","co38431","norming","","","","","","",""
"null","../img/tt/112tt.jpg","null","mooney2","image-keyboard-response","102","587797","0.0-6.0-5.13","3149291","co38431","norming","","","","","","",""
"2368.755000000354","","","post_reveal_questions","survey-likert","103","590168","0.0-6.0-6.13","3149291","co38431","norming","","","{""aha"":4}","[0]","../img/tt/112tt.jpg","",""
"null","<div style=""font-size:60px;""> </div>","null","fixation","html-keyboard-response","104","590372","0.0-6.0-0.14","3149291","co38431","norming","","","","","","",""
"null","../img/tt/598tt.jpg","null","mooney1","image-keyboard-response","105","593380","0.0-6.0-1.14","3149291","co38431","norming","","","","","","",""
"15745.88499999931","","","post_mooney1_questions","survey-likert","106","609129","0.0-6.0-2.14","3149291","co38431","norming","","","{""curiosity"":4,""confidence"":0}","[0,1]","../img/tt/598tt.jpg","",""
"742.7449999995297","","","recognition","survey-text","107","609873","0.0-6.0-3.14","3149291","co38431","norming","","","{""guess"":""""}","","../img/tt/598tt.jpg","",""
"null","../img/gs/598gs.jpg","null","reveal","image-keyboard-response","108","611876","0.0-6.0-4.14","3149291","co38431","norming","","","","","","",""
"null","../img/tt/598tt.jpg","null","mooney2","image-keyboard-response","109","613887","0.0-6.0-5.14","3149291","co38431","norming","","","","","","",""
"4367.040000000037","","","post_reveal_questions","survey-likert","110","618256","0.0-6.0-6.14","3149291","co38431","norming","","","{""aha"":5}","[0]","../img/tt/598tt.jpg","",""
"null","<div style=""font-size:60px;""> </div>","null","fixation","html-keyboard-response","111","618457","0.0-6.0-0.15","3149291","co38431","norming","","","","","","",""
"null","../img/tt/1250tt.jpg","null","mooney1","image-keyboard-response","112","621460","0.0-6.0-1.15","3149291","co38431","norming","","","","","","",""
"4313.6549999999115","","","post_mooney1_questions","survey-likert","113","625776","0.0-6.0-2.15","3149291","co38431","norming","","","{""curiosity"":2,""confidence"":4}","[0,1]","../img/tt/1250tt.jpg","",""
"4997.655000000144","","","recognition","survey-text","114","630776","0.0-6.0-3.15","3149291","co38431","norming","","","{""guess"":""Zeehonden""}","","../img/tt/1250tt.jpg","",""
"null","../img/gs/1250gs.jpg","null","reveal","image-keyboard-response","115","632779","0.0-6.0-4.15","3149291","co38431","norming","","","","","","",""
"null","../img/tt/1250tt.jpg","null","mooney2","image-keyboard-response","116","634781","0.0-6.0-5.15","3149291","co38431","norming","","","","","","",""
"4832.839999999967","","","post_reveal_questions","survey-likert","117","639616","0.0-6.0-6.15","3149291","co38431","norming","","","{""aha"":4}","[0]","../img/tt/1250tt.jpg","",""
"null","<div style=""font-size:60px;""> </div>","null","fixation","html-keyboard-response","118","639818","0.0-6.0-0.16","3149291","co38431","norming","","","","","","",""
"null","../img/tt/552tt.jpg","null","mooney1","image-keyboard-response","119","642821","0.0-6.0-1.16","3149291","co38431","norming","","","","","","",""
"5889.484999999637","","","post_mooney1_questions","survey-likert","120","648712","0.0-6.0-2.16","3149291","co38431","norming","","","{""curiosity"":1,""confidence"":6}","[0,1]","../img/tt/552tt.jpg","",""
"5981.840000000317","","","recognition","survey-text","121","654696","0.0-6.0-3.16","3149291","co38431","norming","","","{""guess"":""Stinkdier""}","","../img/tt/552tt.jpg","",""
"null","../img/gs/552gs.jpg","null","reveal","image-keyboard-response","122","656697","0.0-6.0-4.16","3149291","co38431","norming","","","","","","",""
"null","../img/tt/552tt.jpg","null","mooney2","image-keyboard-response","123","658702","0.0-6.0-5.16","3149291","co38431","norming","","","","","","",""
"3408.2199999992736","","","post_reveal_questions","survey-likert","124","662112","0.0-6.0-6.16","3149291","co38431","norming","","","{""aha"":0}","[0]","../img/tt/552tt.jpg","",""
"null","<div style=""font-size:60px;""> </div>","null","fixation","html-keyboard-response","125","662314","0.0-6.0-0.17","3149291","co38431","norming","","","","","","",""
"null","../img/tt/031tt.jpg","null","mooney1","image-keyboard-response","126","665316","0.0-6.0-1.17","3149291","co38431","norming","","","","","","",""
"6305.29000000027","","","post_mooney1_questions","survey-likert","127","671624","0.0-6.0-2.17","3149291","co38431","norming","","","{""curiosity"":4,""confidence"":0}","[0,1]","../img/tt/031tt.jpg","",""
"614.3650000003399","","","recognition","survey-text","128","672240","0.0-6.0-3.17","3149291","co38431","norming","","","{""guess"":""""}","","../img/tt/031tt.jpg","",""
"null","../img/gs/031gs.jpg","null","reveal","image-keyboard-response","129","674251","0.0-6.0-4.17","3149291","co38431","norming","","","","","","",""
"null","../img/tt/031tt.jpg","null","mooney2","image-keyboard-response","130","676253","0.0-6.0-5.17","3149291","co38431","norming","","","","","","",""
"2633.5100000005914","","","post_reveal_questions","survey-likert","131","678888","0.0-6.0-6.17","3149291","co38431","norming","","","{""aha"":5}","[0]","../img/tt/031tt.jpg","",""
"null","<div style=""font-size:60px;""> </div>","null","fixation","html-keyboard-response","132","679090","0.0-6.0-0.18","3149291","co38431","norming","","","","","","",""
"null","../img/tt/053tt.jpg","null","mooney1","image-keyboard-response","133","682099","0.0-6.0-1.18","3149291","co38431","norming","","","","","","",""
"7763.114999999758","","","post_mooney1_questions","survey-likert","134","689864","0.0-6.0-2.18","3149291","co38431","norming","","","{""curiosity"":4,""confidence"":1}","[0,1]","../img/tt/053tt.jpg","",""
"3718.4449999995995","","","recognition","survey-text","135","693584","0.0-6.0-3.18","3149291","co38431","norming","","","{""guess"":""Hek""}","","../img/tt/053tt.jpg","",""
"null","../img/gs/053gs.jpg","null","reveal","image-keyboard-response","136","695587","0.0-6.0-4.18","3149291","co38431","norming","","","","","","",""
"null","../img/tt/053tt.jpg","null","mooney2","image-keyboard-response","137","697591","0.0-6.0-5.18","3149291","co38431","norming","","","","","","",""
"4687.469999999856","","","post_reveal_questions","survey-likert","138","702280","0.0-6.0-6.18","3149291","co38431","norming","","","{""aha"":4}","[0]","../img/tt/053tt.jpg","",""
"null","<div style=""font-size:60px;""> </div>","null","fixation","html-keyboard-response","139","702482","0.0-6.0-0.19","3149291","co38431","norming","","","","","","",""
"null","../img/tt/567tt.jpg","null","mooney1","image-keyboard-response","140","705485","0.0-6.0-1.19","3149291","co38431","norming","","","","","","",""
"6001.974999999162","","","post_mooney1_questions","survey-likert","141","711485","0.0-6.0-2.19","3149291","co38431","norming","","","{""curiosity"":4,""confidence"":2}","[0,1]","../img/tt/567tt.jpg","",""
"6061.994999999995","","","recognition","survey-text","142","717549","0.0-6.0-3.19","3149291","co38431","norming","","","{""guess"":""Autodeur""}","","../img/tt/567tt.jpg","",""
"null","../img/gs/567gs.jpg","null","reveal","image-keyboard-response","143","719554","0.0-6.0-4.19","3149291","co38431","norming","","","","","","",""
"null","../img/tt/567tt.jpg","null","mooney2","image-keyboard-response","144","721565","0.0-6.0-5.19","3149291","co38431","norming","","","","","","",""
"2933.619999999879","","","post_reveal_questions","survey-likert","145","724501","0.0-6.0-6.19","3149291","co38431","norming","","","{""aha"":5}","[0]","../img/tt/567tt.jpg","",""
"null","<div style=""font-size:60px;""> </div>","null","fixation","html-keyboard-response","146","724702","0.0-6.0-0.20","3149291","co38431","norming","","","","","","",""
"null","../img/tt/105tt.jpg","null","mooney1","image-keyboard-response","147","727706","0.0-6.0-1.20","3149291","co38431","norming","","","","","","",""
"8073.550000000047","","","post_mooney1_questions","survey-likert","148","735781","0.0-6.0-2.20","3149291","co38431","norming","","","{""curiosity"":6,""confidence"":0}","[0,1]","../img/tt/105tt.jpg","",""
"766.4249999998137","","","recognition","survey-text","149","736549","0.0-6.0-3.20","3149291","co38431","norming","","","{""guess"":""""}","","../img/tt/105tt.jpg","",""
"null","../img/gs/105gs.jpg","null","reveal","image-keyboard-response","150","738553","0.0-6.0-4.20","3149291","co38431","norming","","","","","","",""
"null","../img/tt/105tt.jpg","null","mooney2","image-keyboard-response","151","740556","0.0-6.0-5.20","3149291","co38431","norming","","","","","","",""
"7294.340000000317","","","post_reveal_questions","survey-likert","152","747853","0.0-6.0-6.20","3149291","co38431","norming","","","{""aha"":2}","[0]","../img/tt/105tt.jpg","",""
"null","<div style=""font-size:60px;""> </div>","null","fixation","html-keyboard-response","153","748054","0.0-6.0-0.21","3149291","co38431","norming","","","","","","",""
"null","../img/tt/1123tt.jpg","null","mooney1","image-keyboard-response","154","751056","0.0-6.0-1.21","3149291","co38431","norming","","","","","","",""
"9073.78000000061","","","post_mooney1_questions","survey-likert","155","760133","0.0-6.0-2.21","3149291","co38431","norming","","","{""curiosity"":4,""confidence"":2}","[0,1]","../img/tt/1123tt.jpg","",""
"6582.010000000126","","","recognition","survey-text","156","766717","0.0-6.0-3.21","3149291","co38431","norming","","","{""guess"":""Huis""}","","../img/tt/1123tt.jpg","",""
"null","../img/gs/1123gs.jpg","null","reveal","image-keyboard-response","157","768718","0.0-6.0-4.21","3149291","co38431","norming","","","","","","",""
"null","../img/tt/1123tt.jpg","null","mooney2","image-keyboard-response","158","770725","0.0-6.0-5.21","3149291","co38431","norming","","","","","","",""
"3458.3300000004238","","","post_reveal_questions","survey-likert","159","774186","0.0-6.0-6.21","3149291","co38431","norming","","","{""aha"":6}","[0]","../img/tt/1123tt.jpg","",""
"null","<div style=""font-size:60px;""> </div>","null","fixation","html-keyboard-response","160","774387","0.0-6.0-0.22","3149291","co38431","norming","","","","","","",""
"null","../img/tt/380tt.jpg","null","mooney1","image-keyboard-response","161","777397","0.0-6.0-1.22","3149291","co38431","norming","","","","","","",""
"10705.644999999902","","","post_mooney1_questions","survey-likert","162","788106","0.0-6.0-2.22","3149291","co38431","norming","","","{""curiosity"":5,""confidence"":2}","[0,1]","../img/tt/380tt.jpg","",""
"3870.3999999997905","","","recognition","survey-text","163","791978","0.0-6.0-3.22","3149291","co38431","norming","","","{""guess"":""Man""}","","../img/tt/380tt.jpg","",""
"null","../img/gs/380gs.jpg","null","reveal","image-keyboard-response","164","793985","0.0-6.0-4.22","3149291","co38431","norming","","","","","","",""
"null","../img/tt/380tt.jpg","null","mooney2","image-keyboard-response","165","795995","0.0-6.0-5.22","3149291","co38431","norming","","","","","","",""
"2420.289999999921","","","post_reveal_questions","survey-likert","166","798418","0.0-6.0-6.22","3149291","co38431","norming","","","{""aha"":5}","[0]","../img/tt/380tt.jpg","",""
"null","<div style=""font-size:60px;""> </div>","null","fixation","html-keyboard-response","167","798619","0.0-6.0-0.23","3149291","co38431","norming","","","","","","",""
"null","../img/tt/1069tt.jpg","null","mooney1","image-keyboard-response","168","801624","0.0-6.0-1.23","3149291","co38431","norming","","","","","","",""
"7327.874999999884","","","post_mooney1_questions","survey-likert","169","808954","0.0-6.0-2.23","3149291","co38431","norming","","","{""curiosity"":2,""confidence"":5}","[0,1]","../img/tt/1069tt.jpg","",""
"3877.954999999958","","","recognition","survey-text","170","812834","0.0-6.0-3.23","3149291","co38431","norming","","","{""guess"":""Steenbok""}","","../img/tt/1069tt.jpg","",""
"null","../img/gs/1069gs.jpg","null","reveal","image-keyboard-response","171","814842","0.0-6.0-4.23","3149291","co38431","norming","","","","","","",""
"null","../img/tt/1069tt.jpg","null","mooney2","image-keyboard-response","172","816850","0.0-6.0-5.23","3149291","co38431","norming","","","","","","",""
"3253.6550000004936","","","post_reveal_questions","survey-likert","173","820106","0.0-6.0-6.23","3149291","co38431","norming","","","{""aha"":2}","[0]","../img/tt/1069tt.jpg","",""
"null","<div style=""font-size:60px;""> </div>","null","fixation","html-keyboard-response","174","820308","0.0-6.0-0.24","3149291","co38431","norming","","","","","","",""
"null","../img/tt/522tt.jpg","null","mooney1","image-keyboard-response","175","823319","0.0-6.0-1.24","3149291","co38431","norming","","","","","","",""
"5000.460000000196","","","post_mooney1_questions","survey-likert","176","828322","0.0-6.0-2.24","3149291","co38431","norming","","","{""curiosity"":1,""confidence"":6}","[0,1]","../img/tt/522tt.jpg","",""
"6470.094999999623","","","recognition","survey-text","177","834794","0.0-6.0-3.24","3149291","co38431","norming","","","{""guess"":""Kitten""}","","../img/tt/522tt.jpg","",""
"null","../img/gs/522gs.jpg","null","reveal","image-keyboard-response","178","836798","0.0-6.0-4.24","3149291","co38431","norming","","","","","","",""
"null","../img/tt/522tt.jpg","null","mooney2","image-keyboard-response","179","838800","0.0-6.0-5.24","3149291","co38431","norming","","","","","","",""
"3864.1250000001164","","","post_reveal_questions","survey-likert","180","842666","0.0-6.0-6.24","3149291","co38431","norming","","","{""aha"":2}","[0]","../img/tt/522tt.jpg","",""
"null","<div style=""font-size:60px;""> </div>","null","fixation","html-keyboard-response","181","842867","0.0-6.0-0.25","3149291","co38431","norming","","","","","","",""
"null","../img/tt/1262tt.jpg","null","mooney1","image-keyboard-response","182","845878","0.0-6.0-1.25","3149291","co38431","norming","","","","","","",""
"5306.104999999632","","","post_mooney1_questions","survey-likert","183","851187","0.0-6.0-2.25","3149291","co38431","norming","","","{""curiosity"":4,""confidence"":2}","[0,1]","../img/tt/1262tt.jpg","",""
"3694.0249999997905","","","recognition","survey-text","184","854882","0.0-6.0-3.25","3149291","co38431","norming","","","{""guess"":""Papegaai""}","","../img/tt/1262tt.jpg","",""
"null","../img/gs/1262gs.jpg","null","reveal","image-keyboard-response","185","856888","0.0-6.0-4.25","3149291","co38431","norming","","","","","","",""
"null","../img/tt/1262tt.jpg","null","mooney2","image-keyboard-response","186","858895","0.0-6.0-5.25","3149291","co38431","norming","","","","","","",""
"3064.7650000001304","","","post_reveal_questions","survey-likert","187","861962","0.0-6.0-6.25","3149291","co38431","norming","","","{""aha"":4}","[0]","../img/tt/1262tt.jpg","",""
"null","<div style=""font-size:60px;""> </div>","null","fixation","html-keyboard-response","188","862164","0.0-6.0-0.26","3149291","co38431","norming","","","","","","",""
"null","../img/tt/1239tt.jpg","null","mooney1","image-keyboard-response","189","865166","0.0-6.0-1.26","3149291","co38431","norming","","","","","","",""
"3937.8150000002934","","","post_mooney1_questions","survey-likert","190","869107","0.0-6.0-2.26","3149291","co38431","norming","","","{""curiosity"":2,""confidence"":6}","[0,1]","../img/tt/1239tt.jpg","",""
"4029.9050000002608","","","recognition","survey-text","191","873138","0.0-6.0-3.26","3149291","co38431","norming","","","{""guess"":""Hond""}","","../img/tt/1239tt.jpg","",""
"null","../img/gs/1239gs.jpg","null","reveal","image-keyboard-response","192","875149","0.0-6.0-4.26","3149291","co38431","norming","","","","","","",""
"null","../img/tt/1239tt.jpg","null","mooney2","image-keyboard-response","193","877157","0.0-6.0-5.26","3149291","co38431","norming","","","","","","",""
"1779.6000000006752","","","post_reveal_questions","survey-likert","194","878938","0.0-6.0-6.26","3149291","co38431","norming","","","{""aha"":1}","[0]","../img/tt/1239tt.jpg","",""
"null","<div style=""font-size:60px;""> </div>","null","fixation","html-keyboard-response","195","879140","0.0-6.0-0.27","3149291","co38431","norming","","","","","","",""
"null","../img/tt/189tt.jpg","null","mooney1","image-keyboard-response","196","882145","0.0-6.0-1.27","3149291","co38431","norming","","","","","","",""
"5415.445000000531","","","post_mooney1_questions","survey-likert","197","887562","0.0-6.0-2.27","3149291","co38431","norming","","","{""curiosity"":4,""confidence"":2}","[0,1]","../img/tt/189tt.jpg","",""
"10270.290000000386","","","recognition","survey-text","198","897835","0.0-6.0-3.27","3149291","co38431","norming","","","{""guess"":""Paard""}","","../img/tt/189tt.jpg","",""
"null","../img/gs/189gs.jpg","null","reveal","image-keyboard-response","199","899843","0.0-6.0-4.27","3149291","co38431","norming","","","","","","",""
"null","../img/tt/189tt.jpg","null","mooney2","image-keyboard-response","200","901853","0.0-6.0-5.27","3149291","co38431","norming","","","","","","",""
"3251.1300000005867","","","post_reveal_questions","survey-likert","201","905107","0.0-6.0-6.27","3149291","co38431","norming","","","{""aha"":5}","[0]","../img/tt/189tt.jpg","",""
"null","<div style=""font-size:60px;""> </div>","null","fixation","html-keyboard-response","202","905308","0.0-6.0-0.28","3149291","co38431","norming","","","","","","",""
"null","../img/tt/1362tt.jpg","null","mooney1","image-keyboard-response","203","908319","0.0-6.0-1.28","3149291","co38431","norming","","","","","","",""
"5553.34499999939","","","post_mooney1_questions","survey-likert","204","913875","0.0-6.0-2.28","3149291","co38431","norming","","","{""curiosity"":4,""confidence"":3}","[0,1]","../img/tt/1362tt.jpg","",""
"4253.585000000428","","","recognition","survey-text","205","918130","0.0-6.0-3.28","3149291","co38431","norming","","","{""guess"":""Camera""}","","../img/tt/1362tt.jpg","",""
"null","../img/gs/1362gs.jpg","null","reveal","image-keyboard-response","206","920139","0.0-6.0-4.28","3149291","co38431","norming","","","","","","",""
"null","../img/tt/1362tt.jpg","null","mooney2","image-keyboard-response","207","922144","0.0-6.0-5.28","3149291","co38431","norming","","","","","","",""
"3874.0449999995762","","","post_reveal_questions","survey-likert","208","926019","0.0-6.0-6.28","3149291","co38431","norming","","","{""aha"":4}","[0]","../img/tt/1362tt.jpg","",""
"null","<div style=""font-size:60px;""> </div>","null","fixation","html-keyboard-response","209","926221","0.0-6.0-0.29","3149291","co38431","norming","","","","","","",""
"null","../img/tt/590tt.jpg","null","mooney1","image-keyboard-response","210","929224","0.0-6.0-1.29","3149291","co38431","norming","","","","","","",""
"3873.120000000228","","","post_mooney1_questions","survey-likert","211","933099","0.0-6.0-2.29","3149291","co38431","norming","","","{""curiosity"":6,""confidence"":0}","[0,1]","../img/tt/590tt.jpg","",""
"830.1000000000931","","","recognition","survey-text","212","933930","0.0-6.0-3.29","3149291","co38431","norming","","","{""guess"":""""}","","../img/tt/590tt.jpg","",""
"null","../img/gs/590gs.jpg","null","reveal","image-keyboard-response","213","935934","0.0-6.0-4.29","3149291","co38431","norming","","","","","","",""
"null","../img/tt/590tt.jpg","null","mooney2","image-keyboard-response","214","937939","0.0-6.0-5.29","3149291","co38431","norming","","","","","","",""
"2766.7399999999907","","","post_reveal_questions","survey-likert","215","940707","0.0-6.0-6.29","3149291","co38431","norming","","","{""aha"":5}","[0]","../img/tt/590tt.jpg","",""
"null","<div style=""font-size:60px;""> </div>","null","fixation","html-keyboard-response","216","940909","0.0-6.0-0.30","3149291","co38431","norming","","","","","","",""
"null","../img/tt/534tt.jpg","null","mooney1","image-keyboard-response","217","943917","0.0-6.0-1.30","3149291","co38431","norming","","","","","","",""
"4716.585000000079","","","post_mooney1_questions","survey-likert","218","948635","0.0-6.0-2.30","3149291","co38431","norming","","","{""curiosity"":2,""confidence"":6}","[0,1]","../img/tt/534tt.jpg","",""
"3358.0499999998137","","","recognition","survey-text","219","951995","0.0-6.0-3.30","3149291","co38431","norming","","","{""guess"":""Cactus""}","","../img/tt/534tt.jpg","",""
"null","../img/gs/534gs.jpg","null","reveal","image-keyboard-response","220","954002","0.0-6.0-4.30","3149291","co38431","norming","","","","","","",""
"null","../img/tt/534tt.jpg","null","mooney2","image-keyboard-response","221","956012","0.0-6.0-5.30","3149291","co38431","norming","","","","","","",""
"5589.119999999646","","","post_reveal_questions","survey-likert","222","961603","0.0-6.0-6.30","3149291","co38431","norming","","","{""aha"":2}","[0]","../img/tt/534tt.jpg","",""
"null","<div style=""font-size:60px;""> </div>","null","fixation","html-keyboard-response","223","961804","0.0-6.0-0.31","3149291","co38431","norming","","","","","","",""
"null","../img/tt/222tt.jpg","null","mooney1","image-keyboard-response","224","964810","0.0-6.0-1.31","3149291","co38431","norming","","","","","","",""
"6926.000000000349","","","post_mooney1_questions","survey-likert","225","971739","0.0-6.0-2.31","3149291","co38431","norming","","","{""curiosity"":4,""confidence"":2}","[0,1]","../img/tt/222tt.jpg","",""
"7901.904999999795","","","recognition","survey-text","226","979643","0.0-6.0-3.31","3149291","co38431","norming","","","{""guess"":""Winkel""}","","../img/tt/222tt.jpg","",""
"null","../img/gs/222gs.jpg","null","reveal","image-keyboard-response","227","981647","0.0-6.0-4.31","3149291","co38431","norming","","","","","","",""
"null","../img/tt/222tt.jpg","null","mooney2","image-keyboard-response","228","983649","0.0-6.0-5.31","3149291","co38431","norming","","","","","","",""
"2103.645000000135","","","post_reveal_questions","survey-likert","229","985755","0.0-6.0-6.31","3149291","co38431","norming","","","{""aha"":6}","[0]","../img/tt/222tt.jpg","",""
"null","<div style=""font-size:60px;""> </div>","null","fixation","html-keyboard-response","230","985956","0.0-6.0-0.32","3149291","co38431","norming","","","","","","",""
"null","../img/tt/1125tt.jpg","null","mooney1","image-keyboard-response","231","988965","0.0-6.0-1.32","3149291","co38431","norming","","","","","","",""
"6195.025000000023","","","post_mooney1_questions","survey-likert","232","995163","0.0-6.0-2.32","3149291","co38431","norming","","","{""curiosity"":4,""confidence"":5}","[0,1]","../img/tt/1125tt.jpg","",""
"5190.10999999952","","","recognition","survey-text","233","1000355","0.0-6.0-3.32","3149291","co38431","norming","","","{""guess"":""Jongen""}","","../img/tt/1125tt.jpg","",""
"null","../img/gs/1125gs.jpg","null","reveal","image-keyboard-response","234","1002357","0.0-6.0-4.32","3149291","co38431","norming","","","","","","",""
"null","../img/tt/1125tt.jpg","null","mooney2","image-keyboard-response","235","1004358","0.0-6.0-5.32","3149291","co38431","norming","","","","","","",""
"3474.269999999786","","","post_reveal_questions","survey-likert","236","1007835","0.0-6.0-6.32","3149291","co38431","norming","","","{""aha"":4}","[0]","../img/tt/1125tt.jpg","",""
"null","<div style=""font-size:60px;""> </div>","null","fixation","html-keyboard-response","237","1008037","0.0-6.0-0.33","3149291","co38431","norming","","","","","","",""
"null","../img/tt/1270tt.jpg","null","mooney1","image-keyboard-response","238","1011049","0.0-6.0-1.33","3149291","co38431","norming","","","","","","",""
"4806.875000000233","","","post_mooney1_questions","survey-likert","239","1015859","0.0-6.0-2.33","3149291","co38431","norming","","","{""curiosity"":5,""confidence"":0}","[0,1]","../img/tt/1270tt.jpg","",""
"686.2049999999581","","","recognition","survey-text","240","1016541","0.0-6.0-3.33","3149291","co38431","norming","","","{""guess"":""""}","","../img/tt/1270tt.jpg","",""
"null","../img/gs/1270gs.jpg","null","reveal","image-keyboard-response","241","1018546","0.0-6.0-4.33","3149291","co38431","norming","","","","","","",""
"null","../img/tt/1270tt.jpg","null","mooney2","image-keyboard-response","242","1020548","0.0-6.0-5.33","3149291","co38431","norming","","","","","","",""
"2758.4949999999953","","","post_reveal_questions","survey-likert","243","1023309","0.0-6.0-6.33","3149291","co38431","norming","","","{""aha"":4}","[0]","../img/tt/1270tt.jpg","",""
"null","<div style=""font-size:60px;""> </div>","null","fixation","html-keyboard-response","244","1023510","0.0-6.0-0.34","3149291","co38431","norming","","","","","","",""
"null","../img/tt/1202tt.jpg","null","mooney1","image-keyboard-response","245","1026514","0.0-6.0-1.34","3149291","co38431","norming","","","","","","",""
"5056.654999999446","","","post_mooney1_questions","survey-likert","246","1031573","0.0-6.0-2.34","3149291","co38431","norming","","","{""curiosity"":4,""confidence"":4}","[0,1]","../img/tt/1202tt.jpg","",""
"5302.060000000056","","","recognition","survey-text","247","1036877","0.0-6.0-3.34","3149291","co38431","norming","","","{""guess"":""Piano spelen""}","","../img/tt/1202tt.jpg","",""
"null","../img/gs/1202gs.jpg","null","reveal","image-keyboard-response","248","1038880","0.0-6.0-4.34","3149291","co38431","norming","","","","","","",""
"null","../img/tt/1202tt.jpg","null","mooney2","image-keyboard-response","249","1040881","0.0-6.0-5.34","3149291","co38431","norming","","","","","","",""
"2201.4600000001956","","","post_reveal_questions","survey-likert","250","1043085","0.0-6.0-6.34","3149291","co38431","norming","","","{""aha"":4}","[0]","../img/tt/1202tt.jpg","",""
"null","<div style=""font-size:60px;""> </div>","null","fixation","html-keyboard-response","251","1043286","0.0-6.0-0.35","3149291","co38431","norming","","","","","","",""
"null","../img/tt/1080tt.jpg","null","mooney1","image-keyboard-response","252","1046294","0.0-6.0-1.35","3149291","co38431","norming","","","","","","",""
"5068.954999999609","","","post_mooney1_questions","survey-likert","253","1051365","0.0-6.0-2.35","3149291","co38431","norming","","","{""curiosity"":4,""confidence"":3}","[0,1]","../img/tt/1080tt.jpg","",""
"3486.1350000000093","","","recognition","survey-text","254","1054853","0.0-6.0-3.35","3149291","co38431","norming","","","{""guess"":""Geweer""}","","../img/tt/1080tt.jpg","",""
"null","../img/gs/1080gs.jpg","null","reveal","image-keyboard-response","255","1056863","0.0-6.0-4.35","3149291","co38431","norming","","","","","","",""
"null","../img/tt/1080tt.jpg","null","mooney2","image-keyboard-response","256","1058870","0.0-6.0-5.35","3149291","co38431","norming","","","","","","",""
"2077.255000000121","","","post_reveal_questions","survey-likert","257","1060949","0.0-6.0-6.35","3149291","co38431","norming","","","{""aha"":5}","[0]","../img/tt/1080tt.jpg","",""
"null","<div style=""font-size:60px;""> </div>","null","fixation","html-keyboard-response","258","1061151","0.0-6.0-0.36","3149291","co38431","norming","","","","","","",""
"null","../img/tt/435tt.jpg","null","mooney1","image-keyboard-response","259","1064153","0.0-6.0-1.36","3149291","co38431","norming","","","","","","",""
"3193.3700000001118","","","post_mooney1_questions","survey-likert","260","1067349","0.0-6.0-2.36","3149291","co38431","norming","","","{""curiosity"":2,""confidence"":6}","[0,1]","../img/tt/435tt.jpg","",""
"3678.2900000000373","","","recognition","survey-text","261","1071029","0.0-6.0-3.36","3149291","co38431","norming","","","{""guess"":""Poolen""}","","../img/tt/435tt.jpg","",""
"null","../img/gs/435gs.jpg","null","reveal","image-keyboard-response","262","1073036","0.0-6.0-4.36","3149291","co38431","norming","","","","","","",""
"null","../img/tt/435tt.jpg","null","mooney2","image-keyboard-response","263","1075039","0.0-6.0-5.36","3149291","co38431","norming","","","","","","",""
"2412.269999999786","","","post_reveal_questions","survey-likert","264","1077452","0.0-6.0-6.36","3149291","co38431","norming","","","{""aha"":2}","[0]","../img/tt/435tt.jpg","",""
"null","<div style=""font-size:60px;""> </div>","null","fixation","html-keyboard-response","265","1077653","0.0-6.0-0.37","3149291","co38431","norming","","","","","","",""
"null","../img/tt/010tt.jpg","null","mooney1","image-keyboard-response","266","1080658","0.0-6.0-1.37","3149291","co38431","norming","","","","","","",""
"8343.570000000065","","","post_mooney1_questions","survey-likert","267","1089004","0.0-6.0-2.37","3149291","co38431","norming","","","{""curiosity"":4,""confidence"":1}","[0,1]","../img/tt/010tt.jpg","",""
"2726.079999999376","","","recognition","survey-text","268","1091732","0.0-6.0-3.37","3149291","co38431","norming","","","{""guess"":""Hand""}","","../img/tt/010tt.jpg","",""
"null","../img/gs/010gs.jpg","null","reveal","image-keyboard-response","269","1093743","0.0-6.0-4.37","3149291","co38431","norming","","","","","","",""
"null","../img/tt/010tt.jpg","null","mooney2","image-keyboard-response","270","1095746","0.0-6.0-5.37","3149291","co38431","norming","","","","","","",""
"2240.8750000004657","","","post_reveal_questions","survey-likert","271","1097988","0.0-6.0-6.37","3149291","co38431","norming","","","{""aha"":4}","[0]","../img/tt/010tt.jpg","",""
"null","<div style=""font-size:60px;""> </div>","null","fixation","html-keyboard-response","272","1098193","0.0-6.0-0.38","3149291","co38431","norming","","","","","","",""
"null","../img/tt/082tt.jpg","null","mooney1","image-keyboard-response","273","1101205","0.0-6.0-1.38","3149291","co38431","norming","","","","","","",""
"4114.534999999683","","","post_mooney1_questions","survey-likert","274","1105324","0.0-6.0-2.38","3149291","co38431","norming","","","{""curiosity"":4,""confidence"":3}","[0,1]","../img/tt/082tt.jpg","",""
"3702.020000000717","","","recognition","survey-text","275","1109028","0.0-6.0-3.38","3149291","co38431","norming","","","{""guess"":""Paard""}","","../img/tt/082tt.jpg","",""
"null","../img/gs/082gs.jpg","null","reveal","image-keyboard-response","276","1111035","0.0-6.0-4.38","3149291","co38431","norming","","","","","","",""
"null","../img/tt/082tt.jpg","null","mooney2","image-keyboard-response","277","1113038","0.0-6.0-5.38","3149291","co38431","norming","","","","","","",""
"2571.739999999292","","","post_reveal_questions","survey-likert","278","1115612","0.0-6.0-6.38","3149291","co38431","norming","","","{""aha"":4}","[0]","../img/tt/082tt.jpg","",""
"null","<div style=""font-size:60px;""> </div>","null","fixation","html-keyboard-response","279","1115813","0.0-6.0-0.39","3149291","co38431","norming","","","","","","",""
"null","../img/tt/1242tt.jpg","null","mooney1","image-keyboard-response","280","1118825","0.0-6.0-1.39","3149291","co38431","norming","","","","","","",""
"7128.329999999609","","","post_mooney1_questions","survey-likert","281","1125956","0.0-6.0-2.39","3149291","co38431","norming","","","{""curiosity"":4,""confidence"":0}","[0,1]","../img/tt/1242tt.jpg","",""
"1006.1899999999441","","","recognition","survey-text","282","1126964","0.0-6.0-3.39","3149291","co38431","norming","","","{""guess"":""""}","","../img/tt/1242tt.jpg","",""
"null","../img/gs/1242gs.jpg","null","reveal","image-keyboard-response","283","1128970","0.0-6.0-4.39","3149291","co38431","norming","","","","","","",""
"null","../img/tt/1242tt.jpg","null","mooney2","image-keyboard-response","284","1130972","0.0-6.0-5.39","3149291","co38431","norming","","","","","","",""
"2037.6100000003353","","","post_reveal_questions","survey-likert","285","1133012","0.0-6.0-6.39","3149291","co38431","norming","","","{""aha"":5}","[0]","../img/tt/1242tt.jpg","",""
"null","<div style=""font-size:60px;""> </div>","null","fixation","html-keyboard-response","286","1133214","0.0-6.0-0.40","3149291","co38431","norming","","","","","","",""
"null","../img/tt/1363tt.jpg","null","mooney1","image-keyboard-response","287","1136217","0.0-6.0-1.40","3149291","co38431","norming","","","","","","",""
"8192.80999999959","","","post_mooney1_questions","survey-likert","288","1144419","0.0-6.0-2.40","3149291","co38431","norming","","","{""curiosity"":4,""confidence"":1}","[0,1]","../img/tt/1363tt.jpg","",""
"6453.924999999814","","","recognition","survey-text","289","1150875","0.0-6.0-3.40","3149291","co38431","norming","","","{""guess"":""Toilet""}","","../img/tt/1363tt.jpg","",""
"null","../img/gs/1363gs.jpg","null","reveal","image-keyboard-response","290","1152881","0.0-6.0-4.40","3149291","co38431","norming","","","","","","",""
"null","../img/tt/1363tt.jpg","null","mooney2","image-keyboard-response","291","1154891","0.0-6.0-5.40","3149291","co38431","norming","","","","","","",""
"2293.4150000000373","","","post_reveal_questions","survey-likert","292","1157187","0.0-6.0-6.40","3149291","co38431","norming","","","{""aha"":4}","[0]","../img/tt/1363tt.jpg","",""
"null","<div style=""font-size:60px;""> </div>","null","fixation","html-keyboard-response","293","1157388","0.0-6.0-0.41","3149291","co38431","norming","","","","","","",""
"null","../img/tt/1128tt.jpg","null","mooney1","image-keyboard-response","294","1160391","0.0-6.0-1.41","3149291","co38431","norming","","","","","","",""
"15240.810000000289","","","post_mooney1_questions","survey-likert","295","1175635","0.0-6.0-2.41","3149291","co38431","norming","","","{""curiosity"":6,""confidence"":0}","[0,1]","../img/tt/1128tt.jpg","",""
"734.2800000004936","","","recognition","survey-text","296","1176371","0.0-6.0-3.41","3149291","co38431","norming","","","{""guess"":""""}","","../img/tt/1128tt.jpg","",""
"null","../img/gs/1128gs.jpg","null","reveal","image-keyboard-response","297","1178378","0.0-6.0-4.41","3149291","co38431","norming","","","","","","",""
"null","../img/tt/1128tt.jpg","null","mooney2","image-keyboard-response","298","1180381","0.0-6.0-5.41","3149291","co38431","norming","","","","","","",""
"2612.320000000298","","","post_reveal_questions","survey-likert","299","1182995","0.0-6.0-6.41","3149291","co38431","norming","","","{""aha"":5}","[0]","../img/tt/1128tt.jpg","",""
"null","<div style=""font-size:60px;""> </div>","null","fixation","html-keyboard-response","300","1183198","0.0-6.0-0.42","3149291","co38431","norming","","","","","","",""
"null","../img/tt/1366tt.jpg","null","mooney1","image-keyboard-response","301","1186208","0.0-6.0-1.42","3149291","co38431","norming","","","","","","",""
"7816.33000000054","","","post_mooney1_questions","survey-likert","302","1194027","0.0-6.0-2.42","3149291","co38431","norming","","","{""curiosity"":4,""confidence"":2}","[0,1]","../img/tt/1366tt.jpg","",""
"4285.925000000047","","","recognition","survey-text","303","1198315","0.0-6.0-3.42","3149291","co38431","norming","","","{""guess"":""Vlees""}","","../img/tt/1366tt.jpg","",""
"null","../img/gs/1366gs.jpg","null","reveal","image-keyboard-response","304","1200323","0.0-6.0-4.42","3149291","co38431","norming","","","","","","",""
"null","../img/tt/1366tt.jpg","null","mooney2","image-keyboard-response","305","1202331","0.0-6.0-5.42","3149291","co38431","norming","","","","","","",""
"3038.075000000419","","","post_reveal_questions","survey-likert","306","1205372","0.0-6.0-6.42","3149291","co38431","norming","","","{""aha"":3}","[0]","../img/tt/1366tt.jpg","",""
"null","<div style=""font-size:60px;""> </div>","null","fixation","html-keyboard-response","307","1205573","0.0-6.0-0.43","3149291","co38431","norming","","","","","","",""
"null","../img/tt/1101tt.jpg","null","mooney1","image-keyboard-response","308","1208582","0.0-6.0-1.43","3149291","co38431","norming","","","","","","",""
"6618.570000000531","","","post_mooney1_questions","survey-likert","309","1215204","0.0-6.0-2.43","3149291","co38431","norming","","","{""curiosity"":2,""confidence"":4}","[0,1]","../img/tt/1101tt.jpg","",""
"4614.105000000447","","","recognition","survey-text","310","1219820","0.0-6.0-3.43","3149291","co38431","norming","","","{""guess"":""Voetballer""}","","../img/tt/1101tt.jpg","",""
"null","../img/gs/1101gs.jpg","null","reveal","image-keyboard-response","311","1221829","0.0-6.0-4.43","3149291","co38431","norming","","","","","","",""
"null","../img/tt/1101tt.jpg","null","mooney2","image-keyboard-response","312","1223837","0.0-6.0-5.43","3149291","co38431","norming","","","","","","",""
"3844.704999999609","","","post_reveal_questions","survey-likert","313","1227684","0.0-6.0-6.43","3149291","co38431","norming","","","{""aha"":1}","[0]","../img/tt/1101tt.jpg","",""
"null","<div style=""font-size:60px;""> </div>","null","fixation","html-keyboard-response","314","1227886","0.0-6.0-0.44","3149291","co38431","norming","","","","","","",""
"null","../img/tt/1012tt.jpg","null","mooney1","image-keyboard-response","315","1230892","0.0-6.0-1.44","3149291","co38431","norming","","","","","","",""
"6276.084999999497","","","post_mooney1_questions","survey-likert","316","1237172","0.0-6.0-2.44","3149291","co38431","norming","","","{""curiosity"":4,""confidence"":4}","[0,1]","../img/tt/1012tt.jpg","",""
"3165.9949999994133","","","recognition","survey-text","317","1240340","0.0-6.0-3.44","3149291","co38431","norming","","","{""guess"":""Paard""}","","../img/tt/1012tt.jpg","",""
"null","../img/gs/1012gs.jpg","null","reveal","image-keyboard-response","318","1242348","0.0-6.0-4.44","3149291","co38431","norming","","","","","","",""
"null","../img/tt/1012tt.jpg","null","mooney2","image-keyboard-response","319","1244349","0.0-6.0-5.44","3149291","co38431","norming","","","","","","",""
"3020.230000000214","","","post_reveal_questions","survey-likert","320","1247372","0.0-6.0-6.44","3149291","co38431","norming","","","{""aha"":1}","[0]","../img/tt/1012tt.jpg","",""
"null","<div style=""font-size:60px;""> </div>","null","fixation","html-keyboard-response","321","1247574","0.0-6.0-0.45","3149291","co38431","norming","","","","","","",""
"null","../img/tt/080tt.jpg","null","mooney1","image-keyboard-response","322","1250578","0.0-6.0-1.45","3149291","co38431","norming","","","","","","",""
"4991.245000000112","","","post_mooney1_questions","survey-likert","323","1255572","0.0-6.0-2.45","3149291","co38431","norming","","","{""curiosity"":4,""confidence"":3}","[0,1]","../img/tt/080tt.jpg","",""
"4710.039999999804","","","recognition","survey-text","324","1260284","0.0-6.0-3.45","3149291","co38431","norming","","","{""guess"":""Paddenstoel""}","","../img/tt/080tt.jpg","",""
"null","../img/gs/080gs.jpg","null","reveal","image-keyboard-response","325","1262291","0.0-6.0-4.45","3149291","co38431","norming","","","","","","",""
"null","../img/tt/080tt.jpg","null","mooney2","image-keyboard-response","326","1264293","0.0-6.0-5.45","3149291","co38431","norming","","","","","","",""
"2044.3200000000652","","","post_reveal_questions","survey-likert","327","1266340","0.0-6.0-6.45","3149291","co38431","norming","","","{""aha"":4}","[0]","../img/tt/080tt.jpg","",""
"null","<div style=""font-size:60px;""> </div>","null","fixation","html-keyboard-response","328","1266541","0.0-6.0-0.46","3149291","co38431","norming","","","","","","",""
"null","../img/tt/1107tt.jpg","null","mooney1","image-keyboard-response","329","1269549","0.0-6.0-1.46","3149291","co38431","norming","","","","","","",""
"5284.654999999329","","","post_mooney1_questions","survey-likert","330","1274836","0.0-6.0-2.46","3149291","co38431","norming","","","{""curiosity"":1,""confidence"":5}","[0,1]","../img/tt/1107tt.jpg","",""
"5613.8849999997765","","","recognition","survey-text","331","1280452","0.0-6.0-3.46","3149291","co38431","norming","","","{""guess"":""Kattentrui""}","","../img/tt/1107tt.jpg","",""
"null","../img/gs/1107gs.jpg","null","reveal","image-keyboard-response","332","1282458","0.0-6.0-4.46","3149291","co38431","norming","","","","","","",""
"null","../img/tt/1107tt.jpg","null","mooney2","image-keyboard-response","333","1284465","0.0-6.0-5.46","3149291","co38431","norming","","","","","","",""
"4176.204999999842","","","post_reveal_questions","survey-likert","334","1288644","0.0-6.0-6.46","3149291","co38431","norming","","","{""aha"":4}","[0]","../img/tt/1107tt.jpg","",""
"null","<div style=""font-size:60px;""> </div>","null","fixation","html-keyboard-response","335","1288846","0.0-6.0-0.47","3149291","co38431","norming","","","","","","",""
"null","../img/tt/1049tt.jpg","null","mooney1","image-keyboard-response","336","1291856","0.0-6.0-1.47","3149291","co38431","norming","","","","","","",""
"6713.389999999898","","","post_mooney1_questions","survey-likert","337","1298572","0.0-6.0-2.47","3149291","co38431","norming","","","{""curiosity"":3,""confidence"":3}","[0,1]","../img/tt/1049tt.jpg","",""
"3213.5449999996927","","","recognition","survey-text","338","1301788","0.0-6.0-3.47","3149291","co38431","norming","","","{""guess"":""Mand""}","","../img/tt/1049tt.jpg","",""
"null","../img/gs/1049gs.jpg","null","reveal","image-keyboard-response","339","1303791","0.0-6.0-4.47","3149291","co38431","norming","","","","","","",""
"null","../img/tt/1049tt.jpg","null","mooney2","image-keyboard-response","340","1305800","0.0-6.0-5.47","3149291","co38431","norming","","","","","","",""
"2210.569999999134","","","post_reveal_questions","survey-likert","341","1308012","0.0-6.0-6.47","3149291","co38431","norming","","","{""aha"":4}","[0]","../img/tt/1049tt.jpg","",""
"null","<div style=""font-size:60px;""> </div>","null","fixation","html-keyboard-response","342","1308214","0.0-6.0-0.48","3149291","co38431","norming","","","","","","",""
"null","../img/tt/124tt.jpg","null","mooney1","image-keyboard-response","343","1311218","0.0-6.0-1.48","3149291","co38431","norming","","","","","","",""
"4951.089999999618","","","post_mooney1_questions","survey-likert","344","1316172","0.0-6.0-2.48","3149291","co38431","norming","","","{""curiosity"":2,""confidence"":6}","[0,1]","../img/tt/124tt.jpg","",""
"4294.074999999953","","","recognition","survey-text","345","1320468","0.0-6.0-3.48","3149291","co38431","norming","","","{""guess"":""Gorilla""}","","../img/tt/124tt.jpg","",""
"null","../img/gs/124gs.jpg","null","reveal","image-keyboard-response","346","1322472","0.0-6.0-4.48","3149291","co38431","norming","","","","","","",""
"null","../img/tt/124tt.jpg","null","mooney2","image-keyboard-response","347","1324483","0.0-6.0-5.48","3149291","co38431","norming","","","","","","",""
"2183.1850000007544","","","post_reveal_questions","survey-likert","348","1326669","0.0-6.0-6.48","3149291","co38431","norming","","","{""aha"":1}","[0]","../img/tt/124tt.jpg","",""
"null","<div style=""font-size:60px;""> </div>","null","fixation","html-keyboard-response","349","1326870","0.0-6.0-0.49","3149291","co38431","norming","","","","","","",""
"null","../img/tt/1146tt.jpg","null","mooney1","image-keyboard-response","350","1329878","0.0-6.0-1.49","3149291","co38431","norming","","","","","","",""
"4028.440000000177","","","post_mooney1_questions","survey-likert","351","1333909","0.0-6.0-2.49","3149291","co38431","norming","","","{""curiosity"":3,""confidence"":6}","[0,1]","../img/tt/1146tt.jpg","",""
"4157.995000000345","","","recognition","survey-text","352","1338069","0.0-6.0-3.49","3149291","co38431","norming","","","{""guess"":""Boogschieten""}","","../img/tt/1146tt.jpg","",""
"null","../img/gs/1146gs.jpg","null","reveal","image-keyboard-response","353","1340079","0.0-6.0-4.49","3149291","co38431","norming","","","","","","",""
"null","../img/tt/1146tt.jpg","null","mooney2","image-keyboard-response","354","1342083","0.0-6.0-5.49","3149291","co38431","norming","","","","","","",""
"1711.674999999581","","","post_reveal_questions","survey-likert","355","1343797","0.0-6.0-6.49","3149291","co38431","norming","","","{""aha"":0}","[0]","../img/tt/1146tt.jpg","",""
"null","<div style=""font-size:60px;""> </div>","null","fixation","html-keyboard-response","356","1343998","0.0-6.0-0.50","3149291","co38431","norming","","","","","","",""
"null","../img/tt/1091tt.jpg","null","mooney1","image-keyboard-response","357","1347000","0.0-6.0-1.50","3149291","co38431","norming","","","","","","",""
"4425.505000000121","","","post_mooney1_questions","survey-likert","358","1351429","0.0-6.0-2.50","3149291","co38431","norming","","","{""curiosity"":4,""confidence"":6}","[0,1]","../img/tt/1091tt.jpg","",""
"3125.8799999996554","","","recognition","survey-text","359","1354557","0.0-6.0-3.50","3149291","co38431","norming","","","{""guess"":""Paard""}","","../img/tt/1091tt.jpg","",""
"null","../img/gs/1091gs.jpg","null","reveal","image-keyboard-response","360","1356567","0.0-6.0-4.50","3149291","co38431","norming","","","","","","",""
"null","../img/tt/1091tt.jpg","null","mooney2","image-keyboard-response","361","1358569","0.0-6.0-5.50","3149291","co38431","norming","","","","","","",""
"3481.7550000008196","","","post_reveal_questions","survey-likert","362","1362053","0.0-6.0-6.50","3149291","co38431","norming","","","{""aha"":1}","[0]","../img/tt/1091tt.jpg","",""
"null","<div style=""font-size:60px;""> </div>","null","fixation","html-keyboard-response","363","1362255","0.0-6.0-0.51","3149291","co38431","norming","","","","","","",""
"null","../img/tt/1148tt.jpg","null","mooney1","image-keyboard-response","364","1365266","0.0-6.0-1.51","3149291","co38431","norming","","","","","","",""
"7607.635000000475","","","post_mooney1_questions","survey-likert","365","1372877","0.0-6.0-2.51","3149291","co38431","norming","","","{""curiosity"":5,""confidence"":1}","[0,1]","../img/tt/1148tt.jpg","",""
"2893.8799999996554","","","recognition","survey-text","366","1375773","0.0-6.0-3.51","3149291","co38431","norming","","","{""guess"":""Hek""}","","../img/tt/1148tt.jpg","",""
"null","../img/gs/1148gs.jpg","null","reveal","image-keyboard-response","367","1377775","0.0-6.0-4.51","3149291","co38431","norming","","","","","","",""
"null","../img/tt/1148tt.jpg","null","mooney2","image-keyboard-response","368","1379783","0.0-6.0-5.51","3149291","co38431","norming","","","","","","",""
"2356.76999999932","","","post_reveal_questions","survey-likert","369","1382141","0.0-6.0-6.51","3149291","co38431","norming","","","{""aha"":5}","[0]","../img/tt/1148tt.jpg","",""
"null","<div style=""font-size:60px;""> </div>","null","fixation","html-keyboard-response","370","1382343","0.0-6.0-0.52","3149291","co38431","norming","","","","","","",""
"null","../img/tt/1002tt.jpg","null","mooney1","image-keyboard-response","371","1385352","0.0-6.0-1.52","3149291","co38431","norming","","","","","","",""
"3555.4199999996927","","","post_mooney1_questions","survey-likert","372","1388910","0.0-6.0-2.52","3149291","co38431","norming","","","{""curiosity"":5,""confidence"":4}","[0,1]","../img/tt/1002tt.jpg","",""
"3718.114999999525","","","recognition","survey-text","373","1392630","0.0-6.0-3.52","3149291","co38431","norming","","","{""guess"":""Olifant""}","","../img/tt/1002tt.jpg","",""
"null","../img/gs/1002gs.jpg","null","reveal","image-keyboard-response","374","1394631","0.0-6.0-4.52","3149291","co38431","norming","","","","","","",""
"null","../img/tt/1002tt.jpg","null","mooney2","image-keyboard-response","375","1396641","0.0-6.0-5.52","3149291","co38431","norming","","","","","","",""
"3419.9200000001583","","","post_reveal_questions","survey-likert","376","1400062","0.0-6.0-6.52","3149291","co38431","norming","","","{""aha"":4}","[0]","../img/tt/1002tt.jpg","",""
"null","<div style=""font-size:60px;""> </div>","null","fixation","html-keyboard-response","377","1400263","0.0-6.0-0.53","3149291","co38431","norming","","","","","","",""
"null","../img/tt/416tt.jpg","null","mooney1","image-keyboard-response","378","1403274","0.0-6.0-1.53","3149291","co38431","norming","","","","","","",""
"5480.714999999618","","","post_mooney1_questions","survey-likert","379","1408758","0.0-6.0-2.53","3149291","co38431","norming","","","{""curiosity"":3,""confidence"":5}","[0,1]","../img/tt/416tt.jpg","",""
"4949.704999999842","","","recognition","survey-text","380","1413710","0.0-6.0-3.53","3149291","co38431","norming","","","{""guess"":""Struisvogel""}","","../img/tt/416tt.jpg","",""
"null","../img/gs/416gs.jpg","null","reveal","image-keyboard-response","381","1415713","0.0-6.0-4.53","3149291","co38431","norming","","","","","","",""
"null","../img/tt/416tt.jpg","null","mooney2","image-keyboard-response","382","1417715","0.0-6.0-5.53","3149291","co38431","norming","","","","","","",""
"1730.4150000000373","","","post_reveal_questions","survey-likert","383","1419446","0.0-6.0-6.53","3149291","co38431","norming","","","{""aha"":1}","[0]","../img/tt/416tt.jpg","",""
"null","<div style=""font-size:60px;""> </div>","null","fixation","html-keyboard-response","384","1419647","0.0-6.0-0.54","3149291","co38431","norming","","","","","","",""
"null","../img/tt/301tt.jpg","null","mooney1","image-keyboard-response","385","1422649","0.0-6.0-1.54","3149291","co38431","norming","","","","","","",""
"5923.04499999946","","","post_mooney1_questions","survey-likert","386","1428574","0.0-6.0-2.54","3149291","co38431","norming","","","{""curiosity"":5,""confidence"":1}","[0,1]","../img/tt/301tt.jpg","",""
"4941.949999999488","","","recognition","survey-text","387","1433518","0.0-6.0-3.54","3149291","co38431","norming","","","{""guess"":""Stal""}","","../img/tt/301tt.jpg","",""
"null","../img/gs/301gs.jpg","null","reveal","image-keyboard-response","388","1435520","0.0-6.0-4.54","3149291","co38431","norming","","","","","","",""
"null","../img/tt/301tt.jpg","null","mooney2","image-keyboard-response","389","1437531","0.0-6.0-5.54","3149291","co38431","norming","","","","","","",""
"2119.780000000028","","","post_reveal_questions","survey-likert","390","1439654","0.0-6.0-6.54","3149291","co38431","norming","","","{""aha"":5}","[0]","../img/tt/301tt.jpg","",""
"null","<div style=""font-size:60px;""> </div>","null","fixation","html-keyboard-response","391","1439856","0.0-6.0-0.55","3149291","co38431","norming","","","","","","",""
"null","../img/tt/1066tt.jpg","null","mooney1","image-keyboard-response","392","1442860","0.0-6.0-1.55","3149291","co38431","norming","","","","","","",""
"5143.450000000652","","","post_mooney1_questions","survey-likert","393","1448007","0.0-6.0-2.55","3149291","co38431","norming","","","{""curiosity"":4,""confidence"":4}","[0,1]","../img/tt/1066tt.jpg","",""
"2733.9649999993853","","","recognition","survey-text","394","1450742","0.0-6.0-3.55","3149291","co38431","norming","","","{""guess"":""Bus""}","","../img/tt/1066tt.jpg","",""
"null","../img/gs/1066gs.jpg","null","reveal","image-keyboard-response","395","1452750","0.0-6.0-4.55","3149291","co38431","norming","","","","","","",""
"null","../img/tt/1066tt.jpg","null","mooney2","image-keyboard-response","396","1454752","0.0-6.0-5.55","3149291","co38431","norming","","","","","","",""
"1860.094999999972","","","post_reveal_questions","survey-likert","397","1456614","0.0-6.0-6.55","3149291","co38431","norming","","","{""aha"":2}","[0]","../img/tt/1066tt.jpg","",""
"null","<div style=""font-size:60px;""> </div>","null","fixation","html-keyboard-response","398","1456816","0.0-6.0-0.56","3149291","co38431","norming","","","","","","",""
"null","../img/tt/1236tt.jpg","null","mooney1","image-keyboard-response","399","1459822","0.0-6.0-1.56","3149291","co38431","norming","","","","","","",""
"4454.489999999991","","","post_mooney1_questions","survey-likert","400","1464279","0.0-6.0-2.56","3149291","co38431","norming","","","{""curiosity"":5,""confidence"":2}","[0,1]","../img/tt/1236tt.jpg","",""
"3814.119999999879","","","recognition","survey-text","401","1468094","0.0-6.0-3.56","3149291","co38431","norming","","","{""guess"":""Havik""}","","../img/tt/1236tt.jpg","",""
"null","../img/gs/1236gs.jpg","null","reveal","image-keyboard-response","402","1470096","0.0-6.0-4.56","3149291","co38431","norming","","","","","","",""
"null","../img/tt/1236tt.jpg","null","mooney2","image-keyboard-response","403","1472098","0.0-6.0-5.56","3149291","co38431","norming","","","","","","",""
"2386.1849999993574","","","post_reveal_questions","survey-likert","404","1474487","0.0-6.0-6.56","3149291","co38431","norming","","","{""aha"":4}","[0]","../img/tt/1236tt.jpg","",""
"null","<div style=""font-size:60px;""> </div>","null","fixation","html-keyboard-response","405","1474688","0.0-6.0-0.57","3149291","co38431","norming","","","","","","",""
"null","../img/tt/044tt.jpg","null","mooney1","image-keyboard-response","406","1477697","0.0-6.0-1.57","3149291","co38431","norming","","","","","","",""
"4620.670000000158","","","post_mooney1_questions","survey-likert","407","1482319","0.0-6.0-2.57","3149291","co38431","norming","","","{""curiosity"":5,""confidence"":5}","[0,1]","../img/tt/044tt.jpg","",""
"2966.04000000027","","","recognition","survey-text","408","1485286","0.0-6.0-3.57","3149291","co38431","norming","","","{""guess"":""Piano""}","","../img/tt/044tt.jpg","",""
"null","../img/gs/044gs.jpg","null","reveal","image-keyboard-response","409","1487297","0.0-6.0-4.57","3149291","co38431","norming","","","","","","",""
"null","../img/tt/044tt.jpg","null","mooney2","image-keyboard-response","410","1489301","0.0-6.0-5.57","3149291","co38431","norming","","","","","","",""
"2007.5649999999441","","","post_reveal_questions","survey-likert","411","1491310","0.0-6.0-6.57","3149291","co38431","norming","","","{""aha"":5}","[0]","../img/tt/044tt.jpg","",""
"null","<div style=""font-size:60px;""> </div>","null","fixation","html-keyboard-response","412","1491512","0.0-6.0-0.58","3149291","co38431","norming","","","","","","",""
"null","../img/tt/1275tt.jpg","null","mooney1","image-keyboard-response","413","1494522","0.0-6.0-1.58","3149291","co38431","norming","","","","","","",""
"5824.980000000214","","","post_mooney1_questions","survey-likert","414","1500351","0.0-6.0-2.58","3149291","co38431","norming","","","{""curiosity"":5,""confidence"":4}","[0,1]","../img/tt/1275tt.jpg","",""
"4117.839999999851","","","recognition","survey-text","415","1504470","0.0-6.0-3.58","3149291","co38431","norming","","","{""guess"":""Everzwijn""}","","../img/tt/1275tt.jpg","",""
"null","../img/gs/1275gs.jpg","null","reveal","image-keyboard-response","416","1506473","0.0-6.0-4.58","3149291","co38431","norming","","","","","","",""
"null","../img/tt/1275tt.jpg","null","mooney2","image-keyboard-response","417","1508477","0.0-6.0-5.58","3149291","co38431","norming","","","","","","",""
"2424.2249999996275","","","post_reveal_questions","survey-likert","418","1510904","0.0-6.0-6.58","3149291","co38431","norming","","","{""aha"":4}","[0]","../img/tt/1275tt.jpg","",""
"null","<div style=""font-size:60px;""> </div>","null","fixation","html-keyboard-response","419","1511106","0.0-6.0-0.59","3149291","co38431","norming","","","","","","",""
"null","../img/tt/580tt.jpg","null","mooney1","image-keyboard-response","420","1514113","0.0-6.0-1.59","3149291","co38431","norming","","","","","","",""
"6852.310000000289","","","post_mooney1_questions","survey-likert","421","1520968","0.0-6.0-2.59","3149291","co38431","norming","","","{""curiosity"":4,""confidence"":2}","[0,1]","../img/tt/580tt.jpg","",""
"3469.5900000005495","","","recognition","survey-text","422","1524440","0.0-6.0-3.59","3149291","co38431","norming","","","{""guess"":""Aap""}","","../img/tt/580tt.jpg","",""
"null","../img/gs/580gs.jpg","null","reveal","image-keyboard-response","423","1526447","0.0-6.0-4.59","3149291","co38431","norming","","","","","","",""
"null","../img/tt/580tt.jpg","null","mooney2","image-keyboard-response","424","1528449","0.0-6.0-5.59","3149291","co38431","norming","","","","","","",""
"1956.9000000001397","","","post_reveal_questions","survey-likert","425","1530408","0.0-6.0-6.59","3149291","co38431","norming","","","{""aha"":5}","[0]","../img/tt/580tt.jpg","",""
"null","<div style=""font-size:60px;""> </div>","null","fixation","html-keyboard-response","426","1530610","0.0-6.0-0.60","3149291","co38431","norming","","","","","","",""
"null","../img/tt/1033tt.jpg","null","mooney1","image-keyboard-response","427","1533618","0.0-6.0-1.60","3149291","co38431","norming","","","","","","",""
"3987.054999999702","","","post_mooney1_questions","survey-likert","428","1537608","0.0-6.0-2.60","3149291","co38431","norming","","","{""curiosity"":4,""confidence"":4}","[0,1]","../img/tt/1033tt.jpg","",""
"3774.304999999935","","","recognition","survey-text","429","1541384","0.0-6.0-3.60","3149291","co38431","norming","","","{""guess"":""Baseball""}","","../img/tt/1033tt.jpg","",""
"null","../img/gs/1033gs.jpg","null","reveal","image-keyboard-response","430","1543388","0.0-6.0-4.60","3149291","co38431","norming","","","","","","",""
"null","../img/tt/1033tt.jpg","null","mooney2","image-keyboard-response","431","1545390","0.0-6.0-5.60","3149291","co38431","norming","","","","","","",""
"2863.674999999581","","","post_reveal_questions","survey-likert","432","1548256","0.0-6.0-6.60","3149291","co38431","norming","","","{""aha"":3}","[0]","../img/tt/1033tt.jpg","",""
"null","<div style=""font-size:60px;""> </div>","null","fixation","html-keyboard-response","433","1548457","0.0-6.0-0.61","3149291","co38431","norming","","","","","","",""
"null","../img/tt/091tt.jpg","null","mooney1","image-keyboard-response","434","1551461","0.0-6.0-1.61","3149291","co38431","norming","","","","","","",""
"8119.459999999963","","","post_mooney1_questions","survey-likert","435","1559584","0.0-6.0-2.61","3149291","co38431","norming","","","{""curiosity"":5,""confidence"":0}","[0,1]","../img/tt/091tt.jpg","",""
"781.9950000001118","","","recognition","survey-text","436","1560368","0.0-6.0-3.61","3149291","co38431","norming","","","{""guess"":""""}","","../img/tt/091tt.jpg","",""
"null","../img/gs/091gs.jpg","null","reveal","image-keyboard-response","437","1562370","0.0-6.0-4.61","3149291","co38431","norming","","","","","","",""
"null","../img/tt/091tt.jpg","null","mooney2","image-keyboard-response","438","1564378","0.0-6.0-5.61","3149291","co38431","norming","","","","","","",""
"3444.5699999995995","","","post_reveal_questions","survey-likert","439","1567820","0.0-6.0-6.61","3149291","co38431","norming","","","{""aha"":4}","[0]","../img/tt/091tt.jpg","",""
"null","<div style=""font-size:60px;""> </div>","null","fixation","html-keyboard-response","440","1568021","0.0-6.0-0.62","3149291","co38431","norming","","","","","","",""
"null","../img/tt/1159tt.jpg","null","mooney1","image-keyboard-response","441","1571024","0.0-6.0-1.62","3149291","co38431","norming","","","","","","",""
"4562.304999999469","","","post_mooney1_questions","survey-likert","442","1575588","0.0-6.0-2.62","3149291","co38431","norming","","","{""curiosity"":4,""confidence"":3}","[0,1]","../img/tt/1159tt.jpg","",""
"3030.680000000866","","","recognition","survey-text","443","1578621","0.0-6.0-3.62","3149291","co38431","norming","","","{""guess"":""Boot""}","","../img/tt/1159tt.jpg","",""
"null","../img/gs/1159gs.jpg","null","reveal","image-keyboard-response","444","1580626","0.0-6.0-4.62","3149291","co38431","norming","","","","","","",""
"null","../img/tt/1159tt.jpg","null","mooney2","image-keyboard-response","445","1582628","0.0-6.0-5.62","3149291","co38431","norming","","","","","","",""
"2525.344999999972","","","post_reveal_questions","survey-likert","446","1585156","0.0-6.0-6.62","3149291","co38431","norming","","","{""aha"":4}","[0]","../img/tt/1159tt.jpg","",""
"null","<div style=""font-size:60px;""> </div>","null","fixation","html-keyboard-response","447","1585358","0.0-6.0-0.63","3149291","co38431","norming","","","","","","",""
"null","../img/tt/1353tt.jpg","null","mooney1","image-keyboard-response","448","1588370","0.0-6.0-1.63","3149291","co38431","norming","","","","","","",""
"7743.475000000093","","","post_mooney1_questions","survey-likert","449","1596116","0.0-6.0-2.63","3149291","co38431","norming","","","{""curiosity"":2,""confidence"":1}","[0,1]","../img/tt/1353tt.jpg","",""
"3654.0000000004657","","","recognition","survey-text","450","1599772","0.0-6.0-3.63","3149291","co38431","norming","","","{""guess"":""Trompet""}","","../img/tt/1353tt.jpg","",""
"null","../img/gs/1353gs.jpg","null","reveal","image-keyboard-response","451","1601779","0.0-6.0-4.63","3149291","co38431","norming","","","","","","",""
"null","../img/tt/1353tt.jpg","null","mooney2","image-keyboard-response","452","1603780","0.0-6.0-5.63","3149291","co38431","norming","","","","","","",""
"1751.255000000121","","","post_reveal_questions","survey-likert","453","1605532","0.0-6.0-6.63","3149291","co38431","norming","","","{""aha"":6}","[0]","../img/tt/1353tt.jpg","",""
"null","<div style=""font-size:60px;""> </div>","null","fixation","html-keyboard-response","454","1605735","0.0-6.0-0.64","3149291","co38431","norming","","","","","","",""
"null","../img/tt/1186tt.jpg","null","mooney1","image-keyboard-response","455","1608737","0.0-6.0-1.64","3149291","co38431","norming","","","","","","",""
"4807.7249999996275","","","post_mooney1_questions","survey-likert","456","1613548","0.0-6.0-2.64","3149291","co38431","norming","","","{""curiosity"":4,""confidence"":3}","[0,1]","../img/tt/1186tt.jpg","",""
"4869.934999999823","","","recognition","survey-text","457","1618420","0.0-6.0-3.64","3149291","co38431","norming","","","{""guess"":""Rollerbladen""}","","../img/tt/1186tt.jpg","",""
"null","../img/gs/1186gs.jpg","null","reveal","image-keyboard-response","458","1620429","0.0-6.0-4.64","3149291","co38431","norming","","","","","","",""
"null","../img/tt/1186tt.jpg","null","mooney2","image-keyboard-response","459","1622435","0.0-6.0-5.64","3149291","co38431","norming","","","","","","",""
"2430.1250000006985","","","post_reveal_questions","survey-likert","460","1624868","0.0-6.0-6.64","3149291","co38431","norming","","","{""aha"":2}","[0]","../img/tt/1186tt.jpg","",""
"null","<div style=""font-size:60px;""> </div>","null","fixation","html-keyboard-response","461","1625071","0.0-6.0-0.65","3149291","co38431","norming","","","","","","",""
"null","../img/tt/111tt.jpg","null","mooney1","image-keyboard-response","462","1628081","0.0-6.0-1.65","3149291","co38431","norming","","","","","","",""
"4701.824999999953","","","post_mooney1_questions","survey-likert","463","1632786","0.0-6.0-2.65","3149291","co38431","norming","","","{""curiosity"":3,""confidence"":1}","[0,1]","../img/tt/111tt.jpg","",""
"4214.0550000004005","","","recognition","survey-text","464","1637001","0.0-6.0-3.65","3149291","co38431","norming","","","{""guess"":""Telefoon""}","","../img/tt/111tt.jpg","",""
"null","../img/gs/111gs.jpg","null","reveal","image-keyboard-response","465","1639006","0.0-6.0-4.65","3149291","co38431","norming","","","","","","",""
"null","../img/tt/111tt.jpg","null","mooney2","image-keyboard-response","466","1641017","0.0-6.0-5.65","3149291","co38431","norming","","","","","","",""
"2390.089999999851","","","post_reveal_questions","survey-likert","467","1643410","0.0-6.0-6.65","3149291","co38431","norming","","","{""aha"":5}","[0]","../img/tt/111tt.jpg","",""
"null","<div style=""font-size:60px;""> </div>","null","fixation","html-keyboard-response","468","1643611","0.0-6.0-0.66","3149291","co38431","norming","","","","","","",""
"null","../img/tt/1268tt.jpg","null","mooney1","image-keyboard-response","469","1646619","0.0-6.0-1.66","3149291","co38431","norming","","","","","","",""
"4948.915000000037","","","post_mooney1_questions","survey-likert","470","1651570","0.0-6.0-2.66","3149291","co38431","norming","","","{""curiosity"":6,""confidence"":0}","[0,1]","../img/tt/1268tt.jpg","",""
"910.0300000000279","","","recognition","survey-text","471","1652481","0.0-6.0-3.66","3149291","co38431","norming","","","{""guess"":""""}","","../img/tt/1268tt.jpg","",""
"null","../img/gs/1268gs.jpg","null","reveal","image-keyboard-response","472","1654484","0.0-6.0-4.66","3149291","co38431","norming","","","","","","",""
"null","../img/tt/1268tt.jpg","null","mooney2","image-keyboard-response","473","1656492","0.0-6.0-5.66","3149291","co38431","norming","","","","","","",""
"2203.409999999916","","","post_reveal_questions","survey-likert","474","1658698","0.0-6.0-6.66","3149291","co38431","norming","","","{""aha"":5}","[0]","../img/tt/1268tt.jpg","",""
"null","<div style=""font-size:60px;""> </div>","null","fixation","html-keyboard-response","475","1658898","0.0-6.0-0.67","3149291","co38431","norming","","","","","","",""
"null","../img/tt/319tt.jpg","null","mooney1","image-keyboard-response","476","1661905","0.0-6.0-1.67","3149291","co38431","norming","","","","","","",""
"8013.345000000438","","","post_mooney1_questions","survey-likert","477","1669922","0.0-6.0-2.67","3149291","co38431","norming","","","{""curiosity"":4,""confidence"":3}","[0,1]","../img/tt/319tt.jpg","",""
"3150.0000000004657","","","recognition","survey-text","478","1673074","0.0-6.0-3.67","3149291","co38431","norming","","","{""guess"":""Panda""}","","../img/tt/319tt.jpg","",""
"null","../img/gs/319gs.jpg","null","reveal","image-keyboard-response","479","1675082","0.0-6.0-4.67","3149291","co38431","norming","","","","","","",""
"null","../img/tt/319tt.jpg","null","mooney2","image-keyboard-response","480","1677090","0.0-6.0-5.67","3149291","co38431","norming","","","","","","",""
"2862.0250000003725","","","post_reveal_questions","survey-likert","481","1679954","0.0-6.0-6.67","3149291","co38431","norming","","","{""aha"":5}","[0]","../img/tt/319tt.jpg","",""
"null","<div style=""font-size:60px;""> </div>","null","fixation","html-keyboard-response","482","1680156","0.0-6.0-0.68","3149291","co38431","norming","","","","","","",""
"null","../img/tt/584tt.jpg","null","mooney1","image-keyboard-response","483","1683163","0.0-6.0-1.68","3149291","co38431","norming","","","","","","",""
"10178.33000000054","","","post_mooney1_questions","survey-likert","484","1693343","0.0-6.0-2.68","3149291","co38431","norming","","","{""curiosity"":4,""confidence"":4}","[0,1]","../img/tt/584tt.jpg","",""
"7909.779999999795","","","recognition","survey-text","485","1701255","0.0-6.0-3.68","3149291","co38431","norming","","","{""guess"":""Handen""}","","../img/tt/584tt.jpg","",""
"null","../img/gs/584gs.jpg","null","reveal","image-keyboard-response","486","1703265","0.0-6.0-4.68","3149291","co38431","norming","","","","","","",""
"null","../img/tt/584tt.jpg","null","mooney2","image-keyboard-response","487","1705266","0.0-6.0-5.68","3149291","co38431","norming","","","","","","",""
"1906.295000000624","","","post_reveal_questions","survey-likert","488","1707175","0.0-6.0-6.68","3149291","co38431","norming","","","{""aha"":5}","[0]","../img/tt/584tt.jpg","",""
"null","<div style=""font-size:60px;""> </div>","null","fixation","html-keyboard-response","489","1707377","0.0-6.0-0.69","3149291","co38431","norming","","","","","","",""
"null","../img/tt/1116tt.jpg","null","mooney1","image-keyboard-response","490","1710380","0.0-6.0-1.69","3149291","co38431","norming","","","","","","",""
"3712.3000000002794","","","post_mooney1_questions","survey-likert","491","1714095","0.0-6.0-2.69","3149291","co38431","norming","","","{""curiosity"":4,""confidence"":4}","[0,1]","../img/tt/1116tt.jpg","",""
"2981.6700000001583","","","recognition","survey-text","492","1717078","0.0-6.0-3.69","3149291","co38431","norming","","","{""guess"":""Taxi""}","","../img/tt/1116tt.jpg","",""
"null","../img/gs/1116gs.jpg","null","reveal","image-keyboard-response","493","1719084","0.0-6.0-4.69","3149291","co38431","norming","","","","","","",""
"null","../img/tt/1116tt.jpg","null","mooney2","image-keyboard-response","494","1721095","0.0-6.0-5.69","3149291","co38431","norming","","","","","","",""
"2484.519999999786","","","post_reveal_questions","survey-likert","495","1723583","0.0-6.0-6.69","3149291","co38431","norming","","","{""aha"":5}","[0]","../img/tt/1116tt.jpg","",""
"null","<div style=""font-size:60px;""> </div>","null","fixation","html-keyboard-response","496","1723785","0.0-6.0-0.70","3149291","co38431","norming","","","","","","",""
"null","../img/tt/329tt.jpg","null","mooney1","image-keyboard-response","497","1726795","0.0-6.0-1.70","3149291","co38431","norming","","","","","","",""
"5224.5600000005215","","","post_mooney1_questions","survey-likert","498","1732023","0.0-6.0-2.70","3149291","co38431","norming","","","{""curiosity"":4,""confidence"":2}","[0,1]","../img/tt/329tt.jpg","",""
"4694.050000000047","","","recognition","survey-text","499","1736719","0.0-6.0-3.70","3149291","co38431","norming","","","{""guess"":""Babystoel""}","","../img/tt/329tt.jpg","",""
"null","../img/gs/329gs.jpg","null","reveal","image-keyboard-response","500","1738720","0.0-6.0-4.70","3149291","co38431","norming","","","","","","",""
"null","../img/tt/329tt.jpg","null","mooney2","image-keyboard-response","501","1740723","0.0-6.0-5.70","3149291","co38431","norming","","","","","","",""
"2305.0750000001863","","","post_reveal_questions","survey-likert","502","1743031","0.0-6.0-6.70","3149291","co38431","norming","","","{""aha"":2}","[0]","../img/tt/329tt.jpg","",""
"null","<div style=""font-size:60px;""> </div>","null","fixation","html-keyboard-response","503","1743232","0.0-6.0-0.71","3149291","co38431","norming","","","","","","",""
"null","../img/tt/378tt.jpg","null","mooney1","image-keyboard-response","504","1746237","0.0-6.0-1.71","3149291","co38431","norming","","","","","","",""
"6758.664999999339","","","post_mooney1_questions","survey-likert","505","1752998","0.0-6.0-2.71","3149291","co38431","norming","","","{""curiosity"":4,""confidence"":2}","[0,1]","../img/tt/378tt.jpg","",""
"4221.864999999525","","","recognition","survey-text","506","1757222","0.0-6.0-3.71","3149291","co38431","norming","","","{""guess"":""Octupus""}","","../img/tt/378tt.jpg","",""
"null","../img/gs/378gs.jpg","null","reveal","image-keyboard-response","507","1759224","0.0-6.0-4.71","3149291","co38431","norming","","","","","","",""
"null","../img/tt/378tt.jpg","null","mooney2","image-keyboard-response","508","1761232","0.0-6.0-5.71","3149291","co38431","norming","","","","","","",""
"3523.6949999998324","","","post_reveal_questions","survey-likert","509","1764758","0.0-6.0-6.71","3149291","co38431","norming","","","{""aha"":4}","[0]","../img/tt/378tt.jpg","",""
"null","<div style=""font-size:60px;""> </div>","null","fixation","html-keyboard-response","510","1764959","0.0-6.0-0.72","3149291","co38431","norming","","","","","","",""
"null","../img/tt/1151tt.jpg","null","mooney1","image-keyboard-response","511","1767969","0.0-6.0-1.72","3149291","co38431","norming","","","","","","",""
"6337.949999999953","","","post_mooney1_questions","survey-likert","512","1774310","0.0-6.0-2.72","3149291","co38431","norming","","","{""curiosity"":4,""confidence"":1}","[0,1]","../img/tt/1151tt.jpg","",""
"4565.555000000168","","","recognition","survey-text","513","1778878","0.0-6.0-3.72","3149291","co38431","norming","","","{""guess"":""Miereneter""}","","../img/tt/1151tt.jpg","",""
"null","../img/gs/1151gs.jpg","null","reveal","image-keyboard-response","514","1780880","0.0-6.0-4.72","3149291","co38431","norming","","","","","","",""
"null","../img/tt/1151tt.jpg","null","mooney2","image-keyboard-response","515","1782882","0.0-6.0-5.72","3149291","co38431","norming","","","","","","",""
"2585.6299999996554","","","post_reveal_questions","survey-likert","516","1785470","0.0-6.0-6.72","3149291","co38431","norming","","","{""aha"":4}","[0]","../img/tt/1151tt.jpg","",""
"null","<div style=""font-size:60px;""> </div>","null","fixation","html-keyboard-response","517","1785671","0.0-6.0-0.73","3149291","co38431","norming","","","","","","",""
"null","../img/tt/1084tt.jpg","null","mooney1","image-keyboard-response","518","1788680","0.0-6.0-1.73","3149291","co38431","norming","","","","","","",""
"4210.16500000027","","","post_mooney1_questions","survey-likert","519","1792894","0.0-6.0-2.73","3149291","co38431","norming","","","{""curiosity"":2,""confidence"":4}","[0,1]","../img/tt/1084tt.jpg","",""
"3557.8400000005495","","","recognition","survey-text","520","1796454","0.0-6.0-3.73","3149291","co38431","norming","","","{""guess"":""Brood""}","","../img/tt/1084tt.jpg","",""
"null","../img/gs/1084gs.jpg","null","reveal","image-keyboard-response","521","1798461","0.0-6.0-4.73","3149291","co38431","norming","","","","","","",""
"null","../img/tt/1084tt.jpg","null","mooney2","image-keyboard-response","522","1800464","0.0-6.0-5.73","3149291","co38431","norming","","","","","","",""
"2827.5800000003073","","","post_reveal_questions","survey-likert","523","1803294","0.0-6.0-6.73","3149291","co38431","norming","","","{""aha"":4}","[0]","../img/tt/1084tt.jpg","",""
"null","<div style=""font-size:60px;""> </div>","null","fixation","html-keyboard-response","524","1803496","0.0-6.0-0.74","3149291","co38431","norming","","","","","","",""
"null","../img/tt/440tt.jpg","null","mooney1","image-keyboard-response","525","1806501","0.0-6.0-1.74","3149291","co38431","norming","","","","","","",""
"7773.629999999888","","","post_mooney1_questions","survey-likert","526","1814280","0.0-6.0-2.74","3149291","co38431","norming","","","{""curiosity"":4,""confidence"":3}","[0,1]","../img/tt/440tt.jpg","",""
"3261.9199999999255","","","recognition","survey-text","527","1817543","0.0-6.0-3.74","3149291","co38431","norming","","","{""guess"":""Paard""}","","../img/tt/440tt.jpg","",""
"null","../img/gs/440gs.jpg","null","reveal","image-keyboard-response","528","1819551","0.0-6.0-4.74","3149291","co38431","norming","","","","","","",""
"null","../img/tt/440tt.jpg","null","mooney2","image-keyboard-response","529","1821557","0.0-6.0-5.74","3149291","co38431","norming","","","","","","",""
"3239.880000000121","","","post_reveal_questions","survey-likert","530","1824799","0.0-6.0-6.74","3149291","co38431","norming","","","{""aha"":4}","[0]","../img/tt/440tt.jpg","",""
"null","<div style=""font-size:60px;""> </div>","null","fixation","html-keyboard-response","531","1825001","0.0-6.0-0.75","3149291","co38431","norming","","","","","","",""
"null","../img/tt/194tt.jpg","null","mooney1","image-keyboard-response","532","1828007","0.0-6.0-1.75","3149291","co38431","norming","","","","","","",""
"5196.939999999711","","","post_mooney1_questions","survey-likert","533","1833208","0.0-6.0-2.75","3149291","co38431","norming","","","{""curiosity"":2,""confidence"":4}","[0,1]","../img/tt/194tt.jpg","",""
"3045.8299999998417","","","recognition","survey-text","534","1836255","0.0-6.0-3.75","3149291","co38431","norming","","","{""guess"":""Vrouw""}","","../img/tt/194tt.jpg","",""
"null","../img/gs/194gs.jpg","null","reveal","image-keyboard-response","535","1838265","0.0-6.0-4.75","3149291","co38431","norming","","","","","","",""
"null","../img/tt/194tt.jpg","null","mooney2","image-keyboard-response","536","1840270","0.0-6.0-5.75","3149291","co38431","norming","","","","","","",""
"3566.595000000205","","","post_reveal_questions","survey-likert","537","1843840","0.0-6.0-6.75","3149291","co38431","norming","","","{""aha"":5}","[0]","../img/tt/194tt.jpg","",""
"null","<div style=""font-size:60px;""> </div>","null","fixation","html-keyboard-response","538","1844041","0.0-6.0-0.76","3149291","co38431","norming","","","","","","",""
"null","../img/tt/353tt.jpg","null","mooney1","image-keyboard-response","539","1847046","0.0-6.0-1.76","3149291","co38431","norming","","","","","","",""
"4837.335000000196","","","post_mooney1_questions","survey-likert","540","1851888","0.0-6.0-2.76","3149291","co38431","norming","","","{""curiosity"":5,""confidence"":0}","[0,1]","../img/tt/353tt.jpg","",""
"1509.684999999823","","","recognition","survey-text","541","1853399","0.0-6.0-3.76","3149291","co38431","norming","","","{""guess"":""""}","","../img/tt/353tt.jpg","",""
"null","../img/gs/353gs.jpg","null","reveal","image-keyboard-response","542","1855405","0.0-6.0-4.76","3149291","co38431","norming","","","","","","",""
"null","../img/tt/353tt.jpg","null","mooney2","image-keyboard-response","543","1857411","0.0-6.0-5.76","3149291","co38431","norming","","","","","","",""
"2577.3950000002515","","","post_reveal_questions","survey-likert","544","1859992","0.0-6.0-6.76","3149291","co38431","norming","","","{""aha"":5}","[0]","../img/tt/353tt.jpg","",""
"null","<div style=""font-size:60px;""> </div>","null","fixation","html-keyboard-response","545","1860193","0.0-6.0-0.77","3149291","co38431","norming","","","","","","",""
"null","../img/tt/436tt.jpg","null","mooney1","image-keyboard-response","546","1863200","0.0-6.0-1.77","3149291","co38431","norming","","","","","","",""
"5644.564999999711","","","post_mooney1_questions","survey-likert","547","1868848","0.0-6.0-2.77","3149291","co38431","norming","","","{""curiosity"":2,""confidence"":6}","[0,1]","../img/tt/436tt.jpg","",""
"5534.214999999618","","","recognition","survey-text","548","1874387","0.0-6.0-3.77","3149291","co38431","norming","","","{""guess"":""Hagedis""}","","../img/tt/436tt.jpg","",""
"null","../img/gs/436gs.jpg","null","reveal","image-keyboard-response","549","1876397","0.0-6.0-4.77","3149291","co38431","norming","","","","","","",""
"null","../img/tt/436tt.jpg","null","mooney2","image-keyboard-response","550","1878399","0.0-6.0-5.77","3149291","co38431","norming","","","","","","",""
"1865.2249999996275","","","post_reveal_questions","survey-likert","551","1880267","0.0-6.0-6.77","3149291","co38431","norming","","","{""aha"":1}","[0]","../img/tt/436tt.jpg","",""
