"rt","stimulus","key_press","test_part","trial_type","trial_index","time_elapsed","internal_node_id","totalTime","subject","experiment_name","button_pressed","success","responses","question_order","currentStim","old","correct"
"7139.434999999139","Welcome to the experiment. This is an online experiment so please don't close the tab/window until we say goodbye.  Press any key to begin.","32","instructions","html-keyboard-response","0","7153","0.0-0.0","2883421","co38560","norming","","","","","","",""
"62563.56500000038","<div style='word-wrap: break-word; width: 900px'><h3>Please consider this information carefully before deciding whether to participate in this research</h3><ul style='text-align: left; font-size: .8em;'><li><b>Purpose of the research</b>: To examine how people process images.</li><li><b>What you will do in this research</b>:  Stimuli (images) will be presented on the computer and you will be asked different questions about them.</li><li><b>Time required</b>: Participation will take between 45 and 60 minutes to complete.</li><li><b>Risks</b>:  There are no anticipated risks associated with participating in this study. The effects of participating should be comparable to those you would experience from viewing a computer monitor for 30 minutes and using a mouse or keyboard.</li><li><b>Benefits</b>:  This study provides no benefits to you individually except for the credit. The study provides important information about the nature of perception and learning.</li><li><b>Confidentiality</b>:  Your participation in this study will remain confidential. No personally identifiable information will be associated with your data. Your de-identified data may be shared with other researchers and used in future projects.</li><li><b>Participation and withdrawal</b>:  Your participation in this study is completely voluntary and you may refuse to participate or you may choose to withdraw at any time without penalty.</li><li><b>How to contact the researchers</b>: If you have questions or concerns about your participation or payment, or want to request a summary of research findings, please contact Sander Van de Cruys (KU Leuven), at sander.vandecruys@kuleuven.be.</li></ul><p>The nature and purpose of this research have been sufficiently explained and I agree to participate in this study.  I understand that I am free to withdraw at any time without incurring any penalty.</p><p>Please consent by clicking the button below to continue. Otherwise, please exit the study at this time.</p></div>","","instructions","html-button-response","1","69720","0.0-1.0","2883421","co38560","norming","0","","","","","",""
"","","","instructions","fullscreen","2","76038","0.0-2.0","2883421","co38560","norming","","true","","","","",""
"32967.50499999871","","","sona","survey-html-form","3","109012","0.0-3.0","2883421","co38560","norming","","","[{""name"":""sonaid"",""value"":""38560""},{""name"":""debrief"",""value"":""yes""},{""name"":""datajoin"",""value"":""yes""}]","","","",""
"76139.70500000141","<div style='word-wrap: break-word; width: 900px'><h3>Instructions</h3><p>This experiment will have 3 parts. In the first part you will see a series of distorted images like the one below on the left. As you can see in the righthand image, the distorted images are derived from actual photographs. In what follows, you will <strong>briefly</strong> be presented with <strong>only</strong> the distorted image.</p> <div style='float: left; margin-right: 20px;'><img src='../img/018tt.jpg' height='250' width='250'></img></div><div style='float: right; margin-left: 20px;'><img src='../img/018gs.jpg' height='250' width='250'></img></div><p>Subsequently you will be asked a few questions about the image: One question on how <strong>curious</strong> you are about the solution and one on how <strong>confident</strong> you are that you know the solution.</p>Next, we ask you to make a guess on what is in the image. Note that it is OK to name just the <strong>basic level category</strong>. For example when you see a parrot in the image, 'parrot' will obviously be a correct answer but also correct is 'bird'. However, 'animal' will <strong>not</strong> be counted as a correct response. For the example above, 'rose' would be correct or 'flower', but not 'plant'. When soccer players are depicted, 'soccer', 'football', 'soccer players' will be correct, but not 'humans', 'outdoors', or 'sports'. You do not need to describe the image in full, just name the main object in it <strong>in one or two words</strong>. All images depict objects from one of the following broad level categories: animals, inanimate objects, plants, sports, vehicles, and food. Recognizing means knowing <strong>more</strong> than these broad labels for a given image. But we always encourage you to <strong>make a guess</strong> if you can. Note that you are allowed to use <strong>Dutch and English</strong> in your answers, whatever comes easiest for you.</p><p>Press any key to continue.</p></div>","32","instructions","html-keyboard-response","4","185152","0.0-4.0","2883421","co38560","norming","","","","","","",""
"62846.195000000094","<div style='word-wrap: break-word; width: 900px'><h3>Instructions</h3> <p>Next, the solution image will be revealed to you and you'll be asked to indicate how strong your <strong>aha-experience</strong> was after seeing the solution. This describes the positive feeling of the 'click' you sometimes experience, when the pieces of the 'puzzle' fall together and you suddenly have 'insight' in the image.</p><img src='aha.jpg' height='188' width='250'></img><p>Note that there are no right or wrong answers. We are interested in what <strong>you</strong> see in the image and how <strong>you</strong> feel about it.</p><p>Press any key to start the experiment.</p></div>","32","instructions","html-keyboard-response","5","247998","0.0-5.0","2883421","co38560","norming","","","","","","",""
"null","<div style=""font-size:60px;""> </div>","null","fixation","html-keyboard-response","6","248201","0.0-6.0-0.0","2883421","co38560","norming","","","","","","",""
"null","../img/tt/279tt.jpg","null","mooney1","image-keyboard-response","7","251206","0.0-6.0-1.0","2883421","co38560","norming","","","","","","",""
"9491.589999999647","","","post_mooney1_questions","survey-likert","8","260702","0.0-6.0-2.0","2883421","co38560","norming","","","{""curiosity"":2,""confidence"":6}","[0,1]","../img/tt/279tt.jpg","",""
"7285.644999999931","","","recognition","survey-text","9","267989","0.0-6.0-3.0","2883421","co38560","norming","","","{""guess"":""koala""}","","../img/tt/279tt.jpg","",""
"null","../img/gs/279gs.jpg","null","reveal","image-keyboard-response","10","269997","0.0-6.0-4.0","2883421","co38560","norming","","","","","","",""
"null","../img/tt/279tt.jpg","null","mooney2","image-keyboard-response","11","272008","0.0-6.0-5.0","2883421","co38560","norming","","","","","","",""
"3547.3750000001164","","","post_reveal_questions","survey-likert","12","275557","0.0-6.0-6.0","2883421","co38560","norming","","","{""aha"":0}","[0]","../img/tt/279tt.jpg","",""
"null","<div style=""font-size:60px;""> </div>","null","fixation","html-keyboard-response","13","275759","0.0-6.0-0.1","2883421","co38560","norming","","","","","","",""
"null","../img/tt/1268tt.jpg","null","mooney1","image-keyboard-response","14","278767","0.0-6.0-1.1","2883421","co38560","norming","","","","","","",""
"5452.98499999987","","","post_mooney1_questions","survey-likert","15","284221","0.0-6.0-2.1","2883421","co38560","norming","","","{""curiosity"":6,""confidence"":0}","[0,1]","../img/tt/1268tt.jpg","",""
"8957.930000000459","","","recognition","survey-text","16","293181","0.0-6.0-3.1","2883421","co38560","norming","","","{""guess"":""""}","","../img/tt/1268tt.jpg","",""
"null","../img/gs/1268gs.jpg","null","reveal","image-keyboard-response","17","295182","0.0-6.0-4.1","2883421","co38560","norming","","","","","","",""
"null","../img/tt/1268tt.jpg","null","mooney2","image-keyboard-response","18","297187","0.0-6.0-5.1","2883421","co38560","norming","","","","","","",""
"3224.369999999879","","","post_reveal_questions","survey-likert","19","300413","0.0-6.0-6.1","2883421","co38560","norming","","","{""aha"":4}","[0]","../img/tt/1268tt.jpg","",""
"null","<div style=""font-size:60px;""> </div>","null","fixation","html-keyboard-response","20","300614","0.0-6.0-0.2","2883421","co38560","norming","","","","","","",""
"null","../img/tt/008tt.jpg","null","mooney1","image-keyboard-response","21","303619","0.0-6.0-1.2","2883421","co38560","norming","","","","","","",""
"5528.400000001071","","","post_mooney1_questions","survey-likert","22","309155","0.0-6.0-2.2","2883421","co38560","norming","","","{""curiosity"":5,""confidence"":0}","[0,1]","../img/tt/008tt.jpg","",""
"2814.184999999241","","","recognition","survey-text","23","311971","0.0-6.0-3.2","2883421","co38560","norming","","","{""guess"":""gun""}","","../img/tt/008tt.jpg","",""
"null","../img/gs/008gs.jpg","null","reveal","image-keyboard-response","24","313979","0.0-6.0-4.2","2883421","co38560","norming","","","","","","",""
"null","../img/tt/008tt.jpg","null","mooney2","image-keyboard-response","25","315981","0.0-6.0-5.2","2883421","co38560","norming","","","","","","",""
"2020.3449999989825","","","post_reveal_questions","survey-likert","26","318003","0.0-6.0-6.2","2883421","co38560","norming","","","{""aha"":4}","[0]","../img/tt/008tt.jpg","",""
"null","<div style=""font-size:60px;""> </div>","null","fixation","html-keyboard-response","27","318204","0.0-6.0-0.3","2883421","co38560","norming","","","","","","",""
"null","../img/tt/1232tt.jpg","null","mooney1","image-keyboard-response","28","321207","0.0-6.0-1.3","2883421","co38560","norming","","","","","","",""
"6881.344999999797","","","post_mooney1_questions","survey-likert","29","328091","0.0-6.0-2.3","2883421","co38560","norming","","","{""curiosity"":2,""confidence"":5}","[0,1]","../img/tt/1232tt.jpg","",""
"3798.0299999999115","","","recognition","survey-text","30","331891","0.0-6.0-3.3","2883421","co38560","norming","","","{""guess"":""duif""}","","../img/tt/1232tt.jpg","",""
"null","../img/gs/1232gs.jpg","null","reveal","image-keyboard-response","31","333892","0.0-6.0-4.3","2883421","co38560","norming","","","","","","",""
"null","../img/tt/1232tt.jpg","null","mooney2","image-keyboard-response","32","335901","0.0-6.0-5.3","2883421","co38560","norming","","","","","","",""
"2675.5050000011106","","","post_reveal_questions","survey-likert","33","338579","0.0-6.0-6.3","2883421","co38560","norming","","","{""aha"":0}","[0]","../img/tt/1232tt.jpg","",""
"null","<div style=""font-size:60px;""> </div>","null","fixation","html-keyboard-response","34","338780","0.0-6.0-0.4","2883421","co38560","norming","","","","","","",""
"null","../img/tt/124tt.jpg","null","mooney1","image-keyboard-response","35","341783","0.0-6.0-1.4","2883421","co38560","norming","","","","","","",""
"5785.769999998563","","","post_mooney1_questions","survey-likert","36","347571","0.0-6.0-2.4","2883421","co38560","norming","","","{""curiosity"":2,""confidence"":6}","[0,1]","../img/tt/124tt.jpg","",""
"3342.295000000391","","","recognition","survey-text","37","350915","0.0-6.0-3.4","2883421","co38560","norming","","","{""guess"":""aap""}","","../img/tt/124tt.jpg","",""
"null","../img/gs/124gs.jpg","null","reveal","image-keyboard-response","38","352917","0.0-6.0-4.4","2883421","co38560","norming","","","","","","",""
"null","../img/tt/124tt.jpg","null","mooney2","image-keyboard-response","39","354921","0.0-6.0-5.4","2883421","co38560","norming","","","","","","",""
"1495.479999999574","","","post_reveal_questions","survey-likert","40","356419","0.0-6.0-6.4","2883421","co38560","norming","","","{""aha"":1}","[0]","../img/tt/124tt.jpg","",""
"null","<div style=""font-size:60px;""> </div>","null","fixation","html-keyboard-response","41","356620","0.0-6.0-0.5","2883421","co38560","norming","","","","","","",""
"null","../img/tt/1053tt.jpg","null","mooney1","image-keyboard-response","42","359625","0.0-6.0-1.5","2883421","co38560","norming","","","","","","",""
"9967.015000000189","","","post_mooney1_questions","survey-likert","43","369596","0.0-6.0-2.5","2883421","co38560","norming","","","{""curiosity"":6,""confidence"":1}","[0,1]","../img/tt/1053tt.jpg","",""
"6310.325000000361","","","recognition","survey-text","44","375908","0.0-6.0-3.5","2883421","co38560","norming","","","{""guess"":""olifant""}","","../img/tt/1053tt.jpg","",""
"null","../img/gs/1053gs.jpg","null","reveal","image-keyboard-response","45","377917","0.0-6.0-4.5","2883421","co38560","norming","","","","","","",""
"null","../img/tt/1053tt.jpg","null","mooney2","image-keyboard-response","46","379924","0.0-6.0-5.5","2883421","co38560","norming","","","","","","",""
"1757.6150000003981","","","post_reveal_questions","survey-likert","47","381684","0.0-6.0-6.5","2883421","co38560","norming","","","{""aha"":5}","[0]","../img/tt/1053tt.jpg","",""
"null","<div style=""font-size:60px;""> </div>","null","fixation","html-keyboard-response","48","381893","0.0-6.0-0.6","2883421","co38560","norming","","","","","","",""
"null","../img/tt/1069tt.jpg","null","mooney1","image-keyboard-response","49","384896","0.0-6.0-1.6","2883421","co38560","norming","","","","","","",""
"4152.890000001178","","","post_mooney1_questions","survey-likert","50","389052","0.0-6.0-2.6","2883421","co38560","norming","","","{""curiosity"":6,""confidence"":0}","[0,1]","../img/tt/1069tt.jpg","",""
"3878.1650000000955","","","recognition","survey-text","51","392931","0.0-6.0-3.6","2883421","co38560","norming","","","{""guess"":""kip""}","","../img/tt/1069tt.jpg","",""
"null","../img/gs/1069gs.jpg","null","reveal","image-keyboard-response","52","394942","0.0-6.0-4.6","2883421","co38560","norming","","","","","","",""
"null","../img/tt/1069tt.jpg","null","mooney2","image-keyboard-response","53","396945","0.0-6.0-5.6","2883421","co38560","norming","","","","","","",""
"3938.1699999994016","","","post_reveal_questions","survey-likert","54","400884","0.0-6.0-6.6","2883421","co38560","norming","","","{""aha"":5}","[0]","../img/tt/1069tt.jpg","",""
"null","<div style=""font-size:60px;""> </div>","null","fixation","html-keyboard-response","55","401084","0.0-6.0-0.7","2883421","co38560","norming","","","","","","",""
"null","../img/tt/1309tt.jpg","null","mooney1","image-keyboard-response","56","404088","0.0-6.0-1.7","2883421","co38560","norming","","","","","","",""
"6009.285000000091","","","post_mooney1_questions","survey-likert","57","410100","0.0-6.0-2.7","2883421","co38560","norming","","","{""curiosity"":5,""confidence"":4}","[0,1]","../img/tt/1309tt.jpg","",""
"2670.159999999625","","","recognition","survey-text","58","412772","0.0-6.0-3.7","2883421","co38560","norming","","","{""guess"":""auto""}","","../img/tt/1309tt.jpg","",""
"null","../img/gs/1309gs.jpg","null","reveal","image-keyboard-response","59","414773","0.0-6.0-4.7","2883421","co38560","norming","","","","","","",""
"null","../img/tt/1309tt.jpg","null","mooney2","image-keyboard-response","60","416781","0.0-6.0-5.7","2883421","co38560","norming","","","","","","",""
"1907.7950000009732","","","post_reveal_questions","survey-likert","61","418691","0.0-6.0-6.7","2883421","co38560","norming","","","{""aha"":2}","[0]","../img/tt/1309tt.jpg","",""
"null","<div style=""font-size:60px;""> </div>","null","fixation","html-keyboard-response","62","418893","0.0-6.0-0.8","2883421","co38560","norming","","","","","","",""
"null","../img/tt/1061tt.jpg","null","mooney1","image-keyboard-response","63","421903","0.0-6.0-1.8","2883421","co38560","norming","","","","","","",""
"5954.099999998987","","","post_mooney1_questions","survey-likert","64","427860","0.0-6.0-2.8","2883421","co38560","norming","","","{""curiosity"":5,""confidence"":1}","[0,1]","../img/tt/1061tt.jpg","",""
"5454.289999999688","","","recognition","survey-text","65","433317","0.0-6.0-3.8","2883421","co38560","norming","","","{""guess"":""vliegtuig""}","","../img/tt/1061tt.jpg","",""
"null","../img/gs/1061gs.jpg","null","reveal","image-keyboard-response","66","435327","0.0-6.0-4.8","2883421","co38560","norming","","","","","","",""
"null","../img/tt/1061tt.jpg","null","mooney2","image-keyboard-response","67","437333","0.0-6.0-5.8","2883421","co38560","norming","","","","","","",""
"1733.9599999995553","","","post_reveal_questions","survey-likert","68","439069","0.0-6.0-6.8","2883421","co38560","norming","","","{""aha"":6}","[0]","../img/tt/1061tt.jpg","",""
"null","<div style=""font-size:60px;""> </div>","null","fixation","html-keyboard-response","69","439277","0.0-6.0-0.9","2883421","co38560","norming","","","","","","",""
"null","../img/tt/056tt.jpg","null","mooney1","image-keyboard-response","70","442280","0.0-6.0-1.9","2883421","co38560","norming","","","","","","",""
"4186.310000000929","","","post_mooney1_questions","survey-likert","71","446469","0.0-6.0-2.9","2883421","co38560","norming","","","{""curiosity"":6,""confidence"":0}","[0,1]","../img/tt/056tt.jpg","",""
"3438.1100000009756","","","recognition","survey-text","72","449909","0.0-6.0-3.9","2883421","co38560","norming","","","{""guess"":""zangeres""}","","../img/tt/056tt.jpg","",""
"null","../img/gs/056gs.jpg","null","reveal","image-keyboard-response","73","451915","0.0-6.0-4.9","2883421","co38560","norming","","","","","","",""
"null","../img/tt/056tt.jpg","null","mooney2","image-keyboard-response","74","453923","0.0-6.0-5.9","2883421","co38560","norming","","","","","","",""
"3487.689999999944","","","post_reveal_questions","survey-likert","75","457413","0.0-6.0-6.9","2883421","co38560","norming","","","{""aha"":5}","[0]","../img/tt/056tt.jpg","",""
"null","<div style=""font-size:60px;""> </div>","null","fixation","html-keyboard-response","76","457616","0.0-6.0-0.10","2883421","co38560","norming","","","","","","",""
"null","../img/tt/1080tt.jpg","null","mooney1","image-keyboard-response","77","460619","0.0-6.0-1.10","2883421","co38560","norming","","","","","","",""
"6111.625000001397","","","post_mooney1_questions","survey-likert","78","466733","0.0-6.0-2.10","2883421","co38560","norming","","","{""curiosity"":6,""confidence"":0}","[0,1]","../img/tt/1080tt.jpg","",""
"694.0649999996531","","","recognition","survey-text","79","467429","0.0-6.0-3.10","2883421","co38560","norming","","","{""guess"":""""}","","../img/tt/1080tt.jpg","",""
"null","../img/gs/1080gs.jpg","null","reveal","image-keyboard-response","80","469437","0.0-6.0-4.10","2883421","co38560","norming","","","","","","",""
"null","../img/tt/1080tt.jpg","null","mooney2","image-keyboard-response","81","471440","0.0-6.0-5.10","2883421","co38560","norming","","","","","","",""
"2090.89499999932","","","post_reveal_questions","survey-likert","82","473533","0.0-6.0-6.10","2883421","co38560","norming","","","{""aha"":5}","[0]","../img/tt/1080tt.jpg","",""
"null","<div style=""font-size:60px;""> </div>","null","fixation","html-keyboard-response","83","473734","0.0-6.0-0.11","2883421","co38560","norming","","","","","","",""
"null","../img/tt/1154tt.jpg","null","mooney1","image-keyboard-response","84","476738","0.0-6.0-1.11","2883421","co38560","norming","","","","","","",""
"5920.905000000901","","","post_mooney1_questions","survey-likert","85","482661","0.0-6.0-2.11","2883421","co38560","norming","","","{""curiosity"":4,""confidence"":3}","[0,1]","../img/tt/1154tt.jpg","",""
"3310.230000000971","","","recognition","survey-text","86","485973","0.0-6.0-3.11","2883421","co38560","norming","","","{""guess"":""kayak""}","","../img/tt/1154tt.jpg","",""
"null","../img/gs/1154gs.jpg","null","reveal","image-keyboard-response","87","487975","0.0-6.0-4.11","2883421","co38560","norming","","","","","","",""
"null","../img/tt/1154tt.jpg","null","mooney2","image-keyboard-response","88","489976","0.0-6.0-5.11","2883421","co38560","norming","","","","","","",""
"2170.4750000007916","","","post_reveal_questions","survey-likert","89","492147","0.0-6.0-6.11","2883421","co38560","norming","","","{""aha"":4}","[0]","../img/tt/1154tt.jpg","",""
"null","<div style=""font-size:60px;""> </div>","null","fixation","html-keyboard-response","90","492349","0.0-6.0-0.12","2883421","co38560","norming","","","","","","",""
"null","../img/tt/1228tt.jpg","null","mooney1","image-keyboard-response","91","495351","0.0-6.0-1.12","2883421","co38560","norming","","","","","","",""
"10769.660000001779","","","post_mooney1_questions","survey-likert","92","506123","0.0-6.0-2.12","2883421","co38560","norming","","","{""curiosity"":5,""confidence"":2}","[0,1]","../img/tt/1228tt.jpg","",""
"4997.97500000021","","","recognition","survey-text","93","511123","0.0-6.0-3.12","2883421","co38560","norming","","","{""guess"":""vogel""}","","../img/tt/1228tt.jpg","",""
"null","../img/gs/1228gs.jpg","null","reveal","image-keyboard-response","94","513125","0.0-6.0-4.12","2883421","co38560","norming","","","","","","",""
"null","../img/tt/1228tt.jpg","null","mooney2","image-keyboard-response","95","515128","0.0-6.0-5.12","2883421","co38560","norming","","","","","","",""
"2850.5249999998487","","","post_reveal_questions","survey-likert","96","517979","0.0-6.0-6.12","2883421","co38560","norming","","","{""aha"":5}","[0]","../img/tt/1228tt.jpg","",""
"null","<div style=""font-size:60px;""> </div>","null","fixation","html-keyboard-response","97","518181","0.0-6.0-0.13","2883421","co38560","norming","","","","","","",""
"null","../img/tt/1127tt.jpg","null","mooney1","image-keyboard-response","98","521190","0.0-6.0-1.13","2883421","co38560","norming","","","","","","",""
"7258.975000000675","","","post_mooney1_questions","survey-likert","99","528451","0.0-6.0-2.13","2883421","co38560","norming","","","{""curiosity"":5,""confidence"":4}","[0,1]","../img/tt/1127tt.jpg","",""
"2718.399999999674","","","recognition","survey-text","100","531171","0.0-6.0-3.13","2883421","co38560","norming","","","{""guess"":""klas""}","","../img/tt/1127tt.jpg","",""
"null","../img/gs/1127gs.jpg","null","reveal","image-keyboard-response","101","533173","0.0-6.0-4.13","2883421","co38560","norming","","","","","","",""
"null","../img/tt/1127tt.jpg","null","mooney2","image-keyboard-response","102","535180","0.0-6.0-5.13","2883421","co38560","norming","","","","","","",""
"1732.7100000001956","","","post_reveal_questions","survey-likert","103","536915","0.0-6.0-6.13","2883421","co38560","norming","","","{""aha"":6}","[0]","../img/tt/1127tt.jpg","",""
"null","<div style=""font-size:60px;""> </div>","null","fixation","html-keyboard-response","104","537118","0.0-6.0-0.14","2883421","co38560","norming","","","","","","",""
"null","../img/tt/063tt.jpg","null","mooney1","image-keyboard-response","105","540126","0.0-6.0-1.14","2883421","co38560","norming","","","","","","",""
"3587.274999999907","","","post_mooney1_questions","survey-likert","106","543716","0.0-6.0-2.14","2883421","co38560","norming","","","{""curiosity"":6,""confidence"":1}","[0,1]","../img/tt/063tt.jpg","",""
"6494.070000000647","","","recognition","survey-text","107","550211","0.0-6.0-3.14","2883421","co38560","norming","","","{""guess"":""telefoon""}","","../img/tt/063tt.jpg","",""
"null","../img/gs/063gs.jpg","null","reveal","image-keyboard-response","108","552217","0.0-6.0-4.14","2883421","co38560","norming","","","","","","",""
"null","../img/tt/063tt.jpg","null","mooney2","image-keyboard-response","109","554219","0.0-6.0-5.14","2883421","co38560","norming","","","","","","",""
"2537.2600000009406","","","post_reveal_questions","survey-likert","110","556759","0.0-6.0-6.14","2883421","co38560","norming","","","{""aha"":5}","[0]","../img/tt/063tt.jpg","",""
"null","<div style=""font-size:60px;""> </div>","null","fixation","html-keyboard-response","111","556960","0.0-6.0-0.15","2883421","co38560","norming","","","","","","",""
"null","../img/tt/515tt.jpg","null","mooney1","image-keyboard-response","112","559965","0.0-6.0-1.15","2883421","co38560","norming","","","","","","",""
"4239.050000000047","","","post_mooney1_questions","survey-likert","113","564207","0.0-6.0-2.15","2883421","co38560","norming","","","{""curiosity"":5,""confidence"":0}","[0,1]","../img/tt/515tt.jpg","",""
"3382.600000000908","","","recognition","survey-text","114","567591","0.0-6.0-3.15","2883421","co38560","norming","","","{""guess"":""boek""}","","../img/tt/515tt.jpg","",""
"null","../img/gs/515gs.jpg","null","reveal","image-keyboard-response","115","569592","0.0-6.0-4.15","2883421","co38560","norming","","","","","","",""
"null","../img/tt/515tt.jpg","null","mooney2","image-keyboard-response","116","571594","0.0-6.0-5.15","2883421","co38560","norming","","","","","","",""
"1874.6200000005774","","","post_reveal_questions","survey-likert","117","573471","0.0-6.0-6.15","2883421","co38560","norming","","","{""aha"":5}","[0]","../img/tt/515tt.jpg","",""
"null","<div style=""font-size:60px;""> </div>","null","fixation","html-keyboard-response","118","573672","0.0-6.0-0.16","2883421","co38560","norming","","","","","","",""
"null","../img/tt/078tt.jpg","null","mooney1","image-keyboard-response","119","576674","0.0-6.0-1.16","2883421","co38560","norming","","","","","","",""
"4640.625","","","post_mooney1_questions","survey-likert","120","581319","0.0-6.0-2.16","2883421","co38560","norming","","","{""curiosity"":6,""confidence"":0}","[0,1]","../img/tt/078tt.jpg","",""
"3950.2349999984726","","","recognition","survey-text","121","585271","0.0-6.0-3.16","2883421","co38560","norming","","","{""guess"":""vogel""}","","../img/tt/078tt.jpg","",""
"null","../img/gs/078gs.jpg","null","reveal","image-keyboard-response","122","587278","0.0-6.0-4.16","2883421","co38560","norming","","","","","","",""
"null","../img/tt/078tt.jpg","null","mooney2","image-keyboard-response","123","589280","0.0-6.0-5.16","2883421","co38560","norming","","","","","","",""
"1292.984999999986","","","post_reveal_questions","survey-likert","124","590575","0.0-6.0-6.16","2883421","co38560","norming","","","{""aha"":4}","[0]","../img/tt/078tt.jpg","",""
"null","<div style=""font-size:60px;""> </div>","null","fixation","html-keyboard-response","125","590776","0.0-6.0-0.17","2883421","co38560","norming","","","","","","",""
"null","../img/tt/1159tt.jpg","null","mooney1","image-keyboard-response","126","593778","0.0-6.0-1.17","2883421","co38560","norming","","","","","","",""
"4242.07500000007","","","post_mooney1_questions","survey-likert","127","598023","0.0-6.0-2.17","2883421","co38560","norming","","","{""curiosity"":4,""confidence"":1}","[0,1]","../img/tt/1159tt.jpg","",""
"2142.469999998808","","","recognition","survey-text","128","600167","0.0-6.0-3.17","2883421","co38560","norming","","","{""guess"":""golf""}","","../img/tt/1159tt.jpg","",""
"null","../img/gs/1159gs.jpg","null","reveal","image-keyboard-response","129","602170","0.0-6.0-4.17","2883421","co38560","norming","","","","","","",""
"null","../img/tt/1159tt.jpg","null","mooney2","image-keyboard-response","130","604171","0.0-6.0-5.17","2883421","co38560","norming","","","","","","",""
"2425.630000001518","","","post_reveal_questions","survey-likert","131","606599","0.0-6.0-6.17","2883421","co38560","norming","","","{""aha"":5}","[0]","../img/tt/1159tt.jpg","",""
"null","<div style=""font-size:60px;""> </div>","null","fixation","html-keyboard-response","132","606805","0.0-6.0-0.18","2883421","co38560","norming","","","","","","",""
"null","../img/tt/1091tt.jpg","null","mooney1","image-keyboard-response","133","609812","0.0-6.0-1.18","2883421","co38560","norming","","","","","","",""
"3807.399999999674","","","post_mooney1_questions","survey-likert","134","613615","0.0-6.0-2.18","2883421","co38560","norming","","","{""curiosity"":6,""confidence"":1}","[0,1]","../img/tt/1091tt.jpg","",""
"2846.4450000009965","","","recognition","survey-text","135","616463","0.0-6.0-3.18","2883421","co38560","norming","","","{""guess"":""paard""}","","../img/tt/1091tt.jpg","",""
"null","../img/gs/1091gs.jpg","null","reveal","image-keyboard-response","136","618465","0.0-6.0-4.18","2883421","co38560","norming","","","","","","",""
"null","../img/tt/1091tt.jpg","null","mooney2","image-keyboard-response","137","620467","0.0-6.0-5.18","2883421","co38560","norming","","","","","","",""
"2377.3849999997765","","","post_reveal_questions","survey-likert","138","622847","0.0-6.0-6.18","2883421","co38560","norming","","","{""aha"":6}","[0]","../img/tt/1091tt.jpg","",""
"null","<div style=""font-size:60px;""> </div>","null","fixation","html-keyboard-response","139","623049","0.0-6.0-0.19","2883421","co38560","norming","","","","","","",""
"null","../img/tt/306tt.jpg","null","mooney1","image-keyboard-response","140","626051","0.0-6.0-1.19","2883421","co38560","norming","","","","","","",""
"5153.64000000048","","","post_mooney1_questions","survey-likert","141","631207","0.0-6.0-2.19","2883421","co38560","norming","","","{""curiosity"":6,""confidence"":1}","[0,1]","../img/tt/306tt.jpg","",""
"3542.31499999878","","","recognition","survey-text","142","634751","0.0-6.0-3.19","2883421","co38560","norming","","","{""guess"":""schaatser""}","","../img/tt/306tt.jpg","",""
"null","../img/gs/306gs.jpg","null","reveal","image-keyboard-response","143","636752","0.0-6.0-4.19","2883421","co38560","norming","","","","","","",""
"null","../img/tt/306tt.jpg","null","mooney2","image-keyboard-response","144","638753","0.0-6.0-5.19","2883421","co38560","norming","","","","","","",""
"1635.6949999990175","","","post_reveal_questions","survey-likert","145","640391","0.0-6.0-6.19","2883421","co38560","norming","","","{""aha"":4}","[0]","../img/tt/306tt.jpg","",""
"null","<div style=""font-size:60px;""> </div>","null","fixation","html-keyboard-response","146","640592","0.0-6.0-0.20","2883421","co38560","norming","","","","","","",""
"null","../img/tt/1175tt.jpg","null","mooney1","image-keyboard-response","147","643595","0.0-6.0-1.20","2883421","co38560","norming","","","","","","",""
"3121.9049999999115","","","post_mooney1_questions","survey-likert","148","646719","0.0-6.0-2.20","2883421","co38560","norming","","","{""curiosity"":6,""confidence"":2}","[0,1]","../img/tt/1175tt.jpg","",""
"2926.3600000012666","","","recognition","survey-text","149","649647","0.0-6.0-3.20","2883421","co38560","norming","","","{""guess"":""danseres""}","","../img/tt/1175tt.jpg","",""
"null","../img/gs/1175gs.jpg","null","reveal","image-keyboard-response","150","651656","0.0-6.0-4.20","2883421","co38560","norming","","","","","","",""
"null","../img/tt/1175tt.jpg","null","mooney2","image-keyboard-response","151","653657","0.0-6.0-5.20","2883421","co38560","norming","","","","","","",""
"1555.6999999989057","","","post_reveal_questions","survey-likert","152","655215","0.0-6.0-6.20","2883421","co38560","norming","","","{""aha"":6}","[0]","../img/tt/1175tt.jpg","",""
"null","<div style=""font-size:60px;""> </div>","null","fixation","html-keyboard-response","153","655417","0.0-6.0-0.21","2883421","co38560","norming","","","","","","",""
"null","../img/tt/1237tt.jpg","null","mooney1","image-keyboard-response","154","658419","0.0-6.0-1.21","2883421","co38560","norming","","","","","","",""
"2721.8250000005355","","","post_mooney1_questions","survey-likert","155","661143","0.0-6.0-2.21","2883421","co38560","norming","","","{""curiosity"":2,""confidence"":5}","[0,1]","../img/tt/1237tt.jpg","",""
"1893.959999999497","","","recognition","survey-text","156","663039","0.0-6.0-3.21","2883421","co38560","norming","","","{""guess"":""eend""}","","../img/tt/1237tt.jpg","",""
"null","../img/gs/1237gs.jpg","null","reveal","image-keyboard-response","157","665040","0.0-6.0-4.21","2883421","co38560","norming","","","","","","",""
"null","../img/tt/1237tt.jpg","null","mooney2","image-keyboard-response","158","667049","0.0-6.0-5.21","2883421","co38560","norming","","","","","","",""
"2581.2650000007125","","","post_reveal_questions","survey-likert","159","669631","0.0-6.0-6.21","2883421","co38560","norming","","","{""aha"":1}","[0]","../img/tt/1237tt.jpg","",""
"null","<div style=""font-size:60px;""> </div>","null","fixation","html-keyboard-response","160","669832","0.0-6.0-0.22","2883421","co38560","norming","","","","","","",""
"null","../img/tt/1290tt.jpg","null","mooney1","image-keyboard-response","161","672846","0.0-6.0-1.22","2883421","co38560","norming","","","","","","",""
"4678.294999999693","","","post_mooney1_questions","survey-likert","162","677527","0.0-6.0-2.22","2883421","co38560","norming","","","{""curiosity"":6,""confidence"":0}","[0,1]","../img/tt/1290tt.jpg","",""
"8846.24999999872","","","recognition","survey-text","163","686375","0.0-6.0-3.22","2883421","co38560","norming","","","{""guess"":""granaat""}","","../img/tt/1290tt.jpg","",""
"null","../img/gs/1290gs.jpg","null","reveal","image-keyboard-response","164","688376","0.0-6.0-4.22","2883421","co38560","norming","","","","","","",""
"null","../img/tt/1290tt.jpg","null","mooney2","image-keyboard-response","165","690378","0.0-6.0-5.22","2883421","co38560","norming","","","","","","",""
"2218.880000000354","","","post_reveal_questions","survey-likert","166","692599","0.0-6.0-6.22","2883421","co38560","norming","","","{""aha"":6}","[0]","../img/tt/1290tt.jpg","",""
"null","<div style=""font-size:60px;""> </div>","null","fixation","html-keyboard-response","167","692801","0.0-6.0-0.23","2883421","co38560","norming","","","","","","",""
"null","../img/tt/1191tt.jpg","null","mooney1","image-keyboard-response","168","695805","0.0-6.0-1.23","2883421","co38560","norming","","","","","","",""
"3254.885000000242","","","post_mooney1_questions","survey-likert","169","699063","0.0-6.0-2.23","2883421","co38560","norming","","","{""curiosity"":5,""confidence"":2}","[0,1]","../img/tt/1191tt.jpg","",""
"2894.675000001327","","","recognition","survey-text","170","701959","0.0-6.0-3.23","2883421","co38560","norming","","","{""guess"":""skien""}","","../img/tt/1191tt.jpg","",""
"null","../img/gs/1191gs.jpg","null","reveal","image-keyboard-response","171","703961","0.0-6.0-4.23","2883421","co38560","norming","","","","","","",""
"null","../img/tt/1191tt.jpg","null","mooney2","image-keyboard-response","172","705963","0.0-6.0-5.23","2883421","co38560","norming","","","","","","",""
"2107.6400000001304","","","post_reveal_questions","survey-likert","173","708071","0.0-6.0-6.23","2883421","co38560","norming","","","{""aha"":6}","[0]","../img/tt/1191tt.jpg","",""
"null","<div style=""font-size:60px;""> </div>","null","fixation","html-keyboard-response","174","708272","0.0-6.0-0.24","2883421","co38560","norming","","","","","","",""
"null","../img/tt/599tt.jpg","null","mooney1","image-keyboard-response","175","711278","0.0-6.0-1.24","2883421","co38560","norming","","","","","","",""
"7134.4449999995995","","","post_mooney1_questions","survey-likert","176","718415","0.0-6.0-2.24","2883421","co38560","norming","","","{""curiosity"":5,""confidence"":1}","[0,1]","../img/tt/599tt.jpg","",""
"3557.9249999992317","","","recognition","survey-text","177","721975","0.0-6.0-3.24","2883421","co38560","norming","","","{""guess"":""zoogdier""}","","../img/tt/599tt.jpg","",""
"null","../img/gs/599gs.jpg","null","reveal","image-keyboard-response","178","723984","0.0-6.0-4.24","2883421","co38560","norming","","","","","","",""
"null","../img/tt/599tt.jpg","null","mooney2","image-keyboard-response","179","725994","0.0-6.0-5.24","2883421","co38560","norming","","","","","","",""
"2112.8700000008103","","","post_reveal_questions","survey-likert","180","728111","0.0-6.0-6.24","2883421","co38560","norming","","","{""aha"":6}","[0]","../img/tt/599tt.jpg","",""
"null","<div style=""font-size:60px;""> </div>","null","fixation","html-keyboard-response","181","728318","0.0-6.0-0.25","2883421","co38560","norming","","","","","","",""
"null","../img/tt/442tt.jpg","null","mooney1","image-keyboard-response","182","731323","0.0-6.0-1.25","2883421","co38560","norming","","","","","","",""
"4265.895000000368","","","post_mooney1_questions","survey-likert","183","735590","0.0-6.0-2.25","2883421","co38560","norming","","","{""curiosity"":6,""confidence"":0}","[0,1]","../img/tt/442tt.jpg","",""
"2526.2000000003027","","","recognition","survey-text","184","738118","0.0-6.0-3.25","2883421","co38560","norming","","","{""guess"":""vogel""}","","../img/tt/442tt.jpg","",""
"null","../img/gs/442gs.jpg","null","reveal","image-keyboard-response","185","740121","0.0-6.0-4.25","2883421","co38560","norming","","","","","","",""
"null","../img/tt/442tt.jpg","null","mooney2","image-keyboard-response","186","742123","0.0-6.0-5.25","2883421","co38560","norming","","","","","","",""
"2016.1449999996694","","","post_reveal_questions","survey-likert","187","744142","0.0-6.0-6.25","2883421","co38560","norming","","","{""aha"":2}","[0]","../img/tt/442tt.jpg","",""
"null","<div style=""font-size:60px;""> </div>","null","fixation","html-keyboard-response","188","744345","0.0-6.0-0.26","2883421","co38560","norming","","","","","","",""
"null","../img/tt/436tt.jpg","null","mooney1","image-keyboard-response","189","747354","0.0-6.0-1.26","2883421","co38560","norming","","","","","","",""
"5241.260000000708","","","post_mooney1_questions","survey-likert","190","752598","0.0-6.0-2.26","2883421","co38560","norming","","","{""curiosity"":6,""confidence"":1}","[0,1]","../img/tt/436tt.jpg","",""
"2782.060000001453","","","recognition","survey-text","191","755382","0.0-6.0-3.26","2883421","co38560","norming","","","{""guess"":""krokodil""}","","../img/tt/436tt.jpg","",""
"null","../img/gs/436gs.jpg","null","reveal","image-keyboard-response","192","757386","0.0-6.0-4.26","2883421","co38560","norming","","","","","","",""
"null","../img/tt/436tt.jpg","null","mooney2","image-keyboard-response","193","759390","0.0-6.0-5.26","2883421","co38560","norming","","","","","","",""
"2925.155000000843","","","post_reveal_questions","survey-likert","194","762318","0.0-6.0-6.26","2883421","co38560","norming","","","{""aha"":2}","[0]","../img/tt/436tt.jpg","",""
"null","<div style=""font-size:60px;""> </div>","null","fixation","html-keyboard-response","195","762528","0.0-6.0-0.27","2883421","co38560","norming","","","","","","",""
"null","../img/tt/1033tt.jpg","null","mooney1","image-keyboard-response","196","765533","0.0-6.0-1.27","2883421","co38560","norming","","","","","","",""
"4406.369999998831","","","post_mooney1_questions","survey-likert","197","769942","0.0-6.0-2.27","2883421","co38560","norming","","","{""curiosity"":6,""confidence"":1}","[0,1]","../img/tt/1033tt.jpg","",""
"5934.169999998645","","","recognition","survey-text","198","775878","0.0-6.0-3.27","2883421","co38560","norming","","","{""guess"":""boogschutter""}","","../img/tt/1033tt.jpg","",""
"null","../img/gs/1033gs.jpg","null","reveal","image-keyboard-response","199","777888","0.0-6.0-4.27","2883421","co38560","norming","","","","","","",""
"null","../img/tt/1033tt.jpg","null","mooney2","image-keyboard-response","200","779891","0.0-6.0-5.27","2883421","co38560","norming","","","","","","",""
"2744.3700000003446","","","post_reveal_questions","survey-likert","201","782638","0.0-6.0-6.27","2883421","co38560","norming","","","{""aha"":2}","[0]","../img/tt/1033tt.jpg","",""
"null","<div style=""font-size:60px;""> </div>","null","fixation","html-keyboard-response","202","782843","0.0-6.0-0.28","2883421","co38560","norming","","","","","","",""
"null","../img/tt/1102tt.jpg","null","mooney1","image-keyboard-response","203","785854","0.0-6.0-1.28","2883421","co38560","norming","","","","","","",""
"6341.354999998584","","","post_mooney1_questions","survey-likert","204","792198","0.0-6.0-2.28","2883421","co38560","norming","","","{""curiosity"":2,""confidence"":0}","[0,1]","../img/tt/1102tt.jpg","",""
"3118.150000000256","","","recognition","survey-text","205","795313","0.0-6.0-3.28","2883421","co38560","norming","","","{""guess"":""auto""}","","../img/tt/1102tt.jpg","",""
"null","../img/gs/1102gs.jpg","null","reveal","image-keyboard-response","206","797316","0.0-6.0-4.28","2883421","co38560","norming","","","","","","",""
"null","../img/tt/1102tt.jpg","null","mooney2","image-keyboard-response","207","799322","0.0-6.0-5.28","2883421","co38560","norming","","","","","","",""
"1732.9900000004563","","","post_reveal_questions","survey-likert","208","801057","0.0-6.0-6.28","2883421","co38560","norming","","","{""aha"":4}","[0]","../img/tt/1102tt.jpg","",""
"null","<div style=""font-size:60px;""> </div>","null","fixation","html-keyboard-response","209","801263","0.0-6.0-0.29","2883421","co38560","norming","","","","","","",""
"null","../img/tt/296tt.jpg","null","mooney1","image-keyboard-response","210","804266","0.0-6.0-1.29","2883421","co38560","norming","","","","","","",""
"3708.2500000015134","","","post_mooney1_questions","survey-likert","211","807977","0.0-6.0-2.29","2883421","co38560","norming","","","{""curiosity"":5,""confidence"":1}","[0,1]","../img/tt/296tt.jpg","",""
"6182.25999999966","","","recognition","survey-text","212","814161","0.0-6.0-3.29","2883421","co38560","norming","","","{""guess"":""wassalon""}","","../img/tt/296tt.jpg","",""
"null","../img/gs/296gs.jpg","null","reveal","image-keyboard-response","213","816165","0.0-6.0-4.29","2883421","co38560","norming","","","","","","",""
"null","../img/tt/296tt.jpg","null","mooney2","image-keyboard-response","214","818167","0.0-6.0-5.29","2883421","co38560","norming","","","","","","",""
"1809.1700000005076","","","post_reveal_questions","survey-likert","215","819977","0.0-6.0-6.29","2883421","co38560","norming","","","{""aha"":5}","[0]","../img/tt/296tt.jpg","",""
"null","<div style=""font-size:60px;""> </div>","null","fixation","html-keyboard-response","216","820180","0.0-6.0-0.30","2883421","co38560","norming","","","","","","",""
"null","../img/tt/468tt.jpg","null","mooney1","image-keyboard-response","217","823186","0.0-6.0-1.30","2883421","co38560","norming","","","","","","",""
"3708.899999999674","","","post_mooney1_questions","survey-likert","218","826898","0.0-6.0-2.30","2883421","co38560","norming","","","{""curiosity"":6,""confidence"":0}","[0,1]","../img/tt/468tt.jpg","",""
"5310.125","","","recognition","survey-text","219","832209","0.0-6.0-3.30","2883421","co38560","norming","","","{""guess"":""cowboy""}","","../img/tt/468tt.jpg","",""
"null","../img/gs/468gs.jpg","null","reveal","image-keyboard-response","220","834212","0.0-6.0-4.30","2883421","co38560","norming","","","","","","",""
"null","../img/tt/468tt.jpg","null","mooney2","image-keyboard-response","221","836215","0.0-6.0-5.30","2883421","co38560","norming","","","","","","",""
"1888.0099999987287","","","post_reveal_questions","survey-likert","222","838105","0.0-6.0-6.30","2883421","co38560","norming","","","{""aha"":0}","[0]","../img/tt/468tt.jpg","",""
"null","<div style=""font-size:60px;""> </div>","null","fixation","html-keyboard-response","223","838307","0.0-6.0-0.31","2883421","co38560","norming","","","","","","",""
"null","../img/tt/1146tt.jpg","null","mooney1","image-keyboard-response","224","841310","0.0-6.0-1.31","2883421","co38560","norming","","","","","","",""
"6033.129999999772","","","post_mooney1_questions","survey-likert","225","847346","0.0-6.0-2.31","2883421","co38560","norming","","","{""curiosity"":4,""confidence"":1}","[0,1]","../img/tt/1146tt.jpg","",""
"4461.385000000475","","","recognition","survey-text","226","851809","0.0-6.0-3.31","2883421","co38560","norming","","","{""guess"":""boogschutter""}","","../img/tt/1146tt.jpg","",""
"null","../img/gs/1146gs.jpg","null","reveal","image-keyboard-response","227","853820","0.0-6.0-4.31","2883421","co38560","norming","","","","","","",""
"null","../img/tt/1146tt.jpg","null","mooney2","image-keyboard-response","228","855822","0.0-6.0-5.31","2883421","co38560","norming","","","","","","",""
"1610.3400000010151","","","post_reveal_questions","survey-likert","229","857433","0.0-6.0-6.31","2883421","co38560","norming","","","{""aha"":3}","[0]","../img/tt/1146tt.jpg","",""
"null","<div style=""font-size:60px;""> </div>","null","fixation","html-keyboard-response","230","857638","0.0-6.0-0.32","2883421","co38560","norming","","","","","","",""
"null","../img/tt/534tt.jpg","null","mooney1","image-keyboard-response","231","860644","0.0-6.0-1.32","2883421","co38560","norming","","","","","","",""
"3635.6150000010384","","","post_mooney1_questions","survey-likert","232","864281","0.0-6.0-2.32","2883421","co38560","norming","","","{""curiosity"":6,""confidence"":2}","[0,1]","../img/tt/534tt.jpg","",""
"6541.999999999418","","","recognition","survey-text","233","870825","0.0-6.0-3.32","2883421","co38560","norming","","","{""guess"":""cactus""}","","../img/tt/534tt.jpg","",""
"null","../img/gs/534gs.jpg","null","reveal","image-keyboard-response","234","872826","0.0-6.0-4.32","2883421","co38560","norming","","","","","","",""
"null","../img/tt/534tt.jpg","null","mooney2","image-keyboard-response","235","874828","0.0-6.0-5.32","2883421","co38560","norming","","","","","","",""
"2339.245000001043","","","post_reveal_questions","survey-likert","236","877169","0.0-6.0-6.32","2883421","co38560","norming","","","{""aha"":0}","[0]","../img/tt/534tt.jpg","",""
"null","<div style=""font-size:60px;""> </div>","null","fixation","html-keyboard-response","237","877371","0.0-6.0-0.33","2883421","co38560","norming","","","","","","",""
"null","../img/tt/1151tt.jpg","null","mooney1","image-keyboard-response","238","880379","0.0-6.0-1.33","2883421","co38560","norming","","","","","","",""
"3388.83499999973","","","post_mooney1_questions","survey-likert","239","883769","0.0-6.0-2.33","2883421","co38560","norming","","","{""curiosity"":5,""confidence"":0}","[0,1]","../img/tt/1151tt.jpg","",""
"2701.8200000001816","","","recognition","survey-text","240","886473","0.0-6.0-3.33","2883421","co38560","norming","","","{""guess"":""giraffe""}","","../img/tt/1151tt.jpg","",""
"null","../img/gs/1151gs.jpg","null","reveal","image-keyboard-response","241","888484","0.0-6.0-4.33","2883421","co38560","norming","","","","","","",""
"null","../img/tt/1151tt.jpg","null","mooney2","image-keyboard-response","242","890486","0.0-6.0-5.33","2883421","co38560","norming","","","","","","",""
"1360.9300000007497","","","post_reveal_questions","survey-likert","243","891849","0.0-6.0-6.33","2883421","co38560","norming","","","{""aha"":1}","[0]","../img/tt/1151tt.jpg","",""
"null","<div style=""font-size:60px;""> </div>","null","fixation","html-keyboard-response","244","892051","0.0-6.0-0.34","2883421","co38560","norming","","","","","","",""
"null","../img/tt/135tt.jpg","null","mooney1","image-keyboard-response","245","895062","0.0-6.0-1.34","2883421","co38560","norming","","","","","","",""
"9434.489999999641","","","post_mooney1_questions","survey-likert","246","904497","0.0-6.0-2.34","2883421","co38560","norming","","","{""curiosity"":2,""confidence"":4}","[0,1]","../img/tt/135tt.jpg","",""
"2982.2500000009313","","","recognition","survey-text","247","907481","0.0-6.0-3.34","2883421","co38560","norming","","","{""guess"":""toilet""}","","../img/tt/135tt.jpg","",""
"null","../img/gs/135gs.jpg","null","reveal","image-keyboard-response","248","909483","0.0-6.0-4.34","2883421","co38560","norming","","","","","","",""
"null","../img/tt/135tt.jpg","null","mooney2","image-keyboard-response","249","911486","0.0-6.0-5.34","2883421","co38560","norming","","","","","","",""
"2152.9600000012433","","","post_reveal_questions","survey-likert","250","913641","0.0-6.0-6.34","2883421","co38560","norming","","","{""aha"":0}","[0]","../img/tt/135tt.jpg","",""
"null","<div style=""font-size:60px;""> </div>","null","fixation","html-keyboard-response","251","913847","0.0-6.0-0.35","2883421","co38560","norming","","","","","","",""
"null","../img/tt/1148tt.jpg","null","mooney1","image-keyboard-response","252","916850","0.0-6.0-1.35","2883421","co38560","norming","","","","","","",""
"6764.734999998938","","","post_mooney1_questions","survey-likert","253","923618","0.0-6.0-2.35","2883421","co38560","norming","","","{""curiosity"":4,""confidence"":3}","[0,1]","../img/tt/1148tt.jpg","",""
"3654.495000000694","","","recognition","survey-text","254","927274","0.0-6.0-3.35","2883421","co38560","norming","","","{""guess"":""zwemmer""}","","../img/tt/1148tt.jpg","",""
"null","../img/gs/1148gs.jpg","null","reveal","image-keyboard-response","255","929282","0.0-6.0-4.35","2883421","co38560","norming","","","","","","",""
"null","../img/tt/1148tt.jpg","null","mooney2","image-keyboard-response","256","931288","0.0-6.0-5.35","2883421","co38560","norming","","","","","","",""
"2455.4800000005635","","","post_reveal_questions","survey-likert","257","933746","0.0-6.0-6.35","2883421","co38560","norming","","","{""aha"":4}","[0]","../img/tt/1148tt.jpg","",""
"null","<div style=""font-size:60px;""> </div>","null","fixation","html-keyboard-response","258","933950","0.0-6.0-0.36","2883421","co38560","norming","","","","","","",""
"null","../img/tt/580tt.jpg","null","mooney1","image-keyboard-response","259","936956","0.0-6.0-1.36","2883421","co38560","norming","","","","","","",""
"8659.670000000857","","","post_mooney1_questions","survey-likert","260","945618","0.0-6.0-2.36","2883421","co38560","norming","","","{""curiosity"":5,""confidence"":1}","[0,1]","../img/tt/580tt.jpg","",""
"2358.194999998901","","","recognition","survey-text","261","947978","0.0-6.0-3.36","2883421","co38560","norming","","","{""guess"":""plant""}","","../img/tt/580tt.jpg","",""
"null","../img/gs/580gs.jpg","null","reveal","image-keyboard-response","262","949979","0.0-6.0-4.36","2883421","co38560","norming","","","","","","",""
"null","../img/tt/580tt.jpg","null","mooney2","image-keyboard-response","263","951982","0.0-6.0-5.36","2883421","co38560","norming","","","","","","",""
"1577.444999998901","","","post_reveal_questions","survey-likert","264","953562","0.0-6.0-6.36","2883421","co38560","norming","","","{""aha"":5}","[0]","../img/tt/580tt.jpg","",""
"null","<div style=""font-size:60px;""> </div>","null","fixation","html-keyboard-response","265","953763","0.0-6.0-0.37","2883421","co38560","norming","","","","","","",""
"null","../img/tt/222tt.jpg","null","mooney1","image-keyboard-response","266","956767","0.0-6.0-1.37","2883421","co38560","norming","","","","","","",""
"3352.6650000003865","","","post_mooney1_questions","survey-likert","267","960122","0.0-6.0-2.37","2883421","co38560","norming","","","{""curiosity"":6,""confidence"":1}","[0,1]","../img/tt/222tt.jpg","",""
"2301.975000000326","","","recognition","survey-text","268","962426","0.0-6.0-3.37","2883421","co38560","norming","","","{""guess"":""auto""}","","../img/tt/222tt.jpg","",""
"null","../img/gs/222gs.jpg","null","reveal","image-keyboard-response","269","964434","0.0-6.0-4.37","2883421","co38560","norming","","","","","","",""
"null","../img/tt/222tt.jpg","null","mooney2","image-keyboard-response","270","966445","0.0-6.0-5.37","2883421","co38560","norming","","","","","","",""
"1827.1149999999907","","","post_reveal_questions","survey-likert","271","968274","0.0-6.0-6.37","2883421","co38560","norming","","","{""aha"":4}","[0]","../img/tt/222tt.jpg","",""
"null","<div style=""font-size:60px;""> </div>","null","fixation","html-keyboard-response","272","968476","0.0-6.0-0.38","2883421","co38560","norming","","","","","","",""
"null","../img/tt/076tt.jpg","null","mooney1","image-keyboard-response","273","971483","0.0-6.0-1.38","2883421","co38560","norming","","","","","","",""
"4716.225000000093","","","post_mooney1_questions","survey-likert","274","976200","0.0-6.0-2.38","2883421","co38560","norming","","","{""curiosity"":4,""confidence"":3}","[0,1]","../img/tt/076tt.jpg","",""
"4814.28000000061","","","recognition","survey-text","275","981016","0.0-6.0-3.38","2883421","co38560","norming","","","{""guess"":""rollerskate""}","","../img/tt/076tt.jpg","",""
"null","../img/gs/076gs.jpg","null","reveal","image-keyboard-response","276","983024","0.0-6.0-4.38","2883421","co38560","norming","","","","","","",""
"null","../img/tt/076tt.jpg","null","mooney2","image-keyboard-response","277","985027","0.0-6.0-5.38","2883421","co38560","norming","","","","","","",""
"1348.1350000002421","","","post_reveal_questions","survey-likert","278","986376","0.0-6.0-6.38","2883421","co38560","norming","","","{""aha"":0}","[0]","../img/tt/076tt.jpg","",""
"null","<div style=""font-size:60px;""> </div>","null","fixation","html-keyboard-response","279","986577","0.0-6.0-0.39","2883421","co38560","norming","","","","","","",""
"null","../img/tt/1089tt.jpg","null","mooney1","image-keyboard-response","280","989582","0.0-6.0-1.39","2883421","co38560","norming","","","","","","",""
"5742.860000000335","","","post_mooney1_questions","survey-likert","281","995328","0.0-6.0-2.39","2883421","co38560","norming","","","{""curiosity"":5,""confidence"":0}","[0,1]","../img/tt/1089tt.jpg","",""
"2550.0249999986263","","","recognition","survey-text","282","997880","0.0-6.0-3.39","2883421","co38560","norming","","","{""guess"":""bed""}","","../img/tt/1089tt.jpg","",""
"null","../img/gs/1089gs.jpg","null","reveal","image-keyboard-response","283","999882","0.0-6.0-4.39","2883421","co38560","norming","","","","","","",""
"null","../img/tt/1089tt.jpg","null","mooney2","image-keyboard-response","284","1001884","0.0-6.0-5.39","2883421","co38560","norming","","","","","","",""
"1337.770000000135","","","post_reveal_questions","survey-likert","285","1003224","0.0-6.0-6.39","2883421","co38560","norming","","","{""aha"":6}","[0]","../img/tt/1089tt.jpg","",""
"null","<div style=""font-size:60px;""> </div>","null","fixation","html-keyboard-response","286","1003427","0.0-6.0-0.40","2883421","co38560","norming","","","","","","",""
"null","../img/tt/1084tt.jpg","null","mooney1","image-keyboard-response","287","1006431","0.0-6.0-1.40","2883421","co38560","norming","","","","","","",""
"3430.5949999998556","","","post_mooney1_questions","survey-likert","288","1009864","0.0-6.0-2.40","2883421","co38560","norming","","","{""curiosity"":6,""confidence"":0}","[0,1]","../img/tt/1084tt.jpg","",""
"3918.479999998468","","","recognition","survey-text","289","1013784","0.0-6.0-3.40","2883421","co38560","norming","","","{""guess"":""theepot""}","","../img/tt/1084tt.jpg","",""
"null","../img/gs/1084gs.jpg","null","reveal","image-keyboard-response","290","1015786","0.0-6.0-4.40","2883421","co38560","norming","","","","","","",""
"null","../img/tt/1084tt.jpg","null","mooney2","image-keyboard-response","291","1017788","0.0-6.0-5.40","2883421","co38560","norming","","","","","","",""
"2154.2449999997625","","","post_reveal_questions","survey-likert","292","1019944","0.0-6.0-6.40","2883421","co38560","norming","","","{""aha"":5}","[0]","../img/tt/1084tt.jpg","",""
"null","<div style=""font-size:60px;""> </div>","null","fixation","html-keyboard-response","293","1020147","0.0-6.0-0.41","2883421","co38560","norming","","","","","","",""
"null","../img/tt/189tt.jpg","null","mooney1","image-keyboard-response","294","1023159","0.0-6.0-1.41","2883421","co38560","norming","","","","","","",""
"3743.440000000177","","","post_mooney1_questions","survey-likert","295","1026904","0.0-6.0-2.41","2883421","co38560","norming","","","{""curiosity"":6,""confidence"":0}","[0,1]","../img/tt/189tt.jpg","",""
"1966.155000000028","","","recognition","survey-text","296","1028872","0.0-6.0-3.41","2883421","co38560","norming","","","{""guess"":""draak""}","","../img/tt/189tt.jpg","",""
"null","../img/gs/189gs.jpg","null","reveal","image-keyboard-response","297","1030874","0.0-6.0-4.41","2883421","co38560","norming","","","","","","",""
"null","../img/tt/189tt.jpg","null","mooney2","image-keyboard-response","298","1032876","0.0-6.0-5.41","2883421","co38560","norming","","","","","","",""
"1762.3149999999441","","","post_reveal_questions","survey-likert","299","1034640","0.0-6.0-6.41","2883421","co38560","norming","","","{""aha"":1}","[0]","../img/tt/189tt.jpg","",""
"null","<div style=""font-size:60px;""> </div>","null","fixation","html-keyboard-response","300","1034841","0.0-6.0-0.42","2883421","co38560","norming","","","","","","",""
"null","../img/tt/1270tt.jpg","null","mooney1","image-keyboard-response","301","1037853","0.0-6.0-1.42","2883421","co38560","norming","","","","","","",""
"2708.45000000007","","","post_mooney1_questions","survey-likert","302","1040565","0.0-6.0-2.42","2883421","co38560","norming","","","{""curiosity"":5,""confidence"":0}","[0,1]","../img/tt/1270tt.jpg","",""
"1670.2249999998603","","","recognition","survey-text","303","1042236","0.0-6.0-3.42","2883421","co38560","norming","","","{""guess"":""vis""}","","../img/tt/1270tt.jpg","",""
"null","../img/gs/1270gs.jpg","null","reveal","image-keyboard-response","304","1044243","0.0-6.0-4.42","2883421","co38560","norming","","","","","","",""
"null","../img/tt/1270tt.jpg","null","mooney2","image-keyboard-response","305","1046244","0.0-6.0-5.42","2883421","co38560","norming","","","","","","",""
"1635.1599999997998","","","post_reveal_questions","survey-likert","306","1047885","0.0-6.0-6.42","2883421","co38560","norming","","","{""aha"":1}","[0]","../img/tt/1270tt.jpg","",""
"null","<div style=""font-size:60px;""> </div>","null","fixation","html-keyboard-response","307","1048086","0.0-6.0-0.43","2883421","co38560","norming","","","","","","",""
"null","../img/tt/032tt.jpg","null","mooney1","image-keyboard-response","308","1051089","0.0-6.0-1.43","2883421","co38560","norming","","","","","","",""
"4610.765000001062","","","post_mooney1_questions","survey-likert","309","1055701","0.0-6.0-2.43","2883421","co38560","norming","","","{""curiosity"":4,""confidence"":4}","[0,1]","../img/tt/032tt.jpg","",""
"2517.819999999134","","","recognition","survey-text","310","1058220","0.0-6.0-3.43","2883421","co38560","norming","","","{""guess"":""beer""}","","../img/tt/032tt.jpg","",""
"null","../img/gs/032gs.jpg","null","reveal","image-keyboard-response","311","1060222","0.0-6.0-4.43","2883421","co38560","norming","","","","","","",""
"null","../img/tt/032tt.jpg","null","mooney2","image-keyboard-response","312","1062232","0.0-6.0-5.43","2883421","co38560","norming","","","","","","",""
"2570.0749999997206","","","post_reveal_questions","survey-likert","313","1064804","0.0-6.0-6.43","2883421","co38560","norming","","","{""aha"":4}","[0]","../img/tt/032tt.jpg","",""
"null","<div style=""font-size:60px;""> </div>","null","fixation","html-keyboard-response","314","1065007","0.0-6.0-0.44","2883421","co38560","norming","","","","","","",""
"null","../img/tt/105tt.jpg","null","mooney1","image-keyboard-response","315","1068013","0.0-6.0-1.44","2883421","co38560","norming","","","","","","",""
"2988.190000000177","","","post_mooney1_questions","survey-likert","316","1071004","0.0-6.0-2.44","2883421","co38560","norming","","","{""curiosity"":6,""confidence"":0}","[0,1]","../img/tt/105tt.jpg","",""
"5726.454999999842","","","recognition","survey-text","317","1076732","0.0-6.0-3.44","2883421","co38560","norming","","","{""guess"":""zand""}","","../img/tt/105tt.jpg","",""
"null","../img/gs/105gs.jpg","null","reveal","image-keyboard-response","318","1078734","0.0-6.0-4.44","2883421","co38560","norming","","","","","","",""
"null","../img/tt/105tt.jpg","null","mooney2","image-keyboard-response","319","1080744","0.0-6.0-5.44","2883421","co38560","norming","","","","","","",""
"1306.5000000004657","","","post_reveal_questions","survey-likert","320","1082053","0.0-6.0-6.44","2883421","co38560","norming","","","{""aha"":0}","[0]","../img/tt/105tt.jpg","",""
"null","<div style=""font-size:60px;""> </div>","null","fixation","html-keyboard-response","321","1082255","0.0-6.0-0.45","2883421","co38560","norming","","","","","","",""
"null","../img/tt/1196tt.jpg","null","mooney1","image-keyboard-response","322","1085258","0.0-6.0-1.45","2883421","co38560","norming","","","","","","",""
"7743.655000000261","","","post_mooney1_questions","survey-likert","323","1093004","0.0-6.0-2.45","2883421","co38560","norming","","","{""curiosity"":5,""confidence"":0}","[0,1]","../img/tt/1196tt.jpg","",""
"2398.4550000003073","","","recognition","survey-text","324","1095404","0.0-6.0-3.45","2883421","co38560","norming","","","{""guess"":""dokters""}","","../img/tt/1196tt.jpg","",""
"null","../img/gs/1196gs.jpg","null","reveal","image-keyboard-response","325","1097414","0.0-6.0-4.45","2883421","co38560","norming","","","","","","",""
"null","../img/tt/1196tt.jpg","null","mooney2","image-keyboard-response","326","1099417","0.0-6.0-5.45","2883421","co38560","norming","","","","","","",""
"1897.0650000011083","","","post_reveal_questions","survey-likert","327","1101317","0.0-6.0-6.45","2883421","co38560","norming","","","{""aha"":5}","[0]","../img/tt/1196tt.jpg","",""
"null","<div style=""font-size:60px;""> </div>","null","fixation","html-keyboard-response","328","1101522","0.0-6.0-0.46","2883421","co38560","norming","","","","","","",""
"null","../img/tt/053tt.jpg","null","mooney1","image-keyboard-response","329","1104531","0.0-6.0-1.46","2883421","co38560","norming","","","","","","",""
"3103.0699999993667","","","post_mooney1_questions","survey-likert","330","1107637","0.0-6.0-2.46","2883421","co38560","norming","","","{""curiosity"":5,""confidence"":0}","[0,1]","../img/tt/053tt.jpg","",""
"2982.3299999989104","","","recognition","survey-text","331","1110621","0.0-6.0-3.46","2883421","co38560","norming","","","{""guess"":""skipiste""}","","../img/tt/053tt.jpg","",""
"null","../img/gs/053gs.jpg","null","reveal","image-keyboard-response","332","1112623","0.0-6.0-4.46","2883421","co38560","norming","","","","","","",""
"null","../img/tt/053tt.jpg","null","mooney2","image-keyboard-response","333","1114624","0.0-6.0-5.46","2883421","co38560","norming","","","","","","",""
"1473.765000000596","","","post_reveal_questions","survey-likert","334","1116100","0.0-6.0-6.46","2883421","co38560","norming","","","{""aha"":5}","[0]","../img/tt/053tt.jpg","",""
"null","<div style=""font-size:60px;""> </div>","null","fixation","html-keyboard-response","335","1116302","0.0-6.0-0.47","2883421","co38560","norming","","","","","","",""
"null","../img/tt/1142tt.jpg","null","mooney1","image-keyboard-response","336","1119305","0.0-6.0-1.47","2883421","co38560","norming","","","","","","",""
"3152.494999998482","","","post_mooney1_questions","survey-likert","337","1122461","0.0-6.0-2.47","2883421","co38560","norming","","","{""curiosity"":5,""confidence"":0}","[0,1]","../img/tt/1142tt.jpg","",""
"2237.9349999991246","","","recognition","survey-text","338","1124701","0.0-6.0-3.47","2883421","co38560","norming","","","{""guess"":""tenisser""}","","../img/tt/1142tt.jpg","",""
"null","../img/gs/1142gs.jpg","null","reveal","image-keyboard-response","339","1126702","0.0-6.0-4.47","2883421","co38560","norming","","","","","","",""
"null","../img/tt/1142tt.jpg","null","mooney2","image-keyboard-response","340","1128704","0.0-6.0-5.47","2883421","co38560","norming","","","","","","",""
"2010.1249999988358","","","post_reveal_questions","survey-likert","341","1130716","0.0-6.0-6.47","2883421","co38560","norming","","","{""aha"":5}","[0]","../img/tt/1142tt.jpg","",""
"null","<div style=""font-size:60px;""> </div>","null","fixation","html-keyboard-response","342","1130924","0.0-6.0-0.48","2883421","co38560","norming","","","","","","",""
"null","../img/tt/418tt.jpg","null","mooney1","image-keyboard-response","343","1133933","0.0-6.0-1.48","2883421","co38560","norming","","","","","","",""
"2931.979999999283","","","post_mooney1_questions","survey-likert","344","1136869","0.0-6.0-2.48","2883421","co38560","norming","","","{""curiosity"":6,""confidence"":0}","[0,1]","../img/tt/418tt.jpg","",""
"4662.3199999995995","","","recognition","survey-text","345","1141532","0.0-6.0-3.48","2883421","co38560","norming","","","{""guess"":""indiaan""}","","../img/tt/418tt.jpg","",""
"null","../img/gs/418gs.jpg","null","reveal","image-keyboard-response","346","1143534","0.0-6.0-4.48","2883421","co38560","norming","","","","","","",""
"null","../img/tt/418tt.jpg","null","mooney2","image-keyboard-response","347","1145536","0.0-6.0-5.48","2883421","co38560","norming","","","","","","",""
"1842.1049999997485","","","post_reveal_questions","survey-likert","348","1147381","0.0-6.0-6.48","2883421","co38560","norming","","","{""aha"":0}","[0]","../img/tt/418tt.jpg","",""
"null","<div style=""font-size:60px;""> </div>","null","fixation","html-keyboard-response","349","1147589","0.0-6.0-0.49","2883421","co38560","norming","","","","","","",""
"null","../img/tt/126tt.jpg","null","mooney1","image-keyboard-response","350","1150600","0.0-6.0-1.49","2883421","co38560","norming","","","","","","",""
"3178.7100000001956","","","post_mooney1_questions","survey-likert","351","1153781","0.0-6.0-2.49","2883421","co38560","norming","","","{""curiosity"":6,""confidence"":0}","[0,1]","../img/tt/126tt.jpg","",""
"2054.259999999078","","","recognition","survey-text","352","1155837","0.0-6.0-3.49","2883421","co38560","norming","","","{""guess"":""zee""}","","../img/tt/126tt.jpg","",""
"null","../img/gs/126gs.jpg","null","reveal","image-keyboard-response","353","1157844","0.0-6.0-4.49","2883421","co38560","norming","","","","","","",""
"null","../img/tt/126tt.jpg","null","mooney2","image-keyboard-response","354","1159846","0.0-6.0-5.49","2883421","co38560","norming","","","","","","",""
"1700.4400000006426","","","post_reveal_questions","survey-likert","355","1161549","0.0-6.0-6.49","2883421","co38560","norming","","","{""aha"":1}","[0]","../img/tt/126tt.jpg","",""
"null","<div style=""font-size:60px;""> </div>","null","fixation","html-keyboard-response","356","1161750","0.0-6.0-0.50","2883421","co38560","norming","","","","","","",""
"null","../img/tt/1189tt.jpg","null","mooney1","image-keyboard-response","357","1164760","0.0-6.0-1.50","2883421","co38560","norming","","","","","","",""
"3266.4650000007823","","","post_mooney1_questions","survey-likert","358","1168029","0.0-6.0-2.50","2883421","co38560","norming","","","{""curiosity"":4,""confidence"":2}","[0,1]","../img/tt/1189tt.jpg","",""
"2078.0649999994785","","","recognition","survey-text","359","1170109","0.0-6.0-3.50","2883421","co38560","norming","","","{""guess"":""zwemmer""}","","../img/tt/1189tt.jpg","",""
"null","../img/gs/1189gs.jpg","null","reveal","image-keyboard-response","360","1172112","0.0-6.0-4.50","2883421","co38560","norming","","","","","","",""
"null","../img/tt/1189tt.jpg","null","mooney2","image-keyboard-response","361","1174120","0.0-6.0-5.50","2883421","co38560","norming","","","","","","",""
"3058.6149999999907","","","post_reveal_questions","survey-likert","362","1177181","0.0-6.0-6.50","2883421","co38560","norming","","","{""aha"":4}","[0]","../img/tt/1189tt.jpg","",""
"null","<div style=""font-size:60px;""> </div>","null","fixation","html-keyboard-response","363","1177382","0.0-6.0-0.51","2883421","co38560","norming","","","","","","",""
"null","../img/tt/603tt.jpg","null","mooney1","image-keyboard-response","364","1180385","0.0-6.0-1.51","2883421","co38560","norming","","","","","","",""
"6242.879999999888","","","post_mooney1_questions","survey-likert","365","1186629","0.0-6.0-2.51","2883421","co38560","norming","","","{""curiosity"":5,""confidence"":0}","[0,1]","../img/tt/603tt.jpg","",""
"4902.039999998873","","","recognition","survey-text","366","1191533","0.0-6.0-3.51","2883421","co38560","norming","","","{""guess"":""bloem""}","","../img/tt/603tt.jpg","",""
"null","../img/gs/603gs.jpg","null","reveal","image-keyboard-response","367","1193534","0.0-6.0-4.51","2883421","co38560","norming","","","","","","",""
"null","../img/tt/603tt.jpg","null","mooney2","image-keyboard-response","368","1195537","0.0-6.0-5.51","2883421","co38560","norming","","","","","","",""
"1497.4449999991339","","","post_reveal_questions","survey-likert","369","1197037","0.0-6.0-6.51","2883421","co38560","norming","","","{""aha"":2}","[0]","../img/tt/603tt.jpg","",""
"null","<div style=""font-size:60px;""> </div>","null","fixation","html-keyboard-response","370","1197238","0.0-6.0-0.52","2883421","co38560","norming","","","","","","",""
"null","../img/tt/1205tt.jpg","null","mooney1","image-keyboard-response","371","1200241","0.0-6.0-1.52","2883421","co38560","norming","","","","","","",""
"6225.11999999918","","","post_mooney1_questions","survey-likert","372","1206469","0.0-6.0-2.52","2883421","co38560","norming","","","{""curiosity"":1,""confidence"":5}","[0,1]","../img/tt/1205tt.jpg","",""
"2901.9399999997113","","","recognition","survey-text","373","1209373","0.0-6.0-3.52","2883421","co38560","norming","","","{""guess"":""dansers""}","","../img/tt/1205tt.jpg","",""
"null","../img/gs/1205gs.jpg","null","reveal","image-keyboard-response","374","1211374","0.0-6.0-4.52","2883421","co38560","norming","","","","","","",""
"null","../img/tt/1205tt.jpg","null","mooney2","image-keyboard-response","375","1213376","0.0-6.0-5.52","2883421","co38560","norming","","","","","","",""
"1770.6050000013784","","","post_reveal_questions","survey-likert","376","1215149","0.0-6.0-6.52","2883421","co38560","norming","","","{""aha"":2}","[0]","../img/tt/1205tt.jpg","",""
"null","<div style=""font-size:60px;""> </div>","null","fixation","html-keyboard-response","377","1215351","0.0-6.0-0.53","2883421","co38560","norming","","","","","","",""
"null","../img/tt/1202tt.jpg","null","mooney1","image-keyboard-response","378","1218362","0.0-6.0-1.53","2883421","co38560","norming","","","","","","",""
"3231.60499999905","","","post_mooney1_questions","survey-likert","379","1221591","0.0-6.0-2.53","2883421","co38560","norming","","","{""curiosity"":5,""confidence"":0}","[0,1]","../img/tt/1202tt.jpg","",""
"3517.9449999995995","","","recognition","survey-text","380","1225110","0.0-6.0-3.53","2883421","co38560","norming","","","{""guess"":""karate""}","","../img/tt/1202tt.jpg","",""
"null","../img/gs/1202gs.jpg","null","reveal","image-keyboard-response","381","1227121","0.0-6.0-4.53","2883421","co38560","norming","","","","","","",""
"null","../img/tt/1202tt.jpg","null","mooney2","image-keyboard-response","382","1229127","0.0-6.0-5.53","2883421","co38560","norming","","","","","","",""
"1606.3099999991246","","","post_reveal_questions","survey-likert","383","1230735","0.0-6.0-6.53","2883421","co38560","norming","","","{""aha"":2}","[0]","../img/tt/1202tt.jpg","",""
"null","<div style=""font-size:60px;""> </div>","null","fixation","html-keyboard-response","384","1230936","0.0-6.0-0.54","2883421","co38560","norming","","","","","","",""
"null","../img/tt/559tt.jpg","null","mooney1","image-keyboard-response","385","1233942","0.0-6.0-1.54","2883421","co38560","norming","","","","","","",""
"4661.910000000615","","","post_mooney1_questions","survey-likert","386","1238607","0.0-6.0-2.54","2883421","co38560","norming","","","{""curiosity"":2,""confidence"":4}","[0,1]","../img/tt/559tt.jpg","",""
"4693.999999999534","","","recognition","survey-text","387","1243303","0.0-6.0-3.54","2883421","co38560","norming","","","{""guess"":""naaimachine""}","","../img/tt/559tt.jpg","",""
"null","../img/gs/559gs.jpg","null","reveal","image-keyboard-response","388","1245304","0.0-6.0-4.54","2883421","co38560","norming","","","","","","",""
"null","../img/tt/559tt.jpg","null","mooney2","image-keyboard-response","389","1247309","0.0-6.0-5.54","2883421","co38560","norming","","","","","","",""
"2022.684999999823","","","post_reveal_questions","survey-likert","390","1249335","0.0-6.0-6.54","2883421","co38560","norming","","","{""aha"":0}","[0]","../img/tt/559tt.jpg","",""
"null","<div style=""font-size:60px;""> </div>","null","fixation","html-keyboard-response","391","1249536","0.0-6.0-0.55","2883421","co38560","norming","","","","","","",""
"null","../img/tt/440tt.jpg","null","mooney1","image-keyboard-response","392","1252544","0.0-6.0-1.55","2883421","co38560","norming","","","","","","",""
"3740.034999998752","","","post_mooney1_questions","survey-likert","393","1256287","0.0-6.0-2.55","2883421","co38560","norming","","","{""curiosity"":4,""confidence"":0}","[0,1]","../img/tt/440tt.jpg","",""
"2614.3150000008754","","","recognition","survey-text","394","1258903","0.0-6.0-3.55","2883421","co38560","norming","","","{""guess"":""paard""}","","../img/tt/440tt.jpg","",""
"null","../img/gs/440gs.jpg","null","reveal","image-keyboard-response","395","1260913","0.0-6.0-4.55","2883421","co38560","norming","","","","","","",""
"null","../img/tt/440tt.jpg","null","mooney2","image-keyboard-response","396","1262916","0.0-6.0-5.55","2883421","co38560","norming","","","","","","",""
"1951.6450000011828","","","post_reveal_questions","survey-likert","397","1264871","0.0-6.0-6.55","2883421","co38560","norming","","","{""aha"":4}","[0]","../img/tt/440tt.jpg","",""
"null","<div style=""font-size:60px;""> </div>","null","fixation","html-keyboard-response","398","1265073","0.0-6.0-0.56","2883421","co38560","norming","","","","","","",""
"null","../img/tt/098tt.jpg","null","mooney1","image-keyboard-response","399","1268078","0.0-6.0-1.56","2883421","co38560","norming","","","","","","",""
"3749.7350000012666","","","post_mooney1_questions","survey-likert","400","1271831","0.0-6.0-2.56","2883421","co38560","norming","","","{""curiosity"":6,""confidence"":0}","[0,1]","../img/tt/098tt.jpg","",""
"4798.054999999236","","","recognition","survey-text","401","1276631","0.0-6.0-3.56","2883421","co38560","norming","","","{""guess"":""zoodier""}","","../img/tt/098tt.jpg","",""
"null","../img/gs/098gs.jpg","null","reveal","image-keyboard-response","402","1278636","0.0-6.0-4.56","2883421","co38560","norming","","","","","","",""
"null","../img/tt/098tt.jpg","null","mooney2","image-keyboard-response","403","1280653","0.0-6.0-5.56","2883421","co38560","norming","","","","","","",""
"1877.7300000002142","","","post_reveal_questions","survey-likert","404","1282534","0.0-6.0-6.56","2883421","co38560","norming","","","{""aha"":4}","[0]","../img/tt/098tt.jpg","",""
"null","<div style=""font-size:60px;""> </div>","null","fixation","html-keyboard-response","405","1282735","0.0-6.0-0.57","2883421","co38560","norming","","","","","","",""
"null","../img/tt/007tt.jpg","null","mooney1","image-keyboard-response","406","1285739","0.0-6.0-1.57","2883421","co38560","norming","","","","","","",""
"5767.780000000261","","","post_mooney1_questions","survey-likert","407","1291510","0.0-6.0-2.57","2883421","co38560","norming","","","{""curiosity"":5,""confidence"":2}","[0,1]","../img/tt/007tt.jpg","",""
"3462.3249999985565","","","recognition","survey-text","408","1294974","0.0-6.0-3.57","2883421","co38560","norming","","","{""guess"":""zeehond""}","","../img/tt/007tt.jpg","",""
"null","../img/gs/007gs.jpg","null","reveal","image-keyboard-response","409","1296975","0.0-6.0-4.57","2883421","co38560","norming","","","","","","",""
"null","../img/tt/007tt.jpg","null","mooney2","image-keyboard-response","410","1298978","0.0-6.0-5.57","2883421","co38560","norming","","","","","","",""
"1377.5650000006426","","","post_reveal_questions","survey-likert","411","1300357","0.0-6.0-6.57","2883421","co38560","norming","","","{""aha"":1}","[0]","../img/tt/007tt.jpg","",""
"null","<div style=""font-size:60px;""> </div>","null","fixation","html-keyboard-response","412","1300559","0.0-6.0-0.58","2883421","co38560","norming","","","","","","",""
"null","../img/tt/524tt.jpg","null","mooney1","image-keyboard-response","413","1303561","0.0-6.0-1.58","2883421","co38560","norming","","","","","","",""
"4137.225000000326","","","post_mooney1_questions","survey-likert","414","1307702","0.0-6.0-2.58","2883421","co38560","norming","","","{""curiosity"":2,""confidence"":5}","[0,1]","../img/tt/524tt.jpg","",""
"2357.939999999944","","","recognition","survey-text","415","1310061","0.0-6.0-3.58","2883421","co38560","norming","","","{""guess"":""olifant""}","","../img/tt/524tt.jpg","",""
"null","../img/gs/524gs.jpg","null","reveal","image-keyboard-response","416","1312070","0.0-6.0-4.58","2883421","co38560","norming","","","","","","",""
"null","../img/tt/524tt.jpg","null","mooney2","image-keyboard-response","417","1314072","0.0-6.0-5.58","2883421","co38560","norming","","","","","","",""
"2259.0549999987707","","","post_reveal_questions","survey-likert","418","1316334","0.0-6.0-6.58","2883421","co38560","norming","","","{""aha"":6}","[0]","../img/tt/524tt.jpg","",""
"null","<div style=""font-size:60px;""> </div>","null","fixation","html-keyboard-response","419","1316538","0.0-6.0-0.59","2883421","co38560","norming","","","","","","",""
"null","../img/tt/036tt.jpg","null","mooney1","image-keyboard-response","420","1319550","0.0-6.0-1.59","2883421","co38560","norming","","","","","","",""
"5572.685000000987","","","post_mooney1_questions","survey-likert","421","1325126","0.0-6.0-2.59","2883421","co38560","norming","","","{""curiosity"":6,""confidence"":1}","[0,1]","../img/tt/036tt.jpg","",""
"6438.18999999878","","","recognition","survey-text","422","1331566","0.0-6.0-3.59","2883421","co38560","norming","","","{""guess"":""blad""}","","../img/tt/036tt.jpg","",""
"null","../img/gs/036gs.jpg","null","reveal","image-keyboard-response","423","1333571","0.0-6.0-4.59","2883421","co38560","norming","","","","","","",""
"null","../img/tt/036tt.jpg","null","mooney2","image-keyboard-response","424","1335581","0.0-6.0-5.59","2883421","co38560","norming","","","","","","",""
"1173.0350000017788","","","post_reveal_questions","survey-likert","425","1336758","0.0-6.0-6.59","2883421","co38560","norming","","","{""aha"":0}","[0]","../img/tt/036tt.jpg","",""
"null","<div style=""font-size:60px;""> </div>","null","fixation","html-keyboard-response","426","1336959","0.0-6.0-0.60","2883421","co38560","norming","","","","","","",""
"null","../img/tt/010tt.jpg","null","mooney1","image-keyboard-response","427","1339963","0.0-6.0-1.60","2883421","co38560","norming","","","","","","",""
"3502.9750000012573","","","post_mooney1_questions","survey-likert","428","1343470","0.0-6.0-2.60","2883421","co38560","norming","","","{""curiosity"":6,""confidence"":0}","[0,1]","../img/tt/010tt.jpg","",""
"3806.2200000004377","","","recognition","survey-text","429","1347278","0.0-6.0-3.60","2883421","co38560","norming","","","{""guess"":""kikker""}","","../img/tt/010tt.jpg","",""
"null","../img/gs/010gs.jpg","null","reveal","image-keyboard-response","430","1349281","0.0-6.0-4.60","2883421","co38560","norming","","","","","","",""
"null","../img/tt/010tt.jpg","null","mooney2","image-keyboard-response","431","1351284","0.0-6.0-5.60","2883421","co38560","norming","","","","","","",""
"1535.169999999227","","","post_reveal_questions","survey-likert","432","1352822","0.0-6.0-6.60","2883421","co38560","norming","","","{""aha"":0}","[0]","../img/tt/010tt.jpg","",""
"null","<div style=""font-size:60px;""> </div>","null","fixation","html-keyboard-response","433","1353023","0.0-6.0-0.61","2883421","co38560","norming","","","","","","",""
"null","../img/tt/438tt.jpg","null","mooney1","image-keyboard-response","434","1356026","0.0-6.0-1.61","2883421","co38560","norming","","","","","","",""
"4577.095000000671","","","post_mooney1_questions","survey-likert","435","1360606","0.0-6.0-2.61","2883421","co38560","norming","","","{""curiosity"":6,""confidence"":0}","[0,1]","../img/tt/438tt.jpg","",""
"1390.0699999993667","","","recognition","survey-text","436","1361998","0.0-6.0-3.61","2883421","co38560","norming","","","{""guess"":""koe""}","","../img/tt/438tt.jpg","",""
"null","../img/gs/438gs.jpg","null","reveal","image-keyboard-response","437","1364009","0.0-6.0-4.61","2883421","co38560","norming","","","","","","",""
"null","../img/tt/438tt.jpg","null","mooney2","image-keyboard-response","438","1366011","0.0-6.0-5.61","2883421","co38560","norming","","","","","","",""
"1432.6249999995343","","","post_reveal_questions","survey-likert","439","1367446","0.0-6.0-6.61","2883421","co38560","norming","","","{""aha"":0}","[0]","../img/tt/438tt.jpg","",""
"null","<div style=""font-size:60px;""> </div>","null","fixation","html-keyboard-response","440","1367647","0.0-6.0-0.62","2883421","co38560","norming","","","","","","",""
"null","../img/tt/1247tt.jpg","null","mooney1","image-keyboard-response","441","1370658","0.0-6.0-1.62","2883421","co38560","norming","","","","","","",""
"4112.945000000764","","","post_mooney1_questions","survey-likert","442","1374774","0.0-6.0-2.62","2883421","co38560","norming","","","{""curiosity"":6,""confidence"":0}","[0,1]","../img/tt/1247tt.jpg","",""
"6934.2149999991525","","","recognition","survey-text","443","1381710","0.0-6.0-3.62","2883421","co38560","norming","","","{""guess"":""zoogdier""}","","../img/tt/1247tt.jpg","",""
"null","../img/gs/1247gs.jpg","null","reveal","image-keyboard-response","444","1383721","0.0-6.0-4.62","2883421","co38560","norming","","","","","","",""
"null","../img/tt/1247tt.jpg","null","mooney2","image-keyboard-response","445","1385730","0.0-6.0-5.62","2883421","co38560","norming","","","","","","",""
"1857.1000000010245","","","post_reveal_questions","survey-likert","446","1387590","0.0-6.0-6.62","2883421","co38560","norming","","","{""aha"":6}","[0]","../img/tt/1247tt.jpg","",""
"null","<div style=""font-size:60px;""> </div>","null","fixation","html-keyboard-response","447","1387792","0.0-6.0-0.63","2883421","co38560","norming","","","","","","",""
"null","../img/tt/084tt.jpg","null","mooney1","image-keyboard-response","448","1390797","0.0-6.0-1.63","2883421","co38560","norming","","","","","","",""
"5325.91999999946","","","post_mooney1_questions","survey-likert","449","1396126","0.0-6.0-2.63","2883421","co38560","norming","","","{""curiosity"":4,""confidence"":3}","[0,1]","../img/tt/084tt.jpg","",""
"3934.269999999786","","","recognition","survey-text","450","1400062","0.0-6.0-3.63","2883421","co38560","norming","","","{""guess"":""vogel""}","","../img/tt/084tt.jpg","",""
"null","../img/gs/084gs.jpg","null","reveal","image-keyboard-response","451","1402064","0.0-6.0-4.63","2883421","co38560","norming","","","","","","",""
"null","../img/tt/084tt.jpg","null","mooney2","image-keyboard-response","452","1404065","0.0-6.0-5.63","2883421","co38560","norming","","","","","","",""
"1490.8599999998696","","","post_reveal_questions","survey-likert","453","1405558","0.0-6.0-6.63","2883421","co38560","norming","","","{""aha"":1}","[0]","../img/tt/084tt.jpg","",""
"null","<div style=""font-size:60px;""> </div>","null","fixation","html-keyboard-response","454","1405768","0.0-6.0-0.64","2883421","co38560","norming","","","","","","",""
"null","../img/tt/123tt.jpg","null","mooney1","image-keyboard-response","455","1408773","0.0-6.0-1.64","2883421","co38560","norming","","","","","","",""
"4293.739999999059","","","post_mooney1_questions","survey-likert","456","1413071","0.0-6.0-2.64","2883421","co38560","norming","","","{""curiosity"":4,""confidence"":2}","[0,1]","../img/tt/123tt.jpg","",""
"2077.6200000001118","","","recognition","survey-text","457","1415150","0.0-6.0-3.64","2883421","co38560","norming","","","{""guess"":""slee""}","","../img/tt/123tt.jpg","",""
"null","../img/gs/123gs.jpg","null","reveal","image-keyboard-response","458","1417154","0.0-6.0-4.64","2883421","co38560","norming","","","","","","",""
"null","../img/tt/123tt.jpg","null","mooney2","image-keyboard-response","459","1419156","0.0-6.0-5.64","2883421","co38560","norming","","","","","","",""
"1353.0950000004377","","","post_reveal_questions","survey-likert","460","1420510","0.0-6.0-6.64","2883421","co38560","norming","","","{""aha"":0}","[0]","../img/tt/123tt.jpg","",""
"null","<div style=""font-size:60px;""> </div>","null","fixation","html-keyboard-response","461","1420713","0.0-6.0-0.65","2883421","co38560","norming","","","","","","",""
"null","../img/tt/044tt.jpg","null","mooney1","image-keyboard-response","462","1423723","0.0-6.0-1.65","2883421","co38560","norming","","","","","","",""
"4351.790000000503","","","post_mooney1_questions","survey-likert","463","1428079","0.0-6.0-2.65","2883421","co38560","norming","","","{""curiosity"":5,""confidence"":1}","[0,1]","../img/tt/044tt.jpg","",""
"1726.1150000013877","","","recognition","survey-text","464","1429806","0.0-6.0-3.65","2883421","co38560","norming","","","{""guess"":""boot""}","","../img/tt/044tt.jpg","",""
"null","../img/gs/044gs.jpg","null","reveal","image-keyboard-response","465","1431812","0.0-6.0-4.65","2883421","co38560","norming","","","","","","",""
"null","../img/tt/044tt.jpg","null","mooney2","image-keyboard-response","466","1433815","0.0-6.0-5.65","2883421","co38560","norming","","","","","","",""
"2172.6550000002608","","","post_reveal_questions","survey-likert","467","1435990","0.0-6.0-6.65","2883421","co38560","norming","","","{""aha"":4}","[0]","../img/tt/044tt.jpg","",""
"null","<div style=""font-size:60px;""> </div>","null","fixation","html-keyboard-response","468","1436192","0.0-6.0-0.66","2883421","co38560","norming","","","","","","",""
"null","../img/tt/1040tt.jpg","null","mooney1","image-keyboard-response","469","1439196","0.0-6.0-1.66","2883421","co38560","norming","","","","","","",""
"4529.010000000242","","","post_mooney1_questions","survey-likert","470","1443727","0.0-6.0-2.66","2883421","co38560","norming","","","{""curiosity"":6,""confidence"":2}","[0,1]","../img/tt/1040tt.jpg","",""
"15101.99500000081","","","recognition","survey-text","471","1458830","0.0-6.0-3.66","2883421","co38560","norming","","","{""guess"":""bergbeklimmer""}","","../img/tt/1040tt.jpg","",""
"null","../img/gs/1040gs.jpg","null","reveal","image-keyboard-response","472","1460833","0.0-6.0-4.66","2883421","co38560","norming","","","","","","",""
"null","../img/tt/1040tt.jpg","null","mooney2","image-keyboard-response","473","1462843","0.0-6.0-5.66","2883421","co38560","norming","","","","","","",""
"1696.3349999985658","","","post_reveal_questions","survey-likert","474","1464542","0.0-6.0-6.66","2883421","co38560","norming","","","{""aha"":2}","[0]","../img/tt/1040tt.jpg","",""
"null","<div style=""font-size:60px;""> </div>","null","fixation","html-keyboard-response","475","1464748","0.0-6.0-0.67","2883421","co38560","norming","","","","","","",""
"null","../img/tt/1107tt.jpg","null","mooney1","image-keyboard-response","476","1467753","0.0-6.0-1.67","2883421","co38560","norming","","","","","","",""
"5595.934999999357","","","post_mooney1_questions","survey-likert","477","1473351","0.0-6.0-2.67","2883421","co38560","norming","","","{""curiosity"":6,""confidence"":0}","[0,1]","../img/tt/1107tt.jpg","",""
"3525.994999999879","","","recognition","survey-text","478","1476878","0.0-6.0-3.67","2883421","co38560","norming","","","{""guess"":""vleermuis""}","","../img/tt/1107tt.jpg","",""
"null","../img/gs/1107gs.jpg","null","reveal","image-keyboard-response","479","1478886","0.0-6.0-4.67","2883421","co38560","norming","","","","","","",""
"null","../img/tt/1107tt.jpg","null","mooney2","image-keyboard-response","480","1480891","0.0-6.0-5.67","2883421","co38560","norming","","","","","","",""
"2376.629999998724","","","post_reveal_questions","survey-likert","481","1483270","0.0-6.0-6.67","2883421","co38560","norming","","","{""aha"":4}","[0]","../img/tt/1107tt.jpg","",""
"null","<div style=""font-size:60px;""> </div>","null","fixation","html-keyboard-response","482","1483477","0.0-6.0-0.68","2883421","co38560","norming","","","","","","",""
"null","../img/tt/477tt.jpg","null","mooney1","image-keyboard-response","483","1486490","0.0-6.0-1.68","2883421","co38560","norming","","","","","","",""
"4360.375000000233","","","post_mooney1_questions","survey-likert","484","1490855","0.0-6.0-2.68","2883421","co38560","norming","","","{""curiosity"":4,""confidence"":4}","[0,1]","../img/tt/477tt.jpg","",""
"5766.025000000838","","","recognition","survey-text","485","1496622","0.0-6.0-3.68","2883421","co38560","norming","","","{""guess"":""vis in bokaal""}","","../img/tt/477tt.jpg","",""
"null","../img/gs/477gs.jpg","null","reveal","image-keyboard-response","486","1498623","0.0-6.0-4.68","2883421","co38560","norming","","","","","","",""
"null","../img/tt/477tt.jpg","null","mooney2","image-keyboard-response","487","1500625","0.0-6.0-5.68","2883421","co38560","norming","","","","","","",""
"2002.3500000005588","","","post_reveal_questions","survey-likert","488","1502630","0.0-6.0-6.68","2883421","co38560","norming","","","{""aha"":1}","[0]","../img/tt/477tt.jpg","",""
"null","<div style=""font-size:60px;""> </div>","null","fixation","html-keyboard-response","489","1502832","0.0-6.0-0.69","2883421","co38560","norming","","","","","","",""
"null","../img/tt/1250tt.jpg","null","mooney1","image-keyboard-response","490","1505835","0.0-6.0-1.69","2883421","co38560","norming","","","","","","",""
"6112.324999999953","","","post_mooney1_questions","survey-likert","491","1511951","0.0-6.0-2.69","2883421","co38560","norming","","","{""curiosity"":1,""confidence"":5}","[0,1]","../img/tt/1250tt.jpg","",""
"4350.029999999795","","","recognition","survey-text","492","1516302","0.0-6.0-3.69","2883421","co38560","norming","","","{""guess"":""beer op rug""}","","../img/tt/1250tt.jpg","",""
"null","../img/gs/1250gs.jpg","null","reveal","image-keyboard-response","493","1518312","0.0-6.0-4.69","2883421","co38560","norming","","","","","","",""
"null","../img/tt/1250tt.jpg","null","mooney2","image-keyboard-response","494","1520323","0.0-6.0-5.69","2883421","co38560","norming","","","","","","",""
"2264.7149999993853","","","post_reveal_questions","survey-likert","495","1522591","0.0-6.0-6.69","2883421","co38560","norming","","","{""aha"":0}","[0]","../img/tt/1250tt.jpg","",""
"null","<div style=""font-size:60px;""> </div>","null","fixation","html-keyboard-response","496","1522792","0.0-6.0-0.70","2883421","co38560","norming","","","","","","",""
"null","../img/tt/1049tt.jpg","null","mooney1","image-keyboard-response","497","1525804","0.0-6.0-1.70","2883421","co38560","norming","","","","","","",""
"3758.7899999998044","","","post_mooney1_questions","survey-likert","498","1529567","0.0-6.0-2.70","2883421","co38560","norming","","","{""curiosity"":5,""confidence"":1}","[0,1]","../img/tt/1049tt.jpg","",""
"2030.010000000475","","","recognition","survey-text","499","1531598","0.0-6.0-3.70","2883421","co38560","norming","","","{""guess"":""vogel""}","","../img/tt/1049tt.jpg","",""
"null","../img/gs/1049gs.jpg","null","reveal","image-keyboard-response","500","1533605","0.0-6.0-4.70","2883421","co38560","norming","","","","","","",""
"null","../img/tt/1049tt.jpg","null","mooney2","image-keyboard-response","501","1535607","0.0-6.0-5.70","2883421","co38560","norming","","","","","","",""
"1908.3150000006426","","","post_reveal_questions","survey-likert","502","1537518","0.0-6.0-6.70","2883421","co38560","norming","","","{""aha"":0}","[0]","../img/tt/1049tt.jpg","",""
"null","<div style=""font-size:60px;""> </div>","null","fixation","html-keyboard-response","503","1537720","0.0-6.0-0.71","2883421","co38560","norming","","","","","","",""
"null","../img/tt/091tt.jpg","null","mooney1","image-keyboard-response","504","1540723","0.0-6.0-1.71","2883421","co38560","norming","","","","","","",""
"12831.78499999852","","","post_mooney1_questions","survey-likert","505","1553559","0.0-6.0-2.71","2883421","co38560","norming","","","{""curiosity"":6,""confidence"":0}","[0,1]","../img/tt/091tt.jpg","",""
"2614.1600000008475","","","recognition","survey-text","506","1556175","0.0-6.0-3.71","2883421","co38560","norming","","","{""guess"":""vos""}","","../img/tt/091tt.jpg","",""
"null","../img/gs/091gs.jpg","null","reveal","image-keyboard-response","507","1558181","0.0-6.0-4.71","2883421","co38560","norming","","","","","","",""
"null","../img/tt/091tt.jpg","null","mooney2","image-keyboard-response","508","1560188","0.0-6.0-5.71","2883421","co38560","norming","","","","","","",""
"1519.5849999999627","","","post_reveal_questions","survey-likert","509","1561710","0.0-6.0-6.71","2883421","co38560","norming","","","{""aha"":1}","[0]","../img/tt/091tt.jpg","",""
"null","<div style=""font-size:60px;""> </div>","null","fixation","html-keyboard-response","510","1561920","0.0-6.0-0.72","2883421","co38560","norming","","","","","","",""
"null","../img/tt/111tt.jpg","null","mooney1","image-keyboard-response","511","1564924","0.0-6.0-1.72","2883421","co38560","norming","","","","","","",""
"3750.730000001611","","","post_mooney1_questions","survey-likert","512","1568679","0.0-6.0-2.72","2883421","co38560","norming","","","{""curiosity"":1,""confidence"":6}","[0,1]","../img/tt/111tt.jpg","",""
"2774.235000000801","","","recognition","survey-text","513","1571454","0.0-6.0-3.72","2883421","co38560","norming","","","{""guess"":""shower""}","","../img/tt/111tt.jpg","",""
"null","../img/gs/111gs.jpg","null","reveal","image-keyboard-response","514","1573465","0.0-6.0-4.72","2883421","co38560","norming","","","","","","",""
"null","../img/tt/111tt.jpg","null","mooney2","image-keyboard-response","515","1575468","0.0-6.0-5.72","2883421","co38560","norming","","","","","","",""
"3791.430000001099","","","post_reveal_questions","survey-likert","516","1579262","0.0-6.0-6.72","2883421","co38560","norming","","","{""aha"":0}","[0]","../img/tt/111tt.jpg","",""
"null","<div style=""font-size:60px;""> </div>","null","fixation","html-keyboard-response","517","1579464","0.0-6.0-0.73","2883421","co38560","norming","","","","","","",""
"null","../img/tt/079tt.jpg","null","mooney1","image-keyboard-response","518","1582467","0.0-6.0-1.73","2883421","co38560","norming","","","","","","",""
"4616.304999999469","","","post_mooney1_questions","survey-likert","519","1587080","0.0-6.0-2.73","2883421","co38560","norming","","","{""curiosity"":2,""confidence"":5}","[0,1]","../img/tt/079tt.jpg","",""
"1582.2750000008382","","","recognition","survey-text","520","1588664","0.0-6.0-3.73","2883421","co38560","norming","","","{""guess"":""beer""}","","../img/tt/079tt.jpg","",""
"null","../img/gs/079gs.jpg","null","reveal","image-keyboard-response","521","1590670","0.0-6.0-4.73","2883421","co38560","norming","","","","","","",""
"null","../img/tt/079tt.jpg","null","mooney2","image-keyboard-response","522","1592672","0.0-6.0-5.73","2883421","co38560","norming","","","","","","",""
"1541.4899999997579","","","post_reveal_questions","survey-likert","523","1594216","0.0-6.0-6.73","2883421","co38560","norming","","","{""aha"":4}","[0]","../img/tt/079tt.jpg","",""
"null","<div style=""font-size:60px;""> </div>","null","fixation","html-keyboard-response","524","1594419","0.0-6.0-0.74","2883421","co38560","norming","","","","","","",""
"null","../img/tt/184tt.jpg","null","mooney1","image-keyboard-response","525","1597421","0.0-6.0-1.74","2883421","co38560","norming","","","","","","",""
"4367.829999999143","","","post_mooney1_questions","survey-likert","526","1601793","0.0-6.0-2.74","2883421","co38560","norming","","","{""curiosity"":6,""confidence"":3}","[0,1]","../img/tt/184tt.jpg","",""
"2566.0649999992456","","","recognition","survey-text","527","1604361","0.0-6.0-3.74","2883421","co38560","norming","","","{""guess"":""luiaard""}","","../img/tt/184tt.jpg","",""
"null","../img/gs/184gs.jpg","null","reveal","image-keyboard-response","528","1606362","0.0-6.0-4.74","2883421","co38560","norming","","","","","","",""
"null","../img/tt/184tt.jpg","null","mooney2","image-keyboard-response","529","1608364","0.0-6.0-5.74","2883421","co38560","norming","","","","","","",""
"1554.0100000000093","","","post_reveal_questions","survey-likert","530","1609920","0.0-6.0-6.74","2883421","co38560","norming","","","{""aha"":5}","[0]","../img/tt/184tt.jpg","",""
"null","<div style=""font-size:60px;""> </div>","null","fixation","html-keyboard-response","531","1610122","0.0-6.0-0.75","2883421","co38560","norming","","","","","","",""
"null","../img/tt/1143tt.jpg","null","mooney1","image-keyboard-response","532","1613125","0.0-6.0-1.75","2883421","co38560","norming","","","","","","",""
"5634.895000001183","","","post_mooney1_questions","survey-likert","533","1618761","0.0-6.0-2.75","2883421","co38560","norming","","","{""curiosity"":4,""confidence"":3}","[0,1]","../img/tt/1143tt.jpg","",""
"3581.985000000801","","","recognition","survey-text","534","1622344","0.0-6.0-3.75","2883421","co38560","norming","","","{""guess"":""gymzaal""}","","../img/tt/1143tt.jpg","",""
"null","../img/gs/1143gs.jpg","null","reveal","image-keyboard-response","535","1624346","0.0-6.0-4.75","2883421","co38560","norming","","","","","","",""
"null","../img/tt/1143tt.jpg","null","mooney2","image-keyboard-response","536","1626348","0.0-6.0-5.75","2883421","co38560","norming","","","","","","",""
"1618.2100000004284","","","post_reveal_questions","survey-likert","537","1627969","0.0-6.0-6.75","2883421","co38560","norming","","","{""aha"":2}","[0]","../img/tt/1143tt.jpg","",""
"null","<div style=""font-size:60px;""> </div>","null","fixation","html-keyboard-response","538","1628171","0.0-6.0-0.76","2883421","co38560","norming","","","","","","",""
"null","../img/tt/315tt.jpg","null","mooney1","image-keyboard-response","539","1631179","0.0-6.0-1.76","2883421","co38560","norming","","","","","","",""
"3412.8600000003353","","","post_mooney1_questions","survey-likert","540","1634593","0.0-6.0-2.76","2883421","co38560","norming","","","{""curiosity"":5,""confidence"":3}","[0,1]","../img/tt/315tt.jpg","",""
"2278.070000000298","","","recognition","survey-text","541","1636872","0.0-6.0-3.76","2883421","co38560","norming","","","{""guess"":""vogel""}","","../img/tt/315tt.jpg","",""
"null","../img/gs/315gs.jpg","null","reveal","image-keyboard-response","542","1638877","0.0-6.0-4.76","2883421","co38560","norming","","","","","","",""
"null","../img/tt/315tt.jpg","null","mooney2","image-keyboard-response","543","1640880","0.0-6.0-5.76","2883421","co38560","norming","","","","","","",""
"3366.369999999646","","","post_reveal_questions","survey-likert","544","1644248","0.0-6.0-6.76","2883421","co38560","norming","","","{""aha"":6}","[0]","../img/tt/315tt.jpg","",""
"null","<div style=""font-size:60px;""> </div>","null","fixation","html-keyboard-response","545","1644453","0.0-6.0-0.77","2883421","co38560","norming","","","","","","",""
"null","../img/tt/353tt.jpg","null","mooney1","image-keyboard-response","546","1647463","0.0-6.0-1.77","2883421","co38560","norming","","","","","","",""
"6045.020000001416","","","post_mooney1_questions","survey-likert","547","1653511","0.0-6.0-2.77","2883421","co38560","norming","","","{""curiosity"":6,""confidence"":0}","[0,1]","../img/tt/353tt.jpg","",""
"2517.8649999999907","","","recognition","survey-text","548","1656031","0.0-6.0-3.77","2883421","co38560","norming","","","{""guess"":""vogel""}","","../img/tt/353tt.jpg","",""
"null","../img/gs/353gs.jpg","null","reveal","image-keyboard-response","549","1658036","0.0-6.0-4.77","2883421","co38560","norming","","","","","","",""
"null","../img/tt/353tt.jpg","null","mooney2","image-keyboard-response","550","1660037","0.0-6.0-5.77","2883421","co38560","norming","","","","","","",""
"1975.4250000005122","","","post_reveal_questions","survey-likert","551","1662015","0.0-6.0-6.77","2883421","co38560","norming","","","{""aha"":1}","[0]","../img/tt/353tt.jpg","",""
