"rt","stimulus","key_press","test_part","trial_type","trial_index","time_elapsed","internal_node_id","totalTime","subject","experiment_name","button_pressed","success","responses","question_order","currentStim","old","correct"
"3635.50000000032","Welcome to the experiment. This is an online experiment so please don't close the tab/window until we say goodbye.  Press any key to begin.","72","instructions","html-keyboard-response","0","3651","0.0-0.0","3023585","co38134","norming","","","","","","",""
"2147.0599999993283","<div style='word-wrap: break-word; width: 900px'><h3>Please consider this information carefully before deciding whether to participate in this research</h3><ul style='text-align: left; font-size: .8em;'><li><b>Purpose of the research</b>: To examine how people process images.</li><li><b>What you will do in this research</b>:  Stimuli (images) will be presented on the computer and you will be asked different questions about them.</li><li><b>Time required</b>: Participation will take between 45 and 60 minutes to complete.</li><li><b>Risks</b>:  There are no anticipated risks associated with participating in this study. The effects of participating should be comparable to those you would experience from viewing a computer monitor for 30 minutes and using a mouse or keyboard.</li><li><b>Benefits</b>:  This study provides no benefits to you individually except for the credit. The study provides important information about the nature of perception and learning.</li><li><b>Confidentiality</b>:  Your participation in this study will remain confidential. No personally identifiable information will be associated with your data. Your de-identified data may be shared with other researchers and used in future projects.</li><li><b>Participation and withdrawal</b>:  Your participation in this study is completely voluntary and you may refuse to participate or you may choose to withdraw at any time without penalty.</li><li><b>How to contact the researchers</b>: If you have questions or concerns about your participation or payment, or want to request a summary of research findings, please contact Sander Van de Cruys (KU Leuven), at sander.vandecruys@kuleuven.be.</li></ul><p>The nature and purpose of this research have been sufficiently explained and I agree to participate in this study.  I understand that I am free to withdraw at any time without incurring any penalty.</p><p>Please consent by clicking the button below to continue. Otherwise, please exit the study at this time.</p></div>","","instructions","html-button-response","1","5801","0.0-1.0","3023585","co38134","norming","0","","","","","",""
"","","","instructions","fullscreen","2","11950","0.0-2.0","3023585","co38134","norming","","true","","","","",""
"19329.514999999446","","","sona","survey-html-form","3","31279","0.0-3.0","3023585","co38134","norming","","","[{""name"":""sonaid"",""value"":""38134""},{""name"":""debrief"",""value"":""yes""},{""name"":""datajoin"",""value"":""yes""}]","","","",""
"61819.44999999905","<div style='word-wrap: break-word; width: 900px'><h3>Instructions</h3><p>This experiment will have 3 parts. In the first part you will see a series of distorted images like the one below on the left. As you can see in the righthand image, the distorted images are derived from actual photographs. In what follows, you will <strong>briefly</strong> be presented with <strong>only</strong> the distorted image.</p> <div style='float: left; margin-right: 20px;'><img src='../img/018tt.jpg' height='250' width='250'></img></div><div style='float: right; margin-left: 20px;'><img src='../img/018gs.jpg' height='250' width='250'></img></div><p>Subsequently you will be asked a few questions about the image: One question on how <strong>curious</strong> you are about the solution and one on how <strong>confident</strong> you are that you know the solution.</p>Next, we ask you to make a guess on what is in the image. Note that it is OK to name just the <strong>basic level category</strong>. For example when you see a parrot in the image, 'parrot' will obviously be a correct answer but also correct is 'bird'. However, 'animal' will <strong>not</strong> be counted as a correct response. For the example above, 'rose' would be correct or 'flower', but not 'plant'. When soccer players are depicted, 'soccer', 'football', 'soccer players' will be correct, but not 'humans', 'outdoors', or 'sports'. You do not need to describe the image in full, just name the main object in it <strong>in one or two words</strong>. All images depict objects from one of the following broad level categories: animals, inanimate objects, plants, sports, vehicles, and food. Recognizing means knowing <strong>more</strong> than these broad labels for a given image. But we always encourage you to <strong>make a guess</strong> if you can. Note that you are allowed to use <strong>Dutch and English</strong> in your answers, whatever comes easiest for you.</p><p>Press any key to continue.</p></div>","70","instructions","html-keyboard-response","4","93103","0.0-4.0","3023585","co38134","norming","","","","","","",""
"189232.06000000026","<div style='word-wrap: break-word; width: 900px'><h3>Instructions</h3> <p>Next, the solution image will be revealed to you and you'll be asked to indicate how strong your <strong>aha-experience</strong> was after seeing the solution. This describes the positive feeling of the 'click' you sometimes experience, when the pieces of the 'puzzle' fall together and you suddenly have 'insight' in the image.</p><img src='aha.jpg' height='188' width='250'></img><p>Note that there are no right or wrong answers. We are interested in what <strong>you</strong> see in the image and how <strong>you</strong> feel about it.</p><p>Press any key to start the experiment.</p></div>","89","instructions","html-keyboard-response","5","282333","0.0-5.0","3023585","co38134","norming","","","","","","",""
"null","<div style=""font-size:60px;""> </div>","null","fixation","html-keyboard-response","6","282535","0.0-6.0-0.0","3023585","co38134","norming","","","","","","",""
"null","../img/tt/053tt.jpg","null","mooney1","image-keyboard-response","7","285538","0.0-6.0-1.0","3023585","co38134","norming","","","","","","",""
"18702.049999999872","","","post_mooney1_questions","survey-likert","8","304243","0.0-6.0-2.0","3023585","co38134","norming","","","{""curiosity"":3,""confidence"":1}","[0,1]","../img/tt/053tt.jpg","",""
"4293.490000000049","","","recognition","survey-text","9","308539","0.0-6.0-3.0","3023585","co38134","norming","","","{""guess"":""wapen""}","","../img/tt/053tt.jpg","",""
"null","../img/gs/053gs.jpg","null","reveal","image-keyboard-response","10","310541","0.0-6.0-4.0","3023585","co38134","norming","","","","","","",""
"null","../img/tt/053tt.jpg","null","mooney2","image-keyboard-response","11","312546","0.0-6.0-5.0","3023585","co38134","norming","","","","","","",""
"4991.135000000184","","","post_reveal_questions","survey-likert","12","317539","0.0-6.0-6.0","3023585","co38134","norming","","","{""aha"":4}","[0]","../img/tt/053tt.jpg","",""
"null","<div style=""font-size:60px;""> </div>","null","fixation","html-keyboard-response","13","317744","0.0-6.0-0.1","3023585","co38134","norming","","","","","","",""
"null","../img/tt/1272tt.jpg","null","mooney1","image-keyboard-response","14","320746","0.0-6.0-1.1","3023585","co38134","norming","","","","","","",""
"6239.369999999297","","","post_mooney1_questions","survey-likert","15","326987","0.0-6.0-2.1","3023585","co38134","norming","","","{""curiosity"":4,""confidence"":0}","[0,1]","../img/tt/1272tt.jpg","",""
"4230.054999999993","","","recognition","survey-text","16","331219","0.0-6.0-3.1","3023585","co38134","norming","","","{""guess"":""""}","","../img/tt/1272tt.jpg","",""
"null","../img/gs/1272gs.jpg","null","reveal","image-keyboard-response","17","333225","0.0-6.0-4.1","3023585","co38134","norming","","","","","","",""
"null","../img/tt/1272tt.jpg","null","mooney2","image-keyboard-response","18","335234","0.0-6.0-5.1","3023585","co38134","norming","","","","","","",""
"4055.5299999996787","","","post_reveal_questions","survey-likert","19","339291","0.0-6.0-6.1","3023585","co38134","norming","","","{""aha"":4}","[0]","../img/tt/1272tt.jpg","",""
"null","<div style=""font-size:60px;""> </div>","null","fixation","html-keyboard-response","20","339498","0.0-6.0-0.2","3023585","co38134","norming","","","","","","",""
"null","../img/tt/406tt.jpg","null","mooney1","image-keyboard-response","21","342517","0.0-6.0-1.2","3023585","co38134","norming","","","","","","",""
"9869.130000000936","","","post_mooney1_questions","survey-likert","22","352387","0.0-6.0-2.2","3023585","co38134","norming","","","{""curiosity"":4,""confidence"":1}","[0,1]","../img/tt/406tt.jpg","",""
"4838.229999999399","","","recognition","survey-text","23","357227","0.0-6.0-3.2","3023585","co38134","norming","","","{""guess"":""vleermuis""}","","../img/tt/406tt.jpg","",""
"null","../img/gs/406gs.jpg","null","reveal","image-keyboard-response","24","359229","0.0-6.0-4.2","3023585","co38134","norming","","","","","","",""
"null","../img/tt/406tt.jpg","null","mooney2","image-keyboard-response","25","361231","0.0-6.0-5.2","3023585","co38134","norming","","","","","","",""
"3642.2050000000745","","","post_reveal_questions","survey-likert","26","364875","0.0-6.0-6.2","3023585","co38134","norming","","","{""aha"":2}","[0]","../img/tt/406tt.jpg","",""
"null","<div style=""font-size:60px;""> </div>","null","fixation","html-keyboard-response","27","365081","0.0-6.0-0.3","3023585","co38134","norming","","","","","","",""
"null","../img/tt/1243tt.jpg","null","mooney1","image-keyboard-response","28","368090","0.0-6.0-1.3","3023585","co38134","norming","","","","","","",""
"11215.89499999932","","","post_mooney1_questions","survey-likert","29","379307","0.0-6.0-2.3","3023585","co38134","norming","","","{""curiosity"":4,""confidence"":0}","[0,1]","../img/tt/1243tt.jpg","",""
"3822.2650000007125","","","recognition","survey-text","30","383131","0.0-6.0-3.3","3023585","co38134","norming","","","{""guess"":""kooi""}","","../img/tt/1243tt.jpg","",""
"null","../img/gs/1243gs.jpg","null","reveal","image-keyboard-response","31","385133","0.0-6.0-4.3","3023585","co38134","norming","","","","","","",""
"null","../img/tt/1243tt.jpg","null","mooney2","image-keyboard-response","32","387136","0.0-6.0-5.3","3023585","co38134","norming","","","","","","",""
"5001.385000001406","","","post_reveal_questions","survey-likert","33","392139","0.0-6.0-6.3","3023585","co38134","norming","","","{""aha"":2}","[0]","../img/tt/1243tt.jpg","",""
"null","<div style=""font-size:60px;""> </div>","null","fixation","html-keyboard-response","34","392347","0.0-6.0-0.4","3023585","co38134","norming","","","","","","",""
"null","../img/tt/307tt.jpg","null","mooney1","image-keyboard-response","35","395356","0.0-6.0-1.4","3023585","co38134","norming","","","","","","",""
"9244.950000000244","","","post_mooney1_questions","survey-likert","36","404599","0.0-6.0-2.4","3023585","co38134","norming","","","{""curiosity"":4,""confidence"":0}","[0,1]","../img/tt/307tt.jpg","",""
"4894.040000001027","","","recognition","survey-text","37","409495","0.0-6.0-3.4","3023585","co38134","norming","","","{""guess"":""dolfijn""}","","../img/tt/307tt.jpg","",""
"null","../img/gs/307gs.jpg","null","reveal","image-keyboard-response","38","411502","0.0-6.0-4.4","3023585","co38134","norming","","","","","","",""
"null","../img/tt/307tt.jpg","null","mooney2","image-keyboard-response","39","413510","0.0-6.0-5.4","3023585","co38134","norming","","","","","","",""
"3711.3950000002515","","","post_reveal_questions","survey-likert","40","417223","0.0-6.0-6.4","3023585","co38134","norming","","","{""aha"":4}","[0]","../img/tt/307tt.jpg","",""
"null","<div style=""font-size:60px;""> </div>","null","fixation","html-keyboard-response","41","417426","0.0-6.0-0.5","3023585","co38134","norming","","","","","","",""
"null","../img/tt/1072tt.jpg","null","mooney1","image-keyboard-response","42","420433","0.0-6.0-1.5","3023585","co38134","norming","","","","","","",""
"4789.190000001283","","","post_mooney1_questions","survey-likert","43","425223","0.0-6.0-2.5","3023585","co38134","norming","","","{""curiosity"":5,""confidence"":0}","[0,1]","../img/tt/1072tt.jpg","",""
"1053.8949999990873","","","recognition","survey-text","44","426279","0.0-6.0-3.5","3023585","co38134","norming","","","{""guess"":""""}","","../img/tt/1072tt.jpg","",""
"null","../img/gs/1072gs.jpg","null","reveal","image-keyboard-response","45","428284","0.0-6.0-4.5","3023585","co38134","norming","","","","","","",""
"null","../img/tt/1072tt.jpg","null","mooney2","image-keyboard-response","46","430294","0.0-6.0-5.5","3023585","co38134","norming","","","","","","",""
"3055.8100000016275","","","post_reveal_questions","survey-likert","47","433351","0.0-6.0-6.5","3023585","co38134","norming","","","{""aha"":4}","[0]","../img/tt/1072tt.jpg","",""
"null","<div style=""font-size:60px;""> </div>","null","fixation","html-keyboard-response","48","433558","0.0-6.0-0.6","3023585","co38134","norming","","","","","","",""
"null","../img/tt/1043tt.jpg","null","mooney1","image-keyboard-response","49","436560","0.0-6.0-1.6","3023585","co38134","norming","","","","","","",""
"7325.344999999274","","","post_mooney1_questions","survey-likert","50","443887","0.0-6.0-2.6","3023585","co38134","norming","","","{""curiosity"":5,""confidence"":0}","[0,1]","../img/tt/1043tt.jpg","",""
"1237.9899999996414","","","recognition","survey-text","51","445127","0.0-6.0-3.6","3023585","co38134","norming","","","{""guess"":""""}","","../img/tt/1043tt.jpg","",""
"null","../img/gs/1043gs.jpg","null","reveal","image-keyboard-response","52","447137","0.0-6.0-4.6","3023585","co38134","norming","","","","","","",""
"null","../img/tt/1043tt.jpg","null","mooney2","image-keyboard-response","53","449138","0.0-6.0-5.6","3023585","co38134","norming","","","","","","",""
"2371.2250000007916","","","post_reveal_questions","survey-likert","54","451511","0.0-6.0-6.6","3023585","co38134","norming","","","{""aha"":5}","[0]","../img/tt/1043tt.jpg","",""
"null","<div style=""font-size:60px;""> </div>","null","fixation","html-keyboard-response","55","451716","0.0-6.0-0.7","3023585","co38134","norming","","","","","","",""
"null","../img/tt/184tt.jpg","null","mooney1","image-keyboard-response","56","454726","0.0-6.0-1.7","3023585","co38134","norming","","","","","","",""
"4670.780000000377","","","post_mooney1_questions","survey-likert","57","459399","0.0-6.0-2.7","3023585","co38134","norming","","","{""curiosity"":5,""confidence"":0}","[0,1]","../img/tt/184tt.jpg","",""
"2886.034999999567","","","recognition","survey-text","58","462287","0.0-6.0-3.7","3023585","co38134","norming","","","{""guess"":""wolf""}","","../img/tt/184tt.jpg","",""
"null","../img/gs/184gs.jpg","null","reveal","image-keyboard-response","59","464297","0.0-6.0-4.7","3023585","co38134","norming","","","","","","",""
"null","../img/tt/184tt.jpg","null","mooney2","image-keyboard-response","60","466302","0.0-6.0-5.7","3023585","co38134","norming","","","","","","",""
"4212.12000000017","","","post_reveal_questions","survey-likert","61","470516","0.0-6.0-6.7","3023585","co38134","norming","","","{""aha"":5}","[0]","../img/tt/184tt.jpg","",""
"null","<div style=""font-size:60px;""> </div>","null","fixation","html-keyboard-response","62","470721","0.0-6.0-0.8","3023585","co38134","norming","","","","","","",""
"null","../img/tt/1125tt.jpg","null","mooney1","image-keyboard-response","63","473729","0.0-6.0-1.8","3023585","co38134","norming","","","","","","",""
"10088.490000000049","","","post_mooney1_questions","survey-likert","64","483820","0.0-6.0-2.8","3023585","co38134","norming","","","{""curiosity"":4,""confidence"":1}","[0,1]","../img/tt/1125tt.jpg","",""
"4382.050000000163","","","recognition","survey-text","65","488203","0.0-6.0-3.8","3023585","co38134","norming","","","{""guess"":""voetballer""}","","../img/tt/1125tt.jpg","",""
"null","../img/gs/1125gs.jpg","null","reveal","image-keyboard-response","66","490208","0.0-6.0-4.8","3023585","co38134","norming","","","","","","",""
"null","../img/tt/1125tt.jpg","null","mooney2","image-keyboard-response","67","492216","0.0-6.0-5.8","3023585","co38134","norming","","","","","","",""
"2921.11500000098","","","post_reveal_questions","survey-likert","68","495139","0.0-6.0-6.8","3023585","co38134","norming","","","{""aha"":4}","[0]","../img/tt/1125tt.jpg","",""
"null","<div style=""font-size:60px;""> </div>","null","fixation","html-keyboard-response","69","495349","0.0-6.0-0.9","3023585","co38134","norming","","","","","","",""
"null","../img/tt/329tt.jpg","null","mooney1","image-keyboard-response","70","498357","0.0-6.0-1.9","3023585","co38134","norming","","","","","","",""
"8132.289999999572","","","post_mooney1_questions","survey-likert","71","506492","0.0-6.0-2.9","3023585","co38134","norming","","","{""curiosity"":5,""confidence"":1}","[0,1]","../img/tt/329tt.jpg","",""
"3806.3149999998277","","","recognition","survey-text","72","510299","0.0-6.0-3.9","3023585","co38134","norming","","","{""guess"":""oude man""}","","../img/tt/329tt.jpg","",""
"null","../img/gs/329gs.jpg","null","reveal","image-keyboard-response","73","512301","0.0-6.0-4.9","3023585","co38134","norming","","","","","","",""
"null","../img/tt/329tt.jpg","null","mooney2","image-keyboard-response","74","514309","0.0-6.0-5.9","3023585","co38134","norming","","","","","","",""
"2476.429999998829","","","post_reveal_questions","survey-likert","75","516788","0.0-6.0-6.9","3023585","co38134","norming","","","{""aha"":5}","[0]","../img/tt/329tt.jpg","",""
"null","<div style=""font-size:60px;""> </div>","null","fixation","html-keyboard-response","76","516992","0.0-6.0-0.10","3023585","co38134","norming","","","","","","",""
"null","../img/tt/567tt.jpg","null","mooney1","image-keyboard-response","77","519999","0.0-6.0-1.10","3023585","co38134","norming","","","","","","",""
"4194.390000000538","","","post_mooney1_questions","survey-likert","78","524196","0.0-6.0-2.10","3023585","co38134","norming","","","{""curiosity"":5,""confidence"":0}","[0,1]","../img/tt/567tt.jpg","",""
"7892.769999998505","","","recognition","survey-text","79","532092","0.0-6.0-3.10","3023585","co38134","norming","","","{""guess"":""nietjesmachine""}","","../img/tt/567tt.jpg","",""
"null","../img/gs/567gs.jpg","null","reveal","image-keyboard-response","80","534096","0.0-6.0-4.10","3023585","co38134","norming","","","","","","",""
"null","../img/tt/567tt.jpg","null","mooney2","image-keyboard-response","81","536097","0.0-6.0-5.10","3023585","co38134","norming","","","","","","",""
"9105.369999999297","","","post_reveal_questions","survey-likert","82","545204","0.0-6.0-6.10","3023585","co38134","norming","","","{""aha"":4}","[0]","../img/tt/567tt.jpg","",""
"null","<div style=""font-size:60px;""> </div>","null","fixation","html-keyboard-response","83","545410","0.0-6.0-0.11","3023585","co38134","norming","","","","","","",""
"null","../img/tt/1130tt.jpg","null","mooney1","image-keyboard-response","84","548413","0.0-6.0-1.11","3023585","co38134","norming","","","","","","",""
"4118.534999999567","","","post_mooney1_questions","survey-likert","85","552532","0.0-6.0-2.11","3023585","co38134","norming","","","{""curiosity"":5,""confidence"":0}","[0,1]","../img/tt/1130tt.jpg","",""
"1309.8549999995157","","","recognition","survey-text","86","553844","0.0-6.0-3.11","3023585","co38134","norming","","","{""guess"":""""}","","../img/tt/1130tt.jpg","",""
"null","../img/gs/1130gs.jpg","null","reveal","image-keyboard-response","87","555845","0.0-6.0-4.11","3023585","co38134","norming","","","","","","",""
"null","../img/tt/1130tt.jpg","null","mooney2","image-keyboard-response","88","557847","0.0-6.0-5.11","3023585","co38134","norming","","","","","","",""
"2539.5900000003166","","","post_reveal_questions","survey-likert","89","560388","0.0-6.0-6.11","3023585","co38134","norming","","","{""aha"":5}","[0]","../img/tt/1130tt.jpg","",""
"null","<div style=""font-size:60px;""> </div>","null","fixation","html-keyboard-response","90","560598","0.0-6.0-0.12","3023585","co38134","norming","","","","","","",""
"null","../img/tt/1070tt.jpg","null","mooney1","image-keyboard-response","91","563607","0.0-6.0-1.12","3023585","co38134","norming","","","","","","",""
"7834.775000001187","","","post_mooney1_questions","survey-likert","92","571444","0.0-6.0-2.12","3023585","co38134","norming","","","{""curiosity"":4,""confidence"":1}","[0,1]","../img/tt/1070tt.jpg","",""
"4182.004999998724","","","recognition","survey-text","93","575628","0.0-6.0-3.12","3023585","co38134","norming","","","{""guess"":""sandwich""}","","../img/tt/1070tt.jpg","",""
"null","../img/gs/1070gs.jpg","null","reveal","image-keyboard-response","94","577629","0.0-6.0-4.12","3023585","co38134","norming","","","","","","",""
"null","../img/tt/1070tt.jpg","null","mooney2","image-keyboard-response","95","579637","0.0-6.0-5.12","3023585","co38134","norming","","","","","","",""
"2813.3749999996508","","","post_reveal_questions","survey-likert","96","582452","0.0-6.0-6.12","3023585","co38134","norming","","","{""aha"":4}","[0]","../img/tt/1070tt.jpg","",""
"null","<div style=""font-size:60px;""> </div>","null","fixation","html-keyboard-response","97","582655","0.0-6.0-0.13","3023585","co38134","norming","","","","","","",""
"null","../img/tt/1270tt.jpg","null","mooney1","image-keyboard-response","98","585664","0.0-6.0-1.13","3023585","co38134","norming","","","","","","",""
"3770.0949999998556","","","post_mooney1_questions","survey-likert","99","589437","0.0-6.0-2.13","3023585","co38134","norming","","","{""curiosity"":4,""confidence"":1}","[0,1]","../img/tt/1270tt.jpg","",""
"2166.1399999993155","","","recognition","survey-text","100","591604","0.0-6.0-3.13","3023585","co38134","norming","","","{""guess"":""vis""}","","../img/tt/1270tt.jpg","",""
"null","../img/gs/1270gs.jpg","null","reveal","image-keyboard-response","101","593605","0.0-6.0-4.13","3023585","co38134","norming","","","","","","",""
"null","../img/tt/1270tt.jpg","null","mooney2","image-keyboard-response","102","595607","0.0-6.0-5.13","3023585","co38134","norming","","","","","","",""
"5299.890000000247","","","post_reveal_questions","survey-likert","103","600908","0.0-6.0-6.13","3023585","co38134","norming","","","{""aha"":5}","[0]","../img/tt/1270tt.jpg","",""
"null","<div style=""font-size:60px;""> </div>","null","fixation","html-keyboard-response","104","601112","0.0-6.0-0.14","3023585","co38134","norming","","","","","","",""
"null","../img/tt/1353tt.jpg","null","mooney1","image-keyboard-response","105","604122","0.0-6.0-1.14","3023585","co38134","norming","","","","","","",""
"7296.425000000512","","","post_mooney1_questions","survey-likert","106","611421","0.0-6.0-2.14","3023585","co38134","norming","","","{""curiosity"":5,""confidence"":1}","[0,1]","../img/tt/1353tt.jpg","",""
"2997.7450000005774","","","recognition","survey-text","107","614420","0.0-6.0-3.14","3023585","co38134","norming","","","{""guess"":""vlinder""}","","../img/tt/1353tt.jpg","",""
"null","../img/gs/1353gs.jpg","null","reveal","image-keyboard-response","108","616423","0.0-6.0-4.14","3023585","co38134","norming","","","","","","",""
"null","../img/tt/1353tt.jpg","null","mooney2","image-keyboard-response","109","618430","0.0-6.0-5.14","3023585","co38134","norming","","","","","","",""
"3309.0249999986263","","","post_reveal_questions","survey-likert","110","621740","0.0-6.0-6.14","3023585","co38134","norming","","","{""aha"":5}","[0]","../img/tt/1353tt.jpg","",""
"null","<div style=""font-size:60px;""> </div>","null","fixation","html-keyboard-response","111","621943","0.0-6.0-0.15","3023585","co38134","norming","","","","","","",""
"null","../img/tt/405tt.jpg","null","mooney1","image-keyboard-response","112","624945","0.0-6.0-1.15","3023585","co38134","norming","","","","","","",""
"5153.360000000219","","","post_mooney1_questions","survey-likert","113","630101","0.0-6.0-2.15","3023585","co38134","norming","","","{""curiosity"":5,""confidence"":0}","[0,1]","../img/tt/405tt.jpg","",""
"949.9899999991758","","","recognition","survey-text","114","631052","0.0-6.0-3.15","3023585","co38134","norming","","","{""guess"":""""}","","../img/tt/405tt.jpg","",""
"null","../img/gs/405gs.jpg","null","reveal","image-keyboard-response","115","633054","0.0-6.0-4.15","3023585","co38134","norming","","","","","","",""
"null","../img/tt/405tt.jpg","null","mooney2","image-keyboard-response","116","635055","0.0-6.0-5.15","3023585","co38134","norming","","","","","","",""
"3187.930000000051","","","post_reveal_questions","survey-likert","117","638244","0.0-6.0-6.15","3023585","co38134","norming","","","{""aha"":5}","[0]","../img/tt/405tt.jpg","",""
"null","<div style=""font-size:60px;""> </div>","null","fixation","html-keyboard-response","118","638447","0.0-6.0-0.16","3023585","co38134","norming","","","","","","",""
"null","../img/tt/517tt.jpg","null","mooney1","image-keyboard-response","119","641453","0.0-6.0-1.16","3023585","co38134","norming","","","","","","",""
"3701.82500000007","","","post_mooney1_questions","survey-likert","120","645157","0.0-6.0-2.16","3023585","co38134","norming","","","{""curiosity"":5,""confidence"":1}","[0,1]","../img/tt/517tt.jpg","",""
"2814.0149999998976","","","recognition","survey-text","121","647971","0.0-6.0-3.16","3023585","co38134","norming","","","{""guess"":""panda""}","","../img/tt/517tt.jpg","",""
"null","../img/gs/517gs.jpg","null","reveal","image-keyboard-response","122","649974","0.0-6.0-4.16","3023585","co38134","norming","","","","","","",""
"null","../img/tt/517tt.jpg","null","mooney2","image-keyboard-response","123","651977","0.0-6.0-5.16","3023585","co38134","norming","","","","","","",""
"2760.459999999497","","","post_reveal_questions","survey-likert","124","654739","0.0-6.0-6.16","3023585","co38134","norming","","","{""aha"":3}","[0]","../img/tt/517tt.jpg","",""
"null","<div style=""font-size:60px;""> </div>","null","fixation","html-keyboard-response","125","654946","0.0-6.0-0.17","3023585","co38134","norming","","","","","","",""
"null","../img/tt/060tt.jpg","null","mooney1","image-keyboard-response","126","657948","0.0-6.0-1.17","3023585","co38134","norming","","","","","","",""
"4988.714999999502","","","post_mooney1_questions","survey-likert","127","662939","0.0-6.0-2.17","3023585","co38134","norming","","","{""curiosity"":4,""confidence"":1}","[0,1]","../img/tt/060tt.jpg","",""
"4254.20499999926","","","recognition","survey-text","128","667195","0.0-6.0-3.17","3023585","co38134","norming","","","{""guess"":""sandwich""}","","../img/tt/060tt.jpg","",""
"null","../img/gs/060gs.jpg","null","reveal","image-keyboard-response","129","669200","0.0-6.0-4.17","3023585","co38134","norming","","","","","","",""
"null","../img/tt/060tt.jpg","null","mooney2","image-keyboard-response","130","671201","0.0-6.0-5.17","3023585","co38134","norming","","","","","","",""
"4016.1300000000047","","","post_reveal_questions","survey-likert","131","675219","0.0-6.0-6.17","3023585","co38134","norming","","","{""aha"":3}","[0]","../img/tt/060tt.jpg","",""
"null","<div style=""font-size:60px;""> </div>","null","fixation","html-keyboard-response","132","675426","0.0-6.0-0.18","3023585","co38134","norming","","","","","","",""
"null","../img/tt/580tt.jpg","null","mooney1","image-keyboard-response","133","678429","0.0-6.0-1.18","3023585","co38134","norming","","","","","","",""
"7260.895000001299","","","post_mooney1_questions","survey-likert","134","685691","0.0-6.0-2.18","3023585","co38134","norming","","","{""curiosity"":5,""confidence"":0}","[0,1]","../img/tt/580tt.jpg","",""
"1190.0800000003073","","","recognition","survey-text","135","686883","0.0-6.0-3.18","3023585","co38134","norming","","","{""guess"":""""}","","../img/tt/580tt.jpg","",""
"null","../img/gs/580gs.jpg","null","reveal","image-keyboard-response","136","688885","0.0-6.0-4.18","3023585","co38134","norming","","","","","","",""
"null","../img/tt/580tt.jpg","null","mooney2","image-keyboard-response","137","690892","0.0-6.0-5.18","3023585","co38134","norming","","","","","","",""
"2692.650000000838","","","post_reveal_questions","survey-likert","138","693587","0.0-6.0-6.18","3023585","co38134","norming","","","{""aha"":4}","[0]","../img/tt/580tt.jpg","",""
"null","<div style=""font-size:60px;""> </div>","null","fixation","html-keyboard-response","139","693793","0.0-6.0-0.19","3023585","co38134","norming","","","","","","",""
"null","../img/tt/194tt.jpg","null","mooney1","image-keyboard-response","140","696803","0.0-6.0-1.19","3023585","co38134","norming","","","","","","",""
"7389.714999999385","","","post_mooney1_questions","survey-likert","141","704195","0.0-6.0-2.19","3023585","co38134","norming","","","{""curiosity"":5,""confidence"":0}","[0,1]","../img/tt/194tt.jpg","",""
"981.69999999844","","","recognition","survey-text","142","705179","0.0-6.0-3.19","3023585","co38134","norming","","","{""guess"":""""}","","../img/tt/194tt.jpg","",""
"null","../img/gs/194gs.jpg","null","reveal","image-keyboard-response","143","707195","0.0-6.0-4.19","3023585","co38134","norming","","","","","","",""
"null","../img/tt/194tt.jpg","null","mooney2","image-keyboard-response","144","709201","0.0-6.0-5.19","3023585","co38134","norming","","","","","","",""
"3926.4849999998696","","","post_reveal_questions","survey-likert","145","713129","0.0-6.0-6.19","3023585","co38134","norming","","","{""aha"":4}","[0]","../img/tt/194tt.jpg","",""
"null","<div style=""font-size:60px;""> </div>","null","fixation","html-keyboard-response","146","713337","0.0-6.0-0.20","3023585","co38134","norming","","","","","","",""
"null","../img/tt/108tt.jpg","null","mooney1","image-keyboard-response","147","716344","0.0-6.0-1.20","3023585","co38134","norming","","","","","","",""
"7758.625000000466","","","post_mooney1_questions","survey-likert","148","724105","0.0-6.0-2.20","3023585","co38134","norming","","","{""curiosity"":5,""confidence"":0}","[0,1]","../img/tt/108tt.jpg","",""
"838.0149999994319","","","recognition","survey-text","149","724945","0.0-6.0-3.20","3023585","co38134","norming","","","{""guess"":""""}","","../img/tt/108tt.jpg","",""
"null","../img/gs/108gs.jpg","null","reveal","image-keyboard-response","150","726947","0.0-6.0-4.20","3023585","co38134","norming","","","","","","",""
"null","../img/tt/108tt.jpg","null","mooney2","image-keyboard-response","151","728949","0.0-6.0-5.20","3023585","co38134","norming","","","","","","",""
"4434.289999999222","","","post_reveal_questions","survey-likert","152","733385","0.0-6.0-6.20","3023585","co38134","norming","","","{""aha"":4}","[0]","../img/tt/108tt.jpg","",""
"null","<div style=""font-size:60px;""> </div>","null","fixation","html-keyboard-response","153","733595","0.0-6.0-0.21","3023585","co38134","norming","","","","","","",""
"null","../img/tt/380tt.jpg","null","mooney1","image-keyboard-response","154","736606","0.0-6.0-1.21","3023585","co38134","norming","","","","","","",""
"5209.420000000973","","","post_mooney1_questions","survey-likert","155","741817","0.0-6.0-2.21","3023585","co38134","norming","","","{""curiosity"":4,""confidence"":1}","[0,1]","../img/tt/380tt.jpg","",""
"3549.9000000000233","","","recognition","survey-text","156","745369","0.0-6.0-3.21","3023585","co38134","norming","","","{""guess"":""kangoeroe""}","","../img/tt/380tt.jpg","",""
"null","../img/gs/380gs.jpg","null","reveal","image-keyboard-response","157","747372","0.0-6.0-4.21","3023585","co38134","norming","","","","","","",""
"null","../img/tt/380tt.jpg","null","mooney2","image-keyboard-response","158","749382","0.0-6.0-5.21","3023585","co38134","norming","","","","","","",""
"2770.324999999604","","","post_reveal_questions","survey-likert","159","752153","0.0-6.0-6.21","3023585","co38134","norming","","","{""aha"":5}","[0]","../img/tt/380tt.jpg","",""
"null","<div style=""font-size:60px;""> </div>","null","fixation","html-keyboard-response","160","752355","0.0-6.0-0.22","3023585","co38134","norming","","","","","","",""
"null","../img/tt/1307tt.jpg","null","mooney1","image-keyboard-response","161","755361","0.0-6.0-1.22","3023585","co38134","norming","","","","","","",""
"5069.654999999329","","","post_mooney1_questions","survey-likert","162","760433","0.0-6.0-2.22","3023585","co38134","norming","","","{""curiosity"":5,""confidence"":1}","[0,1]","../img/tt/1307tt.jpg","",""
"3437.8999999989755","","","recognition","survey-text","163","763873","0.0-6.0-3.22","3023585","co38134","norming","","","{""guess"":""waaier""}","","../img/tt/1307tt.jpg","",""
"null","../img/gs/1307gs.jpg","null","reveal","image-keyboard-response","164","765881","0.0-6.0-4.22","3023585","co38134","norming","","","","","","",""
"null","../img/tt/1307tt.jpg","null","mooney2","image-keyboard-response","165","767888","0.0-6.0-5.22","3023585","co38134","norming","","","","","","",""
"2752.619999999297","","","post_reveal_questions","survey-likert","166","770643","0.0-6.0-6.22","3023585","co38134","norming","","","{""aha"":4}","[0]","../img/tt/1307tt.jpg","",""
"null","<div style=""font-size:60px;""> </div>","null","fixation","html-keyboard-response","167","770848","0.0-6.0-0.23","3023585","co38134","norming","","","","","","",""
"null","../img/tt/1146tt.jpg","null","mooney1","image-keyboard-response","168","773858","0.0-6.0-1.23","3023585","co38134","norming","","","","","","",""
"5495.39999999979","","","post_mooney1_questions","survey-likert","169","779355","0.0-6.0-2.23","3023585","co38134","norming","","","{""curiosity"":5,""confidence"":0}","[0,1]","../img/tt/1146tt.jpg","",""
"790.0300000001444","","","recognition","survey-text","170","780147","0.0-6.0-3.23","3023585","co38134","norming","","","{""guess"":""""}","","../img/tt/1146tt.jpg","",""
"null","../img/gs/1146gs.jpg","null","reveal","image-keyboard-response","171","782152","0.0-6.0-4.23","3023585","co38134","norming","","","","","","",""
"null","../img/tt/1146tt.jpg","null","mooney2","image-keyboard-response","172","784153","0.0-6.0-5.23","3023585","co38134","norming","","","","","","",""
"2249.2349999992875","","","post_reveal_questions","survey-likert","173","786403","0.0-6.0-6.23","3023585","co38134","norming","","","{""aha"":5}","[0]","../img/tt/1146tt.jpg","",""
"null","<div style=""font-size:60px;""> </div>","null","fixation","html-keyboard-response","174","786612","0.0-6.0-0.24","3023585","co38134","norming","","","","","","",""
"null","../img/tt/126tt.jpg","null","mooney1","image-keyboard-response","175","789620","0.0-6.0-1.24","3023585","co38134","norming","","","","","","",""
"5772.8050000004005","","","post_mooney1_questions","survey-likert","176","795395","0.0-6.0-2.24","3023585","co38134","norming","","","{""curiosity"":4,""confidence"":1}","[0,1]","../img/tt/126tt.jpg","",""
"2501.8749999998836","","","recognition","survey-text","177","797899","0.0-6.0-3.24","3023585","co38134","norming","","","{""guess"":""hond""}","","../img/tt/126tt.jpg","",""
"null","../img/gs/126gs.jpg","null","reveal","image-keyboard-response","178","799907","0.0-6.0-4.24","3023585","co38134","norming","","","","","","",""
"null","../img/tt/126tt.jpg","null","mooney2","image-keyboard-response","179","801918","0.0-6.0-5.24","3023585","co38134","norming","","","","","","",""
"3922.5049999986077","","","post_reveal_questions","survey-likert","180","805843","0.0-6.0-6.24","3023585","co38134","norming","","","{""aha"":4}","[0]","../img/tt/126tt.jpg","",""
"null","<div style=""font-size:60px;""> </div>","null","fixation","html-keyboard-response","181","806049","0.0-6.0-0.25","3023585","co38134","norming","","","","","","",""
"null","../img/tt/590tt.jpg","null","mooney1","image-keyboard-response","182","809060","0.0-6.0-1.25","3023585","co38134","norming","","","","","","",""
"6820.789999999688","","","post_mooney1_questions","survey-likert","183","815883","0.0-6.0-2.25","3023585","co38134","norming","","","{""curiosity"":4,""confidence"":1}","[0,1]","../img/tt/590tt.jpg","",""
"3454.1150000004563","","","recognition","survey-text","184","819339","0.0-6.0-3.25","3023585","co38134","norming","","","{""guess"":""handtas""}","","../img/tt/590tt.jpg","",""
"null","../img/gs/590gs.jpg","null","reveal","image-keyboard-response","185","821342","0.0-6.0-4.25","3023585","co38134","norming","","","","","","",""
"null","../img/tt/590tt.jpg","null","mooney2","image-keyboard-response","186","823345","0.0-6.0-5.25","3023585","co38134","norming","","","","","","",""
"3664.5549999993527","","","post_reveal_questions","survey-likert","187","827011","0.0-6.0-6.25","3023585","co38134","norming","","","{""aha"":4}","[0]","../img/tt/590tt.jpg","",""
"null","<div style=""font-size:60px;""> </div>","null","fixation","html-keyboard-response","188","827221","0.0-6.0-0.26","3023585","co38134","norming","","","","","","",""
"null","../img/tt/118tt.jpg","null","mooney1","image-keyboard-response","189","830225","0.0-6.0-1.26","3023585","co38134","norming","","","","","","",""
"6201.960000000312","","","post_mooney1_questions","survey-likert","190","836429","0.0-6.0-2.26","3023585","co38134","norming","","","{""curiosity"":4,""confidence"":1}","[0,1]","../img/tt/118tt.jpg","",""
"2174.279999999213","","","recognition","survey-text","191","838605","0.0-6.0-3.26","3023585","co38134","norming","","","{""guess"":""kar""}","","../img/tt/118tt.jpg","",""
"null","../img/gs/118gs.jpg","null","reveal","image-keyboard-response","192","840616","0.0-6.0-4.26","3023585","co38134","norming","","","","","","",""
"null","../img/tt/118tt.jpg","null","mooney2","image-keyboard-response","193","842624","0.0-6.0-5.26","3023585","co38134","norming","","","","","","",""
"4291.629999999772","","","post_reveal_questions","survey-likert","194","846917","0.0-6.0-6.26","3023585","co38134","norming","","","{""aha"":4}","[0]","../img/tt/118tt.jpg","",""
"null","<div style=""font-size:60px;""> </div>","null","fixation","html-keyboard-response","195","847120","0.0-6.0-0.27","3023585","co38134","norming","","","","","","",""
"null","../img/tt/598tt.jpg","null","mooney1","image-keyboard-response","196","850125","0.0-6.0-1.27","3023585","co38134","norming","","","","","","",""
"5126.4850000006845","","","post_mooney1_questions","survey-likert","197","855253","0.0-6.0-2.27","3023585","co38134","norming","","","{""curiosity"":6,""confidence"":0}","[0,1]","../img/tt/598tt.jpg","",""
"942.0900000005495","","","recognition","survey-text","198","856197","0.0-6.0-3.27","3023585","co38134","norming","","","{""guess"":""""}","","../img/tt/598tt.jpg","",""
"null","../img/gs/598gs.jpg","null","reveal","image-keyboard-response","199","858199","0.0-6.0-4.27","3023585","co38134","norming","","","","","","",""
"null","../img/tt/598tt.jpg","null","mooney2","image-keyboard-response","200","860201","0.0-6.0-5.27","3023585","co38134","norming","","","","","","",""
"2578.5350000006147","","","post_reveal_questions","survey-likert","201","862782","0.0-6.0-6.27","3023585","co38134","norming","","","{""aha"":4}","[0]","../img/tt/598tt.jpg","",""
"null","<div style=""font-size:60px;""> </div>","null","fixation","html-keyboard-response","202","862986","0.0-6.0-0.28","3023585","co38134","norming","","","","","","",""
"null","../img/tt/599tt.jpg","null","mooney1","image-keyboard-response","203","865998","0.0-6.0-1.28","3023585","co38134","norming","","","","","","",""
"3940.2150000005495","","","post_mooney1_questions","survey-likert","204","869941","0.0-6.0-2.28","3023585","co38134","norming","","","{""curiosity"":4,""confidence"":1}","[0,1]","../img/tt/599tt.jpg","",""
"2478.23000000068","","","recognition","survey-text","205","872421","0.0-6.0-3.28","3023585","co38134","norming","","","{""guess"":""vogel""}","","../img/tt/599tt.jpg","",""
"null","../img/gs/599gs.jpg","null","reveal","image-keyboard-response","206","874427","0.0-6.0-4.28","3023585","co38134","norming","","","","","","",""
"null","../img/tt/599tt.jpg","null","mooney2","image-keyboard-response","207","876436","0.0-6.0-5.28","3023585","co38134","norming","","","","","","",""
"2904.1950000009965","","","post_reveal_questions","survey-likert","208","879341","0.0-6.0-6.28","3023585","co38134","norming","","","{""aha"":3}","[0]","../img/tt/599tt.jpg","",""
"null","<div style=""font-size:60px;""> </div>","null","fixation","html-keyboard-response","209","879543","0.0-6.0-0.29","3023585","co38134","norming","","","","","","",""
"null","../img/tt/468tt.jpg","null","mooney1","image-keyboard-response","210","882546","0.0-6.0-1.29","3023585","co38134","norming","","","","","","",""
"4242.070000000298","","","post_mooney1_questions","survey-likert","211","886789","0.0-6.0-2.29","3023585","co38134","norming","","","{""curiosity"":5,""confidence"":0}","[0,1]","../img/tt/468tt.jpg","",""
"829.8250000007683","","","recognition","survey-text","212","887621","0.0-6.0-3.29","3023585","co38134","norming","","","{""guess"":""""}","","../img/tt/468tt.jpg","",""
"null","../img/gs/468gs.jpg","null","reveal","image-keyboard-response","213","889624","0.0-6.0-4.29","3023585","co38134","norming","","","","","","",""
"null","../img/tt/468tt.jpg","null","mooney2","image-keyboard-response","214","891636","0.0-6.0-5.29","3023585","co38134","norming","","","","","","",""
"2785.840000000433","","","post_reveal_questions","survey-likert","215","894423","0.0-6.0-6.29","3023585","co38134","norming","","","{""aha"":5}","[0]","../img/tt/468tt.jpg","",""
"null","<div style=""font-size:60px;""> </div>","null","fixation","html-keyboard-response","216","894632","0.0-6.0-0.30","3023585","co38134","norming","","","","","","",""
"null","../img/tt/1276tt.jpg","null","mooney1","image-keyboard-response","217","897635","0.0-6.0-1.30","3023585","co38134","norming","","","","","","",""
"3762.754999999772","","","post_mooney1_questions","survey-likert","218","901399","0.0-6.0-2.30","3023585","co38134","norming","","","{""curiosity"":4,""confidence"":1}","[0,1]","../img/tt/1276tt.jpg","",""
"2230.1750000006286","","","recognition","survey-text","219","903631","0.0-6.0-3.30","3023585","co38134","norming","","","{""guess"":""beer""}","","../img/tt/1276tt.jpg","",""
"null","../img/gs/1276gs.jpg","null","reveal","image-keyboard-response","220","905633","0.0-6.0-4.30","3023585","co38134","norming","","","","","","",""
"null","../img/tt/1276tt.jpg","null","mooney2","image-keyboard-response","221","907633","0.0-6.0-5.30","3023585","co38134","norming","","","","","","",""
"3812.524999999325","","","post_reveal_questions","survey-likert","222","911447","0.0-6.0-6.30","3023585","co38134","norming","","","{""aha"":3}","[0]","../img/tt/1276tt.jpg","",""
"null","<div style=""font-size:60px;""> </div>","null","fixation","html-keyboard-response","223","911654","0.0-6.0-0.31","3023585","co38134","norming","","","","","","",""
"null","../img/tt/1061tt.jpg","null","mooney1","image-keyboard-response","224","914659","0.0-6.0-1.31","3023585","co38134","norming","","","","","","",""
"7586.93500000122","","","post_mooney1_questions","survey-likert","225","922247","0.0-6.0-2.31","3023585","co38134","norming","","","{""curiosity"":4,""confidence"":1}","[0,1]","../img/tt/1061tt.jpg","",""
"7374.069999999832","","","recognition","survey-text","226","929623","0.0-6.0-3.31","3023585","co38134","norming","","","{""guess"":""man park""}","","../img/tt/1061tt.jpg","",""
"null","../img/gs/1061gs.jpg","null","reveal","image-keyboard-response","227","931631","0.0-6.0-4.31","3023585","co38134","norming","","","","","","",""
"null","../img/tt/1061tt.jpg","null","mooney2","image-keyboard-response","228","933640","0.0-6.0-5.31","3023585","co38134","norming","","","","","","",""
"5845.6349999997765","","","post_reveal_questions","survey-likert","229","939487","0.0-6.0-6.31","3023585","co38134","norming","","","{""aha"":2}","[0]","../img/tt/1061tt.jpg","",""
"null","<div style=""font-size:60px;""> </div>","null","fixation","html-keyboard-response","230","939688","0.0-6.0-0.32","3023585","co38134","norming","","","","","","",""
"null","../img/tt/063tt.jpg","null","mooney1","image-keyboard-response","231","942690","0.0-6.0-1.32","3023585","co38134","norming","","","","","","",""
"5682.209999999031","","","post_mooney1_questions","survey-likert","232","948376","0.0-6.0-2.32","3023585","co38134","norming","","","{""curiosity"":2,""confidence"":5}","[0,1]","../img/tt/063tt.jpg","",""
"4053.9550000012387","","","recognition","survey-text","233","952432","0.0-6.0-3.32","3023585","co38134","norming","","","{""guess"":""accordeon""}","","../img/tt/063tt.jpg","",""
"null","../img/gs/063gs.jpg","null","reveal","image-keyboard-response","234","954438","0.0-6.0-4.32","3023585","co38134","norming","","","","","","",""
"null","../img/tt/063tt.jpg","null","mooney2","image-keyboard-response","235","956445","0.0-6.0-5.32","3023585","co38134","norming","","","","","","",""
"3882.4899999999907","","","post_reveal_questions","survey-likert","236","960329","0.0-6.0-6.32","3023585","co38134","norming","","","{""aha"":1}","[0]","../img/tt/063tt.jpg","",""
"null","<div style=""font-size:60px;""> </div>","null","fixation","html-keyboard-response","237","960538","0.0-6.0-0.33","3023585","co38134","norming","","","","","","",""
"null","../img/tt/082tt.jpg","null","mooney1","image-keyboard-response","238","963539","0.0-6.0-1.33","3023585","co38134","norming","","","","","","",""
"4540.47499999986","","","post_mooney1_questions","survey-likert","239","968081","0.0-6.0-2.33","3023585","co38134","norming","","","{""curiosity"":2,""confidence"":4}","[0,1]","../img/tt/082tt.jpg","",""
"3149.9999999996508","","","recognition","survey-text","240","971233","0.0-6.0-3.33","3023585","co38134","norming","","","{""guess"":""papegaai""}","","../img/tt/082tt.jpg","",""
"null","../img/gs/082gs.jpg","null","reveal","image-keyboard-response","241","973235","0.0-6.0-4.33","3023585","co38134","norming","","","","","","",""
"null","../img/tt/082tt.jpg","null","mooney2","image-keyboard-response","242","975237","0.0-6.0-5.33","3023585","co38134","norming","","","","","","",""
"3042.089999999036","","","post_reveal_questions","survey-likert","243","978281","0.0-6.0-6.33","3023585","co38134","norming","","","{""aha"":0}","[0]","../img/tt/082tt.jpg","",""
"null","<div style=""font-size:60px;""> </div>","null","fixation","html-keyboard-response","244","978482","0.0-6.0-0.34","3023585","co38134","norming","","","","","","",""
"null","../img/tt/1080tt.jpg","null","mooney1","image-keyboard-response","245","981489","0.0-6.0-1.34","3023585","co38134","norming","","","","","","",""
"9356.855000000098","","","post_mooney1_questions","survey-likert","246","990849","0.0-6.0-2.34","3023585","co38134","norming","","","{""curiosity"":3,""confidence"":2}","[0,1]","../img/tt/1080tt.jpg","",""
"6758.090000001132","","","recognition","survey-text","247","997609","0.0-6.0-3.34","3023585","co38134","norming","","","{""guess"":""vrouw bad""}","","../img/tt/1080tt.jpg","",""
"null","../img/gs/1080gs.jpg","null","reveal","image-keyboard-response","248","999612","0.0-6.0-4.34","3023585","co38134","norming","","","","","","",""
"null","../img/tt/1080tt.jpg","null","mooney2","image-keyboard-response","249","1001613","0.0-6.0-5.34","3023585","co38134","norming","","","","","","",""
"2705.8849999994272","","","post_reveal_questions","survey-likert","250","1004321","0.0-6.0-6.34","3023585","co38134","norming","","","{""aha"":5}","[0]","../img/tt/1080tt.jpg","",""
"null","<div style=""font-size:60px;""> </div>","null","fixation","html-keyboard-response","251","1004522","0.0-6.0-0.35","3023585","co38134","norming","","","","","","",""
"null","../img/tt/1033tt.jpg","null","mooney1","image-keyboard-response","252","1007528","0.0-6.0-1.35","3023585","co38134","norming","","","","","","",""
"9550.230000000796","","","post_mooney1_questions","survey-likert","253","1017076","0.0-6.0-2.35","3023585","co38134","norming","","","{""curiosity"":4,""confidence"":2}","[0,1]","../img/tt/1033tt.jpg","",""
"7093.909999999567","","","recognition","survey-text","254","1024172","0.0-6.0-3.35","3023585","co38134","norming","","","{""guess"":""boogschutter indianen""}","","../img/tt/1033tt.jpg","",""
"null","../img/gs/1033gs.jpg","null","reveal","image-keyboard-response","255","1026173","0.0-6.0-4.35","3023585","co38134","norming","","","","","","",""
"null","../img/tt/1033tt.jpg","null","mooney2","image-keyboard-response","256","1028183","0.0-6.0-5.35","3023585","co38134","norming","","","","","","",""
"2802.875000001164","","","post_reveal_questions","survey-likert","257","1030988","0.0-6.0-6.35","3023585","co38134","norming","","","{""aha"":4}","[0]","../img/tt/1033tt.jpg","",""
"null","<div style=""font-size:60px;""> </div>","null","fixation","html-keyboard-response","258","1031194","0.0-6.0-0.36","3023585","co38134","norming","","","","","","",""
"null","../img/tt/1269tt.jpg","null","mooney1","image-keyboard-response","259","1034197","0.0-6.0-1.36","3023585","co38134","norming","","","","","","",""
"5612.855000001262","","","post_mooney1_questions","survey-likert","260","1039812","0.0-6.0-2.36","3023585","co38134","norming","","","{""curiosity"":4,""confidence"":2}","[0,1]","../img/tt/1269tt.jpg","",""
"3869.9999999989523","","","recognition","survey-text","261","1043683","0.0-6.0-3.36","3023585","co38134","norming","","","{""guess"":""kat""}","","../img/tt/1269tt.jpg","",""
"null","../img/gs/1269gs.jpg","null","reveal","image-keyboard-response","262","1045691","0.0-6.0-4.36","3023585","co38134","norming","","","","","","",""
"null","../img/tt/1269tt.jpg","null","mooney2","image-keyboard-response","263","1047693","0.0-6.0-5.36","3023585","co38134","norming","","","","","","",""
"2277.214999998221","","","post_reveal_questions","survey-likert","264","1049972","0.0-6.0-6.36","3023585","co38134","norming","","","{""aha"":3}","[0]","../img/tt/1269tt.jpg","",""
"null","<div style=""font-size:60px;""> </div>","null","fixation","html-keyboard-response","265","1050173","0.0-6.0-0.37","3023585","co38134","norming","","","","","","",""
"null","../img/tt/1087tt.jpg","null","mooney1","image-keyboard-response","266","1053179","0.0-6.0-1.37","3023585","co38134","norming","","","","","","",""
"4934.55999999959","","","post_mooney1_questions","survey-likert","267","1058116","0.0-6.0-2.37","3023585","co38134","norming","","","{""curiosity"":4,""confidence"":1}","[0,1]","../img/tt/1087tt.jpg","",""
"3261.999999998603","","","recognition","survey-text","268","1061380","0.0-6.0-3.37","3023585","co38134","norming","","","{""guess"":""walvis""}","","../img/tt/1087tt.jpg","",""
"null","../img/gs/1087gs.jpg","null","reveal","image-keyboard-response","269","1063387","0.0-6.0-4.37","3023585","co38134","norming","","","","","","",""
"null","../img/tt/1087tt.jpg","null","mooney2","image-keyboard-response","270","1065390","0.0-6.0-5.37","3023585","co38134","norming","","","","","","",""
"2019.459999999497","","","post_reveal_questions","survey-likert","271","1067412","0.0-6.0-6.37","3023585","co38134","norming","","","{""aha"":4}","[0]","../img/tt/1087tt.jpg","",""
"null","<div style=""font-size:60px;""> </div>","null","fixation","html-keyboard-response","272","1067613","0.0-6.0-0.38","3023585","co38134","norming","","","","","","",""
"null","../img/tt/124tt.jpg","null","mooney1","image-keyboard-response","273","1070621","0.0-6.0-1.38","3023585","co38134","norming","","","","","","",""
"5460.675000000279","","","post_mooney1_questions","survey-likert","274","1076091","0.0-6.0-2.38","3023585","co38134","norming","","","{""curiosity"":4,""confidence"":1}","[0,1]","../img/tt/124tt.jpg","",""
"3366.304999999469","","","recognition","survey-text","275","1079459","0.0-6.0-3.38","3023585","co38134","norming","","","{""guess"":""oude vrouw""}","","../img/tt/124tt.jpg","",""
"null","../img/gs/124gs.jpg","null","reveal","image-keyboard-response","276","1081466","0.0-6.0-4.38","3023585","co38134","norming","","","","","","",""
"null","../img/tt/124tt.jpg","null","mooney2","image-keyboard-response","277","1083475","0.0-6.0-5.38","3023585","co38134","norming","","","","","","",""
"3229.9000000003725","","","post_reveal_questions","survey-likert","278","1086707","0.0-6.0-6.38","3023585","co38134","norming","","","{""aha"":4}","[0]","../img/tt/124tt.jpg","",""
"null","<div style=""font-size:60px;""> </div>","null","fixation","html-keyboard-response","279","1086909","0.0-6.0-0.39","3023585","co38134","norming","","","","","","",""
"null","../img/tt/1002tt.jpg","null","mooney1","image-keyboard-response","280","1089913","0.0-6.0-1.39","3023585","co38134","norming","","","","","","",""
"3479.820000000531","","","post_mooney1_questions","survey-likert","281","1093396","0.0-6.0-2.39","3023585","co38134","norming","","","{""curiosity"":4,""confidence"":2}","[0,1]","../img/tt/1002tt.jpg","",""
"3038.0149999982677","","","recognition","survey-text","282","1096435","0.0-6.0-3.39","3023585","co38134","norming","","","{""guess"":""huis""}","","../img/tt/1002tt.jpg","",""
"null","../img/gs/1002gs.jpg","null","reveal","image-keyboard-response","283","1098444","0.0-6.0-4.39","3023585","co38134","norming","","","","","","",""
"null","../img/tt/1002tt.jpg","null","mooney2","image-keyboard-response","284","1100446","0.0-6.0-5.39","3023585","co38134","norming","","","","","","",""
"2227.8299999998417","","","post_reveal_questions","survey-likert","285","1102675","0.0-6.0-6.39","3023585","co38134","norming","","","{""aha"":4}","[0]","../img/tt/1002tt.jpg","",""
"null","<div style=""font-size:60px;""> </div>","null","fixation","html-keyboard-response","286","1102881","0.0-6.0-0.40","3023585","co38134","norming","","","","","","",""
"null","../img/tt/1237tt.jpg","null","mooney1","image-keyboard-response","287","1105889","0.0-6.0-1.40","3023585","co38134","norming","","","","","","",""
"3968.7400000002235","","","post_mooney1_questions","survey-likert","288","1109860","0.0-6.0-2.40","3023585","co38134","norming","","","{""curiosity"":4,""confidence"":2}","[0,1]","../img/tt/1237tt.jpg","",""
"2349.964999999618","","","recognition","survey-text","289","1112211","0.0-6.0-3.40","3023585","co38134","norming","","","{""guess"":""kano""}","","../img/tt/1237tt.jpg","",""
"null","../img/gs/1237gs.jpg","null","reveal","image-keyboard-response","290","1114214","0.0-6.0-4.40","3023585","co38134","norming","","","","","","",""
"null","../img/tt/1237tt.jpg","null","mooney2","image-keyboard-response","291","1116216","0.0-6.0-5.40","3023585","co38134","norming","","","","","","",""
"2553.6850000007544","","","post_reveal_questions","survey-likert","292","1118771","0.0-6.0-6.40","3023585","co38134","norming","","","{""aha"":3}","[0]","../img/tt/1237tt.jpg","",""
"null","<div style=""font-size:60px;""> </div>","null","fixation","html-keyboard-response","293","1118973","0.0-6.0-0.41","3023585","co38134","norming","","","","","","",""
"null","../img/tt/1055tt.jpg","null","mooney1","image-keyboard-response","294","1121980","0.0-6.0-1.41","3023585","co38134","norming","","","","","","",""
"7397.309999998426","","","post_mooney1_questions","survey-likert","295","1129380","0.0-6.0-2.41","3023585","co38134","norming","","","{""curiosity"":4,""confidence"":2}","[0,1]","../img/tt/1055tt.jpg","",""
"2686.01999999932","","","recognition","survey-text","296","1132067","0.0-6.0-3.41","3023585","co38134","norming","","","{""guess"":""grot""}","","../img/tt/1055tt.jpg","",""
"null","../img/gs/1055gs.jpg","null","reveal","image-keyboard-response","297","1134068","0.0-6.0-4.41","3023585","co38134","norming","","","","","","",""
"null","../img/tt/1055tt.jpg","null","mooney2","image-keyboard-response","298","1136074","0.0-6.0-5.41","3023585","co38134","norming","","","","","","",""
"3833.4150000009686","","","post_reveal_questions","survey-likert","299","1139909","0.0-6.0-6.41","3023585","co38134","norming","","","{""aha"":3}","[0]","../img/tt/1055tt.jpg","",""
"null","<div style=""font-size:60px;""> </div>","null","fixation","html-keyboard-response","300","1140115","0.0-6.0-0.42","3023585","co38134","norming","","","","","","",""
"null","../img/tt/270tt.jpg","null","mooney1","image-keyboard-response","301","1143118","0.0-6.0-1.42","3023585","co38134","norming","","","","","","",""
"4093.535000000149","","","post_mooney1_questions","survey-likert","302","1147214","0.0-6.0-2.42","3023585","co38134","norming","","","{""curiosity"":5,""confidence"":0}","[0,1]","../img/tt/270tt.jpg","",""
"685.8400000000838","","","recognition","survey-text","303","1147901","0.0-6.0-3.42","3023585","co38134","norming","","","{""guess"":""""}","","../img/tt/270tt.jpg","",""
"null","../img/gs/270gs.jpg","null","reveal","image-keyboard-response","304","1149910","0.0-6.0-4.42","3023585","co38134","norming","","","","","","",""
"null","../img/tt/270tt.jpg","null","mooney2","image-keyboard-response","305","1151911","0.0-6.0-5.42","3023585","co38134","norming","","","","","","",""
"3122.6850000002887","","","post_reveal_questions","survey-likert","306","1155038","0.0-6.0-6.42","3023585","co38134","norming","","","{""aha"":4}","[0]","../img/tt/270tt.jpg","",""
"null","<div style=""font-size:60px;""> </div>","null","fixation","html-keyboard-response","307","1155240","0.0-6.0-0.43","3023585","co38134","norming","","","","","","",""
"null","../img/tt/456tt.jpg","null","mooney1","image-keyboard-response","308","1158244","0.0-6.0-1.43","3023585","co38134","norming","","","","","","",""
"3369.1550000002608","","","post_mooney1_questions","survey-likert","309","1161614","0.0-6.0-2.43","3023585","co38134","norming","","","{""curiosity"":4,""confidence"":2}","[0,1]","../img/tt/456tt.jpg","",""
"2517.9900000002235","","","recognition","survey-text","310","1164133","0.0-6.0-3.43","3023585","co38134","norming","","","{""guess"":""schoen""}","","../img/tt/456tt.jpg","",""
"null","../img/gs/456gs.jpg","null","reveal","image-keyboard-response","311","1166136","0.0-6.0-4.43","3023585","co38134","norming","","","","","","",""
"null","../img/tt/456tt.jpg","null","mooney2","image-keyboard-response","312","1168141","0.0-6.0-5.43","3023585","co38134","norming","","","","","","",""
"3766.469999998575","","","post_reveal_questions","survey-likert","313","1171910","0.0-6.0-6.43","3023585","co38134","norming","","","{""aha"":4}","[0]","../img/tt/456tt.jpg","",""
"null","<div style=""font-size:60px;""> </div>","null","fixation","html-keyboard-response","314","1172116","0.0-6.0-0.44","3023585","co38134","norming","","","","","","",""
"null","../img/tt/1188tt.jpg","null","mooney1","image-keyboard-response","315","1175119","0.0-6.0-1.44","3023585","co38134","norming","","","","","","",""
"5116.979999998817","","","post_mooney1_questions","survey-likert","316","1180238","0.0-6.0-2.44","3023585","co38134","norming","","","{""curiosity"":4,""confidence"":1}","[0,1]","../img/tt/1188tt.jpg","",""
"7926.199999999953","","","recognition","survey-text","317","1188166","0.0-6.0-3.44","3023585","co38134","norming","","","{""guess"":""baseballspeler""}","","../img/tt/1188tt.jpg","",""
"null","../img/gs/1188gs.jpg","null","reveal","image-keyboard-response","318","1190171","0.0-6.0-4.44","3023585","co38134","norming","","","","","","",""
"null","../img/tt/1188tt.jpg","null","mooney2","image-keyboard-response","319","1192174","0.0-6.0-5.44","3023585","co38134","norming","","","","","","",""
"2046.2950000001583","","","post_reveal_questions","survey-likert","320","1194222","0.0-6.0-6.44","3023585","co38134","norming","","","{""aha"":3}","[0]","../img/tt/1188tt.jpg","",""
"null","<div style=""font-size:60px;""> </div>","null","fixation","html-keyboard-response","321","1194431","0.0-6.0-0.45","3023585","co38134","norming","","","","","","",""
"null","../img/tt/1091tt.jpg","null","mooney1","image-keyboard-response","322","1197438","0.0-6.0-1.45","3023585","co38134","norming","","","","","","",""
"6023.100000000326","","","post_mooney1_questions","survey-likert","323","1203463","0.0-6.0-2.45","3023585","co38134","norming","","","{""curiosity"":3,""confidence"":4}","[0,1]","../img/tt/1091tt.jpg","",""
"2198.0150000001304","","","recognition","survey-text","324","1205663","0.0-6.0-3.45","3023585","co38134","norming","","","{""guess"":""paard""}","","../img/tt/1091tt.jpg","",""
"null","../img/gs/1091gs.jpg","null","reveal","image-keyboard-response","325","1207664","0.0-6.0-4.45","3023585","co38134","norming","","","","","","",""
"null","../img/tt/1091tt.jpg","null","mooney2","image-keyboard-response","326","1209672","0.0-6.0-5.45","3023585","co38134","norming","","","","","","",""
"3293.014999999199","","","post_reveal_questions","survey-likert","327","1212967","0.0-6.0-6.45","3023585","co38134","norming","","","{""aha"":0}","[0]","../img/tt/1091tt.jpg","",""
"null","<div style=""font-size:60px;""> </div>","null","fixation","html-keyboard-response","328","1213169","0.0-6.0-0.46","3023585","co38134","norming","","","","","","",""
"null","../img/tt/076tt.jpg","null","mooney1","image-keyboard-response","329","1216174","0.0-6.0-1.46","3023585","co38134","norming","","","","","","",""
"4782.750000000233","","","post_mooney1_questions","survey-likert","330","1220959","0.0-6.0-2.46","3023585","co38134","norming","","","{""curiosity"":4,""confidence"":2}","[0,1]","../img/tt/076tt.jpg","",""
"2765.885000000708","","","recognition","survey-text","331","1223727","0.0-6.0-3.46","3023585","co38134","norming","","","{""guess"":""schoen""}","","../img/tt/076tt.jpg","",""
"null","../img/gs/076gs.jpg","null","reveal","image-keyboard-response","332","1225730","0.0-6.0-4.46","3023585","co38134","norming","","","","","","",""
"null","../img/tt/076tt.jpg","null","mooney2","image-keyboard-response","333","1227738","0.0-6.0-5.46","3023585","co38134","norming","","","","","","",""
"2988.224999999162","","","post_reveal_questions","survey-likert","334","1230727","0.0-6.0-6.46","3023585","co38134","norming","","","{""aha"":2}","[0]","../img/tt/076tt.jpg","",""
"null","<div style=""font-size:60px;""> </div>","null","fixation","html-keyboard-response","335","1230929","0.0-6.0-0.47","3023585","co38134","norming","","","","","","",""
"null","../img/tt/1143tt.jpg","null","mooney1","image-keyboard-response","336","1233935","0.0-6.0-1.47","3023585","co38134","norming","","","","","","",""
"4709.515000000363","","","post_mooney1_questions","survey-likert","337","1238647","0.0-6.0-2.47","3023585","co38134","norming","","","{""curiosity"":4,""confidence"":1}","[0,1]","../img/tt/1143tt.jpg","",""
"5381.66000000108","","","recognition","survey-text","338","1244031","0.0-6.0-3.47","3023585","co38134","norming","","","{""guess"":""klaslokaal""}","","../img/tt/1143tt.jpg","",""
"null","../img/gs/1143gs.jpg","null","reveal","image-keyboard-response","339","1246041","0.0-6.0-4.47","3023585","co38134","norming","","","","","","",""
"null","../img/tt/1143tt.jpg","null","mooney2","image-keyboard-response","340","1248045","0.0-6.0-5.47","3023585","co38134","norming","","","","","","",""
"2984.089999999851","","","post_reveal_questions","survey-likert","341","1251031","0.0-6.0-6.47","3023585","co38134","norming","","","{""aha"":4}","[0]","../img/tt/1143tt.jpg","",""
"null","<div style=""font-size:60px;""> </div>","null","fixation","html-keyboard-response","342","1251235","0.0-6.0-0.48","3023585","co38134","norming","","","","","","",""
"null","../img/tt/078tt.jpg","null","mooney1","image-keyboard-response","343","1254241","0.0-6.0-1.48","3023585","co38134","norming","","","","","","",""
"3348.0550000004005","","","post_mooney1_questions","survey-likert","344","1257592","0.0-6.0-2.48","3023585","co38134","norming","","","{""curiosity"":5,""confidence"":0}","[0,1]","../img/tt/078tt.jpg","",""
"798.1299999991897","","","recognition","survey-text","345","1258392","0.0-6.0-3.48","3023585","co38134","norming","","","{""guess"":""""}","","../img/tt/078tt.jpg","",""
"null","../img/gs/078gs.jpg","null","reveal","image-keyboard-response","346","1260400","0.0-6.0-4.48","3023585","co38134","norming","","","","","","",""
"null","../img/tt/078tt.jpg","null","mooney2","image-keyboard-response","347","1262403","0.0-6.0-5.48","3023585","co38134","norming","","","","","","",""
"2002.8100000000559","","","post_reveal_questions","survey-likert","348","1264408","0.0-6.0-6.48","3023585","co38134","norming","","","{""aha"":4}","[0]","../img/tt/078tt.jpg","",""
"null","<div style=""font-size:60px;""> </div>","null","fixation","html-keyboard-response","349","1264618","0.0-6.0-0.49","3023585","co38134","norming","","","","","","",""
"null","../img/tt/081tt.jpg","null","mooney1","image-keyboard-response","350","1267624","0.0-6.0-1.49","3023585","co38134","norming","","","","","","",""
"3173.9949999991804","","","post_mooney1_questions","survey-likert","351","1270800","0.0-6.0-2.49","3023585","co38134","norming","","","{""curiosity"":4,""confidence"":2}","[0,1]","../img/tt/081tt.jpg","",""
"2437.709999998333","","","recognition","survey-text","352","1273240","0.0-6.0-3.49","3023585","co38134","norming","","","{""guess"":""fietser""}","","../img/tt/081tt.jpg","",""
"null","../img/gs/081gs.jpg","null","reveal","image-keyboard-response","353","1275250","0.0-6.0-4.49","3023585","co38134","norming","","","","","","",""
"null","../img/tt/081tt.jpg","null","mooney2","image-keyboard-response","354","1277260","0.0-6.0-5.49","3023585","co38134","norming","","","","","","",""
"2554.3349999990314","","","post_reveal_questions","survey-likert","355","1279816","0.0-6.0-6.49","3023585","co38134","norming","","","{""aha"":4}","[0]","../img/tt/081tt.jpg","",""
"null","<div style=""font-size:60px;""> </div>","null","fixation","html-keyboard-response","356","1280027","0.0-6.0-0.50","3023585","co38134","norming","","","","","","",""
"null","../img/tt/1283tt.jpg","null","mooney1","image-keyboard-response","357","1283037","0.0-6.0-1.50","3023585","co38134","norming","","","","","","",""
"5200.725000000792","","","post_mooney1_questions","survey-likert","358","1288240","0.0-6.0-2.50","3023585","co38134","norming","","","{""curiosity"":4,""confidence"":1}","[0,1]","../img/tt/1283tt.jpg","",""
"2909.7449999991804","","","recognition","survey-text","359","1291151","0.0-6.0-3.50","3023585","co38134","norming","","","{""guess"":""tak""}","","../img/tt/1283tt.jpg","",""
"null","../img/gs/1283gs.jpg","null","reveal","image-keyboard-response","360","1293158","0.0-6.0-4.50","3023585","co38134","norming","","","","","","",""
"null","../img/tt/1283tt.jpg","null","mooney2","image-keyboard-response","361","1295167","0.0-6.0-5.50","3023585","co38134","norming","","","","","","",""
"4054.6950000007637","","","post_reveal_questions","survey-likert","362","1299224","0.0-6.0-6.50","3023585","co38134","norming","","","{""aha"":2}","[0]","../img/tt/1283tt.jpg","",""
"null","<div style=""font-size:60px;""> </div>","null","fixation","html-keyboard-response","363","1299428","0.0-6.0-0.51","3023585","co38134","norming","","","","","","",""
"null","../img/tt/1217tt.jpg","null","mooney1","image-keyboard-response","364","1302431","0.0-6.0-1.51","3023585","co38134","norming","","","","","","",""
"5102.769999999553","","","post_mooney1_questions","survey-likert","365","1307536","0.0-6.0-2.51","3023585","co38134","norming","","","{""curiosity"":4,""confidence"":1}","[0,1]","../img/tt/1217tt.jpg","",""
"5253.934999998892","","","recognition","survey-text","366","1312792","0.0-6.0-3.51","3023585","co38134","norming","","","{""guess"":""hert""}","","../img/tt/1217tt.jpg","",""
"null","../img/gs/1217gs.jpg","null","reveal","image-keyboard-response","367","1314802","0.0-6.0-4.51","3023585","co38134","norming","","","","","","",""
"null","../img/tt/1217tt.jpg","null","mooney2","image-keyboard-response","368","1316810","0.0-6.0-5.51","3023585","co38134","norming","","","","","","",""
"2539.9749999996275","","","post_reveal_questions","survey-likert","369","1319349","0.0-6.0-6.51","3023585","co38134","norming","","","{""aha"":4}","[0]","../img/tt/1217tt.jpg","",""
"null","<div style=""font-size:60px;""> </div>","null","fixation","html-keyboard-response","370","1319554","0.0-6.0-0.52","3023585","co38134","norming","","","","","","",""
"null","../img/tt/055tt.jpg","null","mooney1","image-keyboard-response","371","1322560","0.0-6.0-1.52","3023585","co38134","norming","","","","","","",""
"6451.28500000108","","","post_mooney1_questions","survey-likert","372","1329013","0.0-6.0-2.52","3023585","co38134","norming","","","{""curiosity"":5,""confidence"":1}","[0,1]","../img/tt/055tt.jpg","",""
"3029.6100000014994","","","recognition","survey-text","373","1332044","0.0-6.0-3.52","3023585","co38134","norming","","","{""guess"":""stier""}","","../img/tt/055tt.jpg","",""
"null","../img/gs/055gs.jpg","null","reveal","image-keyboard-response","374","1334051","0.0-6.0-4.52","3023585","co38134","norming","","","","","","",""
"null","../img/tt/055tt.jpg","null","mooney2","image-keyboard-response","375","1336058","0.0-6.0-5.52","3023585","co38134","norming","","","","","","",""
"4184.00499999919","","","post_reveal_questions","survey-likert","376","1340245","0.0-6.0-6.52","3023585","co38134","norming","","","{""aha"":4}","[0]","../img/tt/055tt.jpg","",""
"null","<div style=""font-size:60px;""> </div>","null","fixation","html-keyboard-response","377","1340454","0.0-6.0-0.53","3023585","co38134","norming","","","","","","",""
"null","../img/tt/315tt.jpg","null","mooney1","image-keyboard-response","378","1343457","0.0-6.0-1.53","3023585","co38134","norming","","","","","","",""
"2649.1299999998882","","","post_mooney1_questions","survey-likert","379","1346109","0.0-6.0-2.53","3023585","co38134","norming","","","{""curiosity"":4,""confidence"":2}","[0,1]","../img/tt/315tt.jpg","",""
"2838.1850000005215","","","recognition","survey-text","380","1348948","0.0-6.0-3.53","3023585","co38134","norming","","","{""guess"":""vogel""}","","../img/tt/315tt.jpg","",""
"null","../img/gs/315gs.jpg","null","reveal","image-keyboard-response","381","1350954","0.0-6.0-4.53","3023585","co38134","norming","","","","","","",""
"null","../img/tt/315tt.jpg","null","mooney2","image-keyboard-response","382","1352959","0.0-6.0-5.53","3023585","co38134","norming","","","","","","",""
"2547.6950000012293","","","post_reveal_questions","survey-likert","383","1355509","0.0-6.0-6.53","3023585","co38134","norming","","","{""aha"":3}","[0]","../img/tt/315tt.jpg","",""
"null","<div style=""font-size:60px;""> </div>","null","fixation","html-keyboard-response","384","1355712","0.0-6.0-0.54","3023585","co38134","norming","","","","","","",""
"null","../img/tt/1309tt.jpg","null","mooney1","image-keyboard-response","385","1358722","0.0-6.0-1.54","3023585","co38134","norming","","","","","","",""
"7256.744999998715","","","post_mooney1_questions","survey-likert","386","1365981","0.0-6.0-2.54","3023585","co38134","norming","","","{""curiosity"":3,""confidence"":4}","[0,1]","../img/tt/1309tt.jpg","",""
"2574.190000001341","","","recognition","survey-text","387","1368557","0.0-6.0-3.54","3023585","co38134","norming","","","{""guess"":""auto""}","","../img/tt/1309tt.jpg","",""
"null","../img/gs/1309gs.jpg","null","reveal","image-keyboard-response","388","1370568","0.0-6.0-4.54","3023585","co38134","norming","","","","","","",""
"null","../img/tt/1309tt.jpg","null","mooney2","image-keyboard-response","389","1372574","0.0-6.0-5.54","3023585","co38134","norming","","","","","","",""
"5286.020000001416","","","post_reveal_questions","survey-likert","390","1377861","0.0-6.0-6.54","3023585","co38134","norming","","","{""aha"":1}","[0]","../img/tt/1309tt.jpg","",""
"null","<div style=""font-size:60px;""> </div>","null","fixation","html-keyboard-response","391","1378066","0.0-6.0-0.55","3023585","co38134","norming","","","","","","",""
"null","../img/tt/1066tt.jpg","null","mooney1","image-keyboard-response","392","1381083","0.0-6.0-1.55","3023585","co38134","norming","","","","","","",""
"4580.585000001593","","","post_mooney1_questions","survey-likert","393","1385667","0.0-6.0-2.55","3023585","co38134","norming","","","{""curiosity"":4,""confidence"":2}","[0,1]","../img/tt/1066tt.jpg","",""
"2677.9149999984074","","","recognition","survey-text","394","1388346","0.0-6.0-3.55","3023585","co38134","norming","","","{""guess"":""tractor""}","","../img/tt/1066tt.jpg","",""
"null","../img/gs/1066gs.jpg","null","reveal","image-keyboard-response","395","1390355","0.0-6.0-4.55","3023585","co38134","norming","","","","","","",""
"null","../img/tt/1066tt.jpg","null","mooney2","image-keyboard-response","396","1392362","0.0-6.0-5.55","3023585","co38134","norming","","","","","","",""
"2653.9100000008475","","","post_reveal_questions","survey-likert","397","1395018","0.0-6.0-6.55","3023585","co38134","norming","","","{""aha"":3}","[0]","../img/tt/1066tt.jpg","",""
"null","<div style=""font-size:60px;""> </div>","null","fixation","html-keyboard-response","398","1395222","0.0-6.0-0.56","3023585","co38134","norming","","","","","","",""
"null","../img/tt/1128tt.jpg","null","mooney1","image-keyboard-response","399","1398231","0.0-6.0-1.56","3023585","co38134","norming","","","","","","",""
"6233.039999999106","","","post_mooney1_questions","survey-likert","400","1404466","0.0-6.0-2.56","3023585","co38134","norming","","","{""curiosity"":4,""confidence"":1}","[0,1]","../img/tt/1128tt.jpg","",""
"4670.099999999395","","","recognition","survey-text","401","1409138","0.0-6.0-3.56","3023585","co38134","norming","","","{""guess"":""schooltas""}","","../img/tt/1128tt.jpg","",""
"null","../img/gs/1128gs.jpg","null","reveal","image-keyboard-response","402","1411145","0.0-6.0-4.56","3023585","co38134","norming","","","","","","",""
"null","../img/tt/1128tt.jpg","null","mooney2","image-keyboard-response","403","1413156","0.0-6.0-5.56","3023585","co38134","norming","","","","","","",""
"3284.2899999995716","","","post_reveal_questions","survey-likert","404","1416443","0.0-6.0-6.56","3023585","co38134","norming","","","{""aha"":4}","[0]","../img/tt/1128tt.jpg","",""
"null","<div style=""font-size:60px;""> </div>","null","fixation","html-keyboard-response","405","1416651","0.0-6.0-0.57","3023585","co38134","norming","","","","","","",""
"null","../img/tt/121tt.jpg","null","mooney1","image-keyboard-response","406","1419656","0.0-6.0-1.57","3023585","co38134","norming","","","","","","",""
"5407.465000000317","","","post_mooney1_questions","survey-likert","407","1425067","0.0-6.0-2.57","3023585","co38134","norming","","","{""curiosity"":5,""confidence"":0}","[0,1]","../img/tt/121tt.jpg","",""
"4101.915000000969","","","recognition","survey-text","408","1429170","0.0-6.0-3.57","3023585","co38134","norming","","","{""guess"":""strand""}","","../img/tt/121tt.jpg","",""
"null","../img/gs/121gs.jpg","null","reveal","image-keyboard-response","409","1431176","0.0-6.0-4.57","3023585","co38134","norming","","","","","","",""
"null","../img/tt/121tt.jpg","null","mooney2","image-keyboard-response","410","1433181","0.0-6.0-5.57","3023585","co38134","norming","","","","","","",""
"4259.1599999994505","","","post_reveal_questions","survey-likert","411","1437442","0.0-6.0-6.57","3023585","co38134","norming","","","{""aha"":4}","[0]","../img/tt/121tt.jpg","",""
"null","<div style=""font-size:60px;""> </div>","null","fixation","html-keyboard-response","412","1437645","0.0-6.0-0.58","3023585","co38134","norming","","","","","","",""
"null","../img/tt/1200tt.jpg","null","mooney1","image-keyboard-response","413","1440650","0.0-6.0-1.58","3023585","co38134","norming","","","","","","",""
"4350.809999999823","","","post_mooney1_questions","survey-likert","414","1444999","0.0-6.0-2.58","3023585","co38134","norming","","","{""curiosity"":5,""confidence"":0}","[0,1]","../img/tt/1200tt.jpg","",""
"821.9799999988172","","","recognition","survey-text","415","1445823","0.0-6.0-3.58","3023585","co38134","norming","","","{""guess"":""""}","","../img/tt/1200tt.jpg","",""
"null","../img/gs/1200gs.jpg","null","reveal","image-keyboard-response","416","1447831","0.0-6.0-4.58","3023585","co38134","norming","","","","","","",""
"null","../img/tt/1200tt.jpg","null","mooney2","image-keyboard-response","417","1449833","0.0-6.0-5.58","3023585","co38134","norming","","","","","","",""
"1780.1100000017323","","","post_reveal_questions","survey-likert","418","1451615","0.0-6.0-6.58","3023585","co38134","norming","","","{""aha"":4}","[0]","../img/tt/1200tt.jpg","",""
"null","<div style=""font-size:60px;""> </div>","null","fixation","html-keyboard-response","419","1451822","0.0-6.0-0.59","3023585","co38134","norming","","","","","","",""
"null","../img/tt/001tt.jpg","null","mooney1","image-keyboard-response","420","1454829","0.0-6.0-1.59","3023585","co38134","norming","","","","","","",""
"3087.779999999795","","","post_mooney1_questions","survey-likert","421","1457919","0.0-6.0-2.59","3023585","co38134","norming","","","{""curiosity"":5,""confidence"":0}","[0,1]","../img/tt/001tt.jpg","",""
"1158.1200000001118","","","recognition","survey-text","422","1459079","0.0-6.0-3.59","3023585","co38134","norming","","","{""guess"":""""}","","../img/tt/001tt.jpg","",""
"null","../img/gs/001gs.jpg","null","reveal","image-keyboard-response","423","1461089","0.0-6.0-4.59","3023585","co38134","norming","","","","","","",""
"null","../img/tt/001tt.jpg","null","mooney2","image-keyboard-response","424","1463095","0.0-6.0-5.59","3023585","co38134","norming","","","","","","",""
"1885.524999999674","","","post_reveal_questions","survey-likert","425","1464983","0.0-6.0-6.59","3023585","co38134","norming","","","{""aha"":5}","[0]","../img/tt/001tt.jpg","",""
"null","<div style=""font-size:60px;""> </div>","null","fixation","html-keyboard-response","426","1465185","0.0-6.0-0.60","3023585","co38134","norming","","","","","","",""
"null","../img/tt/046tt.jpg","null","mooney1","image-keyboard-response","427","1468187","0.0-6.0-1.60","3023585","co38134","norming","","","","","","",""
"2577.580000001006","","","post_mooney1_questions","survey-likert","428","1470767","0.0-6.0-2.60","3023585","co38134","norming","","","{""curiosity"":6,""confidence"":0}","[0,1]","../img/tt/046tt.jpg","",""
"774.0099999993108","","","recognition","survey-text","429","1471543","0.0-6.0-3.60","3023585","co38134","norming","","","{""guess"":""""}","","../img/tt/046tt.jpg","",""
"null","../img/gs/046gs.jpg","null","reveal","image-keyboard-response","430","1473550","0.0-6.0-4.60","3023585","co38134","norming","","","","","","",""
"null","../img/tt/046tt.jpg","null","mooney2","image-keyboard-response","431","1475551","0.0-6.0-5.60","3023585","co38134","norming","","","","","","",""
"2094.445000000531","","","post_reveal_questions","survey-likert","432","1477647","0.0-6.0-6.60","3023585","co38134","norming","","","{""aha"":5}","[0]","../img/tt/046tt.jpg","",""
"null","<div style=""font-size:60px;""> </div>","null","fixation","html-keyboard-response","433","1477856","0.0-6.0-0.61","3023585","co38134","norming","","","","","","",""
"null","../img/tt/440tt.jpg","null","mooney1","image-keyboard-response","434","1480869","0.0-6.0-1.61","3023585","co38134","norming","","","","","","",""
"7008.115000000689","","","post_mooney1_questions","survey-likert","435","1487879","0.0-6.0-2.61","3023585","co38134","norming","","","{""curiosity"":4,""confidence"":1}","[0,1]","../img/tt/440tt.jpg","",""
"2750.1200000005774","","","recognition","survey-text","436","1490631","0.0-6.0-3.61","3023585","co38134","norming","","","{""guess"":""stal""}","","../img/tt/440tt.jpg","",""
"null","../img/gs/440gs.jpg","null","reveal","image-keyboard-response","437","1492633","0.0-6.0-4.61","3023585","co38134","norming","","","","","","",""
"null","../img/tt/440tt.jpg","null","mooney2","image-keyboard-response","438","1494640","0.0-6.0-5.61","3023585","co38134","norming","","","","","","",""
"2076.930000001099","","","post_reveal_questions","survey-likert","439","1496719","0.0-6.0-6.61","3023585","co38134","norming","","","{""aha"":4}","[0]","../img/tt/440tt.jpg","",""
"null","<div style=""font-size:60px;""> </div>","null","fixation","html-keyboard-response","440","1496925","0.0-6.0-0.62","3023585","co38134","norming","","","","","","",""
"null","../img/tt/1247tt.jpg","null","mooney1","image-keyboard-response","441","1499932","0.0-6.0-1.62","3023585","co38134","norming","","","","","","",""
"3744.360000000568","","","post_mooney1_questions","survey-likert","442","1503678","0.0-6.0-2.62","3023585","co38134","norming","","","{""curiosity"":5,""confidence"":0}","[0,1]","../img/tt/1247tt.jpg","",""
"725.9749999993946","","","recognition","survey-text","443","1504406","0.0-6.0-3.62","3023585","co38134","norming","","","{""guess"":""""}","","../img/tt/1247tt.jpg","",""
"null","../img/gs/1247gs.jpg","null","reveal","image-keyboard-response","444","1506416","0.0-6.0-4.62","3023585","co38134","norming","","","","","","",""
"null","../img/tt/1247tt.jpg","null","mooney2","image-keyboard-response","445","1508424","0.0-6.0-5.62","3023585","co38134","norming","","","","","","",""
"3283.7450000005774","","","post_reveal_questions","survey-likert","446","1511710","0.0-6.0-6.62","3023585","co38134","norming","","","{""aha"":4}","[0]","../img/tt/1247tt.jpg","",""
"null","<div style=""font-size:60px;""> </div>","null","fixation","html-keyboard-response","447","1511911","0.0-6.0-0.63","3023585","co38134","norming","","","","","","",""
"null","../img/tt/1063tt.jpg","null","mooney1","image-keyboard-response","448","1514914","0.0-6.0-1.63","3023585","co38134","norming","","","","","","",""
"5313.704999998445","","","post_mooney1_questions","survey-likert","449","1520230","0.0-6.0-2.63","3023585","co38134","norming","","","{""curiosity"":5,""confidence"":0}","[0,1]","../img/tt/1063tt.jpg","",""
"4717.979999999516","","","recognition","survey-text","450","1524950","0.0-6.0-3.63","3023585","co38134","norming","","","{""guess"":""olifant""}","","../img/tt/1063tt.jpg","",""
"null","../img/gs/1063gs.jpg","null","reveal","image-keyboard-response","451","1526952","0.0-6.0-4.63","3023585","co38134","norming","","","","","","",""
"null","../img/tt/1063tt.jpg","null","mooney2","image-keyboard-response","452","1528954","0.0-6.0-5.63","3023585","co38134","norming","","","","","","",""
"2642.079999999609","","","post_reveal_questions","survey-likert","453","1531598","0.0-6.0-6.63","3023585","co38134","norming","","","{""aha"":5}","[0]","../img/tt/1063tt.jpg","",""
"null","<div style=""font-size:60px;""> </div>","null","fixation","html-keyboard-response","454","1531807","0.0-6.0-0.64","3023585","co38134","norming","","","","","","",""
"null","../img/tt/584tt.jpg","null","mooney1","image-keyboard-response","455","1534817","0.0-6.0-1.64","3023585","co38134","norming","","","","","","",""
"3977.989999999292","","","post_mooney1_questions","survey-likert","456","1538798","0.0-6.0-2.64","3023585","co38134","norming","","","{""curiosity"":6,""confidence"":0}","[0,1]","../img/tt/584tt.jpg","",""
"813.785000000149","","","recognition","survey-text","457","1539614","0.0-6.0-3.64","3023585","co38134","norming","","","{""guess"":""""}","","../img/tt/584tt.jpg","",""
"null","../img/gs/584gs.jpg","null","reveal","image-keyboard-response","458","1541620","0.0-6.0-4.64","3023585","co38134","norming","","","","","","",""
"null","../img/tt/584tt.jpg","null","mooney2","image-keyboard-response","459","1543630","0.0-6.0-5.64","3023585","co38134","norming","","","","","","",""
"4054.149999999907","","","post_reveal_questions","survey-likert","460","1547686","0.0-6.0-6.64","3023585","co38134","norming","","","{""aha"":3}","[0]","../img/tt/584tt.jpg","",""
"null","<div style=""font-size:60px;""> </div>","null","fixation","html-keyboard-response","461","1547889","0.0-6.0-0.65","3023585","co38134","norming","","","","","","",""
"null","../img/tt/306tt.jpg","null","mooney1","image-keyboard-response","462","1550892","0.0-6.0-1.65","3023585","co38134","norming","","","","","","",""
"2944.0199999988545","","","post_mooney1_questions","survey-likert","463","1553838","0.0-6.0-2.65","3023585","co38134","norming","","","{""curiosity"":5,""confidence"":0}","[0,1]","../img/tt/306tt.jpg","",""
"726.2300000002142","","","recognition","survey-text","464","1554566","0.0-6.0-3.65","3023585","co38134","norming","","","{""guess"":""""}","","../img/tt/306tt.jpg","",""
"null","../img/gs/306gs.jpg","null","reveal","image-keyboard-response","465","1556574","0.0-6.0-4.65","3023585","co38134","norming","","","","","","",""
"null","../img/tt/306tt.jpg","null","mooney2","image-keyboard-response","466","1558584","0.0-6.0-5.65","3023585","co38134","norming","","","","","","",""
"2637.4850000010338","","","post_reveal_questions","survey-likert","467","1561222","0.0-6.0-6.65","3023585","co38134","norming","","","{""aha"":5}","[0]","../img/tt/306tt.jpg","",""
"null","<div style=""font-size:60px;""> </div>","null","fixation","html-keyboard-response","468","1561426","0.0-6.0-0.66","3023585","co38134","norming","","","","","","",""
"null","../img/tt/1279tt.jpg","null","mooney1","image-keyboard-response","469","1564443","0.0-6.0-1.66","3023585","co38134","norming","","","","","","",""
"4135.795000000158","","","post_mooney1_questions","survey-likert","470","1568581","0.0-6.0-2.66","3023585","co38134","norming","","","{""curiosity"":6,""confidence"":0}","[0,1]","../img/tt/1279tt.jpg","",""
"4150.20999999973","","","recognition","survey-text","471","1572733","0.0-6.0-3.66","3023585","co38134","norming","","","{""guess"":""""}","","../img/tt/1279tt.jpg","",""
"null","../img/gs/1279gs.jpg","null","reveal","image-keyboard-response","472","1574740","0.0-6.0-4.66","3023585","co38134","norming","","","","","","",""
"null","../img/tt/1279tt.jpg","null","mooney2","image-keyboard-response","473","1576745","0.0-6.0-5.66","3023585","co38134","norming","","","","","","",""
"1921.8000000000466","","","post_reveal_questions","survey-likert","474","1578669","0.0-6.0-6.66","3023585","co38134","norming","","","{""aha"":5}","[0]","../img/tt/1279tt.jpg","",""
"null","<div style=""font-size:60px;""> </div>","null","fixation","html-keyboard-response","475","1578876","0.0-6.0-0.67","3023585","co38134","norming","","","","","","",""
"null","../img/tt/1024tt.jpg","null","mooney1","image-keyboard-response","476","1581885","0.0-6.0-1.67","3023585","co38134","norming","","","","","","",""
"4685.69000000041","","","post_mooney1_questions","survey-likert","477","1586573","0.0-6.0-2.67","3023585","co38134","norming","","","{""curiosity"":4,""confidence"":2}","[0,1]","../img/tt/1024tt.jpg","",""
"5549.994999999413","","","recognition","survey-text","478","1592125","0.0-6.0-3.67","3023585","co38134","norming","","","{""guess"":""basketbalspeler""}","","../img/tt/1024tt.jpg","",""
"null","../img/gs/1024gs.jpg","null","reveal","image-keyboard-response","479","1594130","0.0-6.0-4.67","3023585","co38134","norming","","","","","","",""
"null","../img/tt/1024tt.jpg","null","mooney2","image-keyboard-response","480","1596140","0.0-6.0-5.67","3023585","co38134","norming","","","","","","",""
"2839.3549999981187","","","post_reveal_questions","survey-likert","481","1598981","0.0-6.0-6.67","3023585","co38134","norming","","","{""aha"":3}","[0]","../img/tt/1024tt.jpg","",""
"null","<div style=""font-size:60px;""> </div>","null","fixation","html-keyboard-response","482","1599182","0.0-6.0-0.68","3023585","co38134","norming","","","","","","",""
"null","../img/tt/1211tt.jpg","null","mooney1","image-keyboard-response","483","1602192","0.0-6.0-1.68","3023585","co38134","norming","","","","","","",""
"9914.415000001201","","","post_mooney1_questions","survey-likert","484","1612109","0.0-6.0-2.68","3023585","co38134","norming","","","{""curiosity"":4,""confidence"":2}","[0,1]","../img/tt/1211tt.jpg","",""
"5773.885000000475","","","recognition","survey-text","485","1617885","0.0-6.0-3.68","3023585","co38134","norming","","","{""guess"":""boot""}","","../img/tt/1211tt.jpg","",""
"null","../img/gs/1211gs.jpg","null","reveal","image-keyboard-response","486","1619891","0.0-6.0-4.68","3023585","co38134","norming","","","","","","",""
"null","../img/tt/1211tt.jpg","null","mooney2","image-keyboard-response","487","1621898","0.0-6.0-5.68","3023585","co38134","norming","","","","","","",""
"2976.834999999497","","","post_reveal_questions","survey-likert","488","1624876","0.0-6.0-6.68","3023585","co38134","norming","","","{""aha"":4}","[0]","../img/tt/1211tt.jpg","",""
"null","<div style=""font-size:60px;""> </div>","null","fixation","html-keyboard-response","489","1625085","0.0-6.0-0.69","3023585","co38134","norming","","","","","","",""
"null","../img/tt/1251tt.jpg","null","mooney1","image-keyboard-response","490","1628095","0.0-6.0-1.69","3023585","co38134","norming","","","","","","",""
"3809.944999999134","","","post_mooney1_questions","survey-likert","491","1631908","0.0-6.0-2.69","3023585","co38134","norming","","","{""curiosity"":5,""confidence"":0}","[0,1]","../img/tt/1251tt.jpg","",""
"934.4050000000279","","","recognition","survey-text","492","1632844","0.0-6.0-3.69","3023585","co38134","norming","","","{""guess"":""""}","","../img/tt/1251tt.jpg","",""
"null","../img/gs/1251gs.jpg","null","reveal","image-keyboard-response","493","1634846","0.0-6.0-4.69","3023585","co38134","norming","","","","","","",""
"null","../img/tt/1251tt.jpg","null","mooney2","image-keyboard-response","494","1636852","0.0-6.0-5.69","3023585","co38134","norming","","","","","","",""
"2390.3800000005867","","","post_reveal_questions","survey-likert","495","1639244","0.0-6.0-6.69","3023585","co38134","norming","","","{""aha"":5}","[0]","../img/tt/1251tt.jpg","",""
"null","<div style=""font-size:60px;""> </div>","null","fixation","html-keyboard-response","496","1639447","0.0-6.0-0.70","3023585","co38134","norming","","","","","","",""
"null","../img/tt/301tt.jpg","null","mooney1","image-keyboard-response","497","1642457","0.0-6.0-1.70","3023585","co38134","norming","","","","","","",""
"3824.249999999767","","","post_mooney1_questions","survey-likert","498","1646284","0.0-6.0-2.70","3023585","co38134","norming","","","{""curiosity"":6,""confidence"":0}","[0,1]","../img/tt/301tt.jpg","",""
"869.9799999995157","","","recognition","survey-text","499","1647156","0.0-6.0-3.70","3023585","co38134","norming","","","{""guess"":""""}","","../img/tt/301tt.jpg","",""
"null","../img/gs/301gs.jpg","null","reveal","image-keyboard-response","500","1649164","0.0-6.0-4.70","3023585","co38134","norming","","","","","","",""
"null","../img/tt/301tt.jpg","null","mooney2","image-keyboard-response","501","1651166","0.0-6.0-5.70","3023585","co38134","norming","","","","","","",""
"1915.5650000011083","","","post_reveal_questions","survey-likert","502","1653084","0.0-6.0-6.70","3023585","co38134","norming","","","{""aha"":5}","[0]","../img/tt/301tt.jpg","",""
"null","<div style=""font-size:60px;""> </div>","null","fixation","html-keyboard-response","503","1653286","0.0-6.0-0.71","3023585","co38134","norming","","","","","","",""
"null","../img/tt/279tt.jpg","null","mooney1","image-keyboard-response","504","1656297","0.0-6.0-1.71","3023585","co38134","norming","","","","","","",""
"3865.2399999990594","","","post_mooney1_questions","survey-likert","505","1660164","0.0-6.0-2.71","3023585","co38134","norming","","","{""curiosity"":6,""confidence"":0}","[0,1]","../img/tt/279tt.jpg","",""
"813.7349999998696","","","recognition","survey-text","506","1660980","0.0-6.0-3.71","3023585","co38134","norming","","","{""guess"":""""}","","../img/tt/279tt.jpg","",""
"null","../img/gs/279gs.jpg","null","reveal","image-keyboard-response","507","1662981","0.0-6.0-4.71","3023585","co38134","norming","","","","","","",""
"null","../img/tt/279tt.jpg","null","mooney2","image-keyboard-response","508","1664986","0.0-6.0-5.71","3023585","co38134","norming","","","","","","",""
"2312.1599999994505","","","post_reveal_questions","survey-likert","509","1667300","0.0-6.0-6.71","3023585","co38134","norming","","","{""aha"":5}","[0]","../img/tt/279tt.jpg","",""
"null","<div style=""font-size:60px;""> </div>","null","fixation","html-keyboard-response","510","1667509","0.0-6.0-0.72","3023585","co38134","norming","","","","","","",""
"null","../img/tt/1126tt.jpg","null","mooney1","image-keyboard-response","511","1670521","0.0-6.0-1.72","3023585","co38134","norming","","","","","","",""
"4330.405000000494","","","post_mooney1_questions","survey-likert","512","1674852","0.0-6.0-2.72","3023585","co38134","norming","","","{""curiosity"":5,""confidence"":1}","[0,1]","../img/tt/1126tt.jpg","",""
"3453.8400000003166","","","recognition","survey-text","513","1678308","0.0-6.0-3.72","3023585","co38134","norming","","","{""guess"":""vleermuis""}","","../img/tt/1126tt.jpg","",""
"null","../img/gs/1126gs.jpg","null","reveal","image-keyboard-response","514","1680310","0.0-6.0-4.72","3023585","co38134","norming","","","","","","",""
"null","../img/tt/1126tt.jpg","null","mooney2","image-keyboard-response","515","1682311","0.0-6.0-5.72","3023585","co38134","norming","","","","","","",""
"2001.9600000013597","","","post_reveal_questions","survey-likert","516","1684316","0.0-6.0-6.72","3023585","co38134","norming","","","{""aha"":5}","[0]","../img/tt/1126tt.jpg","",""
"null","<div style=""font-size:60px;""> </div>","null","fixation","html-keyboard-response","517","1684525","0.0-6.0-0.73","3023585","co38134","norming","","","","","","",""
"null","../img/tt/1232tt.jpg","null","mooney1","image-keyboard-response","518","1687534","0.0-6.0-1.73","3023585","co38134","norming","","","","","","",""
"3437.369999999646","","","post_mooney1_questions","survey-likert","519","1690975","0.0-6.0-2.73","3023585","co38134","norming","","","{""curiosity"":5,""confidence"":0}","[0,1]","../img/tt/1232tt.jpg","",""
"694.4199999999255","","","recognition","survey-text","520","1691671","0.0-6.0-3.73","3023585","co38134","norming","","","{""guess"":""""}","","../img/tt/1232tt.jpg","",""
"null","../img/gs/1232gs.jpg","null","reveal","image-keyboard-response","521","1693679","0.0-6.0-4.73","3023585","co38134","norming","","","","","","",""
"null","../img/tt/1232tt.jpg","null","mooney2","image-keyboard-response","522","1695682","0.0-6.0-5.73","3023585","co38134","norming","","","","","","",""
"2163.2850000006147","","","post_reveal_questions","survey-likert","523","1697847","0.0-6.0-6.73","3023585","co38134","norming","","","{""aha"":5}","[0]","../img/tt/1232tt.jpg","",""
"null","<div style=""font-size:60px;""> </div>","null","fixation","html-keyboard-response","524","1698048","0.0-6.0-0.74","3023585","co38134","norming","","","","","","",""
"null","../img/tt/442tt.jpg","null","mooney1","image-keyboard-response","525","1701056","0.0-6.0-1.74","3023585","co38134","norming","","","","","","",""
"4804.64000000013","","","post_mooney1_questions","survey-likert","526","1705863","0.0-6.0-2.74","3023585","co38134","norming","","","{""curiosity"":5,""confidence"":0}","[0,1]","../img/tt/442tt.jpg","",""
"717.964999999851","","","recognition","survey-text","527","1706583","0.0-6.0-3.74","3023585","co38134","norming","","","{""guess"":""""}","","../img/tt/442tt.jpg","",""
"null","../img/gs/442gs.jpg","null","reveal","image-keyboard-response","528","1708589","0.0-6.0-4.74","3023585","co38134","norming","","","","","","",""
"null","../img/tt/442tt.jpg","null","mooney2","image-keyboard-response","529","1710591","0.0-6.0-5.74","3023585","co38134","norming","","","","","","",""
"3103.1100000001024","","","post_reveal_questions","survey-likert","530","1713695","0.0-6.0-6.74","3023585","co38134","norming","","","{""aha"":4}","[0]","../img/tt/442tt.jpg","",""
"null","<div style=""font-size:60px;""> </div>","null","fixation","html-keyboard-response","531","1713896","0.0-6.0-0.75","3023585","co38134","norming","","","","","","",""
"null","../img/tt/1181tt.jpg","null","mooney1","image-keyboard-response","532","1716905","0.0-6.0-1.75","3023585","co38134","norming","","","","","","",""
"8698.954999999842","","","post_mooney1_questions","survey-likert","533","1725607","0.0-6.0-2.75","3023585","co38134","norming","","","{""curiosity"":4,""confidence"":2}","[0,1]","../img/tt/1181tt.jpg","",""
"6541.975000000093","","","recognition","survey-text","534","1732151","0.0-6.0-3.75","3023585","co38134","norming","","","{""guess"":""voetballers""}","","../img/tt/1181tt.jpg","",""
"null","../img/gs/1181gs.jpg","null","reveal","image-keyboard-response","535","1734152","0.0-6.0-4.75","3023585","co38134","norming","","","","","","",""
"null","../img/tt/1181tt.jpg","null","mooney2","image-keyboard-response","536","1736162","0.0-6.0-5.75","3023585","co38134","norming","","","","","","",""
"3539.094999999972","","","post_reveal_questions","survey-likert","537","1739703","0.0-6.0-6.75","3023585","co38134","norming","","","{""aha"":3}","[0]","../img/tt/1181tt.jpg","",""
"null","<div style=""font-size:60px;""> </div>","null","fixation","html-keyboard-response","538","1739914","0.0-6.0-0.76","3023585","co38134","norming","","","","","","",""
"null","../img/tt/1122tt.jpg","null","mooney1","image-keyboard-response","539","1742921","0.0-6.0-1.76","3023585","co38134","norming","","","","","","",""
"3060.844999999972","","","post_mooney1_questions","survey-likert","540","1745983","0.0-6.0-2.76","3023585","co38134","norming","","","{""curiosity"":4,""confidence"":2}","[0,1]","../img/tt/1122tt.jpg","",""
"3406.060000000987","","","recognition","survey-text","541","1749392","0.0-6.0-3.76","3023585","co38134","norming","","","{""guess"":""boot""}","","../img/tt/1122tt.jpg","",""
"null","../img/gs/1122gs.jpg","null","reveal","image-keyboard-response","542","1751399","0.0-6.0-4.76","3023585","co38134","norming","","","","","","",""
"null","../img/tt/1122tt.jpg","null","mooney2","image-keyboard-response","543","1753403","0.0-6.0-5.76","3023585","co38134","norming","","","","","","",""
"2618.329999999143","","","post_reveal_questions","survey-likert","544","1756024","0.0-6.0-6.76","3023585","co38134","norming","","","{""aha"":2}","[0]","../img/tt/1122tt.jpg","",""
"null","<div style=""font-size:60px;""> </div>","null","fixation","html-keyboard-response","545","1756229","0.0-6.0-0.77","3023585","co38134","norming","","","","","","",""
"null","../img/tt/357tt.jpg","null","mooney1","image-keyboard-response","546","1759238","0.0-6.0-1.77","3023585","co38134","norming","","","","","","",""
"3599.474999999162","","","post_mooney1_questions","survey-likert","547","1762840","0.0-6.0-2.77","3023585","co38134","norming","","","{""curiosity"":5,""confidence"":0}","[0,1]","../img/tt/357tt.jpg","",""
"893.8649999999907","","","recognition","survey-text","548","1763736","0.0-6.0-3.77","3023585","co38134","norming","","","{""guess"":""""}","","../img/tt/357tt.jpg","",""
"null","../img/gs/357gs.jpg","null","reveal","image-keyboard-response","549","1765745","0.0-6.0-4.77","3023585","co38134","norming","","","","","","",""
"null","../img/tt/357tt.jpg","null","mooney2","image-keyboard-response","550","1767755","0.0-6.0-5.77","3023585","co38134","norming","","","","","","",""
"2202.269999999786","","","post_reveal_questions","survey-likert","551","1769960","0.0-6.0-6.77","3023585","co38134","norming","","","{""aha"":4}","[0]","../img/tt/357tt.jpg","",""
"null","<div style=""font-size:60px;""> </div>","null","fixation","html-keyboard-response","552","1770170","0.0-6.0-0.78","3023585","co38134","norming","","","","","","",""
