"rt","stimulus","key_press","test_part","trial_type","trial_index","time_elapsed","internal_node_id","totalTime","subject","experiment_name","button_pressed","success","responses","question_order","currentStim","old","correct"
"15313.475000000039","Welcome to the experiment. This is an online experiment so please don't close the tab/window until we say goodbye.  Press any key to begin.","32","instructions","html-keyboard-response","0","15361","0.0-0.0","3424690","co38401","norming","","","","","","",""
"61400.174999999996","<div style='word-wrap: break-word; width: 900px'><h3>Please consider this information carefully before deciding whether to participate in this research</h3><ul style='text-align: left; font-size: .8em;'><li><b>Purpose of the research</b>: To examine how people process images.</li><li><b>What you will do in this research</b>:  Stimuli (images) will be presented on the computer and you will be asked different questions about them.</li><li><b>Time required</b>: Participation will take between 45 and 60 minutes to complete.</li><li><b>Risks</b>:  There are no anticipated risks associated with participating in this study. The effects of participating should be comparable to those you would experience from viewing a computer monitor for 30 minutes and using a mouse or keyboard.</li><li><b>Benefits</b>:  This study provides no benefits to you individually except for the credit. The study provides important information about the nature of perception and learning.</li><li><b>Confidentiality</b>:  Your participation in this study will remain confidential. No personally identifiable information will be associated with your data. Your de-identified data may be shared with other researchers and used in future projects.</li><li><b>Participation and withdrawal</b>:  Your participation in this study is completely voluntary and you may refuse to participate or you may choose to withdraw at any time without penalty.</li><li><b>How to contact the researchers</b>: If you have questions or concerns about your participation or payment, or want to request a summary of research findings, please contact Sander Van de Cruys (KU Leuven), at sander.vandecruys@kuleuven.be.</li></ul><p>The nature and purpose of this research have been sufficiently explained and I agree to participate in this study.  I understand that I am free to withdraw at any time without incurring any penalty.</p><p>Please consent by clicking the button below to continue. Otherwise, please exit the study at this time.</p></div>","","instructions","html-button-response","1","76761","0.0-1.0","3424690","co38401","norming","0","","","","","",""
"","","","instructions","fullscreen","2","84816","0.0-2.0","3424690","co38401","norming","","true","","","","",""
"29398.500000000015","","","sona","survey-html-form","3","114221","0.0-3.0","3424690","co38401","norming","","","[{""name"":""sonaid"",""value"":""38401""},{""name"":""debrief"",""value"":""yes""},{""name"":""datajoin"",""value"":""yes""}]","","","",""
"97611.85","<div style='word-wrap: break-word; width: 900px'><h3>Instructions</h3><p>This experiment will have 3 parts. In the first part you will see a series of distorted images like the one below on the left. As you can see in the righthand image, the distorted images are derived from actual photographs. In what follows, you will <strong>briefly</strong> be presented with <strong>only</strong> the distorted image.</p> <div style='float: left; margin-right: 20px;'><img src='../img/018tt.jpg' height='250' width='250'></img></div><div style='float: right; margin-left: 20px;'><img src='../img/018gs.jpg' height='250' width='250'></img></div><p>Subsequently you will be asked a few questions about the image: One question on how <strong>curious</strong> you are about the solution and one on how <strong>confident</strong> you are that you know the solution.</p>Next, we ask you to make a guess on what is in the image. Note that it is OK to name just the <strong>basic level category</strong>. For example when you see a parrot in the image, 'parrot' will obviously be a correct answer but also correct is 'bird'. However, 'animal' will <strong>not</strong> be counted as a correct response. For the example above, 'rose' would be correct or 'flower', but not 'plant'. When soccer players are depicted, 'soccer', 'football', 'soccer players' will be correct, but not 'humans', 'outdoors', or 'sports'. You do not need to describe the image in full, just name the main object in it <strong>in one or two words</strong>. All images depict objects from one of the following broad level categories: animals, inanimate objects, plants, sports, vehicles, and food. Recognizing means knowing <strong>more</strong> than these broad labels for a given image. But we always encourage you to <strong>make a guess</strong> if you can. Note that you are allowed to use <strong>Dutch and English</strong> in your answers, whatever comes easiest for you.</p><p>Press any key to continue.</p></div>","32","instructions","html-keyboard-response","4","211838","0.0-4.0","3424690","co38401","norming","","","","","","",""
"285500.04500000004","<div style='word-wrap: break-word; width: 900px'><h3>Instructions</h3> <p>Next, the solution image will be revealed to you and you'll be asked to indicate how strong your <strong>aha-experience</strong> was after seeing the solution. This describes the positive feeling of the 'click' you sometimes experience, when the pieces of the 'puzzle' fall together and you suddenly have 'insight' in the image.</p><img src='aha.jpg' height='188' width='250'></img><p>Note that there are no right or wrong answers. We are interested in what <strong>you</strong> see in the image and how <strong>you</strong> feel about it.</p><p>Press any key to start the experiment.</p></div>","32","instructions","html-keyboard-response","5","497613","0.0-5.0","3424690","co38401","norming","","","","","","",""
"null","<div style=""font-size:60px;""> </div>","null","fixation","html-keyboard-response","6","497823","0.0-6.0-0.0","3424690","co38401","norming","","","","","","",""
"null","../img/tt/1353tt.jpg","null","mooney1","image-keyboard-response","7","500829","0.0-6.0-1.0","3424690","co38401","norming","","","","","","",""
"10735.300000000047","","","post_mooney1_questions","survey-likert","8","511565","0.0-6.0-2.0","3424690","co38401","norming","","","{""curiosity"":6,""confidence"":1}","[0,1]","../img/tt/1353tt.jpg","",""
"8069.575000000012","","","recognition","survey-text","9","519637","0.0-6.0-3.0","3424690","co38401","norming","","","{""guess"":""flower""}","","../img/tt/1353tt.jpg","",""
"null","../img/gs/1353gs.jpg","null","reveal","image-keyboard-response","10","521639","0.0-6.0-4.0","3424690","co38401","norming","","","","","","",""
"null","../img/tt/1353tt.jpg","null","mooney2","image-keyboard-response","11","523641","0.0-6.0-5.0","3424690","co38401","norming","","","","","","",""
"7227.60999999987","","","post_reveal_questions","survey-likert","12","530869","0.0-6.0-6.0","3424690","co38401","norming","","","{""aha"":5}","[0]","../img/tt/1353tt.jpg","",""
"null","<div style=""font-size:60px;""> </div>","null","fixation","html-keyboard-response","13","531080","0.0-6.0-0.1","3424690","co38401","norming","","","","","","",""
"null","../img/tt/1276tt.jpg","null","mooney1","image-keyboard-response","14","534081","0.0-6.0-1.1","3424690","co38401","norming","","","","","","",""
"7555.515000000014","","","post_mooney1_questions","survey-likert","15","541637","0.0-6.0-2.1","3424690","co38401","norming","","","{""curiosity"":3,""confidence"":0}","[0,1]","../img/tt/1276tt.jpg","",""
"8661.810000000056","","","recognition","survey-text","16","550301","0.0-6.0-3.1","3424690","co38401","norming","","","{""guess"":""a horse""}","","../img/tt/1276tt.jpg","",""
"null","../img/gs/1276gs.jpg","null","reveal","image-keyboard-response","17","552302","0.0-6.0-4.1","3424690","co38401","norming","","","","","","",""
"null","../img/tt/1276tt.jpg","null","mooney2","image-keyboard-response","18","554309","0.0-6.0-5.1","3424690","co38401","norming","","","","","","",""
"5918.599999999977","","","post_reveal_questions","survey-likert","19","560240","0.0-6.0-6.1","3424690","co38401","norming","","","{""aha"":0}","[0]","../img/tt/1276tt.jpg","",""
"null","<div style=""font-size:60px;""> </div>","null","fixation","html-keyboard-response","20","560441","0.0-6.0-0.2","3424690","co38401","norming","","","","","","",""
"null","../img/tt/273tt.jpg","null","mooney1","image-keyboard-response","21","563452","0.0-6.0-1.2","3424690","co38401","norming","","","","","","",""
"7507.405000000028","","","post_mooney1_questions","survey-likert","22","570960","0.0-6.0-2.2","3424690","co38401","norming","","","{""curiosity"":4,""confidence"":0}","[0,1]","../img/tt/273tt.jpg","",""
"14838.170000000042","","","recognition","survey-text","23","585800","0.0-6.0-3.2","3424690","co38401","norming","","","{""guess"":""couch""}","","../img/tt/273tt.jpg","",""
"null","../img/gs/273gs.jpg","null","reveal","image-keyboard-response","24","587804","0.0-6.0-4.2","3424690","co38401","norming","","","","","","",""
"null","../img/tt/273tt.jpg","null","mooney2","image-keyboard-response","25","589813","0.0-6.0-5.2","3424690","co38401","norming","","","","","","",""
"3736.7149999999674","","","post_reveal_questions","survey-likert","26","593552","0.0-6.0-6.2","3424690","co38401","norming","","","{""aha"":0}","[0]","../img/tt/273tt.jpg","",""
"null","<div style=""font-size:60px;""> </div>","null","fixation","html-keyboard-response","27","593757","0.0-6.0-0.3","3424690","co38401","norming","","","","","","",""
"null","../img/tt/1186tt.jpg","null","mooney1","image-keyboard-response","28","596761","0.0-6.0-1.3","3424690","co38401","norming","","","","","","",""
"7531.97499999986","","","post_mooney1_questions","survey-likert","29","604296","0.0-6.0-2.3","3424690","co38401","norming","","","{""curiosity"":4,""confidence"":2}","[0,1]","../img/tt/1186tt.jpg","",""
"8861.944999999832","","","recognition","survey-text","30","613160","0.0-6.0-3.3","3424690","co38401","norming","","","{""guess"":""paintballer""}","","../img/tt/1186tt.jpg","",""
"null","../img/gs/1186gs.jpg","null","reveal","image-keyboard-response","31","615162","0.0-6.0-4.3","3424690","co38401","norming","","","","","","",""
"null","../img/tt/1186tt.jpg","null","mooney2","image-keyboard-response","32","617166","0.0-6.0-5.3","3424690","co38401","norming","","","","","","",""
"4215.784999999916","","","post_reveal_questions","survey-likert","33","621387","0.0-6.0-6.3","3424690","co38401","norming","","","{""aha"":3}","[0]","../img/tt/1186tt.jpg","",""
"null","<div style=""font-size:60px;""> </div>","null","fixation","html-keyboard-response","34","621593","0.0-6.0-0.4","3424690","co38401","norming","","","","","","",""
"null","../img/tt/055tt.jpg","null","mooney1","image-keyboard-response","35","624603","0.0-6.0-1.4","3424690","co38401","norming","","","","","","",""
"6628.864999999874","","","post_mooney1_questions","survey-likert","36","631235","0.0-6.0-2.4","3424690","co38401","norming","","","{""curiosity"":3,""confidence"":0}","[0,1]","../img/tt/055tt.jpg","",""
"5350.135000000126","","","recognition","survey-text","37","636587","0.0-6.0-3.4","3424690","co38401","norming","","","{""guess"":""een zadel""}","","../img/tt/055tt.jpg","",""
"null","../img/gs/055gs.jpg","null","reveal","image-keyboard-response","38","638592","0.0-6.0-4.4","3424690","co38401","norming","","","","","","",""
"null","../img/tt/055tt.jpg","null","mooney2","image-keyboard-response","39","640597","0.0-6.0-5.4","3424690","co38401","norming","","","","","","",""
"5323.2949999999255","","","post_reveal_questions","survey-likert","40","645922","0.0-6.0-6.4","3424690","co38401","norming","","","{""aha"":2}","[0]","../img/tt/055tt.jpg","",""
"null","<div style=""font-size:60px;""> </div>","null","fixation","html-keyboard-response","41","646133","0.0-6.0-0.5","3424690","co38401","norming","","","","","","",""
"null","../img/tt/1070tt.jpg","null","mooney1","image-keyboard-response","42","649139","0.0-6.0-1.5","3424690","co38401","norming","","","","","","",""
"7908.979999999981","","","post_mooney1_questions","survey-likert","43","657050","0.0-6.0-2.5","3424690","co38401","norming","","","{""curiosity"":2,""confidence"":5}","[0,1]","../img/tt/1070tt.jpg","",""
"6502.264999999898","","","recognition","survey-text","44","663554","0.0-6.0-3.5","3424690","co38401","norming","","","{""guess"":""pie""}","","../img/tt/1070tt.jpg","",""
"null","../img/gs/1070gs.jpg","null","reveal","image-keyboard-response","45","665559","0.0-6.0-4.5","3424690","co38401","norming","","","","","","",""
"null","../img/tt/1070tt.jpg","null","mooney2","image-keyboard-response","46","667567","0.0-6.0-5.5","3424690","co38401","norming","","","","","","",""
"2521.015000000014","","","post_reveal_questions","survey-likert","47","670091","0.0-6.0-6.5","3424690","co38401","norming","","","{""aha"":0}","[0]","../img/tt/1070tt.jpg","",""
"null","<div style=""font-size:60px;""> </div>","null","fixation","html-keyboard-response","48","670297","0.0-6.0-0.6","3424690","co38401","norming","","","","","","",""
"null","../img/tt/053tt.jpg","null","mooney1","image-keyboard-response","49","673301","0.0-6.0-1.6","3424690","co38401","norming","","","","","","",""
"6594.729999999981","","","post_mooney1_questions","survey-likert","50","679893","0.0-6.0-2.6","3424690","co38401","norming","","","{""curiosity"":6,""confidence"":0}","[0,1]","../img/tt/053tt.jpg","",""
"4509.964999999967","","","recognition","survey-text","51","684405","0.0-6.0-3.6","3424690","co38401","norming","","","{""guess"":""fence""}","","../img/tt/053tt.jpg","",""
"null","../img/gs/053gs.jpg","null","reveal","image-keyboard-response","52","686415","0.0-6.0-4.6","3424690","co38401","norming","","","","","","",""
"null","../img/tt/053tt.jpg","null","mooney2","image-keyboard-response","53","688420","0.0-6.0-5.6","3424690","co38401","norming","","","","","","",""
"2654.469999999972","","","post_reveal_questions","survey-likert","54","691077","0.0-6.0-6.6","3424690","co38401","norming","","","{""aha"":1}","[0]","../img/tt/053tt.jpg","",""
"null","<div style=""font-size:60px;""> </div>","null","fixation","html-keyboard-response","55","691280","0.0-6.0-0.7","3424690","co38401","norming","","","","","","",""
"null","../img/tt/584tt.jpg","null","mooney1","image-keyboard-response","56","694287","0.0-6.0-1.7","3424690","co38401","norming","","","","","","",""
"5675.140000000014","","","post_mooney1_questions","survey-likert","57","699965","0.0-6.0-2.7","3424690","co38401","norming","","","{""curiosity"":4,""confidence"":4}","[0,1]","../img/tt/584tt.jpg","",""
"5966.155000000144","","","recognition","survey-text","58","705933","0.0-6.0-3.7","3424690","co38401","norming","","","{""guess"":""flower""}","","../img/tt/584tt.jpg","",""
"null","../img/gs/584gs.jpg","null","reveal","image-keyboard-response","59","707939","0.0-6.0-4.7","3424690","co38401","norming","","","","","","",""
"null","../img/tt/584tt.jpg","null","mooney2","image-keyboard-response","60","709941","0.0-6.0-5.7","3424690","co38401","norming","","","","","","",""
"2271.4499999999534","","","post_reveal_questions","survey-likert","61","712213","0.0-6.0-6.7","3424690","co38401","norming","","","{""aha"":0}","[0]","../img/tt/584tt.jpg","",""
"null","<div style=""font-size:60px;""> </div>","null","fixation","html-keyboard-response","62","712416","0.0-6.0-0.8","3424690","co38401","norming","","","","","","",""
"null","../img/tt/599tt.jpg","null","mooney1","image-keyboard-response","63","715425","0.0-6.0-1.8","3424690","co38401","norming","","","","","","",""
"7075.425000000047","","","post_mooney1_questions","survey-likert","64","722501","0.0-6.0-2.8","3424690","co38401","norming","","","{""curiosity"":3,""confidence"":6}","[0,1]","../img/tt/599tt.jpg","",""
"6622.114999999874","","","recognition","survey-text","65","729125","0.0-6.0-3.8","3424690","co38401","norming","","","{""guess"":""two owls""}","","../img/tt/599tt.jpg","",""
"null","../img/gs/599gs.jpg","null","reveal","image-keyboard-response","66","731136","0.0-6.0-4.8","3424690","co38401","norming","","","","","","",""
"null","../img/tt/599tt.jpg","null","mooney2","image-keyboard-response","67","733141","0.0-6.0-5.8","3424690","co38401","norming","","","","","","",""
"5607.025000000023","","","post_reveal_questions","survey-likert","68","738749","0.0-6.0-6.8","3424690","co38401","norming","","","{""aha"":0}","[0]","../img/tt/599tt.jpg","",""
"null","<div style=""font-size:60px;""> </div>","null","fixation","html-keyboard-response","69","738954","0.0-6.0-0.9","3424690","co38401","norming","","","","","","",""
"null","../img/tt/040tt.jpg","null","mooney1","image-keyboard-response","70","741972","0.0-6.0-1.9","3424690","co38401","norming","","","","","","",""
"6340.420000000042","","","post_mooney1_questions","survey-likert","71","748315","0.0-6.0-2.9","3424690","co38401","norming","","","{""curiosity"":2,""confidence"":4}","[0,1]","../img/tt/040tt.jpg","",""
"3564.454999999958","","","recognition","survey-text","72","751883","0.0-6.0-3.9","3424690","co38401","norming","","","{""guess"":""dog""}","","../img/tt/040tt.jpg","",""
"null","../img/gs/040gs.jpg","null","reveal","image-keyboard-response","73","753889","0.0-6.0-4.9","3424690","co38401","norming","","","","","","",""
"null","../img/tt/040tt.jpg","null","mooney2","image-keyboard-response","74","755897","0.0-6.0-5.9","3424690","co38401","norming","","","","","","",""
"4255.695000000065","","","post_reveal_questions","survey-likert","75","760155","0.0-6.0-6.9","3424690","co38401","norming","","","{""aha"":0}","[0]","../img/tt/040tt.jpg","",""
"null","<div style=""font-size:60px;""> </div>","null","fixation","html-keyboard-response","76","760357","0.0-6.0-0.10","3424690","co38401","norming","","","","","","",""
"null","../img/tt/105tt.jpg","null","mooney1","image-keyboard-response","77","763367","0.0-6.0-1.10","3424690","co38401","norming","","","","","","",""
"8938.65500000026","","","post_mooney1_questions","survey-likert","78","772307","0.0-6.0-2.10","3424690","co38401","norming","","","{""curiosity"":4,""confidence"":3}","[0,1]","../img/tt/105tt.jpg","",""
"5222.07500000007","","","recognition","survey-text","79","777530","0.0-6.0-3.10","3424690","co38401","norming","","","{""guess"":""paperclips""}","","../img/tt/105tt.jpg","",""
"null","../img/gs/105gs.jpg","null","reveal","image-keyboard-response","80","779540","0.0-6.0-4.10","3424690","co38401","norming","","","","","","",""
"null","../img/tt/105tt.jpg","null","mooney2","image-keyboard-response","81","781548","0.0-6.0-5.10","3424690","co38401","norming","","","","","","",""
"3004.5400000000373","","","post_reveal_questions","survey-likert","82","784555","0.0-6.0-6.10","3424690","co38401","norming","","","{""aha"":2}","[0]","../img/tt/105tt.jpg","",""
"null","<div style=""font-size:60px;""> </div>","null","fixation","html-keyboard-response","83","784761","0.0-6.0-0.11","3424690","co38401","norming","","","","","","",""
"null","../img/tt/603tt.jpg","null","mooney1","image-keyboard-response","84","787765","0.0-6.0-1.11","3424690","co38401","norming","","","","","","",""
"4907.119999999879","","","post_mooney1_questions","survey-likert","85","792675","0.0-6.0-2.11","3424690","co38401","norming","","","{""curiosity"":3,""confidence"":3}","[0,1]","../img/tt/603tt.jpg","",""
"4182.169999999809","","","recognition","survey-text","86","796858","0.0-6.0-3.11","3424690","co38401","norming","","","{""guess"":""cat""}","","../img/tt/603tt.jpg","",""
"null","../img/gs/603gs.jpg","null","reveal","image-keyboard-response","87","798865","0.0-6.0-4.11","3424690","co38401","norming","","","","","","",""
"null","../img/tt/603tt.jpg","null","mooney2","image-keyboard-response","88","800868","0.0-6.0-5.11","3424690","co38401","norming","","","","","","",""
"4740.804999999818","","","post_reveal_questions","survey-likert","89","805602","0.0-6.0-6.11","3424690","co38401","norming","","","{""aha"":3}","[0]","../img/tt/603tt.jpg","",""
"null","<div style=""font-size:60px;""> </div>","null","fixation","html-keyboard-response","90","805807","0.0-6.0-0.12","3424690","co38401","norming","","","","","","",""
"null","../img/tt/076tt.jpg","null","mooney1","image-keyboard-response","91","808815","0.0-6.0-1.12","3424690","co38401","norming","","","","","","",""
"4751.710000000079","","","post_mooney1_questions","survey-likert","92","813570","0.0-6.0-2.12","3424690","co38401","norming","","","{""curiosity"":0,""confidence"":5}","[0,1]","../img/tt/076tt.jpg","",""
"4974.214999999967","","","recognition","survey-text","93","818546","0.0-6.0-3.12","3424690","co38401","norming","","","{""guess"":""rollerskates""}","","../img/tt/076tt.jpg","",""
"null","../img/gs/076gs.jpg","null","reveal","image-keyboard-response","94","820546","0.0-6.0-4.12","3424690","co38401","norming","","","","","","",""
"null","../img/tt/076tt.jpg","null","mooney2","image-keyboard-response","95","822549","0.0-6.0-5.12","3424690","co38401","norming","","","","","","",""
"1914.4800000002142","","","post_reveal_questions","survey-likert","96","824465","0.0-6.0-6.12","3424690","co38401","norming","","","{""aha"":1}","[0]","../img/tt/076tt.jpg","",""
"null","<div style=""font-size:60px;""> </div>","null","fixation","html-keyboard-response","97","824669","0.0-6.0-0.13","3424690","co38401","norming","","","","","","",""
"null","../img/tt/1235tt.jpg","null","mooney1","image-keyboard-response","98","827674","0.0-6.0-1.13","3424690","co38401","norming","","","","","","",""
"7612.634999999893","","","post_mooney1_questions","survey-likert","99","835290","0.0-6.0-2.13","3424690","co38401","norming","","","{""curiosity"":4,""confidence"":4}","[0,1]","../img/tt/1235tt.jpg","",""
"4006.029999999795","","","recognition","survey-text","100","839297","0.0-6.0-3.13","3424690","co38401","norming","","","{""guess"":""horse""}","","../img/tt/1235tt.jpg","",""
"null","../img/gs/1235gs.jpg","null","reveal","image-keyboard-response","101","841299","0.0-6.0-4.13","3424690","co38401","norming","","","","","","",""
"null","../img/tt/1235tt.jpg","null","mooney2","image-keyboard-response","102","843303","0.0-6.0-5.13","3424690","co38401","norming","","","","","","",""
"2367.605000000098","","","post_reveal_questions","survey-likert","103","845673","0.0-6.0-6.13","3424690","co38401","norming","","","{""aha"":5}","[0]","../img/tt/1235tt.jpg","",""
"null","<div style=""font-size:60px;""> </div>","null","fixation","html-keyboard-response","104","845884","0.0-6.0-0.14","3424690","co38401","norming","","","","","","",""
"null","../img/tt/091tt.jpg","null","mooney1","image-keyboard-response","105","848893","0.0-6.0-1.14","3424690","co38401","norming","","","","","","",""
"5553.510000000009","","","post_mooney1_questions","survey-likert","106","854450","0.0-6.0-2.14","3424690","co38401","norming","","","{""curiosity"":6,""confidence"":0}","[0,1]","../img/tt/091tt.jpg","",""
"14829.929999999935","","","recognition","survey-text","107","869284","0.0-6.0-3.14","3424690","co38401","norming","","","{""guess"":""dancing people""}","","../img/tt/091tt.jpg","",""
"null","../img/gs/091gs.jpg","null","reveal","image-keyboard-response","108","871287","0.0-6.0-4.14","3424690","co38401","norming","","","","","","",""
"null","../img/tt/091tt.jpg","null","mooney2","image-keyboard-response","109","873296","0.0-6.0-5.14","3424690","co38401","norming","","","","","","",""
"3490.634999999893","","","post_reveal_questions","survey-likert","110","876788","0.0-6.0-6.14","3424690","co38401","norming","","","{""aha"":4}","[0]","../img/tt/091tt.jpg","",""
"null","<div style=""font-size:60px;""> </div>","null","fixation","html-keyboard-response","111","876990","0.0-6.0-0.15","3424690","co38401","norming","","","","","","",""
"null","../img/tt/064tt.jpg","null","mooney1","image-keyboard-response","112","879998","0.0-6.0-1.15","3424690","co38401","norming","","","","","","",""
"4930.974999999977","","","post_mooney1_questions","survey-likert","113","884932","0.0-6.0-2.15","3424690","co38401","norming","","","{""curiosity"":4,""confidence"":6}","[0,1]","../img/tt/064tt.jpg","",""
"7981.775000000023","","","recognition","survey-text","114","892915","0.0-6.0-3.15","3424690","co38401","norming","","","{""guess"":""turtle""}","","../img/tt/064tt.jpg","",""
"null","../img/gs/064gs.jpg","null","reveal","image-keyboard-response","115","894926","0.0-6.0-4.15","3424690","co38401","norming","","","","","","",""
"null","../img/tt/064tt.jpg","null","mooney2","image-keyboard-response","116","896930","0.0-6.0-5.15","3424690","co38401","norming","","","","","","",""
"3006.75","","","post_reveal_questions","survey-likert","117","899940","0.0-6.0-6.15","3424690","co38401","norming","","","{""aha"":0}","[0]","../img/tt/064tt.jpg","",""
"null","<div style=""font-size:60px;""> </div>","null","fixation","html-keyboard-response","118","900146","0.0-6.0-0.16","3424690","co38401","norming","","","","","","",""
"null","../img/tt/378tt.jpg","null","mooney1","image-keyboard-response","119","903151","0.0-6.0-1.16","3424690","co38401","norming","","","","","","",""
"5426.024999999907","","","post_mooney1_questions","survey-likert","120","908580","0.0-6.0-2.16","3424690","co38401","norming","","","{""curiosity"":6,""confidence"":1}","[0,1]","../img/tt/378tt.jpg","",""
"3310.2750000000233","","","recognition","survey-text","121","911892","0.0-6.0-3.16","3424690","co38401","norming","","","{""guess"":""frog""}","","../img/tt/378tt.jpg","",""
"null","../img/gs/378gs.jpg","null","reveal","image-keyboard-response","122","913894","0.0-6.0-4.16","3424690","co38401","norming","","","","","","",""
"null","../img/tt/378tt.jpg","null","mooney2","image-keyboard-response","123","915901","0.0-6.0-5.16","3424690","co38401","norming","","","","","","",""
"4628.519999999902","","","post_reveal_questions","survey-likert","124","920532","0.0-6.0-6.16","3424690","co38401","norming","","","{""aha"":5}","[0]","../img/tt/378tt.jpg","",""
"null","<div style=""font-size:60px;""> </div>","null","fixation","html-keyboard-response","125","920734","0.0-6.0-0.17","3424690","co38401","norming","","","","","","",""
"null","../img/tt/590tt.jpg","null","mooney1","image-keyboard-response","126","923752","0.0-6.0-1.17","3424690","co38401","norming","","","","","","",""
"5287.839999999967","","","post_mooney1_questions","survey-likert","127","929042","0.0-6.0-2.17","3424690","co38401","norming","","","{""curiosity"":3,""confidence"":3}","[0,1]","../img/tt/590tt.jpg","",""
"8390.429999999935","","","recognition","survey-text","128","937435","0.0-6.0-3.17","3424690","co38401","norming","","","{""guess"":""chair and table""}","","../img/tt/590tt.jpg","",""
"null","../img/gs/590gs.jpg","null","reveal","image-keyboard-response","129","939443","0.0-6.0-4.17","3424690","co38401","norming","","","","","","",""
"null","../img/tt/590tt.jpg","null","mooney2","image-keyboard-response","130","941452","0.0-6.0-5.17","3424690","co38401","norming","","","","","","",""
"3085.384999999893","","","post_reveal_questions","survey-likert","131","944538","0.0-6.0-6.17","3424690","co38401","norming","","","{""aha"":5}","[0]","../img/tt/590tt.jpg","",""
"null","<div style=""font-size:60px;""> </div>","null","fixation","html-keyboard-response","132","944747","0.0-6.0-0.18","3424690","co38401","norming","","","","","","",""
"null","../img/tt/1126tt.jpg","null","mooney1","image-keyboard-response","133","947753","0.0-6.0-1.18","3424690","co38401","norming","","","","","","",""
"5814.59999999986","","","post_mooney1_questions","survey-likert","134","953570","0.0-6.0-2.18","3424690","co38401","norming","","","{""curiosity"":6,""confidence"":0}","[0,1]","../img/tt/1126tt.jpg","",""
"3926.149999999674","","","recognition","survey-text","135","957498","0.0-6.0-3.18","3424690","co38401","norming","","","{""guess"":""rocks""}","","../img/tt/1126tt.jpg","",""
"null","../img/gs/1126gs.jpg","null","reveal","image-keyboard-response","136","959501","0.0-6.0-4.18","3424690","co38401","norming","","","","","","",""
"null","../img/tt/1126tt.jpg","null","mooney2","image-keyboard-response","137","961503","0.0-6.0-5.18","3424690","co38401","norming","","","","","","",""
"2616.980000000098","","","post_reveal_questions","survey-likert","138","964122","0.0-6.0-6.18","3424690","co38401","norming","","","{""aha"":4}","[0]","../img/tt/1126tt.jpg","",""
"null","<div style=""font-size:60px;""> </div>","null","fixation","html-keyboard-response","139","964325","0.0-6.0-0.19","3424690","co38401","norming","","","","","","",""
"null","../img/tt/1189tt.jpg","null","mooney1","image-keyboard-response","140","967328","0.0-6.0-1.19","3424690","co38401","norming","","","","","","",""
"4760.049999999814","","","post_mooney1_questions","survey-likert","141","972090","0.0-6.0-2.19","3424690","co38401","norming","","","{""curiosity"":6,""confidence"":0}","[0,1]","../img/tt/1189tt.jpg","",""
"6477.479999999981","","","recognition","survey-text","142","978570","0.0-6.0-3.19","3424690","co38401","norming","","","{""guess"":""river""}","","../img/tt/1189tt.jpg","",""
"null","../img/gs/1189gs.jpg","null","reveal","image-keyboard-response","143","980571","0.0-6.0-4.19","3424690","co38401","norming","","","","","","",""
"null","../img/tt/1189tt.jpg","null","mooney2","image-keyboard-response","144","982582","0.0-6.0-5.19","3424690","co38401","norming","","","","","","",""
"2273.5950000000885","","","post_reveal_questions","survey-likert","145","984856","0.0-6.0-6.19","3424690","co38401","norming","","","{""aha"":6}","[0]","../img/tt/1189tt.jpg","",""
"null","<div style=""font-size:60px;""> </div>","null","fixation","html-keyboard-response","146","985059","0.0-6.0-0.20","3424690","co38401","norming","","","","","","",""
"null","../img/tt/1040tt.jpg","null","mooney1","image-keyboard-response","147","988071","0.0-6.0-1.20","3424690","co38401","norming","","","","","","",""
"6110.930000000051","","","post_mooney1_questions","survey-likert","148","994184","0.0-6.0-2.20","3424690","co38401","norming","","","{""curiosity"":4,""confidence"":2}","[0,1]","../img/tt/1040tt.jpg","",""
"4781.994999999879","","","recognition","survey-text","149","998968","0.0-6.0-3.20","3424690","co38401","norming","","","{""guess"":""a cyclist""}","","../img/tt/1040tt.jpg","",""
"null","../img/gs/1040gs.jpg","null","reveal","image-keyboard-response","150","1000969","0.0-6.0-4.20","3424690","co38401","norming","","","","","","",""
"null","../img/tt/1040tt.jpg","null","mooney2","image-keyboard-response","151","1002972","0.0-6.0-5.20","3424690","co38401","norming","","","","","","",""
"2762.210000000079","","","post_reveal_questions","survey-likert","152","1005736","0.0-6.0-6.20","3424690","co38401","norming","","","{""aha"":6}","[0]","../img/tt/1040tt.jpg","",""
"null","<div style=""font-size:60px;""> </div>","null","fixation","html-keyboard-response","153","1005940","0.0-6.0-0.21","3424690","co38401","norming","","","","","","",""
"null","../img/tt/111tt.jpg","null","mooney1","image-keyboard-response","154","1008952","0.0-6.0-1.21","3424690","co38401","norming","","","","","","",""
"5989.589999999967","","","post_mooney1_questions","survey-likert","155","1014944","0.0-6.0-2.21","3424690","co38401","norming","","","{""curiosity"":0,""confidence"":0}","[0,1]","../img/tt/111tt.jpg","",""
"3526.1549999999115","","","recognition","survey-text","156","1018472","0.0-6.0-3.21","3424690","co38401","norming","","","{""guess"":""rocks""}","","../img/tt/111tt.jpg","",""
"null","../img/gs/111gs.jpg","null","reveal","image-keyboard-response","157","1020482","0.0-6.0-4.21","3424690","co38401","norming","","","","","","",""
"null","../img/tt/111tt.jpg","null","mooney2","image-keyboard-response","158","1022486","0.0-6.0-5.21","3424690","co38401","norming","","","","","","",""
"3144.239999999758","","","post_reveal_questions","survey-likert","159","1025632","0.0-6.0-6.21","3424690","co38401","norming","","","{""aha"":2}","[0]","../img/tt/111tt.jpg","",""
"null","<div style=""font-size:60px;""> </div>","null","fixation","html-keyboard-response","160","1025843","0.0-6.0-0.22","3424690","co38401","norming","","","","","","",""
"null","../img/tt/1261tt.jpg","null","mooney1","image-keyboard-response","161","1028854","0.0-6.0-1.22","3424690","co38401","norming","","","","","","",""
"6615.054999999935","","","post_mooney1_questions","survey-likert","162","1035472","0.0-6.0-2.22","3424690","co38401","norming","","","{""curiosity"":6,""confidence"":3}","[0,1]","../img/tt/1261tt.jpg","",""
"13222.410000000149","","","recognition","survey-text","163","1048701","0.0-6.0-3.22","3424690","co38401","norming","","","{""guess"":""window with curtains""}","","../img/tt/1261tt.jpg","",""
"null","../img/gs/1261gs.jpg","null","reveal","image-keyboard-response","164","1050704","0.0-6.0-4.22","3424690","co38401","norming","","","","","","",""
"null","../img/tt/1261tt.jpg","null","mooney2","image-keyboard-response","165","1052706","0.0-6.0-5.22","3424690","co38401","norming","","","","","","",""
"2504.1099999998696","","","post_reveal_questions","survey-likert","166","1055213","0.0-6.0-6.22","3424690","co38401","norming","","","{""aha"":6}","[0]","../img/tt/1261tt.jpg","",""
"null","<div style=""font-size:60px;""> </div>","null","fixation","html-keyboard-response","167","1055418","0.0-6.0-0.23","3424690","co38401","norming","","","","","","",""
"null","../img/tt/580tt.jpg","null","mooney1","image-keyboard-response","168","1058425","0.0-6.0-1.23","3424690","co38401","norming","","","","","","",""
"5456.435000000056","","","post_mooney1_questions","survey-likert","169","1063885","0.0-6.0-2.23","3424690","co38401","norming","","","{""curiosity"":5,""confidence"":1}","[0,1]","../img/tt/580tt.jpg","",""
"4254.164999999804","","","recognition","survey-text","170","1068140","0.0-6.0-3.23","3424690","co38401","norming","","","{""guess"":""face""}","","../img/tt/580tt.jpg","",""
"null","../img/gs/580gs.jpg","null","reveal","image-keyboard-response","171","1070148","0.0-6.0-4.23","3424690","co38401","norming","","","","","","",""
"null","../img/tt/580tt.jpg","null","mooney2","image-keyboard-response","172","1072150","0.0-6.0-5.23","3424690","co38401","norming","","","","","","",""
"3028.250000000233","","","post_reveal_questions","survey-likert","173","1075180","0.0-6.0-6.23","3424690","co38401","norming","","","{""aha"":6}","[0]","../img/tt/580tt.jpg","",""
"null","<div style=""font-size:60px;""> </div>","null","fixation","html-keyboard-response","174","1075387","0.0-6.0-0.24","3424690","co38401","norming","","","","","","",""
"null","../img/tt/094tt.jpg","null","mooney1","image-keyboard-response","175","1078389","0.0-6.0-1.24","3424690","co38401","norming","","","","","","",""
"5237.885000000009","","","post_mooney1_questions","survey-likert","176","1083628","0.0-6.0-2.24","3424690","co38401","norming","","","{""curiosity"":6,""confidence"":0}","[0,1]","../img/tt/094tt.jpg","",""
"2510.3799999998882","","","recognition","survey-text","177","1086140","0.0-6.0-3.24","3424690","co38401","norming","","","{""guess"":""dog""}","","../img/tt/094tt.jpg","",""
"null","../img/gs/094gs.jpg","null","reveal","image-keyboard-response","178","1088148","0.0-6.0-4.24","3424690","co38401","norming","","","","","","",""
"null","../img/tt/094tt.jpg","null","mooney2","image-keyboard-response","179","1090151","0.0-6.0-5.24","3424690","co38401","norming","","","","","","",""
"2586.655000000028","","","post_reveal_questions","survey-likert","180","1092740","0.0-6.0-6.24","3424690","co38401","norming","","","{""aha"":0}","[0]","../img/tt/094tt.jpg","",""
"null","<div style=""font-size:60px;""> </div>","null","fixation","html-keyboard-response","181","1092948","0.0-6.0-0.25","3424690","co38401","norming","","","","","","",""
"null","../img/tt/1309tt.jpg","null","mooney1","image-keyboard-response","182","1095959","0.0-6.0-1.25","3424690","co38401","norming","","","","","","",""
"4906.340000000084","","","post_mooney1_questions","survey-likert","183","1100869","0.0-6.0-2.25","3424690","co38401","norming","","","{""curiosity"":6,""confidence"":4}","[0,1]","../img/tt/1309tt.jpg","",""
"6998.130000000121","","","recognition","survey-text","184","1107860","0.0-6.0-3.25","3424690","co38401","norming","","","{""guess"":""car in the woods""}","","../img/tt/1309tt.jpg","",""
"null","../img/gs/1309gs.jpg","null","reveal","image-keyboard-response","185","1109863","0.0-6.0-4.25","3424690","co38401","norming","","","","","","",""
"null","../img/tt/1309tt.jpg","null","mooney2","image-keyboard-response","186","1111865","0.0-6.0-5.25","3424690","co38401","norming","","","","","","",""
"3633.215000000084","","","post_reveal_questions","survey-likert","187","1115500","0.0-6.0-6.25","3424690","co38401","norming","","","{""aha"":0}","[0]","../img/tt/1309tt.jpg","",""
"null","<div style=""font-size:60px;""> </div>","null","fixation","html-keyboard-response","188","1115702","0.0-6.0-0.26","3424690","co38401","norming","","","","","","",""
"null","../img/tt/1143tt.jpg","null","mooney1","image-keyboard-response","189","1118712","0.0-6.0-1.26","3424690","co38401","norming","","","","","","",""
"4539.204999999842","","","post_mooney1_questions","survey-likert","190","1123252","0.0-6.0-2.26","3424690","co38401","norming","","","{""curiosity"":6,""confidence"":1}","[0,1]","../img/tt/1143tt.jpg","",""
"7342.155000000028","","","recognition","survey-text","191","1130596","0.0-6.0-3.26","3424690","co38401","norming","","","{""guess"":""theater""}","","../img/tt/1143tt.jpg","",""
"null","../img/gs/1143gs.jpg","null","reveal","image-keyboard-response","192","1132598","0.0-6.0-4.26","3424690","co38401","norming","","","","","","",""
"null","../img/tt/1143tt.jpg","null","mooney2","image-keyboard-response","193","1134602","0.0-6.0-5.26","3424690","co38401","norming","","","","","","",""
"2407.839999999851","","","post_reveal_questions","survey-likert","194","1137012","0.0-6.0-6.26","3424690","co38401","norming","","","{""aha"":5}","[0]","../img/tt/1143tt.jpg","",""
"null","<div style=""font-size:60px;""> </div>","null","fixation","html-keyboard-response","195","1137213","0.0-6.0-0.27","3424690","co38401","norming","","","","","","",""
"null","../img/tt/1250tt.jpg","null","mooney1","image-keyboard-response","196","1140225","0.0-6.0-1.27","3424690","co38401","norming","","","","","","",""
"5552.245000000112","","","post_mooney1_questions","survey-likert","197","1145780","0.0-6.0-2.27","3424690","co38401","norming","","","{""curiosity"":5,""confidence"":3}","[0,1]","../img/tt/1250tt.jpg","",""
"6894.220000000205","","","recognition","survey-text","198","1152676","0.0-6.0-3.27","3424690","co38401","norming","","","{""guess"":""stokstaartjes""}","","../img/tt/1250tt.jpg","",""
"null","../img/gs/1250gs.jpg","null","reveal","image-keyboard-response","199","1154683","0.0-6.0-4.27","3424690","co38401","norming","","","","","","",""
"null","../img/tt/1250tt.jpg","null","mooney2","image-keyboard-response","200","1156690","0.0-6.0-5.27","3424690","co38401","norming","","","","","","",""
"2335.4749999998603","","","post_reveal_questions","survey-likert","201","1159028","0.0-6.0-6.27","3424690","co38401","norming","","","{""aha"":6}","[0]","../img/tt/1250tt.jpg","",""
"null","<div style=""font-size:60px;""> </div>","null","fixation","html-keyboard-response","202","1159236","0.0-6.0-0.28","3424690","co38401","norming","","","","","","",""
"null","../img/tt/549tt.jpg","null","mooney1","image-keyboard-response","203","1162241","0.0-6.0-1.28","3424690","co38401","norming","","","","","","",""
"4600.579999999842","","","post_mooney1_questions","survey-likert","204","1166853","0.0-6.0-2.28","3424690","co38401","norming","","","{""curiosity"":6,""confidence"":0}","[0,1]","../img/tt/549tt.jpg","",""
"3654.1650000000373","","","recognition","survey-text","205","1170509","0.0-6.0-3.28","3424690","co38401","norming","","","{""guess"":""stick""}","","../img/tt/549tt.jpg","",""
"null","../img/gs/549gs.jpg","null","reveal","image-keyboard-response","206","1172511","0.0-6.0-4.28","3424690","co38401","norming","","","","","","",""
"null","../img/tt/549tt.jpg","null","mooney2","image-keyboard-response","207","1174519","0.0-6.0-5.28","3424690","co38401","norming","","","","","","",""
"3635.179999999935","","","post_reveal_questions","survey-likert","208","1178157","0.0-6.0-6.28","3424690","co38401","norming","","","{""aha"":3}","[0]","../img/tt/549tt.jpg","",""
"null","<div style=""font-size:60px;""> </div>","null","fixation","html-keyboard-response","209","1178358","0.0-6.0-0.29","3424690","co38401","norming","","","","","","",""
"null","../img/tt/121tt.jpg","null","mooney1","image-keyboard-response","210","1181365","0.0-6.0-1.29","3424690","co38401","norming","","","","","","",""
"6486.48499999987","","","post_mooney1_questions","survey-likert","211","1187853","0.0-6.0-2.29","3424690","co38401","norming","","","{""curiosity"":5,""confidence"":2}","[0,1]","../img/tt/121tt.jpg","",""
"3166.095000000205","","","recognition","survey-text","212","1191021","0.0-6.0-3.29","3424690","co38401","norming","","","{""guess"":""bird""}","","../img/tt/121tt.jpg","",""
"null","../img/gs/121gs.jpg","null","reveal","image-keyboard-response","213","1193030","0.0-6.0-4.29","3424690","co38401","norming","","","","","","",""
"null","../img/tt/121tt.jpg","null","mooney2","image-keyboard-response","214","1195033","0.0-6.0-5.29","3424690","co38401","norming","","","","","","",""
"2673.2349999998696","","","post_reveal_questions","survey-likert","215","1197709","0.0-6.0-6.29","3424690","co38401","norming","","","{""aha"":5}","[0]","../img/tt/121tt.jpg","",""
"null","<div style=""font-size:60px;""> </div>","null","fixation","html-keyboard-response","216","1197911","0.0-6.0-0.30","3424690","co38401","norming","","","","","","",""
"null","../img/tt/1122tt.jpg","null","mooney1","image-keyboard-response","217","1200916","0.0-6.0-1.30","3424690","co38401","norming","","","","","","",""
"5309.560000000056","","","post_mooney1_questions","survey-likert","218","1206229","0.0-6.0-2.30","3424690","co38401","norming","","","{""curiosity"":5,""confidence"":0}","[0,1]","../img/tt/1122tt.jpg","",""
"4406.065000000177","","","recognition","survey-text","219","1210636","0.0-6.0-3.30","3424690","co38401","norming","","","{""guess"":""wall-e""}","","../img/tt/1122tt.jpg","",""
"null","../img/gs/1122gs.jpg","null","reveal","image-keyboard-response","220","1212644","0.0-6.0-4.30","3424690","co38401","norming","","","","","","",""
"null","../img/tt/1122tt.jpg","null","mooney2","image-keyboard-response","221","1214650","0.0-6.0-5.30","3424690","co38401","norming","","","","","","",""
"2064.100000000093","","","post_reveal_questions","survey-likert","222","1216717","0.0-6.0-6.30","3424690","co38401","norming","","","{""aha"":0}","[0]","../img/tt/1122tt.jpg","",""
"null","<div style=""font-size:60px;""> </div>","null","fixation","html-keyboard-response","223","1216923","0.0-6.0-0.31","3424690","co38401","norming","","","","","","",""
"null","../img/tt/1239tt.jpg","null","mooney1","image-keyboard-response","224","1219930","0.0-6.0-1.31","3424690","co38401","norming","","","","","","",""
"5550.405000000261","","","post_mooney1_questions","survey-likert","225","1225485","0.0-6.0-2.31","3424690","co38401","norming","","","{""curiosity"":1,""confidence"":6}","[0,1]","../img/tt/1239tt.jpg","",""
"3789.815000000177","","","recognition","survey-text","226","1229279","0.0-6.0-3.31","3424690","co38401","norming","","","{""guess"":""dog""}","","../img/tt/1239tt.jpg","",""
"null","../img/gs/1239gs.jpg","null","reveal","image-keyboard-response","227","1231286","0.0-6.0-4.31","3424690","co38401","norming","","","","","","",""
"null","../img/tt/1239tt.jpg","null","mooney2","image-keyboard-response","228","1233288","0.0-6.0-5.31","3424690","co38401","norming","","","","","","",""
"4636.260000000009","","","post_reveal_questions","survey-likert","229","1237927","0.0-6.0-6.31","3424690","co38401","norming","","","{""aha"":0}","[0]","../img/tt/1239tt.jpg","",""
"null","<div style=""font-size:60px;""> </div>","null","fixation","html-keyboard-response","230","1238129","0.0-6.0-0.32","3424690","co38401","norming","","","","","","",""
"null","../img/tt/189tt.jpg","null","mooney1","image-keyboard-response","231","1241131","0.0-6.0-1.32","3424690","co38401","norming","","","","","","",""
"4168.445000000065","","","post_mooney1_questions","survey-likert","232","1245303","0.0-6.0-2.32","3424690","co38401","norming","","","{""curiosity"":6,""confidence"":0}","[0,1]","../img/tt/189tt.jpg","",""
"4614.159999999683","","","recognition","survey-text","233","1249919","0.0-6.0-3.32","3424690","co38401","norming","","","{""guess"":""train station""}","","../img/tt/189tt.jpg","",""
"null","../img/gs/189gs.jpg","null","reveal","image-keyboard-response","234","1251925","0.0-6.0-4.32","3424690","co38401","norming","","","","","","",""
"null","../img/tt/189tt.jpg","null","mooney2","image-keyboard-response","235","1253927","0.0-6.0-5.32","3424690","co38401","norming","","","","","","",""
"2901.3249999997206","","","post_reveal_questions","survey-likert","236","1256831","0.0-6.0-6.32","3424690","co38401","norming","","","{""aha"":3}","[0]","../img/tt/189tt.jpg","",""
"null","<div style=""font-size:60px;""> </div>","null","fixation","html-keyboard-response","237","1257041","0.0-6.0-0.33","3424690","co38401","norming","","","","","","",""
"null","../img/tt/406tt.jpg","null","mooney1","image-keyboard-response","238","1260050","0.0-6.0-1.33","3424690","co38401","norming","","","","","","",""
"5617.229999999981","","","post_mooney1_questions","survey-likert","239","1265671","0.0-6.0-2.33","3424690","co38401","norming","","","{""curiosity"":6,""confidence"":1}","[0,1]","../img/tt/406tt.jpg","",""
"3126.184999999823","","","recognition","survey-text","240","1268799","0.0-6.0-3.33","3424690","co38401","norming","","","{""guess"":""vleermuis""}","","../img/tt/406tt.jpg","",""
"null","../img/gs/406gs.jpg","null","reveal","image-keyboard-response","241","1270809","0.0-6.0-4.33","3424690","co38401","norming","","","","","","",""
"null","../img/tt/406tt.jpg","null","mooney2","image-keyboard-response","242","1272811","0.0-6.0-5.33","3424690","co38401","norming","","","","","","",""
"6016.869999999879","","","post_reveal_questions","survey-likert","243","1278831","0.0-6.0-6.33","3424690","co38401","norming","","","{""aha"":1}","[0]","../img/tt/406tt.jpg","",""
"null","<div style=""font-size:60px;""> </div>","null","fixation","html-keyboard-response","244","1279039","0.0-6.0-0.34","3424690","co38401","norming","","","","","","",""
"null","../img/tt/301tt.jpg","null","mooney1","image-keyboard-response","245","1282044","0.0-6.0-1.34","3424690","co38401","norming","","","","","","",""
"6839.2949999999255","","","post_mooney1_questions","survey-likert","246","1288880","0.0-6.0-2.34","3424690","co38401","norming","","","{""curiosity"":6,""confidence"":3}","[0,1]","../img/tt/301tt.jpg","",""
"7029.954999999842","","","recognition","survey-text","247","1295912","0.0-6.0-3.34","3424690","co38401","norming","","","{""guess"":""person with earrings""}","","../img/tt/301tt.jpg","",""
"null","../img/gs/301gs.jpg","null","reveal","image-keyboard-response","248","1297922","0.0-6.0-4.34","3424690","co38401","norming","","","","","","",""
"null","../img/tt/301tt.jpg","null","mooney2","image-keyboard-response","249","1299933","0.0-6.0-5.34","3424690","co38401","norming","","","","","","",""
"2568.9000000001397","","","post_reveal_questions","survey-likert","250","1302504","0.0-6.0-6.34","3424690","co38401","norming","","","{""aha"":5}","[0]","../img/tt/301tt.jpg","",""
"null","<div style=""font-size:60px;""> </div>","null","fixation","html-keyboard-response","251","1302711","0.0-6.0-0.35","3424690","co38401","norming","","","","","","",""
"null","../img/tt/300tt.jpg","null","mooney1","image-keyboard-response","252","1305715","0.0-6.0-1.35","3424690","co38401","norming","","","","","","",""
"6682.495000000112","","","post_mooney1_questions","survey-likert","253","1312400","0.0-6.0-2.35","3424690","co38401","norming","","","{""curiosity"":5,""confidence"":2}","[0,1]","../img/tt/300tt.jpg","",""
"6101.834999999963","","","recognition","survey-text","254","1318504","0.0-6.0-3.35","3424690","co38401","norming","","","{""guess"":""person with toga""}","","../img/tt/300tt.jpg","",""
"null","../img/gs/300gs.jpg","null","reveal","image-keyboard-response","255","1320508","0.0-6.0-4.35","3424690","co38401","norming","","","","","","",""
"null","../img/tt/300tt.jpg","null","mooney2","image-keyboard-response","256","1322511","0.0-6.0-5.35","3424690","co38401","norming","","","","","","",""
"2749.9200000001583","","","post_reveal_questions","survey-likert","257","1325264","0.0-6.0-6.35","3424690","co38401","norming","","","{""aha"":3}","[0]","../img/tt/300tt.jpg","",""
"null","<div style=""font-size:60px;""> </div>","null","fixation","html-keyboard-response","258","1325467","0.0-6.0-0.36","3424690","co38401","norming","","","","","","",""
"null","../img/tt/380tt.jpg","null","mooney1","image-keyboard-response","259","1328475","0.0-6.0-1.36","3424690","co38401","norming","","","","","","",""
"4586.0800000000745","","","post_mooney1_questions","survey-likert","260","1333064","0.0-6.0-2.36","3424690","co38401","norming","","","{""curiosity"":6,""confidence"":0}","[0,1]","../img/tt/380tt.jpg","",""
"3134.1349999997765","","","recognition","survey-text","261","1336200","0.0-6.0-3.36","3424690","co38401","norming","","","{""guess"":""flower""}","","../img/tt/380tt.jpg","",""
"null","../img/gs/380gs.jpg","null","reveal","image-keyboard-response","262","1338209","0.0-6.0-4.36","3424690","co38401","norming","","","","","","",""
"null","../img/tt/380tt.jpg","null","mooney2","image-keyboard-response","263","1340214","0.0-6.0-5.36","3424690","co38401","norming","","","","","","",""
"2551.329999999609","","","post_reveal_questions","survey-likert","264","1342768","0.0-6.0-6.36","3424690","co38401","norming","","","{""aha"":0}","[0]","../img/tt/380tt.jpg","",""
"null","<div style=""font-size:60px;""> </div>","null","fixation","html-keyboard-response","265","1342976","0.0-6.0-0.37","3424690","co38401","norming","","","","","","",""
"null","../img/tt/412tt.jpg","null","mooney1","image-keyboard-response","266","1345978","0.0-6.0-1.37","3424690","co38401","norming","","","","","","",""
"4724.959999999963","","","post_mooney1_questions","survey-likert","267","1350711","0.0-6.0-2.37","3424690","co38401","norming","","","{""curiosity"":5,""confidence"":1}","[0,1]","../img/tt/412tt.jpg","",""
"10582.139999999898","","","recognition","survey-text","268","1361295","0.0-6.0-3.37","3424690","co38401","norming","","","{""guess"":""kraan""}","","../img/tt/412tt.jpg","",""
"null","../img/gs/412gs.jpg","null","reveal","image-keyboard-response","269","1363301","0.0-6.0-4.37","3424690","co38401","norming","","","","","","",""
"null","../img/tt/412tt.jpg","null","mooney2","image-keyboard-response","270","1365310","0.0-6.0-5.37","3424690","co38401","norming","","","","","","",""
"1844.929999999702","","","post_reveal_questions","survey-likert","271","1367159","0.0-6.0-6.37","3424690","co38401","norming","","","{""aha"":2}","[0]","../img/tt/412tt.jpg","",""
"null","<div style=""font-size:60px;""> </div>","null","fixation","html-keyboard-response","272","1367366","0.0-6.0-0.38","3424690","co38401","norming","","","","","","",""
"null","../img/tt/007tt.jpg","null","mooney1","image-keyboard-response","273","1370369","0.0-6.0-1.38","3424690","co38401","norming","","","","","","",""
"5611.425000000047","","","post_mooney1_questions","survey-likert","274","1375983","0.0-6.0-2.38","3424690","co38401","norming","","","{""curiosity"":4,""confidence"":6}","[0,1]","../img/tt/007tt.jpg","",""
"2573.9550000003073","","","recognition","survey-text","275","1378559","0.0-6.0-3.38","3424690","co38401","norming","","","{""guess"":""frog""}","","../img/tt/007tt.jpg","",""
"null","../img/gs/007gs.jpg","null","reveal","image-keyboard-response","276","1380569","0.0-6.0-4.38","3424690","co38401","norming","","","","","","",""
"null","../img/tt/007tt.jpg","null","mooney2","image-keyboard-response","277","1382578","0.0-6.0-5.38","3424690","co38401","norming","","","","","","",""
"3514.3000000002794","","","post_reveal_questions","survey-likert","278","1386095","0.0-6.0-6.38","3424690","co38401","norming","","","{""aha"":0}","[0]","../img/tt/007tt.jpg","",""
"null","<div style=""font-size:60px;""> </div>","null","fixation","html-keyboard-response","279","1386302","0.0-6.0-0.39","3424690","co38401","norming","","","","","","",""
"null","../img/tt/1362tt.jpg","null","mooney1","image-keyboard-response","280","1389306","0.0-6.0-1.39","3424690","co38401","norming","","","","","","",""
"8922.199999999953","","","post_mooney1_questions","survey-likert","281","1398231","0.0-6.0-2.39","3424690","co38401","norming","","","{""curiosity"":4,""confidence"":3}","[0,1]","../img/tt/1362tt.jpg","",""
"3829.954999999609","","","recognition","survey-text","282","1402063","0.0-6.0-3.39","3424690","co38401","norming","","","{""guess"":""platenspeler""}","","../img/tt/1362tt.jpg","",""
"null","../img/gs/1362gs.jpg","null","reveal","image-keyboard-response","283","1404065","0.0-6.0-4.39","3424690","co38401","norming","","","","","","",""
"null","../img/tt/1362tt.jpg","null","mooney2","image-keyboard-response","284","1406076","0.0-6.0-5.39","3424690","co38401","norming","","","","","","",""
"2594.219999999972","","","post_reveal_questions","survey-likert","285","1408669","0.0-6.0-6.39","3424690","co38401","norming","","","{""aha"":5}","[0]","../img/tt/1362tt.jpg","",""
"null","<div style=""font-size:60px;""> </div>","null","fixation","html-keyboard-response","286","1408871","0.0-6.0-0.40","3424690","co38401","norming","","","","","","",""
"null","../img/tt/1128tt.jpg","null","mooney1","image-keyboard-response","287","1411879","0.0-6.0-1.40","3424690","co38401","norming","","","","","","",""
"5915.189999999711","","","post_mooney1_questions","survey-likert","288","1417797","0.0-6.0-2.40","3424690","co38401","norming","","","{""curiosity"":3,""confidence"":1}","[0,1]","../img/tt/1128tt.jpg","",""
"3382.2800000002608","","","recognition","survey-text","289","1421181","0.0-6.0-3.40","3424690","co38401","norming","","","{""guess"":""monkey""}","","../img/tt/1128tt.jpg","",""
"null","../img/gs/1128gs.jpg","null","reveal","image-keyboard-response","290","1423185","0.0-6.0-4.40","3424690","co38401","norming","","","","","","",""
"null","../img/tt/1128tt.jpg","null","mooney2","image-keyboard-response","291","1425196","0.0-6.0-5.40","3424690","co38401","norming","","","","","","",""
"2598.1850000002887","","","post_reveal_questions","survey-likert","292","1427797","0.0-6.0-6.40","3424690","co38401","norming","","","{""aha"":6}","[0]","../img/tt/1128tt.jpg","",""
"null","<div style=""font-size:60px;""> </div>","null","fixation","html-keyboard-response","293","1428000","0.0-6.0-0.41","3424690","co38401","norming","","","","","","",""
"null","../img/tt/279tt.jpg","null","mooney1","image-keyboard-response","294","1431005","0.0-6.0-1.41","3424690","co38401","norming","","","","","","",""
"6877.159999999916","","","post_mooney1_questions","survey-likert","295","1437885","0.0-6.0-2.41","3424690","co38401","norming","","","{""curiosity"":1,""confidence"":4}","[0,1]","../img/tt/279tt.jpg","",""
"4926.329999999842","","","recognition","survey-text","296","1442813","0.0-6.0-3.41","3424690","co38401","norming","","","{""guess"":""koalabeer""}","","../img/tt/279tt.jpg","",""
"null","../img/gs/279gs.jpg","null","reveal","image-keyboard-response","297","1444814","0.0-6.0-4.41","3424690","co38401","norming","","","","","","",""
"null","../img/tt/279tt.jpg","null","mooney2","image-keyboard-response","298","1446816","0.0-6.0-5.41","3424690","co38401","norming","","","","","","",""
"3586.7349999998696","","","post_reveal_questions","survey-likert","299","1450405","0.0-6.0-6.41","3424690","co38401","norming","","","{""aha"":2}","[0]","../img/tt/279tt.jpg","",""
"null","<div style=""font-size:60px;""> </div>","null","fixation","html-keyboard-response","300","1450610","0.0-6.0-0.42","3424690","co38401","norming","","","","","","",""
"null","../img/tt/315tt.jpg","null","mooney1","image-keyboard-response","301","1453622","0.0-6.0-1.42","3424690","co38401","norming","","","","","","",""
"4979.660000000149","","","post_mooney1_questions","survey-likert","302","1458605","0.0-6.0-2.42","3424690","co38401","norming","","","{""curiosity"":6,""confidence"":0}","[0,1]","../img/tt/315tt.jpg","",""
"2845.7650000001304","","","recognition","survey-text","303","1461452","0.0-6.0-3.42","3424690","co38401","norming","","","{""guess"":""snake""}","","../img/tt/315tt.jpg","",""
"null","../img/gs/315gs.jpg","null","reveal","image-keyboard-response","304","1463459","0.0-6.0-4.42","3424690","co38401","norming","","","","","","",""
"null","../img/tt/315tt.jpg","null","mooney2","image-keyboard-response","305","1465460","0.0-6.0-5.42","3424690","co38401","norming","","","","","","",""
"2359.3599999998696","","","post_reveal_questions","survey-likert","306","1467821","0.0-6.0-6.42","3424690","co38401","norming","","","{""aha"":3}","[0]","../img/tt/315tt.jpg","",""
"null","<div style=""font-size:60px;""> </div>","null","fixation","html-keyboard-response","307","1468026","0.0-6.0-0.43","3424690","co38401","norming","","","","","","",""
"null","../img/tt/1146tt.jpg","null","mooney1","image-keyboard-response","308","1471028","0.0-6.0-1.43","3424690","co38401","norming","","","","","","",""
"6984.369999999646","","","post_mooney1_questions","survey-likert","309","1478016","0.0-6.0-2.43","3424690","co38401","norming","","","{""curiosity"":4,""confidence"":1}","[0,1]","../img/tt/1146tt.jpg","",""
"8574.010000000242","","","recognition","survey-text","310","1486592","0.0-6.0-3.43","3424690","co38401","norming","","","{""guess"":""kraan""}","","../img/tt/1146tt.jpg","",""
"null","../img/gs/1146gs.jpg","null","reveal","image-keyboard-response","311","1488593","0.0-6.0-4.43","3424690","co38401","norming","","","","","","",""
"null","../img/tt/1146tt.jpg","null","mooney2","image-keyboard-response","312","1490604","0.0-6.0-5.43","3424690","co38401","norming","","","","","","",""
"3895.719999999972","","","post_reveal_questions","survey-likert","313","1494504","0.0-6.0-6.43","3424690","co38401","norming","","","{""aha"":0}","[0]","../img/tt/1146tt.jpg","",""
"null","<div style=""font-size:60px;""> </div>","null","fixation","html-keyboard-response","314","1494712","0.0-6.0-0.44","3424690","co38401","norming","","","","","","",""
"null","../img/tt/079tt.jpg","null","mooney1","image-keyboard-response","315","1497713","0.0-6.0-1.44","3424690","co38401","norming","","","","","","",""
"5573.669999999693","","","post_mooney1_questions","survey-likert","316","1503288","0.0-6.0-2.44","3424690","co38401","norming","","","{""curiosity"":0,""confidence"":6}","[0,1]","../img/tt/079tt.jpg","",""
"5030.114999999991","","","recognition","survey-text","317","1508320","0.0-6.0-3.44","3424690","co38401","norming","","","{""guess"":""bear""}","","../img/tt/079tt.jpg","",""
"null","../img/gs/079gs.jpg","null","reveal","image-keyboard-response","318","1510329","0.0-6.0-4.44","3424690","co38401","norming","","","","","","",""
"null","../img/tt/079tt.jpg","null","mooney2","image-keyboard-response","319","1512337","0.0-6.0-5.44","3424690","co38401","norming","","","","","","",""
"2803.8350000001956","","","post_reveal_questions","survey-likert","320","1515144","0.0-6.0-6.44","3424690","co38401","norming","","","{""aha"":0}","[0]","../img/tt/079tt.jpg","",""
"null","<div style=""font-size:60px;""> </div>","null","fixation","html-keyboard-response","321","1515347","0.0-6.0-0.45","3424690","co38401","norming","","","","","","",""
"null","../img/tt/1087tt.jpg","null","mooney1","image-keyboard-response","322","1518358","0.0-6.0-1.45","3424690","co38401","norming","","","","","","",""
"6735.0099999997765","","","post_mooney1_questions","survey-likert","323","1525096","0.0-6.0-2.45","3424690","co38401","norming","","","{""curiosity"":6,""confidence"":3}","[0,1]","../img/tt/1087tt.jpg","",""
"2789.874999999767","","","recognition","survey-text","324","1527888","0.0-6.0-3.45","3424690","co38401","norming","","","{""guess"":""vases""}","","../img/tt/1087tt.jpg","",""
"null","../img/gs/1087gs.jpg","null","reveal","image-keyboard-response","325","1529892","0.0-6.0-4.45","3424690","co38401","norming","","","","","","",""
"null","../img/tt/1087tt.jpg","null","mooney2","image-keyboard-response","326","1531893","0.0-6.0-5.45","3424690","co38401","norming","","","","","","",""
"2559.625","","","post_reveal_questions","survey-likert","327","1534456","0.0-6.0-6.45","3424690","co38401","norming","","","{""aha"":3}","[0]","../img/tt/1087tt.jpg","",""
"null","<div style=""font-size:60px;""> </div>","null","fixation","html-keyboard-response","328","1534663","0.0-6.0-0.46","3424690","co38401","norming","","","","","","",""
"null","../img/tt/1055tt.jpg","null","mooney1","image-keyboard-response","329","1537666","0.0-6.0-1.46","3424690","co38401","norming","","","","","","",""
"6338.73499999987","","","post_mooney1_questions","survey-likert","330","1544008","0.0-6.0-2.46","3424690","co38401","norming","","","{""curiosity"":6,""confidence"":3}","[0,1]","../img/tt/1055tt.jpg","",""
"13270.184999999823","","","recognition","survey-text","331","1557280","0.0-6.0-3.46","3424690","co38401","norming","","","{""guess"":""person in swimming pool""}","","../img/tt/1055tt.jpg","",""
"null","../img/gs/1055gs.jpg","null","reveal","image-keyboard-response","332","1559281","0.0-6.0-4.46","3424690","co38401","norming","","","","","","",""
"null","../img/tt/1055tt.jpg","null","mooney2","image-keyboard-response","333","1561286","0.0-6.0-5.46","3424690","co38401","norming","","","","","","",""
"2654.6550000002608","","","post_reveal_questions","survey-likert","334","1563943","0.0-6.0-6.46","3424690","co38401","norming","","","{""aha"":6}","[0]","../img/tt/1055tt.jpg","",""
"null","<div style=""font-size:60px;""> </div>","null","fixation","html-keyboard-response","335","1564144","0.0-6.0-0.47","3424690","co38401","norming","","","","","","",""
"null","../img/tt/1084tt.jpg","null","mooney1","image-keyboard-response","336","1567156","0.0-6.0-1.47","3424690","co38401","norming","","","","","","",""
"5368.9199999999255","","","post_mooney1_questions","survey-likert","337","1572528","0.0-6.0-2.47","3424690","co38401","norming","","","{""curiosity"":4,""confidence"":4}","[0,1]","../img/tt/1084tt.jpg","",""
"7941.65000000014","","","recognition","survey-text","338","1580471","0.0-6.0-3.47","3424690","co38401","norming","","","{""guess"":""cups of tea""}","","../img/tt/1084tt.jpg","",""
"null","../img/gs/1084gs.jpg","null","reveal","image-keyboard-response","339","1582481","0.0-6.0-4.47","3424690","co38401","norming","","","","","","",""
"null","../img/tt/1084tt.jpg","null","mooney2","image-keyboard-response","340","1584491","0.0-6.0-5.47","3424690","co38401","norming","","","","","","",""
"3049.465000000084","","","post_reveal_questions","survey-likert","341","1587544","0.0-6.0-6.47","3424690","co38401","norming","","","{""aha"":3}","[0]","../img/tt/1084tt.jpg","",""
"null","<div style=""font-size:60px;""> </div>","null","fixation","html-keyboard-response","342","1587746","0.0-6.0-0.48","3424690","co38401","norming","","","","","","",""
"null","../img/tt/1004tt.jpg","null","mooney1","image-keyboard-response","343","1590751","0.0-6.0-1.48","3424690","co38401","norming","","","","","","",""
"5716.945000000298","","","post_mooney1_questions","survey-likert","344","1596472","0.0-6.0-2.48","3424690","co38401","norming","","","{""curiosity"":2,""confidence"":5}","[0,1]","../img/tt/1004tt.jpg","",""
"2741.9899999999907","","","recognition","survey-text","345","1599215","0.0-6.0-3.48","3424690","co38401","norming","","","{""guess"":""fox""}","","../img/tt/1004tt.jpg","",""
"null","../img/gs/1004gs.jpg","null","reveal","image-keyboard-response","346","1601223","0.0-6.0-4.48","3424690","co38401","norming","","","","","","",""
"null","../img/tt/1004tt.jpg","null","mooney2","image-keyboard-response","347","1603225","0.0-6.0-5.48","3424690","co38401","norming","","","","","","",""
"3291.6399999998976","","","post_reveal_questions","survey-likert","348","1606519","0.0-6.0-6.48","3424690","co38401","norming","","","{""aha"":4}","[0]","../img/tt/1004tt.jpg","",""
"null","<div style=""font-size:60px;""> </div>","null","fixation","html-keyboard-response","349","1606721","0.0-6.0-0.49","3424690","co38401","norming","","","","","","",""
"null","../img/tt/1043tt.jpg","null","mooney1","image-keyboard-response","350","1609724","0.0-6.0-1.49","3424690","co38401","norming","","","","","","",""
"4734.3300000000745","","","post_mooney1_questions","survey-likert","351","1614464","0.0-6.0-2.49","3424690","co38401","norming","","","{""curiosity"":6,""confidence"":1}","[0,1]","../img/tt/1043tt.jpg","",""
"10302.189999999944","","","recognition","survey-text","352","1624767","0.0-6.0-3.49","3424690","co38401","norming","","","{""guess"":""bread on a plate""}","","../img/tt/1043tt.jpg","",""
"null","../img/gs/1043gs.jpg","null","reveal","image-keyboard-response","353","1626778","0.0-6.0-4.49","3424690","co38401","norming","","","","","","",""
"null","../img/tt/1043tt.jpg","null","mooney2","image-keyboard-response","354","1628780","0.0-6.0-5.49","3424690","co38401","norming","","","","","","",""
"4584.249999999767","","","post_reveal_questions","survey-likert","355","1633367","0.0-6.0-6.49","3424690","co38401","norming","","","{""aha"":1}","[0]","../img/tt/1043tt.jpg","",""
"null","<div style=""font-size:60px;""> </div>","null","fixation","html-keyboard-response","356","1633574","0.0-6.0-0.50","3424690","co38401","norming","","","","","","",""
"null","../img/tt/019tt.jpg","null","mooney1","image-keyboard-response","357","1636582","0.0-6.0-1.50","3424690","co38401","norming","","","","","","",""
"4430.325000000186","","","post_mooney1_questions","survey-likert","358","1641016","0.0-6.0-2.50","3424690","co38401","norming","","","{""curiosity"":5,""confidence"":3}","[0,1]","../img/tt/019tt.jpg","",""
"5125.9799999997485","","","recognition","survey-text","359","1646143","0.0-6.0-3.50","3424690","co38401","norming","","","{""guess"":""airplane""}","","../img/tt/019tt.jpg","",""
"null","../img/gs/019gs.jpg","null","reveal","image-keyboard-response","360","1648149","0.0-6.0-4.50","3424690","co38401","norming","","","","","","",""
"null","../img/tt/019tt.jpg","null","mooney2","image-keyboard-response","361","1650153","0.0-6.0-5.50","3424690","co38401","norming","","","","","","",""
"1979.720000000205","","","post_reveal_questions","survey-likert","362","1652132","0.0-6.0-6.50","3424690","co38401","norming","","","{""aha"":0}","[0]","../img/tt/019tt.jpg","",""
"null","<div style=""font-size:60px;""> </div>","null","fixation","html-keyboard-response","363","1652335","0.0-6.0-0.51","3424690","co38401","norming","","","","","","",""
"null","../img/tt/1270tt.jpg","null","mooney1","image-keyboard-response","364","1655346","0.0-6.0-1.51","3424690","co38401","norming","","","","","","",""
"3990.945000000065","","","post_mooney1_questions","survey-likert","365","1659340","0.0-6.0-2.51","3424690","co38401","norming","","","{""curiosity"":0,""confidence"":6}","[0,1]","../img/tt/1270tt.jpg","",""
"3998.285000000149","","","recognition","survey-text","366","1663340","0.0-6.0-3.51","3424690","co38401","norming","","","{""guess"":""mouse""}","","../img/tt/1270tt.jpg","",""
"null","../img/gs/1270gs.jpg","null","reveal","image-keyboard-response","367","1665343","0.0-6.0-4.51","3424690","co38401","norming","","","","","","",""
"null","../img/tt/1270tt.jpg","null","mooney2","image-keyboard-response","368","1667353","0.0-6.0-5.51","3424690","co38401","norming","","","","","","",""
"3592.590000000084","","","post_reveal_questions","survey-likert","369","1670948","0.0-6.0-6.51","3424690","co38401","norming","","","{""aha"":0}","[0]","../img/tt/1270tt.jpg","",""
"null","<div style=""font-size:60px;""> </div>","null","fixation","html-keyboard-response","370","1671153","0.0-6.0-0.52","3424690","co38401","norming","","","","","","",""
"null","../img/tt/1012tt.jpg","null","mooney1","image-keyboard-response","371","1674165","0.0-6.0-1.52","3424690","co38401","norming","","","","","","",""
"6075.820000000065","","","post_mooney1_questions","survey-likert","372","1680244","0.0-6.0-2.52","3424690","co38401","norming","","","{""curiosity"":5,""confidence"":4}","[0,1]","../img/tt/1012tt.jpg","",""
"4070.2599999997765","","","recognition","survey-text","373","1684316","0.0-6.0-3.52","3424690","co38401","norming","","","{""guess"":""neushoorn""}","","../img/tt/1012tt.jpg","",""
"null","../img/gs/1012gs.jpg","null","reveal","image-keyboard-response","374","1686326","0.0-6.0-4.52","3424690","co38401","norming","","","","","","",""
"null","../img/tt/1012tt.jpg","null","mooney2","image-keyboard-response","375","1688329","0.0-6.0-5.52","3424690","co38401","norming","","","","","","",""
"1936.7349999998696","","","post_reveal_questions","survey-likert","376","1690268","0.0-6.0-6.52","3424690","co38401","norming","","","{""aha"":6}","[0]","../img/tt/1012tt.jpg","",""
"null","<div style=""font-size:60px;""> </div>","null","fixation","html-keyboard-response","377","1690479","0.0-6.0-0.53","3424690","co38401","norming","","","","","","",""
"null","../img/tt/013tt.jpg","null","mooney1","image-keyboard-response","378","1693490","0.0-6.0-1.53","3424690","co38401","norming","","","","","","",""
"7681.089999999851","","","post_mooney1_questions","survey-likert","379","1701172","0.0-6.0-2.53","3424690","co38401","norming","","","{""curiosity"":3,""confidence"":0}","[0,1]","../img/tt/013tt.jpg","",""
"2774.04000000027","","","recognition","survey-text","380","1703948","0.0-6.0-3.53","3424690","co38401","norming","","","{""guess"":""saddel""}","","../img/tt/013tt.jpg","",""
"null","../img/gs/013gs.jpg","null","reveal","image-keyboard-response","381","1705959","0.0-6.0-4.53","3424690","co38401","norming","","","","","","",""
"null","../img/tt/013tt.jpg","null","mooney2","image-keyboard-response","382","1707970","0.0-6.0-5.53","3424690","co38401","norming","","","","","","",""
"2271.9499999997206","","","post_reveal_questions","survey-likert","383","1710244","0.0-6.0-6.53","3424690","co38401","norming","","","{""aha"":6}","[0]","../img/tt/013tt.jpg","",""
"null","<div style=""font-size:60px;""> </div>","null","fixation","html-keyboard-response","384","1710448","0.0-6.0-0.54","3424690","co38401","norming","","","","","","",""
"null","../img/tt/318tt.jpg","null","mooney1","image-keyboard-response","385","1713459","0.0-6.0-1.54","3424690","co38401","norming","","","","","","",""
"6419.60999999987","","","post_mooney1_questions","survey-likert","386","1719880","0.0-6.0-2.54","3424690","co38401","norming","","","{""curiosity"":2,""confidence"":0}","[0,1]","../img/tt/318tt.jpg","",""
"4629.820000000065","","","recognition","survey-text","387","1724512","0.0-6.0-3.54","3424690","co38401","norming","","","{""guess"":""tonnen""}","","../img/tt/318tt.jpg","",""
"null","../img/gs/318gs.jpg","null","reveal","image-keyboard-response","388","1726514","0.0-6.0-4.54","3424690","co38401","norming","","","","","","",""
"null","../img/tt/318tt.jpg","null","mooney2","image-keyboard-response","389","1728516","0.0-6.0-5.54","3424690","co38401","norming","","","","","","",""
"3305.6999999997206","","","post_reveal_questions","survey-likert","390","1731824","0.0-6.0-6.54","3424690","co38401","norming","","","{""aha"":1}","[0]","../img/tt/318tt.jpg","",""
"null","<div style=""font-size:60px;""> </div>","null","fixation","html-keyboard-response","391","1732026","0.0-6.0-0.55","3424690","co38401","norming","","","","","","",""
"null","../img/tt/081tt.jpg","null","mooney1","image-keyboard-response","392","1735039","0.0-6.0-1.55","3424690","co38401","norming","","","","","","",""
"5309.364999999991","","","post_mooney1_questions","survey-likert","393","1740352","0.0-6.0-2.55","3424690","co38401","norming","","","{""curiosity"":5,""confidence"":3}","[0,1]","../img/tt/081tt.jpg","",""
"3982.344999999972","","","recognition","survey-text","394","1744336","0.0-6.0-3.55","3424690","co38401","norming","","","{""guess"":""cyclist""}","","../img/tt/081tt.jpg","",""
"null","../img/gs/081gs.jpg","null","reveal","image-keyboard-response","395","1746343","0.0-6.0-4.55","3424690","co38401","norming","","","","","","",""
"null","../img/tt/081tt.jpg","null","mooney2","image-keyboard-response","396","1748344","0.0-6.0-5.55","3424690","co38401","norming","","","","","","",""
"2404.445000000065","","","post_reveal_questions","survey-likert","397","1750751","0.0-6.0-6.55","3424690","co38401","norming","","","{""aha"":0}","[0]","../img/tt/081tt.jpg","",""
"null","<div style=""font-size:60px;""> </div>","null","fixation","html-keyboard-response","398","1750959","0.0-6.0-0.56","3424690","co38401","norming","","","","","","",""
"null","../img/tt/1275tt.jpg","null","mooney1","image-keyboard-response","399","1753965","0.0-6.0-1.56","3424690","co38401","norming","","","","","","",""
"5047.5099999997765","","","post_mooney1_questions","survey-likert","400","1759016","0.0-6.0-2.56","3424690","co38401","norming","","","{""curiosity"":6,""confidence"":0}","[0,1]","../img/tt/1275tt.jpg","",""
"3573.7799999995623","","","recognition","survey-text","401","1762592","0.0-6.0-3.56","3424690","co38401","norming","","","{""guess"":""toddler""}","","../img/tt/1275tt.jpg","",""
"null","../img/gs/1275gs.jpg","null","reveal","image-keyboard-response","402","1764594","0.0-6.0-4.56","3424690","co38401","norming","","","","","","",""
"null","../img/tt/1275tt.jpg","null","mooney2","image-keyboard-response","403","1766597","0.0-6.0-5.56","3424690","co38401","norming","","","","","","",""
"2383.320000000298","","","post_reveal_questions","survey-likert","404","1768983","0.0-6.0-6.56","3424690","co38401","norming","","","{""aha"":6}","[0]","../img/tt/1275tt.jpg","",""
"null","<div style=""font-size:60px;""> </div>","null","fixation","html-keyboard-response","405","1769192","0.0-6.0-0.57","3424690","co38401","norming","","","","","","",""
"null","../img/tt/1283tt.jpg","null","mooney1","image-keyboard-response","406","1772203","0.0-6.0-1.57","3424690","co38401","norming","","","","","","",""
"4561.219999999972","","","post_mooney1_questions","survey-likert","407","1776763","0.0-6.0-2.57","3424690","co38401","norming","","","{""curiosity"":5,""confidence"":0}","[0,1]","../img/tt/1283tt.jpg","",""
"3182.024999999907","","","recognition","survey-text","408","1779947","0.0-6.0-3.57","3424690","co38401","norming","","","{""guess"":""wasbeer""}","","../img/tt/1283tt.jpg","",""
"null","../img/gs/1283gs.jpg","null","reveal","image-keyboard-response","409","1781950","0.0-6.0-4.57","3424690","co38401","norming","","","","","","",""
"null","../img/tt/1283tt.jpg","null","mooney2","image-keyboard-response","410","1783952","0.0-6.0-5.57","3424690","co38401","norming","","","","","","",""
"2127.715000000084","","","post_reveal_questions","survey-likert","411","1786083","0.0-6.0-6.57","3424690","co38401","norming","","","{""aha"":5}","[0]","../img/tt/1283tt.jpg","",""
"null","<div style=""font-size:60px;""> </div>","null","fixation","html-keyboard-response","412","1786294","0.0-6.0-0.58","3424690","co38401","norming","","","","","","",""
"null","../img/tt/270tt.jpg","null","mooney1","image-keyboard-response","413","1789303","0.0-6.0-1.58","3424690","co38401","norming","","","","","","",""
"4617.1049999997485","","","post_mooney1_questions","survey-likert","414","1793923","0.0-6.0-2.58","3424690","co38401","norming","","","{""curiosity"":5,""confidence"":4}","[0,1]","../img/tt/270tt.jpg","",""
"2758.0450000001583","","","recognition","survey-text","415","1796683","0.0-6.0-3.58","3424690","co38401","norming","","","{""guess"":""hert""}","","../img/tt/270tt.jpg","",""
"null","../img/gs/270gs.jpg","null","reveal","image-keyboard-response","416","1798684","0.0-6.0-4.58","3424690","co38401","norming","","","","","","",""
"null","../img/tt/270tt.jpg","null","mooney2","image-keyboard-response","417","1800695","0.0-6.0-5.58","3424690","co38401","norming","","","","","","",""
"2225.6100000001024","","","post_reveal_questions","survey-likert","418","1802923","0.0-6.0-6.58","3424690","co38401","norming","","","{""aha"":0}","[0]","../img/tt/270tt.jpg","",""
"null","<div style=""font-size:60px;""> </div>","null","fixation","html-keyboard-response","419","1803131","0.0-6.0-0.59","3424690","co38401","norming","","","","","","",""
"null","../img/tt/357tt.jpg","null","mooney1","image-keyboard-response","420","1806136","0.0-6.0-1.59","3424690","co38401","norming","","","","","","",""
"6582.929999999702","","","post_mooney1_questions","survey-likert","421","1812723","0.0-6.0-2.59","3424690","co38401","norming","","","{""curiosity"":5,""confidence"":2}","[0,1]","../img/tt/357tt.jpg","",""
"4342.299999999814","","","recognition","survey-text","422","1817067","0.0-6.0-3.59","3424690","co38401","norming","","","{""guess"":""hedgehog""}","","../img/tt/357tt.jpg","",""
"null","../img/gs/357gs.jpg","null","reveal","image-keyboard-response","423","1819069","0.0-6.0-4.59","3424690","co38401","norming","","","","","","",""
"null","../img/tt/357tt.jpg","null","mooney2","image-keyboard-response","424","1821073","0.0-6.0-5.59","3424690","co38401","norming","","","","","","",""
"3134.8649999999907","","","post_reveal_questions","survey-likert","425","1824211","0.0-6.0-6.59","3424690","co38401","norming","","","{""aha"":1}","[0]","../img/tt/357tt.jpg","",""
"null","<div style=""font-size:60px;""> </div>","null","fixation","html-keyboard-response","426","1824417","0.0-6.0-0.60","3424690","co38401","norming","","","","","","",""
"null","../img/tt/1191tt.jpg","null","mooney1","image-keyboard-response","427","1827420","0.0-6.0-1.60","3424690","co38401","norming","","","","","","",""
"5781.469999999739","","","post_mooney1_questions","survey-likert","428","1833203","0.0-6.0-2.60","3424690","co38401","norming","","","{""curiosity"":3,""confidence"":5}","[0,1]","../img/tt/1191tt.jpg","",""
"3446.005000000121","","","recognition","survey-text","429","1836651","0.0-6.0-3.60","3424690","co38401","norming","","","{""guess"":""lopers""}","","../img/tt/1191tt.jpg","",""
"null","../img/gs/1191gs.jpg","null","reveal","image-keyboard-response","430","1838658","0.0-6.0-4.60","3424690","co38401","norming","","","","","","",""
"null","../img/tt/1191tt.jpg","null","mooney2","image-keyboard-response","431","1840667","0.0-6.0-5.60","3424690","co38401","norming","","","","","","",""
"2581.4650000003166","","","post_reveal_questions","survey-likert","432","1843251","0.0-6.0-6.60","3424690","co38401","norming","","","{""aha"":0}","[0]","../img/tt/1191tt.jpg","",""
"null","<div style=""font-size:60px;""> </div>","null","fixation","html-keyboard-response","433","1843453","0.0-6.0-0.61","3424690","co38401","norming","","","","","","",""
"null","../img/tt/1161tt.jpg","null","mooney1","image-keyboard-response","434","1846460","0.0-6.0-1.61","3424690","co38401","norming","","","","","","",""
"4443.864999999758","","","post_mooney1_questions","survey-likert","435","1850908","0.0-6.0-2.61","3424690","co38401","norming","","","{""curiosity"":5,""confidence"":0}","[0,1]","../img/tt/1161tt.jpg","",""
"1278.0600000002887","","","recognition","survey-text","436","1852187","0.0-6.0-3.61","3424690","co38401","norming","","","{""guess"":""""}","","../img/tt/1161tt.jpg","",""
"null","../img/gs/1161gs.jpg","null","reveal","image-keyboard-response","437","1854191","0.0-6.0-4.61","3424690","co38401","norming","","","","","","",""
"null","../img/tt/1161tt.jpg","null","mooney2","image-keyboard-response","438","1856194","0.0-6.0-5.61","3424690","co38401","norming","","","","","","",""
"3350.6099999998696","","","post_reveal_questions","survey-likert","439","1859547","0.0-6.0-6.61","3424690","co38401","norming","","","{""aha"":6}","[0]","../img/tt/1161tt.jpg","",""
"null","<div style=""font-size:60px;""> </div>","null","fixation","html-keyboard-response","440","1859750","0.0-6.0-0.62","3424690","co38401","norming","","","","","","",""
"null","../img/tt/1242tt.jpg","null","mooney1","image-keyboard-response","441","1862754","0.0-6.0-1.62","3424690","co38401","norming","","","","","","",""
"4157.700000000186","","","post_mooney1_questions","survey-likert","442","1866915","0.0-6.0-2.62","3424690","co38401","norming","","","{""curiosity"":2,""confidence"":6}","[0,1]","../img/tt/1242tt.jpg","",""
"2086.375000000233","","","recognition","survey-text","443","1869003","0.0-6.0-3.62","3424690","co38401","norming","","","{""guess"":""fox""}","","../img/tt/1242tt.jpg","",""
"null","../img/gs/1242gs.jpg","null","reveal","image-keyboard-response","444","1871009","0.0-6.0-4.62","3424690","co38401","norming","","","","","","",""
"null","../img/tt/1242tt.jpg","null","mooney2","image-keyboard-response","445","1873011","0.0-6.0-5.62","3424690","co38401","norming","","","","","","",""
"1949.1650000000373","","","post_reveal_questions","survey-likert","446","1874963","0.0-6.0-6.62","3424690","co38401","norming","","","{""aha"":0}","[0]","../img/tt/1242tt.jpg","",""
"null","<div style=""font-size:60px;""> </div>","null","fixation","html-keyboard-response","447","1875164","0.0-6.0-0.63","3424690","co38401","norming","","","","","","",""
"null","../img/tt/329tt.jpg","null","mooney1","image-keyboard-response","448","1878167","0.0-6.0-1.63","3424690","co38401","norming","","","","","","",""
"4840.199999999953","","","post_mooney1_questions","survey-likert","449","1883011","0.0-6.0-2.63","3424690","co38401","norming","","","{""curiosity"":6,""confidence"":4}","[0,1]","../img/tt/329tt.jpg","",""
"4054.3700000003446","","","recognition","survey-text","450","1887067","0.0-6.0-3.63","3424690","co38401","norming","","","{""guess"":""strijkplank""}","","../img/tt/329tt.jpg","",""
"null","../img/gs/329gs.jpg","null","reveal","image-keyboard-response","451","1889075","0.0-6.0-4.63","3424690","co38401","norming","","","","","","",""
"null","../img/tt/329tt.jpg","null","mooney2","image-keyboard-response","452","1891078","0.0-6.0-5.63","3424690","co38401","norming","","","","","","",""
"2026.3599999998696","","","post_reveal_questions","survey-likert","453","1893107","0.0-6.0-6.63","3424690","co38401","norming","","","{""aha"":6}","[0]","../img/tt/329tt.jpg","",""
"null","<div style=""font-size:60px;""> </div>","null","fixation","html-keyboard-response","454","1893309","0.0-6.0-0.64","3424690","co38401","norming","","","","","","",""
"null","../img/tt/222tt.jpg","null","mooney1","image-keyboard-response","455","1896316","0.0-6.0-1.64","3424690","co38401","norming","","","","","","",""
"5743.425000000047","","","post_mooney1_questions","survey-likert","456","1902063","0.0-6.0-2.64","3424690","co38401","norming","","","{""curiosity"":5,""confidence"":2}","[0,1]","../img/tt/222tt.jpg","",""
"4670.219999999972","","","recognition","survey-text","457","1906735","0.0-6.0-3.64","3424690","co38401","norming","","","{""guess"":""bath""}","","../img/tt/222tt.jpg","",""
"null","../img/gs/222gs.jpg","null","reveal","image-keyboard-response","458","1908739","0.0-6.0-4.64","3424690","co38401","norming","","","","","","",""
"null","../img/tt/222tt.jpg","null","mooney2","image-keyboard-response","459","1910741","0.0-6.0-5.64","3424690","co38401","norming","","","","","","",""
"2727.4700000004377","","","post_reveal_questions","survey-likert","460","1913471","0.0-6.0-6.64","3424690","co38401","norming","","","{""aha"":3}","[0]","../img/tt/222tt.jpg","",""
"null","<div style=""font-size:60px;""> </div>","null","fixation","html-keyboard-response","461","1913682","0.0-6.0-0.65","3424690","co38401","norming","","","","","","",""
"null","../img/tt/1078tt.jpg","null","mooney1","image-keyboard-response","462","1916691","0.0-6.0-1.65","3424690","co38401","norming","","","","","","",""
"6584.475000000093","","","post_mooney1_questions","survey-likert","463","1923279","0.0-6.0-2.65","3424690","co38401","norming","","","{""curiosity"":4,""confidence"":3}","[0,1]","../img/tt/1078tt.jpg","",""
"5854.064999999944","","","recognition","survey-text","464","1929135","0.0-6.0-3.65","3424690","co38401","norming","","","{""guess"":""person writing""}","","../img/tt/1078tt.jpg","",""
"null","../img/gs/1078gs.jpg","null","reveal","image-keyboard-response","465","1931144","0.0-6.0-4.65","3424690","co38401","norming","","","","","","",""
"null","../img/tt/1078tt.jpg","null","mooney2","image-keyboard-response","466","1933146","0.0-6.0-5.65","3424690","co38401","norming","","","","","","",""
"2146.2450000005774","","","post_reveal_questions","survey-likert","467","1935295","0.0-6.0-6.65","3424690","co38401","norming","","","{""aha"":5}","[0]","../img/tt/1078tt.jpg","",""
"null","<div style=""font-size:60px;""> </div>","null","fixation","html-keyboard-response","468","1935500","0.0-6.0-0.66","3424690","co38401","norming","","","","","","",""
"null","../img/tt/522tt.jpg","null","mooney1","image-keyboard-response","469","1938502","0.0-6.0-1.66","3424690","co38401","norming","","","","","","",""
"3934.1200000003446","","","post_mooney1_questions","survey-likert","470","1942439","0.0-6.0-2.66","3424690","co38401","norming","","","{""curiosity"":0,""confidence"":6}","[0,1]","../img/tt/522tt.jpg","",""
"2645.875000000233","","","recognition","survey-text","471","1945087","0.0-6.0-3.66","3424690","co38401","norming","","","{""guess"":""cat""}","","../img/tt/522tt.jpg","",""
"null","../img/gs/522gs.jpg","null","reveal","image-keyboard-response","472","1947094","0.0-6.0-4.66","3424690","co38401","norming","","","","","","",""
"null","../img/tt/522tt.jpg","null","mooney2","image-keyboard-response","473","1949103","0.0-6.0-5.66","3424690","co38401","norming","","","","","","",""
"2220.7899999998044","","","post_reveal_questions","survey-likert","474","1951327","0.0-6.0-6.66","3424690","co38401","norming","","","{""aha"":0}","[0]","../img/tt/522tt.jpg","",""
"null","<div style=""font-size:60px;""> </div>","null","fixation","html-keyboard-response","475","1951528","0.0-6.0-0.67","3424690","co38401","norming","","","","","","",""
"null","../img/tt/307tt.jpg","null","mooney1","image-keyboard-response","476","1954535","0.0-6.0-1.67","3424690","co38401","norming","","","","","","",""
"4068.554999999702","","","post_mooney1_questions","survey-likert","477","1958604","0.0-6.0-2.67","3424690","co38401","norming","","","{""curiosity"":0,""confidence"":6}","[0,1]","../img/tt/307tt.jpg","",""
"4078.1100000001024","","","recognition","survey-text","478","1962684","0.0-6.0-3.67","3424690","co38401","norming","","","{""guess"":""turtle""}","","../img/tt/307tt.jpg","",""
"null","../img/gs/307gs.jpg","null","reveal","image-keyboard-response","479","1964685","0.0-6.0-4.67","3424690","co38401","norming","","","","","","",""
"null","../img/tt/307tt.jpg","null","mooney2","image-keyboard-response","480","1966690","0.0-6.0-5.67","3424690","co38401","norming","","","","","","",""
"2431.774999999907","","","post_reveal_questions","survey-likert","481","1969124","0.0-6.0-6.67","3424690","co38401","norming","","","{""aha"":0}","[0]","../img/tt/307tt.jpg","",""
"null","<div style=""font-size:60px;""> </div>","null","fixation","html-keyboard-response","482","1969331","0.0-6.0-0.68","3424690","co38401","norming","","","","","","",""
"null","../img/tt/1125tt.jpg","null","mooney1","image-keyboard-response","483","1972344","0.0-6.0-1.68","3424690","co38401","norming","","","","","","",""
"5848.464999999851","","","post_mooney1_questions","survey-likert","484","1978196","0.0-6.0-2.68","3424690","co38401","norming","","","{""curiosity"":4,""confidence"":0}","[0,1]","../img/tt/1125tt.jpg","",""
"3669.9000000003725","","","recognition","survey-text","485","1981868","0.0-6.0-3.68","3424690","co38401","norming","","","{""guess"":""""}","","../img/tt/1125tt.jpg","",""
"null","../img/gs/1125gs.jpg","null","reveal","image-keyboard-response","486","1983869","0.0-6.0-4.68","3424690","co38401","norming","","","","","","",""
"null","../img/tt/1125tt.jpg","null","mooney2","image-keyboard-response","487","1985880","0.0-6.0-5.68","3424690","co38401","norming","","","","","","",""
"2216.7700000000186","","","post_reveal_questions","survey-likert","488","1988100","0.0-6.0-6.68","3424690","co38401","norming","","","{""aha"":4}","[0]","../img/tt/1125tt.jpg","",""
"null","<div style=""font-size:60px;""> </div>","null","fixation","html-keyboard-response","489","1988310","0.0-6.0-0.69","3424690","co38401","norming","","","","","","",""
"null","../img/tt/1046tt.jpg","null","mooney1","image-keyboard-response","490","1991321","0.0-6.0-1.69","3424690","co38401","norming","","","","","","",""
"4279.215000000084","","","post_mooney1_questions","survey-likert","491","1995604","0.0-6.0-2.69","3424690","co38401","norming","","","{""curiosity"":5,""confidence"":1}","[0,1]","../img/tt/1046tt.jpg","",""
"3189.8700000001118","","","recognition","survey-text","492","1998796","0.0-6.0-3.69","3424690","co38401","norming","","","{""guess"":""pancake""}","","../img/tt/1046tt.jpg","",""
"null","../img/gs/1046gs.jpg","null","reveal","image-keyboard-response","493","2000804","0.0-6.0-4.69","3424690","co38401","norming","","","","","","",""
"null","../img/tt/1046tt.jpg","null","mooney2","image-keyboard-response","494","2002806","0.0-6.0-5.69","3424690","co38401","norming","","","","","","",""
"1827.2299999997485","","","post_reveal_questions","survey-likert","495","2004637","0.0-6.0-6.69","3424690","co38401","norming","","","{""aha"":1}","[0]","../img/tt/1046tt.jpg","",""
"null","<div style=""font-size:60px;""> </div>","null","fixation","html-keyboard-response","496","2004839","0.0-6.0-0.70","3424690","co38401","norming","","","","","","",""
"null","../img/tt/1006tt.jpg","null","mooney1","image-keyboard-response","497","2007849","0.0-6.0-1.70","3424690","co38401","norming","","","","","","",""
"5071.054999999935","","","post_mooney1_questions","survey-likert","498","2012924","0.0-6.0-2.70","3424690","co38401","norming","","","{""curiosity"":4,""confidence"":4}","[0,1]","../img/tt/1006tt.jpg","",""
"3613.9550000003073","","","recognition","survey-text","499","2016540","0.0-6.0-3.70","3424690","co38401","norming","","","{""guess"":""cow""}","","../img/tt/1006tt.jpg","",""
"null","../img/gs/1006gs.jpg","null","reveal","image-keyboard-response","500","2018545","0.0-6.0-4.70","3424690","co38401","norming","","","","","","",""
"null","../img/tt/1006tt.jpg","null","mooney2","image-keyboard-response","501","2020548","0.0-6.0-5.70","3424690","co38401","norming","","","","","","",""
"1921.9350000002887","","","post_reveal_questions","survey-likert","502","2022472","0.0-6.0-6.70","3424690","co38401","norming","","","{""aha"":6}","[0]","../img/tt/1006tt.jpg","",""
"null","<div style=""font-size:60px;""> </div>","null","fixation","html-keyboard-response","503","2022682","0.0-6.0-0.71","3424690","co38401","norming","","","","","","",""
"null","../img/tt/1200tt.jpg","null","mooney1","image-keyboard-response","504","2025690","0.0-6.0-1.71","3424690","co38401","norming","","","","","","",""
"5746.709999999963","","","post_mooney1_questions","survey-likert","505","2031440","0.0-6.0-2.71","3424690","co38401","norming","","","{""curiosity"":6,""confidence"":2}","[0,1]","../img/tt/1200tt.jpg","",""
"6942.024999999907","","","recognition","survey-text","506","2038384","0.0-6.0-3.71","3424690","co38401","norming","","","{""guess"":""racecar""}","","../img/tt/1200tt.jpg","",""
"null","../img/gs/1200gs.jpg","null","reveal","image-keyboard-response","507","2040388","0.0-6.0-4.71","3424690","co38401","norming","","","","","","",""
"null","../img/tt/1200tt.jpg","null","mooney2","image-keyboard-response","508","2042390","0.0-6.0-5.71","3424690","co38401","norming","","","","","","",""
"2015.1100000003353","","","post_reveal_questions","survey-likert","509","2044408","0.0-6.0-6.71","3424690","co38401","norming","","","{""aha"":2}","[0]","../img/tt/1200tt.jpg","",""
"null","<div style=""font-size:60px;""> </div>","null","fixation","html-keyboard-response","510","2044610","0.0-6.0-0.72","3424690","co38401","norming","","","","","","",""
"null","../img/tt/1159tt.jpg","null","mooney1","image-keyboard-response","511","2047617","0.0-6.0-1.72","3424690","co38401","norming","","","","","","",""
"4155.715000000782","","","post_mooney1_questions","survey-likert","512","2051776","0.0-6.0-2.72","3424690","co38401","norming","","","{""curiosity"":3,""confidence"":3}","[0,1]","../img/tt/1159tt.jpg","",""
"2765.945000000065","","","recognition","survey-text","513","2054544","0.0-6.0-3.72","3424690","co38401","norming","","","{""guess"":""skater""}","","../img/tt/1159tt.jpg","",""
"null","../img/gs/1159gs.jpg","null","reveal","image-keyboard-response","514","2056545","0.0-6.0-4.72","3424690","co38401","norming","","","","","","",""
"null","../img/tt/1159tt.jpg","null","mooney2","image-keyboard-response","515","2058556","0.0-6.0-5.72","3424690","co38401","norming","","","","","","",""
"2057.4500000001863","","","post_reveal_questions","survey-likert","516","2060616","0.0-6.0-6.72","3424690","co38401","norming","","","{""aha"":0}","[0]","../img/tt/1159tt.jpg","",""
"null","<div style=""font-size:60px;""> </div>","null","fixation","html-keyboard-response","517","2060820","0.0-6.0-0.73","3424690","co38401","norming","","","","","","",""
"null","../img/tt/496tt.jpg","null","mooney1","image-keyboard-response","518","2063823","0.0-6.0-1.73","3424690","co38401","norming","","","","","","",""
"4597.429999999702","","","post_mooney1_questions","survey-likert","519","2068424","0.0-6.0-2.73","3424690","co38401","norming","","","{""curiosity"":6,""confidence"":0}","[0,1]","../img/tt/496tt.jpg","",""
"5590.2299999997485","","","recognition","survey-text","520","2074016","0.0-6.0-3.73","3424690","co38401","norming","","","{""guess"":""glasses""}","","../img/tt/496tt.jpg","",""
"null","../img/gs/496gs.jpg","null","reveal","image-keyboard-response","521","2076021","0.0-6.0-4.73","3424690","co38401","norming","","","","","","",""
"null","../img/tt/496tt.jpg","null","mooney2","image-keyboard-response","522","2078031","0.0-6.0-5.73","3424690","co38401","norming","","","","","","",""
"2215.219999999972","","","post_reveal_questions","survey-likert","523","2080249","0.0-6.0-6.73","3424690","co38401","norming","","","{""aha"":6}","[0]","../img/tt/496tt.jpg","",""
"null","<div style=""font-size:60px;""> </div>","null","fixation","html-keyboard-response","524","2080459","0.0-6.0-0.74","3424690","co38401","norming","","","","","","",""
"null","../img/tt/1290tt.jpg","null","mooney1","image-keyboard-response","525","2083467","0.0-6.0-1.74","3424690","co38401","norming","","","","","","",""
"4372.379999999655","","","post_mooney1_questions","survey-likert","526","2087841","0.0-6.0-2.74","3424690","co38401","norming","","","{""curiosity"":3,""confidence"":4}","[0,1]","../img/tt/1290tt.jpg","",""
"3294.1049999999814","","","recognition","survey-text","527","2091137","0.0-6.0-3.74","3424690","co38401","norming","","","{""guess"":""turtle""}","","../img/tt/1290tt.jpg","",""
"null","../img/gs/1290gs.jpg","null","reveal","image-keyboard-response","528","2093139","0.0-6.0-4.74","3424690","co38401","norming","","","","","","",""
"null","../img/tt/1290tt.jpg","null","mooney2","image-keyboard-response","529","2095144","0.0-6.0-5.74","3424690","co38401","norming","","","","","","",""
"2695.5550000001676","","","post_reveal_questions","survey-likert","530","2097841","0.0-6.0-6.74","3424690","co38401","norming","","","{""aha"":5}","[0]","../img/tt/1290tt.jpg","",""
"null","<div style=""font-size:60px;""> </div>","null","fixation","html-keyboard-response","531","2098050","0.0-6.0-0.75","3424690","co38401","norming","","","","","","",""
"null","../img/tt/1127tt.jpg","null","mooney1","image-keyboard-response","532","2101058","0.0-6.0-1.75","3424690","co38401","norming","","","","","","",""
"6131.405000000261","","","post_mooney1_questions","survey-likert","533","2107193","0.0-6.0-2.75","3424690","co38401","norming","","","{""curiosity"":6,""confidence"":0}","[0,1]","../img/tt/1127tt.jpg","",""
"5334.045000000391","","","recognition","survey-text","534","2112529","0.0-6.0-3.75","3424690","co38401","norming","","","{""guess"":""two dogs""}","","../img/tt/1127tt.jpg","",""
"null","../img/gs/1127gs.jpg","null","reveal","image-keyboard-response","535","2114539","0.0-6.0-4.75","3424690","co38401","norming","","","","","","",""
"null","../img/tt/1127tt.jpg","null","mooney2","image-keyboard-response","536","2116548","0.0-6.0-5.75","3424690","co38401","norming","","","","","","",""
"2633.7800000002608","","","post_reveal_questions","survey-likert","537","2119184","0.0-6.0-6.75","3424690","co38401","norming","","","{""aha"":6}","[0]","../img/tt/1127tt.jpg","",""
"null","<div style=""font-size:60px;""> </div>","null","fixation","html-keyboard-response","538","2119395","0.0-6.0-0.76","3424690","co38401","norming","","","","","","",""
"null","../img/tt/046tt.jpg","null","mooney1","image-keyboard-response","539","2122400","0.0-6.0-1.76","3424690","co38401","norming","","","","","","",""
"4045.369999999646","","","post_mooney1_questions","survey-likert","540","2126449","0.0-6.0-2.76","3424690","co38401","norming","","","{""curiosity"":6,""confidence"":3}","[0,1]","../img/tt/046tt.jpg","",""
"2941.8249999997206","","","recognition","survey-text","541","2129392","0.0-6.0-3.76","3424690","co38401","norming","","","{""guess"":""turtle""}","","../img/tt/046tt.jpg","",""
"null","../img/gs/046gs.jpg","null","reveal","image-keyboard-response","542","2131396","0.0-6.0-4.76","3424690","co38401","norming","","","","","","",""
"null","../img/tt/046tt.jpg","null","mooney2","image-keyboard-response","543","2133399","0.0-6.0-5.76","3424690","co38401","norming","","","","","","",""
"2759.0099999997765","","","post_reveal_questions","survey-likert","544","2136161","0.0-6.0-6.76","3424690","co38401","norming","","","{""aha"":1}","[0]","../img/tt/046tt.jpg","",""
"null","<div style=""font-size:60px;""> </div>","null","fixation","html-keyboard-response","545","2136363","0.0-6.0-0.77","3424690","co38401","norming","","","","","","",""
"null","../img/tt/140tt.jpg","null","mooney1","image-keyboard-response","546","2139371","0.0-6.0-1.77","3424690","co38401","norming","","","","","","",""
"5236.319999999832","","","post_mooney1_questions","survey-likert","547","2144611","0.0-6.0-2.77","3424690","co38401","norming","","","{""curiosity"":3,""confidence"":6}","[0,1]","../img/tt/140tt.jpg","",""
"3437.8599999998696","","","recognition","survey-text","548","2148050","0.0-6.0-3.77","3424690","co38401","norming","","","{""guess"":""forks""}","","../img/tt/140tt.jpg","",""
"null","../img/gs/140gs.jpg","null","reveal","image-keyboard-response","549","2150057","0.0-6.0-4.77","3424690","co38401","norming","","","","","","",""
"null","../img/tt/140tt.jpg","null","mooney2","image-keyboard-response","550","2152058","0.0-6.0-5.77","3424690","co38401","norming","","","","","","",""
