"rt","stimulus","key_press","test_part","trial_type","trial_index","time_elapsed","internal_node_id","totalTime","subject","experiment_name","button_pressed","success","responses","question_order","currentStim","old","correct"
"9292.38500000065","Welcome to the experiment. This is an online experiment so please don't close the tab/window until we say goodbye.  Press any key to begin.","66","instructions","html-keyboard-response","0","9309","0.0-0.0","2811592","co38455","norming","","","","","","",""
"51248.5800000004","<div style='word-wrap: break-word; width: 900px'><h3>Please consider this information carefully before deciding whether to participate in this research</h3><ul style='text-align: left; font-size: .8em;'><li><b>Purpose of the research</b>: To examine how people process images.</li><li><b>What you will do in this research</b>:  Stimuli (images) will be presented on the computer and you will be asked different questions about them.</li><li><b>Time required</b>: Participation will take between 45 and 60 minutes to complete.</li><li><b>Risks</b>:  There are no anticipated risks associated with participating in this study. The effects of participating should be comparable to those you would experience from viewing a computer monitor for 30 minutes and using a mouse or keyboard.</li><li><b>Benefits</b>:  This study provides no benefits to you individually except for the credit. The study provides important information about the nature of perception and learning.</li><li><b>Confidentiality</b>:  Your participation in this study will remain confidential. No personally identifiable information will be associated with your data. Your de-identified data may be shared with other researchers and used in future projects.</li><li><b>Participation and withdrawal</b>:  Your participation in this study is completely voluntary and you may refuse to participate or you may choose to withdraw at any time without penalty.</li><li><b>How to contact the researchers</b>: If you have questions or concerns about your participation or payment, or want to request a summary of research findings, please contact Sander Van de Cruys (KU Leuven), at sander.vandecruys@kuleuven.be.</li></ul><p>The nature and purpose of this research have been sufficiently explained and I agree to participate in this study.  I understand that I am free to withdraw at any time without incurring any penalty.</p><p>Please consent by clicking the button below to continue. Otherwise, please exit the study at this time.</p></div>","","instructions","html-button-response","1","60555","0.0-1.0","2811592","co38455","norming","0","","","","","",""
"","","","instructions","fullscreen","2","67325","0.0-2.0","2811592","co38455","norming","","true","","","","",""
"39890.05999999972","","","sona","survey-html-form","3","107219","0.0-3.0","2811592","co38455","norming","","","[{""name"":""sonaid"",""value"":""38455""},{""name"":""debrief"",""value"":""yes""},{""name"":""datajoin"",""value"":""yes""}]","","","",""
"83359.31499999971","<div style='word-wrap: break-word; width: 900px'><h3>Instructions</h3><p>This experiment will have 3 parts. In the first part you will see a series of distorted images like the one below on the left. As you can see in the righthand image, the distorted images are derived from actual photographs. In what follows, you will <strong>briefly</strong> be presented with <strong>only</strong> the distorted image.</p> <div style='float: left; margin-right: 20px;'><img src='../img/018tt.jpg' height='250' width='250'></img></div><div style='float: right; margin-left: 20px;'><img src='../img/018gs.jpg' height='250' width='250'></img></div><p>Subsequently you will be asked a few questions about the image: One question on how <strong>curious</strong> you are about the solution and one on how <strong>confident</strong> you are that you know the solution.</p>Next, we ask you to make a guess on what is in the image. Note that it is OK to name just the <strong>basic level category</strong>. For example when you see a parrot in the image, 'parrot' will obviously be a correct answer but also correct is 'bird'. However, 'animal' will <strong>not</strong> be counted as a correct response. For the example above, 'rose' would be correct or 'flower', but not 'plant'. When soccer players are depicted, 'soccer', 'football', 'soccer players' will be correct, but not 'humans', 'outdoors', or 'sports'. You do not need to describe the image in full, just name the main object in it <strong>in one or two words</strong>. All images depict objects from one of the following broad level categories: animals, inanimate objects, plants, sports, vehicles, and food. Recognizing means knowing <strong>more</strong> than these broad labels for a given image. But we always encourage you to <strong>make a guess</strong> if you can. Note that you are allowed to use <strong>Dutch and English</strong> in your answers, whatever comes easiest for you.</p><p>Press any key to continue.</p></div>","72","instructions","html-keyboard-response","4","190590","0.0-4.0","2811592","co38455","norming","","","","","","",""
"47757.99000000005","<div style='word-wrap: break-word; width: 900px'><h3>Instructions</h3> <p>Next, the solution image will be revealed to you and you'll be asked to indicate how strong your <strong>aha-experience</strong> was after seeing the solution. This describes the positive feeling of the 'click' you sometimes experience, when the pieces of the 'puzzle' fall together and you suddenly have 'insight' in the image.</p><img src='aha.jpg' height='188' width='250'></img><p>Note that there are no right or wrong answers. We are interested in what <strong>you</strong> see in the image and how <strong>you</strong> feel about it.</p><p>Press any key to start the experiment.</p></div>","75","instructions","html-keyboard-response","5","238349","0.0-5.0","2811592","co38455","norming","","","","","","",""
"null","<div style=""font-size:60px;""> </div>","null","fixation","html-keyboard-response","6","238558","0.0-6.0-0.0","2811592","co38455","norming","","","","","","",""
"null","../img/tt/1006tt.jpg","null","mooney1","image-keyboard-response","7","241565","0.0-6.0-1.0","2811592","co38455","norming","","","","","","",""
"5759.37999999951","","","post_mooney1_questions","survey-likert","8","247326","0.0-6.0-2.0","2811592","co38455","norming","","","{""curiosity"":5,""confidence"":0}","[0,1]","../img/tt/1006tt.jpg","",""
"7341.455000000686","","","recognition","survey-text","9","254669","0.0-6.0-3.0","2811592","co38455","norming","","","{""guess"":""weide""}","","../img/tt/1006tt.jpg","",""
"null","../img/gs/1006gs.jpg","null","reveal","image-keyboard-response","10","256676","0.0-6.0-4.0","2811592","co38455","norming","","","","","","",""
"null","../img/tt/1006tt.jpg","null","mooney2","image-keyboard-response","11","258683","0.0-6.0-5.0","2811592","co38455","norming","","","","","","",""
"5200.90500000061","","","post_reveal_questions","survey-likert","12","263885","0.0-6.0-6.0","2811592","co38455","norming","","","{""aha"":5}","[0]","../img/tt/1006tt.jpg","",""
"null","<div style=""font-size:60px;""> </div>","null","fixation","html-keyboard-response","13","264092","0.0-6.0-0.1","2811592","co38455","norming","","","","","","",""
"null","../img/tt/1063tt.jpg","null","mooney1","image-keyboard-response","14","267103","0.0-6.0-1.1","2811592","co38455","norming","","","","","","",""
"11107.765000000654","","","post_mooney1_questions","survey-likert","15","278213","0.0-6.0-2.1","2811592","co38455","norming","","","{""curiosity"":5,""confidence"":1}","[0,1]","../img/tt/1063tt.jpg","",""
"3606.2250000004424","","","recognition","survey-text","16","281821","0.0-6.0-3.1","2811592","co38455","norming","","","{""guess"":""paard""}","","../img/tt/1063tt.jpg","",""
"null","../img/gs/1063gs.jpg","null","reveal","image-keyboard-response","17","283822","0.0-6.0-4.1","2811592","co38455","norming","","","","","","",""
"null","../img/tt/1063tt.jpg","null","mooney2","image-keyboard-response","18","285831","0.0-6.0-5.1","2811592","co38455","norming","","","","","","",""
"5131.87000000017","","","post_reveal_questions","survey-likert","19","290965","0.0-6.0-6.1","2811592","co38455","norming","","","{""aha"":4}","[0]","../img/tt/1063tt.jpg","",""
"null","<div style=""font-size:60px;""> </div>","null","fixation","html-keyboard-response","20","291166","0.0-6.0-0.2","2811592","co38455","norming","","","","","","",""
"null","../img/tt/435tt.jpg","null","mooney1","image-keyboard-response","21","294176","0.0-6.0-1.2","2811592","co38455","norming","","","","","","",""
"3826.310000000347","","","post_mooney1_questions","survey-likert","22","298005","0.0-6.0-2.2","2811592","co38455","norming","","","{""curiosity"":4,""confidence"":2}","[0,1]","../img/tt/435tt.jpg","",""
"4102.055000000284","","","recognition","survey-text","23","302109","0.0-6.0-3.2","2811592","co38455","norming","","","{""guess"":""printer""}","","../img/tt/435tt.jpg","",""
"null","../img/gs/435gs.jpg","null","reveal","image-keyboard-response","24","304117","0.0-6.0-4.2","2811592","co38455","norming","","","","","","",""
"null","../img/tt/435tt.jpg","null","mooney2","image-keyboard-response","25","306119","0.0-6.0-5.2","2811592","co38455","norming","","","","","","",""
"3907.7150000003166","","","post_reveal_questions","survey-likert","26","310029","0.0-6.0-6.2","2811592","co38455","norming","","","{""aha"":4}","[0]","../img/tt/435tt.jpg","",""
"null","<div style=""font-size:60px;""> </div>","null","fixation","html-keyboard-response","27","310233","0.0-6.0-0.3","2811592","co38455","norming","","","","","","",""
"null","../img/tt/194tt.jpg","null","mooney1","image-keyboard-response","28","313238","0.0-6.0-1.3","2811592","co38455","norming","","","","","","",""
"5710.269999999611","","","post_mooney1_questions","survey-likert","29","318950","0.0-6.0-2.3","2811592","co38455","norming","","","{""curiosity"":3,""confidence"":3}","[0,1]","../img/tt/194tt.jpg","",""
"4774.494999999704","","","recognition","survey-text","30","323726","0.0-6.0-3.3","2811592","co38455","norming","","","{""guess"":""meisje""}","","../img/tt/194tt.jpg","",""
"null","../img/gs/194gs.jpg","null","reveal","image-keyboard-response","31","325731","0.0-6.0-4.3","2811592","co38455","norming","","","","","","",""
"null","../img/tt/194tt.jpg","null","mooney2","image-keyboard-response","32","327736","0.0-6.0-5.3","2811592","co38455","norming","","","","","","",""
"4099.740000000573","","","post_reveal_questions","survey-likert","33","331838","0.0-6.0-6.3","2811592","co38455","norming","","","{""aha"":4}","[0]","../img/tt/194tt.jpg","",""
"null","<div style=""font-size:60px;""> </div>","null","fixation","html-keyboard-response","34","332040","0.0-6.0-0.4","2811592","co38455","norming","","","","","","",""
"null","../img/tt/1123tt.jpg","null","mooney1","image-keyboard-response","35","335052","0.0-6.0-1.4","2811592","co38455","norming","","","","","","",""
"5198.8199999995995","","","post_mooney1_questions","survey-likert","36","340254","0.0-6.0-2.4","2811592","co38455","norming","","","{""curiosity"":4,""confidence"":2}","[0,1]","../img/tt/1123tt.jpg","",""
"5566.400000000605","","","recognition","survey-text","37","345822","0.0-6.0-3.4","2811592","co38455","norming","","","{""guess"":""tuin""}","","../img/tt/1123tt.jpg","",""
"null","../img/gs/1123gs.jpg","null","reveal","image-keyboard-response","38","347824","0.0-6.0-4.4","2811592","co38455","norming","","","","","","",""
"null","../img/tt/1123tt.jpg","null","mooney2","image-keyboard-response","39","349835","0.0-6.0-5.4","2811592","co38455","norming","","","","","","",""
"2762.555000000284","","","post_reveal_questions","survey-likert","40","352598","0.0-6.0-6.4","2811592","co38455","norming","","","{""aha"":5}","[0]","../img/tt/1123tt.jpg","",""
"null","<div style=""font-size:60px;""> </div>","null","fixation","html-keyboard-response","41","352809","0.0-6.0-0.5","2811592","co38455","norming","","","","","","",""
"null","../img/tt/1250tt.jpg","null","mooney1","image-keyboard-response","42","355813","0.0-6.0-1.5","2811592","co38455","norming","","","","","","",""
"4198.774999999849","","","post_mooney1_questions","survey-likert","43","360014","0.0-6.0-2.5","2811592","co38455","norming","","","{""curiosity"":5,""confidence"":1}","[0,1]","../img/tt/1250tt.jpg","",""
"1502.2500000004657","","","recognition","survey-text","44","361518","0.0-6.0-3.5","2811592","co38455","norming","","","{""guess"":""zee""}","","../img/tt/1250tt.jpg","",""
"null","../img/gs/1250gs.jpg","null","reveal","image-keyboard-response","45","363519","0.0-6.0-4.5","2811592","co38455","norming","","","","","","",""
"null","../img/tt/1250tt.jpg","null","mooney2","image-keyboard-response","46","365524","0.0-6.0-5.5","2811592","co38455","norming","","","","","","",""
"1551.4700000003795","","","post_reveal_questions","survey-likert","47","367078","0.0-6.0-6.5","2811592","co38455","norming","","","{""aha"":6}","[0]","../img/tt/1250tt.jpg","",""
"null","<div style=""font-size:60px;""> </div>","null","fixation","html-keyboard-response","48","367280","0.0-6.0-0.6","2811592","co38455","norming","","","","","","",""
"null","../img/tt/135tt.jpg","null","mooney1","image-keyboard-response","49","370282","0.0-6.0-1.6","2811592","co38455","norming","","","","","","",""
"4523.019999999611","","","post_mooney1_questions","survey-likert","50","374801","0.0-6.0-2.6","2811592","co38455","norming","","","{""curiosity"":1,""confidence"":6}","[0,1]","../img/tt/135tt.jpg","",""
"4022.3749999995343","","","recognition","survey-text","51","378825","0.0-6.0-3.6","2811592","co38455","norming","","","{""guess"":""wc-bril""}","","../img/tt/135tt.jpg","",""
"null","../img/gs/135gs.jpg","null","reveal","image-keyboard-response","52","380834","0.0-6.0-4.6","2811592","co38455","norming","","","","","","",""
"null","../img/tt/135tt.jpg","null","mooney2","image-keyboard-response","53","382838","0.0-6.0-5.6","2811592","co38455","norming","","","","","","",""
"3984.8750000001164","","","post_reveal_questions","survey-likert","54","386825","0.0-6.0-6.6","2811592","co38455","norming","","","{""aha"":1}","[0]","../img/tt/135tt.jpg","",""
"null","<div style=""font-size:60px;""> </div>","null","fixation","html-keyboard-response","55","387026","0.0-6.0-0.7","2811592","co38455","norming","","","","","","",""
"null","../img/tt/096tt.jpg","null","mooney1","image-keyboard-response","56","390030","0.0-6.0-1.7","2811592","co38455","norming","","","","","","",""
"5431.655000000319","","","post_mooney1_questions","survey-likert","57","395465","0.0-6.0-2.7","2811592","co38455","norming","","","{""curiosity"":3,""confidence"":6}","[0,1]","../img/tt/096tt.jpg","",""
"3518.5499999998137","","","recognition","survey-text","58","398985","0.0-6.0-3.7","2811592","co38455","norming","","","{""guess"":""piano""}","","../img/tt/096tt.jpg","",""
"null","../img/gs/096gs.jpg","null","reveal","image-keyboard-response","59","400993","0.0-6.0-4.7","2811592","co38455","norming","","","","","","",""
"null","../img/tt/096tt.jpg","null","mooney2","image-keyboard-response","60","402995","0.0-6.0-5.7","2811592","co38455","norming","","","","","","",""
"4435.924999999814","","","post_reveal_questions","survey-likert","61","407433","0.0-6.0-6.7","2811592","co38455","norming","","","{""aha"":2}","[0]","../img/tt/096tt.jpg","",""
"null","<div style=""font-size:60px;""> </div>","null","fixation","html-keyboard-response","62","407644","0.0-6.0-0.8","2811592","co38455","norming","","","","","","",""
"null","../img/tt/418tt.jpg","null","mooney1","image-keyboard-response","63","410651","0.0-6.0-1.8","2811592","co38455","norming","","","","","","",""
"4339.179999999935","","","post_mooney1_questions","survey-likert","64","414993","0.0-6.0-2.8","2811592","co38455","norming","","","{""curiosity"":5,""confidence"":1}","[0,1]","../img/tt/418tt.jpg","",""
"2982.1250000004075","","","recognition","survey-text","65","417977","0.0-6.0-3.8","2811592","co38455","norming","","","{""guess"":""zetel""}","","../img/tt/418tt.jpg","",""
"null","../img/gs/418gs.jpg","null","reveal","image-keyboard-response","66","419979","0.0-6.0-4.8","2811592","co38455","norming","","","","","","",""
"null","../img/tt/418tt.jpg","null","mooney2","image-keyboard-response","67","421981","0.0-6.0-5.8","2811592","co38455","norming","","","","","","",""
"1714.1400000000722","","","post_reveal_questions","survey-likert","68","423697","0.0-6.0-6.8","2811592","co38455","norming","","","{""aha"":6}","[0]","../img/tt/418tt.jpg","",""
"null","<div style=""font-size:60px;""> </div>","null","fixation","html-keyboard-response","69","423900","0.0-6.0-0.9","2811592","co38455","norming","","","","","","",""
"null","../img/tt/076tt.jpg","null","mooney1","image-keyboard-response","70","426906","0.0-6.0-1.9","2811592","co38455","norming","","","","","","",""
"3620.989999999467","","","post_mooney1_questions","survey-likert","71","430529","0.0-6.0-2.9","2811592","co38455","norming","","","{""curiosity"":2,""confidence"":6}","[0,1]","../img/tt/076tt.jpg","",""
"4341.980000000156","","","recognition","survey-text","72","434869","0.0-6.0-3.9","2811592","co38455","norming","","","{""guess"":""rolschaats""}","","../img/tt/076tt.jpg","",""
"null","../img/gs/076gs.jpg","null","reveal","image-keyboard-response","73","436871","0.0-6.0-4.9","2811592","co38455","norming","","","","","","",""
"null","../img/tt/076tt.jpg","null","mooney2","image-keyboard-response","74","438873","0.0-6.0-5.9","2811592","co38455","norming","","","","","","",""
"2242.194999999774","","","post_reveal_questions","survey-likert","75","441117","0.0-6.0-6.9","2811592","co38455","norming","","","{""aha"":2}","[0]","../img/tt/076tt.jpg","",""
"null","<div style=""font-size:60px;""> </div>","null","fixation","html-keyboard-response","76","441318","0.0-6.0-0.10","2811592","co38455","norming","","","","","","",""
"null","../img/tt/1128tt.jpg","null","mooney1","image-keyboard-response","77","444321","0.0-6.0-1.10","2811592","co38455","norming","","","","","","",""
"4658.945000000123","","","post_mooney1_questions","survey-likert","78","448981","0.0-6.0-2.10","2811592","co38455","norming","","","{""curiosity"":4,""confidence"":4}","[0,1]","../img/tt/1128tt.jpg","",""
"2094.3649999999325","","","recognition","survey-text","79","451077","0.0-6.0-3.10","2811592","co38455","norming","","","{""guess"":""panda""}","","../img/tt/1128tt.jpg","",""
"null","../img/gs/1128gs.jpg","null","reveal","image-keyboard-response","80","453080","0.0-6.0-4.10","2811592","co38455","norming","","","","","","",""
"null","../img/tt/1128tt.jpg","null","mooney2","image-keyboard-response","81","455083","0.0-6.0-5.10","2811592","co38455","norming","","","","","","",""
"4120.0449999996345","","","post_reveal_questions","survey-likert","82","459205","0.0-6.0-6.10","2811592","co38455","norming","","","{""aha"":5}","[0]","../img/tt/1128tt.jpg","",""
"null","<div style=""font-size:60px;""> </div>","null","fixation","html-keyboard-response","83","459409","0.0-6.0-0.11","2811592","co38455","norming","","","","","","",""
"null","../img/tt/1181tt.jpg","null","mooney1","image-keyboard-response","84","462421","0.0-6.0-1.11","2811592","co38455","norming","","","","","","",""
"7222.6350000000675","","","post_mooney1_questions","survey-likert","85","469645","0.0-6.0-2.11","2811592","co38455","norming","","","{""curiosity"":5,""confidence"":0}","[0,1]","../img/tt/1181tt.jpg","",""
"2998.1700000007986","","","recognition","survey-text","86","472645","0.0-6.0-3.11","2811592","co38455","norming","","","{""guess"":""wijnkelder""}","","../img/tt/1181tt.jpg","",""
"null","../img/gs/1181gs.jpg","null","reveal","image-keyboard-response","87","474655","0.0-6.0-4.11","2811592","co38455","norming","","","","","","",""
"null","../img/tt/1181tt.jpg","null","mooney2","image-keyboard-response","88","476666","0.0-6.0-5.11","2811592","co38455","norming","","","","","","",""
"2065.405000000319","","","post_reveal_questions","survey-likert","89","478733","0.0-6.0-6.11","2811592","co38455","norming","","","{""aha"":5}","[0]","../img/tt/1181tt.jpg","",""
"null","<div style=""font-size:60px;""> </div>","null","fixation","html-keyboard-response","90","478937","0.0-6.0-0.12","2811592","co38455","norming","","","","","","",""
"null","../img/tt/1027tt.jpg","null","mooney1","image-keyboard-response","91","481944","0.0-6.0-1.12","2811592","co38455","norming","","","","","","",""
"3427.175000000745","","","post_mooney1_questions","survey-likert","92","485373","0.0-6.0-2.12","2811592","co38455","norming","","","{""curiosity"":4,""confidence"":2}","[0,1]","../img/tt/1027tt.jpg","",""
"3078.3300000003073","","","recognition","survey-text","93","488453","0.0-6.0-3.12","2811592","co38455","norming","","","{""guess"":""koe""}","","../img/tt/1027tt.jpg","",""
"null","../img/gs/1027gs.jpg","null","reveal","image-keyboard-response","94","490461","0.0-6.0-4.12","2811592","co38455","norming","","","","","","",""
"null","../img/tt/1027tt.jpg","null","mooney2","image-keyboard-response","95","492463","0.0-6.0-5.12","2811592","co38455","norming","","","","","","",""
"1692.289999999979","","","post_reveal_questions","survey-likert","96","494161","0.0-6.0-6.12","2811592","co38455","norming","","","{""aha"":3}","[0]","../img/tt/1027tt.jpg","",""
"null","<div style=""font-size:60px;""> </div>","null","fixation","html-keyboard-response","97","494369","0.0-6.0-0.13","2811592","co38455","norming","","","","","","",""
"null","../img/tt/123tt.jpg","null","mooney1","image-keyboard-response","98","497379","0.0-6.0-1.13","2811592","co38455","norming","","","","","","",""
"6227.160000000382","","","post_mooney1_questions","survey-likert","99","503609","0.0-6.0-2.13","2811592","co38455","norming","","","{""curiosity"":4,""confidence"":2}","[0,1]","../img/tt/123tt.jpg","",""
"9294.214999999851","","","recognition","survey-text","100","512905","0.0-6.0-3.13","2811592","co38455","norming","","","{""guess"":""muziekkoffer""}","","../img/tt/123tt.jpg","",""
"null","../img/gs/123gs.jpg","null","reveal","image-keyboard-response","101","514906","0.0-6.0-4.13","2811592","co38455","norming","","","","","","",""
"null","../img/tt/123tt.jpg","null","mooney2","image-keyboard-response","102","516908","0.0-6.0-5.13","2811592","co38455","norming","","","","","","",""
"2762.464999999793","","","post_reveal_questions","survey-likert","103","519673","0.0-6.0-6.13","2811592","co38455","norming","","","{""aha"":5}","[0]","../img/tt/123tt.jpg","",""
"null","<div style=""font-size:60px;""> </div>","null","fixation","html-keyboard-response","104","519874","0.0-6.0-0.14","2811592","co38455","norming","","","","","","",""
"null","../img/tt/279tt.jpg","null","mooney1","image-keyboard-response","105","522877","0.0-6.0-1.14","2811592","co38455","norming","","","","","","",""
"6313.32500000007","","","post_mooney1_questions","survey-likert","106","529193","0.0-6.0-2.14","2811592","co38455","norming","","","{""curiosity"":1,""confidence"":6}","[0,1]","../img/tt/279tt.jpg","",""
"3950.064999999944","","","recognition","survey-text","107","533145","0.0-6.0-3.14","2811592","co38455","norming","","","{""guess"":""koala""}","","../img/tt/279tt.jpg","",""
"null","../img/gs/279gs.jpg","null","reveal","image-keyboard-response","108","535146","0.0-6.0-4.14","2811592","co38455","norming","","","","","","",""
"null","../img/tt/279tt.jpg","null","mooney2","image-keyboard-response","109","537146","0.0-6.0-5.14","2811592","co38455","norming","","","","","","",""
"4100.304999999935","","","post_reveal_questions","survey-likert","110","541249","0.0-6.0-6.14","2811592","co38455","norming","","","{""aha"":0}","[0]","../img/tt/279tt.jpg","",""
"null","<div style=""font-size:60px;""> </div>","null","fixation","html-keyboard-response","111","541451","0.0-6.0-0.15","2811592","co38455","norming","","","","","","",""
"null","../img/tt/1226tt.jpg","null","mooney1","image-keyboard-response","112","544456","0.0-6.0-1.15","2811592","co38455","norming","","","","","","",""
"5334.875000000466","","","post_mooney1_questions","survey-likert","113","549793","0.0-6.0-2.15","2811592","co38455","norming","","","{""curiosity"":2,""confidence"":5}","[0,1]","../img/tt/1226tt.jpg","",""
"2197.914999999688","","","recognition","survey-text","114","551993","0.0-6.0-3.15","2811592","co38455","norming","","","{""guess"":""zwaan""}","","../img/tt/1226tt.jpg","",""
"null","../img/gs/1226gs.jpg","null","reveal","image-keyboard-response","115","553996","0.0-6.0-4.15","2811592","co38455","norming","","","","","","",""
"null","../img/tt/1226tt.jpg","null","mooney2","image-keyboard-response","116","556005","0.0-6.0-5.15","2811592","co38455","norming","","","","","","",""
"2025.7699999992037","","","post_reveal_questions","survey-likert","117","558031","0.0-6.0-6.15","2811592","co38455","norming","","","{""aha"":3}","[0]","../img/tt/1226tt.jpg","",""
"null","<div style=""font-size:60px;""> </div>","null","fixation","html-keyboard-response","118","558235","0.0-6.0-0.16","2811592","co38455","norming","","","","","","",""
"null","../img/tt/082tt.jpg","null","mooney1","image-keyboard-response","119","561246","0.0-6.0-1.16","2811592","co38455","norming","","","","","","",""
"4966.78000000061","","","post_mooney1_questions","survey-likert","120","566215","0.0-6.0-2.16","2811592","co38455","norming","","","{""curiosity"":5,""confidence"":0}","[0,1]","../img/tt/082tt.jpg","",""
"2790.184999999823","","","recognition","survey-text","121","569007","0.0-6.0-3.16","2811592","co38455","norming","","","{""guess"":""traphal""}","","../img/tt/082tt.jpg","",""
"null","../img/gs/082gs.jpg","null","reveal","image-keyboard-response","122","571012","0.0-6.0-4.16","2811592","co38455","norming","","","","","","",""
"null","../img/tt/082tt.jpg","null","mooney2","image-keyboard-response","123","573015","0.0-6.0-5.16","2811592","co38455","norming","","","","","","",""
"2782.064999999362","","","post_reveal_questions","survey-likert","124","575799","0.0-6.0-6.16","2811592","co38455","norming","","","{""aha"":5}","[0]","../img/tt/082tt.jpg","",""
"null","<div style=""font-size:60px;""> </div>","null","fixation","html-keyboard-response","125","576001","0.0-6.0-0.17","2811592","co38455","norming","","","","","","",""
"null","../img/tt/380tt.jpg","null","mooney1","image-keyboard-response","126","579006","0.0-6.0-1.17","2811592","co38455","norming","","","","","","",""
"6030.139999999898","","","post_mooney1_questions","survey-likert","127","585039","0.0-6.0-2.17","2811592","co38455","norming","","","{""curiosity"":5,""confidence"":1}","[0,1]","../img/tt/380tt.jpg","",""
"2494.164999999106","","","recognition","survey-text","128","587535","0.0-6.0-3.17","2811592","co38455","norming","","","{""guess"":""cavia""}","","../img/tt/380tt.jpg","",""
"null","../img/gs/380gs.jpg","null","reveal","image-keyboard-response","129","589536","0.0-6.0-4.17","2811592","co38455","norming","","","","","","",""
"null","../img/tt/380tt.jpg","null","mooney2","image-keyboard-response","130","591547","0.0-6.0-5.17","2811592","co38455","norming","","","","","","",""
"2514.079999999958","","","post_reveal_questions","survey-likert","131","594063","0.0-6.0-6.17","2811592","co38455","norming","","","{""aha"":5}","[0]","../img/tt/380tt.jpg","",""
"null","<div style=""font-size:60px;""> </div>","null","fixation","html-keyboard-response","132","594274","0.0-6.0-0.18","2811592","co38455","norming","","","","","","",""
"null","../img/tt/552tt.jpg","null","mooney1","image-keyboard-response","133","597279","0.0-6.0-1.18","2811592","co38455","norming","","","","","","",""
"3701.5900000005495","","","post_mooney1_questions","survey-likert","134","600983","0.0-6.0-2.18","2811592","co38455","norming","","","{""curiosity"":5,""confidence"":0}","[0,1]","../img/tt/552tt.jpg","",""
"4254.0849999996135","","","recognition","survey-text","135","605239","0.0-6.0-3.18","2811592","co38455","norming","","","{""guess"":""""}","","../img/tt/552tt.jpg","",""
"null","../img/gs/552gs.jpg","null","reveal","image-keyboard-response","136","607243","0.0-6.0-4.18","2811592","co38455","norming","","","","","","",""
"null","../img/tt/552tt.jpg","null","mooney2","image-keyboard-response","137","609245","0.0-6.0-5.18","2811592","co38455","norming","","","","","","",""
"2439.6899999992456","","","post_reveal_questions","survey-likert","138","611687","0.0-6.0-6.18","2811592","co38455","norming","","","{""aha"":6}","[0]","../img/tt/552tt.jpg","",""
"null","<div style=""font-size:60px;""> </div>","null","fixation","html-keyboard-response","139","611889","0.0-6.0-0.19","2811592","co38455","norming","","","","","","",""
"null","../img/tt/1243tt.jpg","null","mooney1","image-keyboard-response","140","614898","0.0-6.0-1.19","2811592","co38455","norming","","","","","","",""
"4443.040000000154","","","post_mooney1_questions","survey-likert","141","619337","0.0-6.0-2.19","2811592","co38455","norming","","","{""curiosity"":5,""confidence"":1}","[0,1]","../img/tt/1243tt.jpg","",""
"2766.380000000121","","","recognition","survey-text","142","622105","0.0-6.0-3.19","2811592","co38455","norming","","","{""guess"":""tennis""}","","../img/tt/1243tt.jpg","",""
"null","../img/gs/1243gs.jpg","null","reveal","image-keyboard-response","143","624110","0.0-6.0-4.19","2811592","co38455","norming","","","","","","",""
"null","../img/tt/1243tt.jpg","null","mooney2","image-keyboard-response","144","626112","0.0-6.0-5.19","2811592","co38455","norming","","","","","","",""
"2256.3600000003353","","","post_reveal_questions","survey-likert","145","628369","0.0-6.0-6.19","2811592","co38455","norming","","","{""aha"":5}","[0]","../img/tt/1243tt.jpg","",""
"null","<div style=""font-size:60px;""> </div>","null","fixation","html-keyboard-response","146","628571","0.0-6.0-0.20","2811592","co38455","norming","","","","","","",""
"null","../img/tt/112tt.jpg","null","mooney1","image-keyboard-response","147","631582","0.0-6.0-1.20","2811592","co38455","norming","","","","","","",""
"3984.345000000787","","","post_mooney1_questions","survey-likert","148","635569","0.0-6.0-2.20","2811592","co38455","norming","","","{""curiosity"":0,""confidence"":6}","[0,1]","../img/tt/112tt.jpg","",""
"3830.254999999772","","","recognition","survey-text","149","639401","0.0-6.0-3.20","2811592","co38455","norming","","","{""guess"":""fluitje""}","","../img/tt/112tt.jpg","",""
"null","../img/gs/112gs.jpg","null","reveal","image-keyboard-response","150","641403","0.0-6.0-4.20","2811592","co38455","norming","","","","","","",""
"null","../img/tt/112tt.jpg","null","mooney2","image-keyboard-response","151","643405","0.0-6.0-5.20","2811592","co38455","norming","","","","","","",""
"2809.699999999837","","","post_reveal_questions","survey-likert","152","646217","0.0-6.0-6.20","2811592","co38455","norming","","","{""aha"":1}","[0]","../img/tt/112tt.jpg","",""
"null","<div style=""font-size:60px;""> </div>","null","fixation","html-keyboard-response","153","646422","0.0-6.0-0.21","2811592","co38455","norming","","","","","","",""
"null","../img/tt/020tt.jpg","null","mooney1","image-keyboard-response","154","649427","0.0-6.0-1.21","2811592","co38455","norming","","","","","","",""
"4091.3399999999674","","","post_mooney1_questions","survey-likert","155","653521","0.0-6.0-2.21","2811592","co38455","norming","","","{""curiosity"":4,""confidence"":2}","[0,1]","../img/tt/020tt.jpg","",""
"1798.1449999997858","","","recognition","survey-text","156","655321","0.0-6.0-3.21","2811592","co38455","norming","","","{""guess"":""man""}","","../img/tt/020tt.jpg","",""
"null","../img/gs/020gs.jpg","null","reveal","image-keyboard-response","157","657322","0.0-6.0-4.21","2811592","co38455","norming","","","","","","",""
"null","../img/tt/020tt.jpg","null","mooney2","image-keyboard-response","158","659327","0.0-6.0-5.21","2811592","co38455","norming","","","","","","",""
"2360.2550000005867","","","post_reveal_questions","survey-likert","159","661689","0.0-6.0-6.21","2811592","co38455","norming","","","{""aha"":4}","[0]","../img/tt/020tt.jpg","",""
"null","<div style=""font-size:60px;""> </div>","null","fixation","html-keyboard-response","160","661896","0.0-6.0-0.22","2811592","co38455","norming","","","","","","",""
"null","../img/tt/1097tt.jpg","null","mooney1","image-keyboard-response","161","664901","0.0-6.0-1.22","2811592","co38455","norming","","","","","","",""
"3473.635000000242","","","post_mooney1_questions","survey-likert","162","668377","0.0-6.0-2.22","2811592","co38455","norming","","","{""curiosity"":5,""confidence"":3}","[0,1]","../img/tt/1097tt.jpg","",""
"1342.4699999996228","","","recognition","survey-text","163","669721","0.0-6.0-3.22","2811592","co38455","norming","","","{""guess"":""zee""}","","../img/tt/1097tt.jpg","",""
"null","../img/gs/1097gs.jpg","null","reveal","image-keyboard-response","164","671726","0.0-6.0-4.22","2811592","co38455","norming","","","","","","",""
"null","../img/tt/1097tt.jpg","null","mooney2","image-keyboard-response","165","673731","0.0-6.0-5.22","2811592","co38455","norming","","","","","","",""
"3396.370000000461","","","post_reveal_questions","survey-likert","166","677134","0.0-6.0-6.22","2811592","co38455","norming","","","{""aha"":5}","[0]","../img/tt/1097tt.jpg","",""
"null","<div style=""font-size:60px;""> </div>","null","fixation","html-keyboard-response","167","677340","0.0-6.0-0.23","2811592","co38455","norming","","","","","","",""
"null","../img/tt/1362tt.jpg","null","mooney1","image-keyboard-response","168","680345","0.0-6.0-1.23","2811592","co38455","norming","","","","","","",""
"3604.335000000079","","","post_mooney1_questions","survey-likert","169","683950","0.0-6.0-2.23","2811592","co38455","norming","","","{""curiosity"":4,""confidence"":3}","[0,1]","../img/tt/1362tt.jpg","",""
"4238.159999999916","","","recognition","survey-text","170","688190","0.0-6.0-3.23","2811592","co38455","norming","","","{""guess"":""platenspeler""}","","../img/tt/1362tt.jpg","",""
"null","../img/gs/1362gs.jpg","null","reveal","image-keyboard-response","171","690201","0.0-6.0-4.23","2811592","co38455","norming","","","","","","",""
"null","../img/tt/1362tt.jpg","null","mooney2","image-keyboard-response","172","692202","0.0-6.0-5.23","2811592","co38455","norming","","","","","","",""
"2576.7900000000373","","","post_reveal_questions","survey-likert","173","694782","0.0-6.0-6.23","2811592","co38455","norming","","","{""aha"":5}","[0]","../img/tt/1362tt.jpg","",""
"null","<div style=""font-size:60px;""> </div>","null","fixation","html-keyboard-response","174","694987","0.0-6.0-0.24","2811592","co38455","norming","","","","","","",""
"null","../img/tt/085tt.jpg","null","mooney1","image-keyboard-response","175","697996","0.0-6.0-1.24","2811592","co38455","norming","","","","","","",""
"5543.535000000731","","","post_mooney1_questions","survey-likert","176","703542","0.0-6.0-2.24","2811592","co38455","norming","","","{""curiosity"":5,""confidence"":1}","[0,1]","../img/tt/085tt.jpg","",""
"3078.215000000433","","","recognition","survey-text","177","706622","0.0-6.0-3.24","2811592","co38455","norming","","","{""guess"":""stoelen""}","","../img/tt/085tt.jpg","",""
"null","../img/gs/085gs.jpg","null","reveal","image-keyboard-response","178","708624","0.0-6.0-4.24","2811592","co38455","norming","","","","","","",""
"null","../img/tt/085tt.jpg","null","mooney2","image-keyboard-response","179","710628","0.0-6.0-5.24","2811592","co38455","norming","","","","","","",""
"2231.9200000001583","","","post_reveal_questions","survey-likert","180","712862","0.0-6.0-6.24","2811592","co38455","norming","","","{""aha"":5}","[0]","../img/tt/085tt.jpg","",""
"null","<div style=""font-size:60px;""> </div>","null","fixation","html-keyboard-response","181","713063","0.0-6.0-0.25","2811592","co38455","norming","","","","","","",""
"null","../img/tt/440tt.jpg","null","mooney1","image-keyboard-response","182","716067","0.0-6.0-1.25","2811592","co38455","norming","","","","","","",""
"4111.885000000242","","","post_mooney1_questions","survey-likert","183","720182","0.0-6.0-2.25","2811592","co38455","norming","","","{""curiosity"":5,""confidence"":1}","[0,1]","../img/tt/440tt.jpg","",""
"2774.195000000065","","","recognition","survey-text","184","722958","0.0-6.0-3.25","2811592","co38455","norming","","","{""guess"":""boksring""}","","../img/tt/440tt.jpg","",""
"null","../img/gs/440gs.jpg","null","reveal","image-keyboard-response","185","724960","0.0-6.0-4.25","2811592","co38455","norming","","","","","","",""
"null","../img/tt/440tt.jpg","null","mooney2","image-keyboard-response","186","726972","0.0-6.0-5.25","2811592","co38455","norming","","","","","","",""
"2415.8249999999534","","","post_reveal_questions","survey-likert","187","729390","0.0-6.0-6.25","2811592","co38455","norming","","","{""aha"":5}","[0]","../img/tt/440tt.jpg","",""
"null","<div style=""font-size:60px;""> </div>","null","fixation","html-keyboard-response","188","729591","0.0-6.0-0.26","2811592","co38455","norming","","","","","","",""
"null","../img/tt/1268tt.jpg","null","mooney1","image-keyboard-response","189","732598","0.0-6.0-1.26","2811592","co38455","norming","","","","","","",""
"3284.9000000006054","","","post_mooney1_questions","survey-likert","190","735886","0.0-6.0-2.26","2811592","co38455","norming","","","{""curiosity"":2,""confidence"":5}","[0,1]","../img/tt/1268tt.jpg","",""
"4126.284999999334","","","recognition","survey-text","191","740015","0.0-6.0-3.26","2811592","co38455","norming","","","{""guess"":""eekhoorn""}","","../img/tt/1268tt.jpg","",""
"null","../img/gs/1268gs.jpg","null","reveal","image-keyboard-response","192","742018","0.0-6.0-4.26","2811592","co38455","norming","","","","","","",""
"null","../img/tt/1268tt.jpg","null","mooney2","image-keyboard-response","193","744025","0.0-6.0-5.26","2811592","co38455","norming","","","","","","",""
"4027.4349999999395","","","post_reveal_questions","survey-likert","194","748055","0.0-6.0-6.26","2811592","co38455","norming","","","{""aha"":1}","[0]","../img/tt/1268tt.jpg","",""
"null","<div style=""font-size:60px;""> </div>","null","fixation","html-keyboard-response","195","748263","0.0-6.0-0.27","2811592","co38455","norming","","","","","","",""
"null","../img/tt/1186tt.jpg","null","mooney1","image-keyboard-response","196","751267","0.0-6.0-1.27","2811592","co38455","norming","","","","","","",""
"4161.80999999959","","","post_mooney1_questions","survey-likert","197","755432","0.0-6.0-2.27","2811592","co38455","norming","","","{""curiosity"":4,""confidence"":4}","[0,1]","../img/tt/1186tt.jpg","",""
"2885.909999999916","","","recognition","survey-text","198","758319","0.0-6.0-3.27","2811592","co38455","norming","","","{""guess"":""voetballer""}","","../img/tt/1186tt.jpg","",""
"null","../img/gs/1186gs.jpg","null","reveal","image-keyboard-response","199","760320","0.0-6.0-4.27","2811592","co38455","norming","","","","","","",""
"null","../img/tt/1186tt.jpg","null","mooney2","image-keyboard-response","200","762323","0.0-6.0-5.27","2811592","co38455","norming","","","","","","",""
"2187.5450000007404","","","post_reveal_questions","survey-likert","201","764511","0.0-6.0-6.27","2811592","co38455","norming","","","{""aha"":4}","[0]","../img/tt/1186tt.jpg","",""
"null","<div style=""font-size:60px;""> </div>","null","fixation","html-keyboard-response","202","764712","0.0-6.0-0.28","2811592","co38455","norming","","","","","","",""
"null","../img/tt/1255tt.jpg","null","mooney1","image-keyboard-response","203","767723","0.0-6.0-1.28","2811592","co38455","norming","","","","","","",""
"6649.830000000191","","","post_mooney1_questions","survey-likert","204","774376","0.0-6.0-2.28","2811592","co38455","norming","","","{""curiosity"":6,""confidence"":0}","[0,1]","../img/tt/1255tt.jpg","",""
"693.9599999996135","","","recognition","survey-text","205","775071","0.0-6.0-3.28","2811592","co38455","norming","","","{""guess"":""""}","","../img/tt/1255tt.jpg","",""
"null","../img/gs/1255gs.jpg","null","reveal","image-keyboard-response","206","777074","0.0-6.0-4.28","2811592","co38455","norming","","","","","","",""
"null","../img/tt/1255tt.jpg","null","mooney2","image-keyboard-response","207","779082","0.0-6.0-5.28","2811592","co38455","norming","","","","","","",""
"2987.180000000051","","","post_reveal_questions","survey-likert","208","782071","0.0-6.0-6.28","2811592","co38455","norming","","","{""aha"":6}","[0]","../img/tt/1255tt.jpg","",""
"null","<div style=""font-size:60px;""> </div>","null","fixation","html-keyboard-response","209","782279","0.0-6.0-0.29","2811592","co38455","norming","","","","","","",""
"null","../img/tt/1069tt.jpg","null","mooney1","image-keyboard-response","210","785286","0.0-6.0-1.29","2811592","co38455","norming","","","","","","",""
"7790.629999999423","","","post_mooney1_questions","survey-likert","211","793080","0.0-6.0-2.29","2811592","co38455","norming","","","{""curiosity"":3,""confidence"":4}","[0,1]","../img/tt/1069tt.jpg","",""
"5318.079999999958","","","recognition","survey-text","212","798401","0.0-6.0-3.29","2811592","co38455","norming","","","{""guess"":""mannelijke geit""}","","../img/tt/1069tt.jpg","",""
"null","../img/gs/1069gs.jpg","null","reveal","image-keyboard-response","213","800404","0.0-6.0-4.29","2811592","co38455","norming","","","","","","",""
"null","../img/tt/1069tt.jpg","null","mooney2","image-keyboard-response","214","802410","0.0-6.0-5.29","2811592","co38455","norming","","","","","","",""
"3748.945000000298","","","post_reveal_questions","survey-likert","215","806161","0.0-6.0-6.29","2811592","co38455","norming","","","{""aha"":2}","[0]","../img/tt/1069tt.jpg","",""
"null","<div style=""font-size:60px;""> </div>","null","fixation","html-keyboard-response","216","806367","0.0-6.0-0.30","2811592","co38455","norming","","","","","","",""
"null","../img/tt/1205tt.jpg","null","mooney1","image-keyboard-response","217","809373","0.0-6.0-1.30","2811592","co38455","norming","","","","","","",""
"4232.579999999958","","","post_mooney1_questions","survey-likert","218","813609","0.0-6.0-2.30","2811592","co38455","norming","","","{""curiosity"":3,""confidence"":5}","[0,1]","../img/tt/1205tt.jpg","",""
"3718.214999999851","","","recognition","survey-text","219","817329","0.0-6.0-3.30","2811592","co38455","norming","","","{""guess"":""danszaal""}","","../img/tt/1205tt.jpg","",""
"null","../img/gs/1205gs.jpg","null","reveal","image-keyboard-response","220","819338","0.0-6.0-4.30","2811592","co38455","norming","","","","","","",""
"null","../img/tt/1205tt.jpg","null","mooney2","image-keyboard-response","221","821349","0.0-6.0-5.30","2811592","co38455","norming","","","","","","",""
"1961.5100000001257","","","post_reveal_questions","survey-likert","222","823313","0.0-6.0-6.30","2811592","co38455","norming","","","{""aha"":5}","[0]","../img/tt/1205tt.jpg","",""
"null","<div style=""font-size:60px;""> </div>","null","fixation","html-keyboard-response","223","823514","0.0-6.0-0.31","2811592","co38455","norming","","","","","","",""
"null","../img/tt/1235tt.jpg","null","mooney1","image-keyboard-response","224","826526","0.0-6.0-1.31","2811592","co38455","norming","","","","","","",""
"5168.0750000005355","","","post_mooney1_questions","survey-likert","225","831697","0.0-6.0-2.31","2811592","co38455","norming","","","{""curiosity"":4,""confidence"":3}","[0,1]","../img/tt/1235tt.jpg","",""
"2862.070000000065","","","recognition","survey-text","226","834560","0.0-6.0-3.31","2811592","co38455","norming","","","{""guess"":""eenden""}","","../img/tt/1235tt.jpg","",""
"null","../img/gs/1235gs.jpg","null","reveal","image-keyboard-response","227","836561","0.0-6.0-4.31","2811592","co38455","norming","","","","","","",""
"null","../img/tt/1235tt.jpg","null","mooney2","image-keyboard-response","228","838569","0.0-6.0-5.31","2811592","co38455","norming","","","","","","",""
"2486.695000000531","","","post_reveal_questions","survey-likert","229","841056","0.0-6.0-6.31","2811592","co38455","norming","","","{""aha"":4}","[0]","../img/tt/1235tt.jpg","",""
"null","<div style=""font-size:60px;""> </div>","null","fixation","html-keyboard-response","230","841259","0.0-6.0-0.32","2811592","co38455","norming","","","","","","",""
"null","../img/tt/1084tt.jpg","null","mooney1","image-keyboard-response","231","844264","0.0-6.0-1.32","2811592","co38455","norming","","","","","","",""
"4821.364999999758","","","post_mooney1_questions","survey-likert","232","849089","0.0-6.0-2.32","2811592","co38455","norming","","","{""curiosity"":1,""confidence"":6}","[0,1]","../img/tt/1084tt.jpg","",""
"2542.155000000028","","","recognition","survey-text","233","851632","0.0-6.0-3.32","2811592","co38455","norming","","","{""guess"":""taart""}","","../img/tt/1084tt.jpg","",""
"null","../img/gs/1084gs.jpg","null","reveal","image-keyboard-response","234","853634","0.0-6.0-4.32","2811592","co38455","norming","","","","","","",""
"null","../img/tt/1084tt.jpg","null","mooney2","image-keyboard-response","235","855643","0.0-6.0-5.32","2811592","co38455","norming","","","","","","",""
"3123.6449999996694","","","post_reveal_questions","survey-likert","236","858763","0.0-6.0-6.32","2811592","co38455","norming","","","{""aha"":0}","[0]","../img/tt/1084tt.jpg","",""
"null","<div style=""font-size:60px;""> </div>","null","fixation","html-keyboard-response","237","858967","0.0-6.0-0.33","2811592","co38455","norming","","","","","","",""
"null","../img/tt/1116tt.jpg","null","mooney1","image-keyboard-response","238","861978","0.0-6.0-1.33","2811592","co38455","norming","","","","","","",""
"4413.535000000615","","","post_mooney1_questions","survey-likert","239","866395","0.0-6.0-2.33","2811592","co38455","norming","","","{""curiosity"":3,""confidence"":4}","[0,1]","../img/tt/1116tt.jpg","",""
"3518.2500000001164","","","recognition","survey-text","240","869915","0.0-6.0-3.33","2811592","co38455","norming","","","{""guess"":""auto's""}","","../img/tt/1116tt.jpg","",""
"null","../img/gs/1116gs.jpg","null","reveal","image-keyboard-response","241","871918","0.0-6.0-4.33","2811592","co38455","norming","","","","","","",""
"null","../img/tt/1116tt.jpg","null","mooney2","image-keyboard-response","242","873920","0.0-6.0-5.33","2811592","co38455","norming","","","","","","",""
"2959.770000000368","","","post_reveal_questions","survey-likert","243","876883","0.0-6.0-6.33","2811592","co38455","norming","","","{""aha"":4}","[0]","../img/tt/1116tt.jpg","",""
"null","<div style=""font-size:60px;""> </div>","null","fixation","html-keyboard-response","244","877083","0.0-6.0-0.34","2811592","co38455","norming","","","","","","",""
"null","../img/tt/1276tt.jpg","null","mooney1","image-keyboard-response","245","880088","0.0-6.0-1.34","2811592","co38455","norming","","","","","","",""
"5015.910000000033","","","post_mooney1_questions","survey-likert","246","885107","0.0-6.0-2.34","2811592","co38455","norming","","","{""curiosity"":6,""confidence"":1}","[0,1]","../img/tt/1276tt.jpg","",""
"2774.174999999581","","","recognition","survey-text","247","887883","0.0-6.0-3.34","2811592","co38455","norming","","","{""guess"":""okoe""}","","../img/tt/1276tt.jpg","",""
"null","../img/gs/1276gs.jpg","null","reveal","image-keyboard-response","248","889893","0.0-6.0-4.34","2811592","co38455","norming","","","","","","",""
"null","../img/tt/1276tt.jpg","null","mooney2","image-keyboard-response","249","891902","0.0-6.0-5.34","2811592","co38455","norming","","","","","","",""
"2666.3250000001863","","","post_reveal_questions","survey-likert","250","894571","0.0-6.0-6.34","2811592","co38455","norming","","","{""aha"":4}","[0]","../img/tt/1276tt.jpg","",""
"null","<div style=""font-size:60px;""> </div>","null","fixation","html-keyboard-response","251","894772","0.0-6.0-0.35","2811592","co38455","norming","","","","","","",""
"null","../img/tt/064tt.jpg","null","mooney1","image-keyboard-response","252","897779","0.0-6.0-1.35","2811592","co38455","norming","","","","","","",""
"5885.24499999953","","","post_mooney1_questions","survey-likert","253","903667","0.0-6.0-2.35","2811592","co38455","norming","","","{""curiosity"":4,""confidence"":3}","[0,1]","../img/tt/064tt.jpg","",""
"2597.7299999995157","","","recognition","survey-text","254","906266","0.0-6.0-3.35","2811592","co38455","norming","","","{""guess"":""kikker""}","","../img/tt/064tt.jpg","",""
"null","../img/gs/064gs.jpg","null","reveal","image-keyboard-response","255","908270","0.0-6.0-4.35","2811592","co38455","norming","","","","","","",""
"null","../img/tt/064tt.jpg","null","mooney2","image-keyboard-response","256","910280","0.0-6.0-5.35","2811592","co38455","norming","","","","","","",""
"3073.5050000002375","","","post_reveal_questions","survey-likert","257","913354","0.0-6.0-6.35","2811592","co38455","norming","","","{""aha"":5}","[0]","../img/tt/064tt.jpg","",""
"null","<div style=""font-size:60px;""> </div>","null","fixation","html-keyboard-response","258","913556","0.0-6.0-0.36","2811592","co38455","norming","","","","","","",""
"null","../img/tt/063tt.jpg","null","mooney1","image-keyboard-response","259","916557","0.0-6.0-1.36","2811592","co38455","norming","","","","","","",""
"3452.06500000041","","","post_mooney1_questions","survey-likert","260","920015","0.0-6.0-2.36","2811592","co38455","norming","","","{""curiosity"":0,""confidence"":6}","[0,1]","../img/tt/063tt.jpg","",""
"5821.629999999423","","","recognition","survey-text","261","925839","0.0-6.0-3.36","2811592","co38455","norming","","","{""guess"":""accordeon""}","","../img/tt/063tt.jpg","",""
"null","../img/gs/063gs.jpg","null","reveal","image-keyboard-response","262","927842","0.0-6.0-4.36","2811592","co38455","norming","","","","","","",""
"null","../img/tt/063tt.jpg","null","mooney2","image-keyboard-response","263","929850","0.0-6.0-5.36","2811592","co38455","norming","","","","","","",""
"3427.295000000391","","","post_reveal_questions","survey-likert","264","933279","0.0-6.0-6.36","2811592","co38455","norming","","","{""aha"":0}","[0]","../img/tt/063tt.jpg","",""
"null","<div style=""font-size:60px;""> </div>","null","fixation","html-keyboard-response","265","933480","0.0-6.0-0.37","2811592","co38455","norming","","","","","","",""
"null","../img/tt/1272tt.jpg","null","mooney1","image-keyboard-response","266","936490","0.0-6.0-1.37","2811592","co38455","norming","","","","","","",""
"4746.600000000442","","","post_mooney1_questions","survey-likert","267","941239","0.0-6.0-2.37","2811592","co38455","norming","","","{""curiosity"":5,""confidence"":1}","[0,1]","../img/tt/1272tt.jpg","",""
"4790.080000000657","","","recognition","survey-text","268","946031","0.0-6.0-3.37","2811592","co38455","norming","","","{""guess"":""herashek""}","","../img/tt/1272tt.jpg","",""
"null","../img/gs/1272gs.jpg","null","reveal","image-keyboard-response","269","948035","0.0-6.0-4.37","2811592","co38455","norming","","","","","","",""
"null","../img/tt/1272tt.jpg","null","mooney2","image-keyboard-response","270","950043","0.0-6.0-5.37","2811592","co38455","norming","","","","","","",""
"2841.5949999998556","","","post_reveal_questions","survey-likert","271","952887","0.0-6.0-6.37","2811592","co38455","norming","","","{""aha"":6}","[0]","../img/tt/1272tt.jpg","",""
"null","<div style=""font-size:60px;""> </div>","null","fixation","html-keyboard-response","272","953089","0.0-6.0-0.38","2811592","co38455","norming","","","","","","",""
"null","../img/tt/1270tt.jpg","null","mooney1","image-keyboard-response","273","956091","0.0-6.0-1.38","2811592","co38455","norming","","","","","","",""
"4289.260000000475","","","post_mooney1_questions","survey-likert","274","960383","0.0-6.0-2.38","2811592","co38455","norming","","","{""curiosity"":3,""confidence"":4}","[0,1]","../img/tt/1270tt.jpg","",""
"5150.10500000068","","","recognition","survey-text","275","965535","0.0-6.0-3.38","2811592","co38455","norming","","","{""guess"":""kussende mensen""}","","../img/tt/1270tt.jpg","",""
"null","../img/gs/1270gs.jpg","null","reveal","image-keyboard-response","276","967543","0.0-6.0-4.38","2811592","co38455","norming","","","","","","",""
"null","../img/tt/1270tt.jpg","null","mooney2","image-keyboard-response","277","969553","0.0-6.0-5.38","2811592","co38455","norming","","","","","","",""
"2923.6500000006054","","","post_reveal_questions","survey-likert","278","972479","0.0-6.0-6.38","2811592","co38455","norming","","","{""aha"":6}","[0]","../img/tt/1270tt.jpg","",""
"null","<div style=""font-size:60px;""> </div>","null","fixation","html-keyboard-response","279","972681","0.0-6.0-0.39","2811592","co38455","norming","","","","","","",""
"null","../img/tt/1353tt.jpg","null","mooney1","image-keyboard-response","280","975692","0.0-6.0-1.39","2811592","co38455","norming","","","","","","",""
"3896.780000000028","","","post_mooney1_questions","survey-likert","281","979592","0.0-6.0-2.39","2811592","co38455","norming","","","{""curiosity"":4,""confidence"":1}","[0,1]","../img/tt/1353tt.jpg","",""
"2326.375000000582","","","recognition","survey-text","282","981920","0.0-6.0-3.39","2811592","co38455","norming","","","{""guess"":""hand""}","","../img/tt/1353tt.jpg","",""
"null","../img/gs/1353gs.jpg","null","reveal","image-keyboard-response","283","983928","0.0-6.0-4.39","2811592","co38455","norming","","","","","","",""
"null","../img/tt/1353tt.jpg","null","mooney2","image-keyboard-response","284","985936","0.0-6.0-5.39","2811592","co38455","norming","","","","","","",""
"2053.5350000000326","","","post_reveal_questions","survey-likert","285","987992","0.0-6.0-6.39","2811592","co38455","norming","","","{""aha"":5}","[0]","../img/tt/1353tt.jpg","",""
"null","<div style=""font-size:60px;""> </div>","null","fixation","html-keyboard-response","286","988195","0.0-6.0-0.40","2811592","co38455","norming","","","","","","",""
"null","../img/tt/1275tt.jpg","null","mooney1","image-keyboard-response","287","991207","0.0-6.0-1.40","2811592","co38455","norming","","","","","","",""
"4831.060000000405","","","post_mooney1_questions","survey-likert","288","996041","0.0-6.0-2.40","2811592","co38455","norming","","","{""curiosity"":1,""confidence"":5}","[0,1]","../img/tt/1275tt.jpg","",""
"2326.070000000065","","","recognition","survey-text","289","998368","0.0-6.0-3.40","2811592","co38455","norming","","","{""guess"":""varken""}","","../img/tt/1275tt.jpg","",""
"null","../img/gs/1275gs.jpg","null","reveal","image-keyboard-response","290","1000370","0.0-6.0-4.40","2811592","co38455","norming","","","","","","",""
"null","../img/tt/1275tt.jpg","null","mooney2","image-keyboard-response","291","1002377","0.0-6.0-5.40","2811592","co38455","norming","","","","","","",""
"2509.984999999637","","","post_reveal_questions","survey-likert","292","1004888","0.0-6.0-6.40","2811592","co38455","norming","","","{""aha"":2}","[0]","../img/tt/1275tt.jpg","",""
"null","<div style=""font-size:60px;""> </div>","null","fixation","html-keyboard-response","293","1005090","0.0-6.0-0.41","2811592","co38455","norming","","","","","","",""
"null","../img/tt/497tt.jpg","null","mooney1","image-keyboard-response","294","1008098","0.0-6.0-1.41","2811592","co38455","norming","","","","","","",""
"5723.969999999972","","","post_mooney1_questions","survey-likert","295","1013824","0.0-6.0-2.41","2811592","co38455","norming","","","{""curiosity"":2,""confidence"":5}","[0,1]","../img/tt/497tt.jpg","",""
"2925.94500000088","","","recognition","survey-text","296","1016752","0.0-6.0-3.41","2811592","co38455","norming","","","{""guess"":""gasvuur""}","","../img/tt/497tt.jpg","",""
"null","../img/gs/497gs.jpg","null","reveal","image-keyboard-response","297","1018757","0.0-6.0-4.41","2811592","co38455","norming","","","","","","",""
"null","../img/tt/497tt.jpg","null","mooney2","image-keyboard-response","298","1020758","0.0-6.0-5.41","2811592","co38455","norming","","","","","","",""
"3617.264999999781","","","post_reveal_questions","survey-likert","299","1024376","0.0-6.0-6.41","2811592","co38455","norming","","","{""aha"":1}","[0]","../img/tt/497tt.jpg","",""
"null","<div style=""font-size:60px;""> </div>","null","fixation","html-keyboard-response","300","1024579","0.0-6.0-0.42","2811592","co38455","norming","","","","","","",""
"null","../img/tt/405tt.jpg","null","mooney1","image-keyboard-response","301","1027588","0.0-6.0-1.42","2811592","co38455","norming","","","","","","",""
"5441.280000000028","","","post_mooney1_questions","survey-likert","302","1033032","0.0-6.0-2.42","2811592","co38455","norming","","","{""curiosity"":6,""confidence"":0}","[0,1]","../img/tt/405tt.jpg","",""
"782.2150000002002","","","recognition","survey-text","303","1033816","0.0-6.0-3.42","2811592","co38455","norming","","","{""guess"":""""}","","../img/tt/405tt.jpg","",""
"null","../img/gs/405gs.jpg","null","reveal","image-keyboard-response","304","1035817","0.0-6.0-4.42","2811592","co38455","norming","","","","","","",""
"null","../img/tt/405tt.jpg","null","mooney2","image-keyboard-response","305","1037820","0.0-6.0-5.42","2811592","co38455","norming","","","","","","",""
"3225.8449999998556","","","post_reveal_questions","survey-likert","306","1041053","0.0-6.0-6.42","2811592","co38455","norming","","","{""aha"":6}","[0]","../img/tt/405tt.jpg","",""
"null","<div style=""font-size:60px;""> </div>","null","fixation","html-keyboard-response","307","1041256","0.0-6.0-0.43","2811592","co38455","norming","","","","","","",""
"null","../img/tt/1146tt.jpg","null","mooney1","image-keyboard-response","308","1044261","0.0-6.0-1.43","2811592","co38455","norming","","","","","","",""
"4884.825000000186","","","post_mooney1_questions","survey-likert","309","1049149","0.0-6.0-2.43","2811592","co38455","norming","","","{""curiosity"":3,""confidence"":3}","[0,1]","../img/tt/1146tt.jpg","",""
"2390.1750000005122","","","recognition","survey-text","310","1051541","0.0-6.0-3.43","2811592","co38455","norming","","","{""guess"":""auto""}","","../img/tt/1146tt.jpg","",""
"null","../img/gs/1146gs.jpg","null","reveal","image-keyboard-response","311","1053542","0.0-6.0-4.43","2811592","co38455","norming","","","","","","",""
"null","../img/tt/1146tt.jpg","null","mooney2","image-keyboard-response","312","1055551","0.0-6.0-5.43","2811592","co38455","norming","","","","","","",""
"2827.140000000363","","","post_reveal_questions","survey-likert","313","1058380","0.0-6.0-6.43","2811592","co38455","norming","","","{""aha"":4}","[0]","../img/tt/1146tt.jpg","",""
"null","<div style=""font-size:60px;""> </div>","null","fixation","html-keyboard-response","314","1058582","0.0-6.0-0.44","2811592","co38455","norming","","","","","","",""
"null","../img/tt/1046tt.jpg","null","mooney1","image-keyboard-response","315","1061591","0.0-6.0-1.44","2811592","co38455","norming","","","","","","",""
"5107.024999999441","","","post_mooney1_questions","survey-likert","316","1066701","0.0-6.0-2.44","2811592","co38455","norming","","","{""curiosity"":5,""confidence"":2}","[0,1]","../img/tt/1046tt.jpg","",""
"1637.8949999997858","","","recognition","survey-text","317","1068340","0.0-6.0-3.44","2811592","co38455","norming","","","{""guess"":""eten""}","","../img/tt/1046tt.jpg","",""
"null","../img/gs/1046gs.jpg","null","reveal","image-keyboard-response","318","1070349","0.0-6.0-4.44","2811592","co38455","norming","","","","","","",""
"null","../img/tt/1046tt.jpg","null","mooney2","image-keyboard-response","319","1072360","0.0-6.0-5.44","2811592","co38455","norming","","","","","","",""
"3452.3499999996275","","","post_reveal_questions","survey-likert","320","1075813","0.0-6.0-6.44","2811592","co38455","norming","","","{""aha"":5}","[0]","../img/tt/1046tt.jpg","",""
"null","<div style=""font-size:60px;""> </div>","null","fixation","html-keyboard-response","321","1076014","0.0-6.0-0.45","2811592","co38455","norming","","","","","","",""
"null","../img/tt/436tt.jpg","null","mooney1","image-keyboard-response","322","1079019","0.0-6.0-1.45","2811592","co38455","norming","","","","","","",""
"4094.8649999999907","","","post_mooney1_questions","survey-likert","323","1083117","0.0-6.0-2.45","2811592","co38455","norming","","","{""curiosity"":5,""confidence"":1}","[0,1]","../img/tt/436tt.jpg","",""
"4869.749999999767","","","recognition","survey-text","324","1087989","0.0-6.0-3.45","2811592","co38455","norming","","","{""guess"":""slapende mensen""}","","../img/tt/436tt.jpg","",""
"null","../img/gs/436gs.jpg","null","reveal","image-keyboard-response","325","1089991","0.0-6.0-4.45","2811592","co38455","norming","","","","","","",""
"null","../img/tt/436tt.jpg","null","mooney2","image-keyboard-response","326","1092002","0.0-6.0-5.45","2811592","co38455","norming","","","","","","",""
"2424.5099999997765","","","post_reveal_questions","survey-likert","327","1094429","0.0-6.0-6.45","2811592","co38455","norming","","","{""aha"":5}","[0]","../img/tt/436tt.jpg","",""
"null","<div style=""font-size:60px;""> </div>","null","fixation","html-keyboard-response","328","1094630","0.0-6.0-0.46","2811592","co38455","norming","","","","","","",""
"null","../img/tt/222tt.jpg","null","mooney1","image-keyboard-response","329","1097633","0.0-6.0-1.46","2811592","co38455","norming","","","","","","",""
"3033.0800000003073","","","post_mooney1_questions","survey-likert","330","1100667","0.0-6.0-2.46","2811592","co38455","norming","","","{""curiosity"":4,""confidence"":2}","[0,1]","../img/tt/222tt.jpg","",""
"2518.0399999998044","","","recognition","survey-text","331","1103187","0.0-6.0-3.46","2811592","co38455","norming","","","{""guess"":""plateau""}","","../img/tt/222tt.jpg","",""
"null","../img/gs/222gs.jpg","null","reveal","image-keyboard-response","332","1105189","0.0-6.0-4.46","2811592","co38455","norming","","","","","","",""
"null","../img/tt/222tt.jpg","null","mooney2","image-keyboard-response","333","1107197","0.0-6.0-5.46","2811592","co38455","norming","","","","","","",""
"3155.2050000000745","","","post_reveal_questions","survey-likert","334","1110355","0.0-6.0-6.46","2811592","co38455","norming","","","{""aha"":6}","[0]","../img/tt/222tt.jpg","",""
"null","<div style=""font-size:60px;""> </div>","null","fixation","html-keyboard-response","335","1110557","0.0-6.0-0.47","2811592","co38455","norming","","","","","","",""
"null","../img/tt/1278tt.jpg","null","mooney1","image-keyboard-response","336","1113559","0.0-6.0-1.47","2811592","co38455","norming","","","","","","",""
"5384.72499999986","","","post_mooney1_questions","survey-likert","337","1118947","0.0-6.0-2.47","2811592","co38455","norming","","","{""curiosity"":4,""confidence"":0}","[0,1]","../img/tt/1278tt.jpg","",""
"1086.0300000004936","","","recognition","survey-text","338","1120035","0.0-6.0-3.47","2811592","co38455","norming","","","{""guess"":""""}","","../img/tt/1278tt.jpg","",""
"null","../img/gs/1278gs.jpg","null","reveal","image-keyboard-response","339","1122036","0.0-6.0-4.47","2811592","co38455","norming","","","","","","",""
"null","../img/tt/1278tt.jpg","null","mooney2","image-keyboard-response","340","1124045","0.0-6.0-5.47","2811592","co38455","norming","","","","","","",""
"2779.149999999441","","","post_reveal_questions","survey-likert","341","1126827","0.0-6.0-6.47","2811592","co38455","norming","","","{""aha"":5}","[0]","../img/tt/1278tt.jpg","",""
"null","<div style=""font-size:60px;""> </div>","null","fixation","html-keyboard-response","342","1127036","0.0-6.0-0.48","2811592","co38455","norming","","","","","","",""
"null","../img/tt/1151tt.jpg","null","mooney1","image-keyboard-response","343","1130042","0.0-6.0-1.48","2811592","co38455","norming","","","","","","",""
"3798.1099999998696","","","post_mooney1_questions","survey-likert","344","1133843","0.0-6.0-2.48","2811592","co38455","norming","","","{""curiosity"":4,""confidence"":3}","[0,1]","../img/tt/1151tt.jpg","",""
"2125.9949999994133","","","recognition","survey-text","345","1135971","0.0-6.0-3.48","2811592","co38455","norming","","","{""guess"":""koe""}","","../img/tt/1151tt.jpg","",""
"null","../img/gs/1151gs.jpg","null","reveal","image-keyboard-response","346","1137975","0.0-6.0-4.48","2811592","co38455","norming","","","","","","",""
"null","../img/tt/1151tt.jpg","null","mooney2","image-keyboard-response","347","1139977","0.0-6.0-5.48","2811592","co38455","norming","","","","","","",""
"2983.035000000149","","","post_reveal_questions","survey-likert","348","1142963","0.0-6.0-6.48","2811592","co38455","norming","","","{""aha"":5}","[0]","../img/tt/1151tt.jpg","",""
"null","<div style=""font-size:60px;""> </div>","null","fixation","html-keyboard-response","349","1143165","0.0-6.0-0.49","2811592","co38455","norming","","","","","","",""
"null","../img/tt/1159tt.jpg","null","mooney1","image-keyboard-response","350","1146169","0.0-6.0-1.49","2811592","co38455","norming","","","","","","",""
"3887.33000000054","","","post_mooney1_questions","survey-likert","351","1150059","0.0-6.0-2.49","2811592","co38455","norming","","","{""curiosity"":2,""confidence"":4}","[0,1]","../img/tt/1159tt.jpg","",""
"2054.299999999581","","","recognition","survey-text","352","1152115","0.0-6.0-3.49","2811592","co38455","norming","","","{""guess"":""haven""}","","../img/tt/1159tt.jpg","",""
"null","../img/gs/1159gs.jpg","null","reveal","image-keyboard-response","353","1154123","0.0-6.0-4.49","2811592","co38455","norming","","","","","","",""
"null","../img/tt/1159tt.jpg","null","mooney2","image-keyboard-response","354","1156135","0.0-6.0-5.49","2811592","co38455","norming","","","","","","",""
"2209.3899999998976","","","post_reveal_questions","survey-likert","355","1158346","0.0-6.0-6.49","2811592","co38455","norming","","","{""aha"":4}","[0]","../img/tt/1159tt.jpg","",""
"null","<div style=""font-size:60px;""> </div>","null","fixation","html-keyboard-response","356","1158548","0.0-6.0-0.50","2811592","co38455","norming","","","","","","",""
"null","../img/tt/357tt.jpg","null","mooney1","image-keyboard-response","357","1161562","0.0-6.0-1.50","2811592","co38455","norming","","","","","","",""
"8945.439999999478","","","post_mooney1_questions","survey-likert","358","1170510","0.0-6.0-2.50","2811592","co38455","norming","","","{""curiosity"":5,""confidence"":0}","[0,1]","../img/tt/357tt.jpg","",""
"1294.0449999996927","","","recognition","survey-text","359","1171806","0.0-6.0-3.50","2811592","co38455","norming","","","{""guess"":""""}","","../img/tt/357tt.jpg","",""
"null","../img/gs/357gs.jpg","null","reveal","image-keyboard-response","360","1173807","0.0-6.0-4.50","2811592","co38455","norming","","","","","","",""
"null","../img/tt/357tt.jpg","null","mooney2","image-keyboard-response","361","1175815","0.0-6.0-5.50","2811592","co38455","norming","","","","","","",""
"2285.3400000003166","","","post_reveal_questions","survey-likert","362","1178102","0.0-6.0-6.50","2811592","co38455","norming","","","{""aha"":6}","[0]","../img/tt/357tt.jpg","",""
"null","<div style=""font-size:60px;""> </div>","null","fixation","html-keyboard-response","363","1178303","0.0-6.0-0.51","2811592","co38455","norming","","","","","","",""
"null","../img/tt/1156tt.jpg","null","mooney1","image-keyboard-response","364","1181310","0.0-6.0-1.51","2811592","co38455","norming","","","","","","",""
"7869.394999999786","","","post_mooney1_questions","survey-likert","365","1189182","0.0-6.0-2.51","2811592","co38455","norming","","","{""curiosity"":2,""confidence"":5}","[0,1]","../img/tt/1156tt.jpg","",""
"4726.214999999618","","","recognition","survey-text","366","1193910","0.0-6.0-3.51","2811592","co38455","norming","","","{""guess"":""zonnende vrouw""}","","../img/tt/1156tt.jpg","",""
"null","../img/gs/1156gs.jpg","null","reveal","image-keyboard-response","367","1195920","0.0-6.0-4.51","2811592","co38455","norming","","","","","","",""
"null","../img/tt/1156tt.jpg","null","mooney2","image-keyboard-response","368","1197923","0.0-6.0-5.51","2811592","co38455","norming","","","","","","",""
"2488.97999999905","","","post_reveal_questions","survey-likert","369","1200414","0.0-6.0-6.51","2811592","co38455","norming","","","{""aha"":4}","[0]","../img/tt/1156tt.jpg","",""
"null","<div style=""font-size:60px;""> </div>","null","fixation","html-keyboard-response","370","1200620","0.0-6.0-0.52","2811592","co38455","norming","","","","","","",""
"null","../img/tt/121tt.jpg","null","mooney1","image-keyboard-response","371","1203626","0.0-6.0-1.52","2811592","co38455","norming","","","","","","",""
"4057.480000000447","","","post_mooney1_questions","survey-likert","372","1207686","0.0-6.0-2.52","2811592","co38455","norming","","","{""curiosity"":3,""confidence"":4}","[0,1]","../img/tt/121tt.jpg","",""
"2590.1250000006985","","","recognition","survey-text","373","1210278","0.0-6.0-3.52","2811592","co38455","norming","","","{""guess"":""hagedis""}","","../img/tt/121tt.jpg","",""
"null","../img/gs/121gs.jpg","null","reveal","image-keyboard-response","374","1212285","0.0-6.0-4.52","2811592","co38455","norming","","","","","","",""
"null","../img/tt/121tt.jpg","null","mooney2","image-keyboard-response","375","1214287","0.0-6.0-5.52","2811592","co38455","norming","","","","","","",""
"2812.4449999995995","","","post_reveal_questions","survey-likert","376","1217102","0.0-6.0-6.52","2811592","co38455","norming","","","{""aha"":4}","[0]","../img/tt/121tt.jpg","",""
"null","<div style=""font-size:60px;""> </div>","null","fixation","html-keyboard-response","377","1217307","0.0-6.0-0.53","2811592","co38455","norming","","","","","","",""
"null","../img/tt/438tt.jpg","null","mooney1","image-keyboard-response","378","1220312","0.0-6.0-1.53","2811592","co38455","norming","","","","","","",""
"4981.209999999963","","","post_mooney1_questions","survey-likert","379","1225289","0.0-6.0-2.53","2811592","co38455","norming","","","{""curiosity"":5,""confidence"":1}","[0,1]","../img/tt/438tt.jpg","",""
"4886.26500000013","","","recognition","survey-text","380","1230177","0.0-6.0-3.53","2811592","co38455","norming","","","{""guess"":""halsketting""}","","../img/tt/438tt.jpg","",""
"null","../img/gs/438gs.jpg","null","reveal","image-keyboard-response","381","1232180","0.0-6.0-4.53","2811592","co38455","norming","","","","","","",""
"null","../img/tt/438tt.jpg","null","mooney2","image-keyboard-response","382","1234183","0.0-6.0-5.53","2811592","co38455","norming","","","","","","",""
"5327.06500000041","","","post_reveal_questions","survey-likert","383","1239513","0.0-6.0-6.53","2811592","co38455","norming","","","{""aha"":6}","[0]","../img/tt/438tt.jpg","",""
"null","<div style=""font-size:60px;""> </div>","null","fixation","html-keyboard-response","384","1239714","0.0-6.0-0.54","2811592","co38455","norming","","","","","","",""
"null","../img/tt/1043tt.jpg","null","mooney1","image-keyboard-response","385","1242722","0.0-6.0-1.54","2811592","co38455","norming","","","","","","",""
"6508.245000000112","","","post_mooney1_questions","survey-likert","386","1249233","0.0-6.0-2.54","2811592","co38455","norming","","","{""curiosity"":4,""confidence"":2}","[0,1]","../img/tt/1043tt.jpg","",""
"4894.070000000298","","","recognition","survey-text","387","1254129","0.0-6.0-3.54","2811592","co38455","norming","","","{""guess"":""autoband""}","","../img/tt/1043tt.jpg","",""
"null","../img/gs/1043gs.jpg","null","reveal","image-keyboard-response","388","1256136","0.0-6.0-4.54","2811592","co38455","norming","","","","","","",""
"null","../img/tt/1043tt.jpg","null","mooney2","image-keyboard-response","389","1258138","0.0-6.0-5.54","2811592","co38455","norming","","","","","","",""
"2660.8350000006612","","","post_reveal_questions","survey-likert","390","1260801","0.0-6.0-6.54","2811592","co38455","norming","","","{""aha"":5}","[0]","../img/tt/1043tt.jpg","",""
"null","<div style=""font-size:60px;""> </div>","null","fixation","html-keyboard-response","391","1261008","0.0-6.0-0.55","2811592","co38455","norming","","","","","","",""
"null","../img/tt/534tt.jpg","null","mooney1","image-keyboard-response","392","1264011","0.0-6.0-1.55","2811592","co38455","norming","","","","","","",""
"3067.8100000005215","","","post_mooney1_questions","survey-likert","393","1267081","0.0-6.0-2.55","2811592","co38455","norming","","","{""curiosity"":2,""confidence"":4}","[0,1]","../img/tt/534tt.jpg","",""
"2326.149999999907","","","recognition","survey-text","394","1269409","0.0-6.0-3.55","2811592","co38455","norming","","","{""guess"":""cactus""}","","../img/tt/534tt.jpg","",""
"null","../img/gs/534gs.jpg","null","reveal","image-keyboard-response","395","1271412","0.0-6.0-4.55","2811592","co38455","norming","","","","","","",""
"null","../img/tt/534tt.jpg","null","mooney2","image-keyboard-response","396","1273414","0.0-6.0-5.55","2811592","co38455","norming","","","","","","",""
"3560.70999999973","","","post_reveal_questions","survey-likert","397","1276977","0.0-6.0-6.55","2811592","co38455","norming","","","{""aha"":2}","[0]","../img/tt/534tt.jpg","",""
"null","<div style=""font-size:60px;""> </div>","null","fixation","html-keyboard-response","398","1277178","0.0-6.0-0.56","2811592","co38455","norming","","","","","","",""
"null","../img/tt/1118tt.jpg","null","mooney1","image-keyboard-response","399","1280182","0.0-6.0-1.56","2811592","co38455","norming","","","","","","",""
"4114.029999999795","","","post_mooney1_questions","survey-likert","400","1284294","0.0-6.0-2.56","2811592","co38455","norming","","","{""curiosity"":4,""confidence"":2}","[0,1]","../img/tt/1118tt.jpg","",""
"2006.0550000008661","","","recognition","survey-text","401","1286302","0.0-6.0-3.56","2811592","co38455","norming","","","{""guess"":""vijver""}","","../img/tt/1118tt.jpg","",""
"null","../img/gs/1118gs.jpg","null","reveal","image-keyboard-response","402","1288303","0.0-6.0-4.56","2811592","co38455","norming","","","","","","",""
"null","../img/tt/1118tt.jpg","null","mooney2","image-keyboard-response","403","1290304","0.0-6.0-5.56","2811592","co38455","norming","","","","","","",""
"2164.7450000001118","","","post_reveal_questions","survey-likert","404","1292470","0.0-6.0-6.56","2811592","co38455","norming","","","{""aha"":5}","[0]","../img/tt/1118tt.jpg","",""
"null","<div style=""font-size:60px;""> </div>","null","fixation","html-keyboard-response","405","1292678","0.0-6.0-0.57","2811592","co38455","norming","","","","","","",""
"null","../img/tt/079tt.jpg","null","mooney1","image-keyboard-response","406","1295684","0.0-6.0-1.57","2811592","co38455","norming","","","","","","",""
"4230.549999999348","","","post_mooney1_questions","survey-likert","407","1299918","0.0-6.0-2.57","2811592","co38455","norming","","","{""curiosity"":6,""confidence"":0}","[0,1]","../img/tt/079tt.jpg","",""
"758.1200000003446","","","recognition","survey-text","408","1300678","0.0-6.0-3.57","2811592","co38455","norming","","","{""guess"":""""}","","../img/tt/079tt.jpg","",""
"null","../img/gs/079gs.jpg","null","reveal","image-keyboard-response","409","1302685","0.0-6.0-4.57","2811592","co38455","norming","","","","","","",""
"null","../img/tt/079tt.jpg","null","mooney2","image-keyboard-response","410","1304696","0.0-6.0-5.57","2811592","co38455","norming","","","","","","",""
"3523.9000000001397","","","post_reveal_questions","survey-likert","411","1308222","0.0-6.0-6.57","2811592","co38455","norming","","","{""aha"":6}","[0]","../img/tt/079tt.jpg","",""
"null","<div style=""font-size:60px;""> </div>","null","fixation","html-keyboard-response","412","1308425","0.0-6.0-0.58","2811592","co38455","norming","","","","","","",""
"null","../img/tt/517tt.jpg","null","mooney1","image-keyboard-response","413","1311433","0.0-6.0-1.58","2811592","co38455","norming","","","","","","",""
"3617.95500000054","","","post_mooney1_questions","survey-likert","414","1315054","0.0-6.0-2.58","2811592","co38455","norming","","","{""curiosity"":4,""confidence"":2}","[0,1]","../img/tt/517tt.jpg","",""
"2766.045000000391","","","recognition","survey-text","415","1317822","0.0-6.0-3.58","2811592","co38455","norming","","","{""guess"":""luiaard""}","","../img/tt/517tt.jpg","",""
"null","../img/gs/517gs.jpg","null","reveal","image-keyboard-response","416","1319824","0.0-6.0-4.58","2811592","co38455","norming","","","","","","",""
"null","../img/tt/517tt.jpg","null","mooney2","image-keyboard-response","417","1321835","0.0-6.0-5.58","2811592","co38455","norming","","","","","","",""
"3792.240000000689","","","post_reveal_questions","survey-likert","418","1325630","0.0-6.0-6.58","2811592","co38455","norming","","","{""aha"":4}","[0]","../img/tt/517tt.jpg","",""
"null","<div style=""font-size:60px;""> </div>","null","fixation","html-keyboard-response","419","1325831","0.0-6.0-0.59","2811592","co38455","norming","","","","","","",""
"null","../img/tt/567tt.jpg","null","mooney1","image-keyboard-response","420","1328837","0.0-6.0-1.59","2811592","co38455","norming","","","","","","",""
"7910.064999999944","","","post_mooney1_questions","survey-likert","421","1336750","0.0-6.0-2.59","2811592","co38455","norming","","","{""curiosity"":1,""confidence"":6}","[0,1]","../img/tt/567tt.jpg","",""
"6078.160000000149","","","recognition","survey-text","422","1342830","0.0-6.0-3.59","2811592","co38455","norming","","","{""guess"":""toaster""}","","../img/tt/567tt.jpg","",""
"null","../img/gs/567gs.jpg","null","reveal","image-keyboard-response","423","1344844","0.0-6.0-4.59","2811592","co38455","norming","","","","","","",""
"null","../img/tt/567tt.jpg","null","mooney2","image-keyboard-response","424","1346851","0.0-6.0-5.59","2811592","co38455","norming","","","","","","",""
"2681.5800000003073","","","post_reveal_questions","survey-likert","425","1349536","0.0-6.0-6.59","2811592","co38455","norming","","","{""aha"":1}","[0]","../img/tt/567tt.jpg","",""
"null","<div style=""font-size:60px;""> </div>","null","fixation","html-keyboard-response","426","1349737","0.0-6.0-0.60","2811592","co38455","norming","","","","","","",""
"null","../img/tt/1269tt.jpg","null","mooney1","image-keyboard-response","427","1352741","0.0-6.0-1.60","2811592","co38455","norming","","","","","","",""
"5423.899999999907","","","post_mooney1_questions","survey-likert","428","1358168","0.0-6.0-2.60","2811592","co38455","norming","","","{""curiosity"":4,""confidence"":3}","[0,1]","../img/tt/1269tt.jpg","",""
"7405.550000000279","","","recognition","survey-text","429","1365575","0.0-6.0-3.60","2811592","co38455","norming","","","{""guess"":""kangoeroe""}","","../img/tt/1269tt.jpg","",""
"null","../img/gs/1269gs.jpg","null","reveal","image-keyboard-response","430","1367583","0.0-6.0-4.60","2811592","co38455","norming","","","","","","",""
"null","../img/tt/1269tt.jpg","null","mooney2","image-keyboard-response","431","1369586","0.0-6.0-5.60","2811592","co38455","norming","","","","","","",""
"2506.559999999823","","","post_reveal_questions","survey-likert","432","1372095","0.0-6.0-6.60","2811592","co38455","norming","","","{""aha"":4}","[0]","../img/tt/1269tt.jpg","",""
"null","<div style=""font-size:60px;""> </div>","null","fixation","html-keyboard-response","433","1372298","0.0-6.0-0.61","2811592","co38455","norming","","","","","","",""
"null","../img/tt/1089tt.jpg","null","mooney1","image-keyboard-response","434","1375300","0.0-6.0-1.61","2811592","co38455","norming","","","","","","",""
"3184.970000000205","","","post_mooney1_questions","survey-likert","435","1378487","0.0-6.0-2.61","2811592","co38455","norming","","","{""curiosity"":1,""confidence"":6}","[0,1]","../img/tt/1089tt.jpg","",""
"4526.249999999767","","","recognition","survey-text","436","1383015","0.0-6.0-3.61","2811592","co38455","norming","","","{""guess"":""olifanten""}","","../img/tt/1089tt.jpg","",""
"null","../img/gs/1089gs.jpg","null","reveal","image-keyboard-response","437","1385017","0.0-6.0-4.61","2811592","co38455","norming","","","","","","",""
"null","../img/tt/1089tt.jpg","null","mooney2","image-keyboard-response","438","1387025","0.0-6.0-5.61","2811592","co38455","norming","","","","","","",""
"2099.755000000121","","","post_reveal_questions","survey-likert","439","1389127","0.0-6.0-6.61","2811592","co38455","norming","","","{""aha"":1}","[0]","../img/tt/1089tt.jpg","",""
"null","<div style=""font-size:60px;""> </div>","null","fixation","html-keyboard-response","440","1389329","0.0-6.0-0.62","2811592","co38455","norming","","","","","","",""
"null","../img/tt/1196tt.jpg","null","mooney1","image-keyboard-response","441","1392333","0.0-6.0-1.62","2811592","co38455","norming","","","","","","",""
"5337.4650000005495","","","post_mooney1_questions","survey-likert","442","1397672","0.0-6.0-2.62","2811592","co38455","norming","","","{""curiosity"":5,""confidence"":2}","[0,1]","../img/tt/1196tt.jpg","",""
"8542.17499999958","","","recognition","survey-text","443","1406215","0.0-6.0-3.62","2811592","co38455","norming","","","{""guess"":""buikspieroefeningen""}","","../img/tt/1196tt.jpg","",""
"null","../img/gs/1196gs.jpg","null","reveal","image-keyboard-response","444","1408226","0.0-6.0-4.62","2811592","co38455","norming","","","","","","",""
"null","../img/tt/1196tt.jpg","null","mooney2","image-keyboard-response","445","1410229","0.0-6.0-5.62","2811592","co38455","norming","","","","","","",""
"2759.8349999999627","","","post_reveal_questions","survey-likert","446","1412991","0.0-6.0-6.62","2811592","co38455","norming","","","{""aha"":5}","[0]","../img/tt/1196tt.jpg","",""
"null","<div style=""font-size:60px;""> </div>","null","fixation","html-keyboard-response","447","1413193","0.0-6.0-0.63","2811592","co38455","norming","","","","","","",""
"null","../img/tt/031tt.jpg","null","mooney1","image-keyboard-response","448","1416204","0.0-6.0-1.63","2811592","co38455","norming","","","","","","",""
"4816.464999999851","","","post_mooney1_questions","survey-likert","449","1421023","0.0-6.0-2.63","2811592","co38455","norming","","","{""curiosity"":4,""confidence"":2}","[0,1]","../img/tt/031tt.jpg","",""
"2453.8849999997765","","","recognition","survey-text","450","1423479","0.0-6.0-3.63","2811592","co38455","norming","","","{""guess"":""koe""}","","../img/tt/031tt.jpg","",""
"null","../img/gs/031gs.jpg","null","reveal","image-keyboard-response","451","1425485","0.0-6.0-4.63","2811592","co38455","norming","","","","","","",""
"null","../img/tt/031tt.jpg","null","mooney2","image-keyboard-response","452","1427490","0.0-6.0-5.63","2811592","co38455","norming","","","","","","",""
"2634.589999999618","","","post_reveal_questions","survey-likert","453","1430127","0.0-6.0-6.63","2811592","co38455","norming","","","{""aha"":5}","[0]","../img/tt/031tt.jpg","",""
"null","<div style=""font-size:60px;""> </div>","null","fixation","html-keyboard-response","454","1430329","0.0-6.0-0.64","2811592","co38455","norming","","","","","","",""
"null","../img/tt/1241tt.jpg","null","mooney1","image-keyboard-response","455","1433337","0.0-6.0-1.64","2811592","co38455","norming","","","","","","",""
"5979.545000000158","","","post_mooney1_questions","survey-likert","456","1439319","0.0-6.0-2.64","2811592","co38455","norming","","","{""curiosity"":5,""confidence"":2}","[0,1]","../img/tt/1241tt.jpg","",""
"1790.100000000326","","","recognition","survey-text","457","1441111","0.0-6.0-3.64","2811592","co38455","norming","","","{""guess"":""markt""}","","../img/tt/1241tt.jpg","",""
"null","../img/gs/1241gs.jpg","null","reveal","image-keyboard-response","458","1443121","0.0-6.0-4.64","2811592","co38455","norming","","","","","","",""
"null","../img/tt/1241tt.jpg","null","mooney2","image-keyboard-response","459","1445132","0.0-6.0-5.64","2811592","co38455","norming","","","","","","",""
"4624.969999999739","","","post_reveal_questions","survey-likert","460","1449759","0.0-6.0-6.64","2811592","co38455","norming","","","{""aha"":5}","[0]","../img/tt/1241tt.jpg","",""
"null","<div style=""font-size:60px;""> </div>","null","fixation","html-keyboard-response","461","1449968","0.0-6.0-0.65","2811592","co38455","norming","","","","","","",""
"null","../img/tt/549tt.jpg","null","mooney1","image-keyboard-response","462","1452971","0.0-6.0-1.65","2811592","co38455","norming","","","","","","",""
"7265.414999999804","","","post_mooney1_questions","survey-likert","463","1460239","0.0-6.0-2.65","2811592","co38455","norming","","","{""curiosity"":5,""confidence"":1}","[0,1]","../img/tt/549tt.jpg","",""
"2982.149999999907","","","recognition","survey-text","464","1463223","0.0-6.0-3.65","2811592","co38455","norming","","","{""guess"":""gans""}","","../img/tt/549tt.jpg","",""
"null","../img/gs/549gs.jpg","null","reveal","image-keyboard-response","465","1465230","0.0-6.0-4.65","2811592","co38455","norming","","","","","","",""
"null","../img/tt/549tt.jpg","null","mooney2","image-keyboard-response","466","1467232","0.0-6.0-5.65","2811592","co38455","norming","","","","","","",""
"2949.1399999996647","","","post_reveal_questions","survey-likert","467","1470184","0.0-6.0-6.65","2811592","co38455","norming","","","{""aha"":5}","[0]","../img/tt/549tt.jpg","",""
"null","<div style=""font-size:60px;""> </div>","null","fixation","html-keyboard-response","468","1470387","0.0-6.0-0.66","2811592","co38455","norming","","","","","","",""
"null","../img/tt/1283tt.jpg","null","mooney1","image-keyboard-response","469","1473397","0.0-6.0-1.66","2811592","co38455","norming","","","","","","",""
"5263.649999999907","","","post_mooney1_questions","survey-likert","470","1478664","0.0-6.0-2.66","2811592","co38455","norming","","","{""curiosity"":5,""confidence"":2}","[0,1]","../img/tt/1283tt.jpg","",""
"1645.9349999995902","","","recognition","survey-text","471","1480312","0.0-6.0-3.66","2811592","co38455","norming","","","{""guess"":""vos""}","","../img/tt/1283tt.jpg","",""
"null","../img/gs/1283gs.jpg","null","reveal","image-keyboard-response","472","1482322","0.0-6.0-4.66","2811592","co38455","norming","","","","","","",""
"null","../img/tt/1283tt.jpg","null","mooney2","image-keyboard-response","473","1484326","0.0-6.0-5.66","2811592","co38455","norming","","","","","","",""
"3720.9999999995343","","","post_reveal_questions","survey-likert","474","1488048","0.0-6.0-6.66","2811592","co38455","norming","","","{""aha"":3}","[0]","../img/tt/1283tt.jpg","",""
"null","<div style=""font-size:60px;""> </div>","null","fixation","html-keyboard-response","475","1488252","0.0-6.0-0.67","2811592","co38455","norming","","","","","","",""
"null","../img/tt/456tt.jpg","null","mooney1","image-keyboard-response","476","1491261","0.0-6.0-1.67","2811592","co38455","norming","","","","","","",""
"6248.140000000829","","","post_mooney1_questions","survey-likert","477","1497512","0.0-6.0-2.67","2811592","co38455","norming","","","{""curiosity"":3,""confidence"":4}","[0,1]","../img/tt/456tt.jpg","",""
"2733.80999999959","","","recognition","survey-text","478","1500248","0.0-6.0-3.67","2811592","co38455","norming","","","{""guess"":""beer""}","","../img/tt/456tt.jpg","",""
"null","../img/gs/456gs.jpg","null","reveal","image-keyboard-response","479","1502257","0.0-6.0-4.67","2811592","co38455","norming","","","","","","",""
"null","../img/tt/456tt.jpg","null","mooney2","image-keyboard-response","480","1504259","0.0-6.0-5.67","2811592","co38455","norming","","","","","","",""
"3050.5100000000093","","","post_reveal_questions","survey-likert","481","1507312","0.0-6.0-6.67","2811592","co38455","norming","","","{""aha"":4}","[0]","../img/tt/456tt.jpg","",""
"null","<div style=""font-size:60px;""> </div>","null","fixation","html-keyboard-response","482","1507514","0.0-6.0-0.68","2811592","co38455","norming","","","","","","",""
"null","../img/tt/559tt.jpg","null","mooney1","image-keyboard-response","483","1510517","0.0-6.0-1.68","2811592","co38455","norming","","","","","","",""
"5511.229999999981","","","post_mooney1_questions","survey-likert","484","1516032","0.0-6.0-2.68","2811592","co38455","norming","","","{""curiosity"":4,""confidence"":2}","[0,1]","../img/tt/559tt.jpg","",""
"3750.0850000006612","","","recognition","survey-text","485","1519784","0.0-6.0-3.68","2811592","co38455","norming","","","{""guess"":""typmachine""}","","../img/tt/559tt.jpg","",""
"null","../img/gs/559gs.jpg","null","reveal","image-keyboard-response","486","1521791","0.0-6.0-4.68","2811592","co38455","norming","","","","","","",""
"null","../img/tt/559tt.jpg","null","mooney2","image-keyboard-response","487","1523798","0.0-6.0-5.68","2811592","co38455","norming","","","","","","",""
"3719.154999999795","","","post_reveal_questions","survey-likert","488","1527519","0.0-6.0-6.68","2811592","co38455","norming","","","{""aha"":5}","[0]","../img/tt/559tt.jpg","",""
"null","<div style=""font-size:60px;""> </div>","null","fixation","html-keyboard-response","489","1527720","0.0-6.0-0.69","2811592","co38455","norming","","","","","","",""
"null","../img/tt/329tt.jpg","null","mooney1","image-keyboard-response","490","1530725","0.0-6.0-1.69","2811592","co38455","norming","","","","","","",""
"5486.97499999986","","","post_mooney1_questions","survey-likert","491","1536215","0.0-6.0-2.69","2811592","co38455","norming","","","{""curiosity"":5,""confidence"":1}","[0,1]","../img/tt/329tt.jpg","",""
"2158.06500000041","","","recognition","survey-text","492","1538375","0.0-6.0-3.69","2811592","co38455","norming","","","{""guess"":""muizen""}","","../img/tt/329tt.jpg","",""
"null","../img/gs/329gs.jpg","null","reveal","image-keyboard-response","493","1540381","0.0-6.0-4.69","2811592","co38455","norming","","","","","","",""
"null","../img/tt/329tt.jpg","null","mooney2","image-keyboard-response","494","1542382","0.0-6.0-5.69","2811592","co38455","norming","","","","","","",""
"2496.420000000391","","","post_reveal_questions","survey-likert","495","1544879","0.0-6.0-6.69","2811592","co38455","norming","","","{""aha"":5}","[0]","../img/tt/329tt.jpg","",""
"null","<div style=""font-size:60px;""> </div>","null","fixation","html-keyboard-response","496","1545091","0.0-6.0-0.70","2811592","co38455","norming","","","","","","",""
"null","../img/tt/1033tt.jpg","null","mooney1","image-keyboard-response","497","1548100","0.0-6.0-1.70","2811592","co38455","norming","","","","","","",""
"4193.760000000009","","","post_mooney1_questions","survey-likert","498","1552295","0.0-6.0-2.70","2811592","co38455","norming","","","{""curiosity"":5,""confidence"":1}","[0,1]","../img/tt/1033tt.jpg","",""
"2830.100000000093","","","recognition","survey-text","499","1555127","0.0-6.0-3.70","2811592","co38455","norming","","","{""guess"":""dirigent""}","","../img/tt/1033tt.jpg","",""
"null","../img/gs/1033gs.jpg","null","reveal","image-keyboard-response","500","1557129","0.0-6.0-4.70","2811592","co38455","norming","","","","","","",""
"null","../img/tt/1033tt.jpg","null","mooney2","image-keyboard-response","501","1559136","0.0-6.0-5.70","2811592","co38455","norming","","","","","","",""
"2716.6100000003353","","","post_reveal_questions","survey-likert","502","1561855","0.0-6.0-6.70","2811592","co38455","norming","","","{""aha"":5}","[0]","../img/tt/1033tt.jpg","",""
"null","<div style=""font-size:60px;""> </div>","null","fixation","html-keyboard-response","503","1562061","0.0-6.0-0.71","2811592","co38455","norming","","","","","","",""
"null","../img/tt/1228tt.jpg","null","mooney1","image-keyboard-response","504","1565069","0.0-6.0-1.71","2811592","co38455","norming","","","","","","",""
"4142.864999999758","","","post_mooney1_questions","survey-likert","505","1569215","0.0-6.0-2.71","2811592","co38455","norming","","","{""curiosity"":1,""confidence"":5}","[0,1]","../img/tt/1228tt.jpg","",""
"2470.2299999999814","","","recognition","survey-text","506","1571687","0.0-6.0-3.71","2811592","co38455","norming","","","{""guess"":""vogel""}","","../img/tt/1228tt.jpg","",""
"null","../img/gs/1228gs.jpg","null","reveal","image-keyboard-response","507","1573694","0.0-6.0-4.71","2811592","co38455","norming","","","","","","",""
"null","../img/tt/1228tt.jpg","null","mooney2","image-keyboard-response","508","1575696","0.0-6.0-5.71","2811592","co38455","norming","","","","","","",""
"3292.9850000001024","","","post_reveal_questions","survey-likert","509","1578991","0.0-6.0-6.71","2811592","co38455","norming","","","{""aha"":4}","[0]","../img/tt/1228tt.jpg","",""
"null","<div style=""font-size:60px;""> </div>","null","fixation","html-keyboard-response","510","1579193","0.0-6.0-0.72","2811592","co38455","norming","","","","","","",""
"null","../img/tt/078tt.jpg","null","mooney1","image-keyboard-response","511","1582203","0.0-6.0-1.72","2811592","co38455","norming","","","","","","",""
"3352.635000000242","","","post_mooney1_questions","survey-likert","512","1585559","0.0-6.0-2.72","2811592","co38455","norming","","","{""curiosity"":1,""confidence"":5}","[0,1]","../img/tt/078tt.jpg","",""
"3406.6100000001024","","","recognition","survey-text","513","1588966","0.0-6.0-3.72","2811592","co38455","norming","","","{""guess"":""tros druiven""}","","../img/tt/078tt.jpg","",""
"null","../img/gs/078gs.jpg","null","reveal","image-keyboard-response","514","1590976","0.0-6.0-4.72","2811592","co38455","norming","","","","","","",""
"null","../img/tt/078tt.jpg","null","mooney2","image-keyboard-response","515","1592977","0.0-6.0-5.72","2811592","co38455","norming","","","","","","",""
"6346.570000000764","","","post_reveal_questions","survey-likert","516","1599327","0.0-6.0-6.72","2811592","co38455","norming","","","{""aha"":1}","[0]","../img/tt/078tt.jpg","",""
"null","<div style=""font-size:60px;""> </div>","null","fixation","html-keyboard-response","517","1599528","0.0-6.0-0.73","2811592","co38455","norming","","","","","","",""
"null","../img/tt/1171tt.jpg","null","mooney1","image-keyboard-response","518","1602538","0.0-6.0-1.73","2811592","co38455","norming","","","","","","",""
"5409.494999999879","","","post_mooney1_questions","survey-likert","519","1607951","0.0-6.0-2.73","2811592","co38455","norming","","","{""curiosity"":4,""confidence"":2}","[0,1]","../img/tt/1171tt.jpg","",""
"2726.1999999999534","","","recognition","survey-text","520","1610678","0.0-6.0-3.73","2811592","co38455","norming","","","{""guess"":""beer""}","","../img/tt/1171tt.jpg","",""
"null","../img/gs/1171gs.jpg","null","reveal","image-keyboard-response","521","1612688","0.0-6.0-4.73","2811592","co38455","norming","","","","","","",""
"null","../img/tt/1171tt.jpg","null","mooney2","image-keyboard-response","522","1614697","0.0-6.0-5.73","2811592","co38455","norming","","","","","","",""
"3634.5149999998976","","","post_reveal_questions","survey-likert","523","1618334","0.0-6.0-6.73","2811592","co38455","norming","","","{""aha"":5}","[0]","../img/tt/1171tt.jpg","",""
"null","<div style=""font-size:60px;""> </div>","null","fixation","html-keyboard-response","524","1618535","0.0-6.0-0.74","2811592","co38455","norming","","","","","","",""
"null","../img/tt/040tt.jpg","null","mooney1","image-keyboard-response","525","1621545","0.0-6.0-1.74","2811592","co38455","norming","","","","","","",""
"5058.815000000177","","","post_mooney1_questions","survey-likert","526","1626607","0.0-6.0-2.74","2811592","co38455","norming","","","{""curiosity"":4,""confidence"":2}","[0,1]","../img/tt/040tt.jpg","",""
"2373.9850000001024","","","recognition","survey-text","527","1628982","0.0-6.0-3.74","2811592","co38455","norming","","","{""guess"":""giraf""}","","../img/tt/040tt.jpg","",""
"null","../img/gs/040gs.jpg","null","reveal","image-keyboard-response","528","1630987","0.0-6.0-4.74","2811592","co38455","norming","","","","","","",""
"null","../img/tt/040tt.jpg","null","mooney2","image-keyboard-response","529","1632997","0.0-6.0-5.74","2811592","co38455","norming","","","","","","",""
"2606.9799999995157","","","post_reveal_questions","survey-likert","530","1635606","0.0-6.0-6.74","2811592","co38455","norming","","","{""aha"":5}","[0]","../img/tt/040tt.jpg","",""
"null","<div style=""font-size:60px;""> </div>","null","fixation","html-keyboard-response","531","1635808","0.0-6.0-0.75","2811592","co38455","norming","","","","","","",""
"null","../img/tt/412tt.jpg","null","mooney1","image-keyboard-response","532","1638818","0.0-6.0-1.75","2811592","co38455","norming","","","","","","",""
"5049.385000000242","","","post_mooney1_questions","survey-likert","533","1643871","0.0-6.0-2.75","2811592","co38455","norming","","","{""curiosity"":1,""confidence"":5}","[0,1]","../img/tt/412tt.jpg","",""
"5254.285000000149","","","recognition","survey-text","534","1649128","0.0-6.0-3.75","2811592","co38455","norming","","","{""guess"":""smoothiemixer""}","","../img/tt/412tt.jpg","",""
"null","../img/gs/412gs.jpg","null","reveal","image-keyboard-response","535","1651130","0.0-6.0-4.75","2811592","co38455","norming","","","","","","",""
"null","../img/tt/412tt.jpg","null","mooney2","image-keyboard-response","536","1653133","0.0-6.0-5.75","2811592","co38455","norming","","","","","","",""
"2992.035000000382","","","post_reveal_questions","survey-likert","537","1656128","0.0-6.0-6.75","2811592","co38455","norming","","","{""aha"":5}","[0]","../img/tt/412tt.jpg","",""
"null","<div style=""font-size:60px;""> </div>","null","fixation","html-keyboard-response","538","1656330","0.0-6.0-0.76","2811592","co38455","norming","","","","","","",""
"null","../img/tt/1004tt.jpg","null","mooney1","image-keyboard-response","539","1659331","0.0-6.0-1.76","2811592","co38455","norming","","","","","","",""
"3625.935000000056","","","post_mooney1_questions","survey-likert","540","1662960","0.0-6.0-2.76","2811592","co38455","norming","","","{""curiosity"":3,""confidence"":4}","[0,1]","../img/tt/1004tt.jpg","",""
"1798.2599999995437","","","recognition","survey-text","541","1664760","0.0-6.0-3.76","2811592","co38455","norming","","","{""guess"":""koe""}","","../img/tt/1004tt.jpg","",""
"null","../img/gs/1004gs.jpg","null","reveal","image-keyboard-response","542","1666762","0.0-6.0-4.76","2811592","co38455","norming","","","","","","",""
"null","../img/tt/1004tt.jpg","null","mooney2","image-keyboard-response","543","1668765","0.0-6.0-5.76","2811592","co38455","norming","","","","","","",""
"2465.869999999879","","","post_reveal_questions","survey-likert","544","1671232","0.0-6.0-6.76","2811592","co38455","norming","","","{""aha"":5}","[0]","../img/tt/1004tt.jpg","",""
"null","<div style=""font-size:60px;""> </div>","null","fixation","html-keyboard-response","545","1671434","0.0-6.0-0.77","2811592","co38455","norming","","","","","","",""
"null","../img/tt/1066tt.jpg","null","mooney1","image-keyboard-response","546","1674437","0.0-6.0-1.77","2811592","co38455","norming","","","","","","",""
"4161.8650000002235","","","post_mooney1_questions","survey-likert","547","1678600","0.0-6.0-2.77","2811592","co38455","norming","","","{""curiosity"":0,""confidence"":6}","[0,1]","../img/tt/1066tt.jpg","",""
"1326.130000000354","","","recognition","survey-text","548","1679928","0.0-6.0-3.77","2811592","co38455","norming","","","{""guess"":""bus""}","","../img/tt/1066tt.jpg","",""
"null","../img/gs/1066gs.jpg","null","reveal","image-keyboard-response","549","1681930","0.0-6.0-4.77","2811592","co38455","norming","","","","","","",""
"null","../img/tt/1066tt.jpg","null","mooney2","image-keyboard-response","550","1683938","0.0-6.0-5.77","2811592","co38455","norming","","","","","","",""
"2883.565000000177","","","post_reveal_questions","survey-likert","551","1686824","0.0-6.0-6.77","2811592","co38455","norming","","","{""aha"":0}","[0]","../img/tt/1066tt.jpg","",""
